time,seconds_elapsed,z,y,x
1783169143106372400,0.270372314453125,-0.001172306016087532,-0.0009175906889140606,0.0012324308045208454
1783169143116321300,0.2803212890625,-0.00028395652770996094,0.001430584117770195,-0.0016338569112122059
1783169143126270200,0.290270263671875,-0.0010019447654485703,-0.0003840937279164791,0.0010002758353948593
1783169143136219100,0.30021923828125,0.002004077658057213,-0.0002549230121076107,-0.002609933726489544
1783169143146198300,0.3101982421875,0.0008053891360759735,-0.0011931550689041615,0.0014074444770812988
1783169143156147200,0.320147216796875,-0.00024991296231746674,-0.00009260885417461395,-0.0012835301458835602
1783169143166095400,0.330095458984375,0.0008710119873285294,0.0003276378847658634,0.0003484548069536686
1783169143176044300,0.340044189453125,-0.0007657259702682495,-0.0004588691517710686,-0.0013299151323735714
1783169143186023200,0.350023193359375,-0.00021738186478614807,-0.0010333131067454815,0.0005609290674328804
1783169143195972000,0.35997216796875,-0.00011894106864929199,-0.00016185129061341286,-0.0008840560913085938
1783169143205921300,0.36992138671875,0.0008528456091880798,-0.0010761143639683723,0.00005417549982666969
1783169143215870500,0.379870361328125,-0.0007845647633075714,-0.002128787338733673,-0.0011599492281675339
1783169143225849300,0.389849365234375,0.000005861744284629822,0.0002560736611485481,0.000783892348408699
1783169143235797500,0.399797607421875,-0.00013924576342105865,-0.0013918890617787838,-0.0008986610919237137
1783169143245746400,0.409746337890625,0.000447714701294899,0.0007101441733539104,0.0004004291258752346
1783169143255725300,0.419725341796875,-0.0006088074296712875,0.0005080723203718662,0.0002372516319155693
1783169143265674200,0.42967431640625,-0.00022264942526817322,0.0010273889638483524,-0.0011582449078559875
1783169143275623400,0.43962353515625,-0.0008368249982595444,-0.00012469477951526642,0.000334989745169878
1783169143285572400,0.449572265625,-0.001324184238910675,-0.0007060626521706581,0.0013800142332911491
1783169143295551200,0.45955126953125,-0.0015627536922693253,-0.0013934243470430374,0.0005019698292016983
1783169143305500200,0.469500244140625,-0.0009550191462039948,0.0004558744840323925,-0.00011694896966218948
1783169143315448300,0.4794482421875,0.00013850070536136627,0.000692224595695734,0.0005708285607397556
1783169143325397200,0.489397216796875,0.0005875099450349808,-0.001416732557117939,0.0015034675598144531
1783169143335376400,0.49937646484375,-0.001206330955028534,0.001258603297173977,-0.00010725809261202812
1783169143345325300,0.5093251953125,-0.0011277683079242706,-0.0009491569362580776,0.0004338962025940418
1783169143355274200,0.519274169921875,-0.00037594884634017944,-0.0008355076424777508,0.0014493674971163273
1783169143365223400,0.529223388671875,-0.002116590738296509,-0.0013590850867331028,0.00047544995322823524
1783169143375202300,0.539202392578125,-0.00042590871453285217,0.00005489354953169823,-0.0011401954106986523
1783169143385151500,0.5491513671875,-0.00018116459250450134,0.0008977842517197132,0.0003764745779335499
1783169143395099400,0.559099365234375,0.0006230790168046951,0.0006112055853009224,-0.00027514854446053505
1783169143405078300,0.569078369140625,-0.00014417804777622223,0.0005661984905600548,0.0003640097565948963
1783169143415027500,0.57902734375,0.0008756034076213837,-0.0005552200600504875,0.0002830349840223789
1783169143424976400,0.588976318359375,0.0007770657539367676,-0.0006798561662435532,-0.0009673186577856541
1783169143434925300,0.59892529296875,-0.0003602132201194763,0.0008850796148180962,-0.0014336793683469296
1783169143444904400,0.608904541015625,0.0009079836308956146,-0.0005333200097084045,0.000020406674593687057
1783169143454853400,0.618853271484375,-0.00004182755947113037,-0.0002971673384308815,-0.0007038554176688194
1783169143464801300,0.62880126953125,0.0007858835160732269,-0.0002566874027252197,-0.0012125195935368538
1783169143474750200,0.638750244140625,-0.0001783333718776703,-0.000947325024753809,-0.0009045801125466824
1783169143484729300,0.648729248046875,0.0003215428441762924,0.000957101583480835,0.00036654621362686157
1783169143494678300,0.65867822265625,-0.0005328767001628876,0.0000418834388256073,-0.00037008989602327347
1783169143504627200,0.668627197265625,0.0005688723176717758,0.0013417722657322884,-0.0006758207455277443
1783169143514576100,0.678576171875,0.0012853443622589111,-0.00024067610502243042,0.00028617028146982193
1783169143524555300,0.68855517578125,0.0025428887456655502,-0.0011940877884626389,-0.0021958956494927406
1783169143534504200,0.698504150390625,0.00018866173923015594,-0.0010120184160768986,-0.0005430029705166817
1783169143544452000,0.7084521484375,-0.00195438414812088,-0.0009198733605444431,-0.00007987953722476959
1783169143554432500,0.7184326171875,0.00019255094230175018,-0.001265710685402155,-0.0005015474744141102
1783169143564380400,0.72838037109375,-0.0018626097589731216,0.0015942580066621304,0.002453762572258711
1783169143574329300,0.738329345703125,-0.001797536388039589,-0.000762423500418663,-0.00041887303814291954
1783169143584278300,0.7482783203125,-0.001786084845662117,-0.002921448089182377,-0.0004305909387767315
1783169143594257400,0.75825732421875,-0.0017711613327264786,-0.00046455487608909607,-0.001299913041293621
1783169143604206300,0.768206298828125,-0.00043425336480140686,0.0007799402810633183,-0.0015965895727276802
1783169143614154200,0.778154296875,-0.0013903602957725525,-0.0008048918098211288,0.00018872413784265518
1783169143624103400,0.788103515625,0.0019561685621738434,-0.001837399322539568,0.0003221486695110798
1783169143634082300,0.798082275390625,-0.0006739571690559387,0.00010141544044017792,-0.0004023173823952675
1783169143644031200,0.80803125,-0.0009842142462730408,-0.001495682168751955,0.0012770718894898891
1783169143653980200,0.817980224609375,-0.0000369735062122345,0.0007253307849168777,0.00009665545076131821
1783169143663929300,0.827929443359375,0.0019795726984739304,-0.0010573891922831535,-0.0007480992935597897
1783169143673908200,0.837908203125,-0.0007884223014116287,0.0009090760722756386,-0.0002836771309375763
1783169143683857200,0.847857177734375,-0.0000816192477941513,0.000821458175778389,0.0006319181993603706
1783169143693805300,0.857805419921875,-0.0013630874454975128,-0.0016166679561138153,0.0002515171654522419
1783169143703785200,0.86778515625,0.00002335384488105774,-0.0010265116579830647,-0.0008587543852627277
1783169143713733000,0.877733154296875,-0.0009941644966602325,-0.00005698390305042267,0.00018147705122828484
1783169143723682300,0.887682373046875,-0.00038110464811325073,-0.0015845727175474167,-0.0014334633015096188
1783169143733631500,0.897631591796875,0.001087285578250885,-0.00045688170939683914,0.0027311467565596104
1783169143743610400,0.9076103515625,-0.001239517703652382,-0.0005721962079405785,-0.0007528001442551613
1783169143753559300,0.917559326171875,-0.000009987503290176392,0.00015052827075123787,-0.00027074338868260384
1783169143763507500,0.927507568359375,-0.0006970837712287903,0.0001497296616435051,-0.0024225772358477116
1783169143773456400,0.937456298828125,0.0005454029887914658,-0.0002460964024066925,-0.00007808627560734749
1783169143783435300,0.947435302734375,-0.0017603617161512375,-0.0018272153101861477,0.001423936802893877
1783169143793384200,0.95738427734375,0.000015605241060256958,-0.0010481690987944603,-0.0007675718516111374
1783169143803333400,0.96733349609375,-0.00007680803537368774,-0.00033577345311641693,0.000010337680578231812
1783169143813282300,0.9772822265625,0.0011963192373514175,0.0012477426789700985,0.0000012479722499847412
1783169143823261200,0.98726123046875,-0.00024658069014549255,0.0002224259078502655,-0.0002996893599629402
1783169143833210000,0.997210205078125,0.0011529140174388885,0.00008872756734490395,-0.0023924061097204685
1783169143843158300,1.007158203125,-0.0005224812775850296,0.0004301448352634907,-0.0001622750423848629
1783169143853107200,1.017107177734375,-0.0005074162036180496,0.0010538441129028797,-0.0010767304338514805
1783169143863086300,1.02708642578125,-0.00099264457821846,-0.00009610876441001892,-0.0011486359871923923
1783169143873035300,1.03703515625,-0.0011060945689678192,0.00046194111928343773,-0.00023788213729858398
1783169143882984400,1.046984375,-0.0002434961497783661,-0.0010597887448966503,-0.002060282975435257
1783169143892963300,1.05696337890625,0.00047653354704380035,-0.001805332489311695,-0.00003339489921927452
1783169143902951700,1.06695166015625,-0.00045690499246120453,0.0006271987222135067,0.0012409277260303497
1783169143912899800,1.07689990234375,-0.0001417342573404312,0.0012066308408975601,-0.0014203558675944805
1783169143922848800,1.086848876953125,0.0010905098170042038,-0.0006959317252039909,0.00034318957477808
1783169143932827600,1.09682763671875,0.0009422264993190765,-0.0005867443978786469,0.0000028586946427822113
1783169143942776600,1.106776611328125,-0.0010679271072149277,0.001353634987026453,-0.0024307374842464924
1783169143952725800,1.116725830078125,-0.000900590792298317,0.0011284626089036465,-0.00159364752471447
1783169143962674700,1.1266748046875,0.0010224785655736923,-0.00007315585389733315,0.0002982616424560547
1783169143972653600,1.136653564453125,-0.0012591835111379623,0.001605452038347721,0.000463737640529871
1783169143982602500,1.1466025390625,0.00006307661533355713,-0.0009085722267627716,0.000223520677536726
1783169143992550700,1.156550537109375,0.000053804367780685425,-0.0001478833146393299,0.0011808979324996471
1783169144002499600,1.16649951171875,0.0011877790093421936,0.0005445382557809353,0.0008570575155317783
1783169144012478500,1.176478515625,-0.00024494901299476624,0.0006972327828407288,-0.001252924557775259
1783169144022427600,1.186427734375,-0.0016164761036634445,0.001963033340871334,0.0008922512643039227
1783169144032376600,1.19637646484375,-0.0006841495633125305,-0.00002603558823466301,-0.0026688375510275364
1783169144042355500,1.20635546875,-0.001540888100862503,0.00014067813754081726,-0.000011801719665527344
1783169144052304400,1.216304443359375,0.00041283853352069855,-0.0010575596243143082,-0.0013466700911521912
1783169144062253800,1.22625390625,0.0003188289701938629,-0.0015369285829365253,-0.0012859506532549858
1783169144072201700,1.23620166015625,-0.0006455183029174805,0.0017560753040015697,-0.00037512602284550667
1783169144082180900,1.246180908203125,-0.0007970519363880157,0.000035140663385391235,-0.0009567602537572384
1783169144092129800,1.2561298828125,0.0011085961014032364,0.001707036979496479,-0.0010982183739542961
1783169144102078700,1.26607861328125,0.00047076866030693054,0.0008814572356641293,-0.000887562520802021
1783169144112027600,1.276027587890625,0.0010418891906738281,0.0001456327736377716,0.0015453905798494816
1783169144122006500,1.286006591796875,-0.0017845220863819122,0.0008708112873136997,0.0004987684078514576
1783169144131955700,1.295955810546875,0.0009094122797250748,-0.00025537656620144844,-0.0002637607976794243
1783169144141903600,1.305903564453125,-0.0009532012045383453,-0.0013454081490635872,0.00040549179539084435
1783169144151852500,1.3158525390625,0.0010910425335168839,-0.0004778173752129078,-0.0008598733693361282
1783169144161831700,1.325831787109375,0.0004217904061079025,-0.0002964558079838753,0.000532960519194603
1783169144171780600,1.335780517578125,0.0005876868963241577,-0.000428101047873497,0.00044486019760370255
1783169144181729500,1.3457294921875,-0.000009659677743911743,-0.0004941471852362156,-0.000008942559361457825
1783169144191708700,1.355708740234375,-0.0005459971725940704,-0.0018645583186298609,0.0015960433520376682
1783169144201657600,1.36565771484375,-0.001831505447626114,-0.0005345754325389862,-0.0008988059125840664
1783169144211606800,1.375606689453125,0.0009994320571422577,0.0022071413695812225,-0.00010279985144734383
1783169144221554400,1.385554443359375,0.0010934416204690933,-0.0015183547511696815,-0.0018048263154923916
1783169144231534600,1.39553466796875,-0.0006578732281923294,0.0016017695888876915,-0.0013923132792115211
1783169144241482800,1.405482666015625,-0.0003124605864286423,0.0011178730055689812,-0.0022937925532460213
1783169144251431700,1.415431640625,0.0020436495542526245,0.0008979360572993755,-0.0006460682488977909
1783169144261380600,1.425380615234375,0.00007264502346515656,0.001900083851069212,-0.0009683105163276196
1783169144271359700,1.43535986328125,0.000264165922999382,0.0014528781175613403,-0.00035169580951333046
1783169144281308700,1.44530859375,-0.0012687500566244125,0.00011490564793348312,-0.0014262818731367588
1783169144291256600,1.455256591796875,0.0004960894584655762,-0.00021862098947167397,0.00031383801251649857
1783169144301205800,1.465205810546875,-0.0009481422603130341,-0.001828235574066639,-0.0004515545442700386
1783169144311184600,1.4751845703125,-0.00039159879088401794,0.0015190504491329193,-0.00014730170369148254
1783169144321133600,1.485133544921875,0.00036473944783210754,-0.0003121388144791126,-0.00021228287369012833
1783169144331082500,1.49508251953125,-0.00010126642882823944,-0.0008514700457453728,-0.0013370211236178875
1783169144341031400,1.505031494140625,0.00010060146450996399,-0.0007627867162227631,-0.0006334143690764904
1783169144351010600,1.515010498046875,-0.0002161022275686264,0.00008685840293765068,-0.0012050117366015911
1783169144360959500,1.52495947265625,-0.0006509963423013687,-0.00029743602499365807,-0.0020750663243234158
1783169144370907600,1.53490771484375,-0.0025114528834819794,-0.0008009234443306923,0.0008956142701208591
1783169144380887600,1.544887451171875,0.0004281438887119293,0.0013335999101400375,0.00007056724280118942
1783169144390835500,1.55483544921875,0.0007413830608129501,-0.0006727348081767559,0.0011761575005948544
1783169144400784600,1.56478466796875,0.0013568401336669922,0.0004953276365995407,0.00009970786049962044
1783169144410733800,1.57473388671875,-0.0010719317942857742,-0.0017646662890911102,-0.0002714209258556366
1783169144420712700,1.584712646484375,-0.00010147690773010254,0.000864140223711729,0.00008624140173196793
1783169144430661600,1.59466162109375,0.0010858196765184402,0.0007838308811187744,-0.002905983943492174
1783169144440609800,1.60460986328125,-0.00016506575047969818,-0.0030593767296522856,-0.0014684093184769154
1783169144450558700,1.614558837890625,-0.00002572685480117798,0.0008650850504636765,-0.0011669849045574665
1783169144460537600,1.62453759765625,0.00007733702659606934,0.002567111514508724,-0.001043414231389761
1783169144470486500,1.634486572265625,0.00169270858168602,-0.0014321794733405113,0.0005628750659525394
1783169144480435700,1.644435791015625,-0.00009746849536895752,0.000874384306371212,0.001200702041387558
1783169144490384600,1.654384521484375,-0.0011645257472991943,-0.00026855990290641785,-0.00032849889248609543
1783169144500363500,1.664363525390625,0.0010397713631391525,-0.00018919771537184715,-0.0013381028547883034
1783169144510312400,1.6743125,-0.0003059878945350647,-0.003859882475808263,0.0032347538508474827
1783169144520260600,1.684260498046875,0.00020347535610198975,0.0017221029847860336,-0.0002822168171405792
1783169144530240500,1.694240478515625,-0.0001721903681755066,0.0014933054335415363,-0.0008582877926528454
1783169144540188700,1.704188720703125,-0.0006419718265533447,-0.0022977041080594063,0.0014879568479955196
1783169144550137600,1.7141376953125,0.000007482245564460754,0.0006238934583961964,0.00003173248842358589
1783169144560086800,1.724086669921875,0.000006416812539100647,-0.0004988950677216053,-0.0014500506222248077
1783169144570065700,1.734065673828125,-0.0010208766907453537,0.0022498518228530884,-0.0010015717707574368
1783169144580014600,1.7440146484375,0.00006010010838508606,0.0011872504837810993,-0.001027671154588461
1783169144589962800,1.753962646484375,0.00046455487608909607,0.000713542103767395,-0.00325765460729599
1783169144599911700,1.76391162109375,0.0011473894119262695,0.0006504254415631294,-0.0009494936093688011
1783169144609890800,1.773890869140625,-0.000285150483250618,-0.00009543029591441154,-0.002396504394710064
1783169144619839700,1.78383984375,-0.00009872764348983765,0.00018260348588228226,-0.0033443234860897064
1783169144629788700,1.79378857421875,-0.0001127198338508606,0.0012520798482000828,-0.0027914992533624172
1783169144639737600,1.803737548828125,-0.00020007044076919556,-0.0012931032106280327,-0.0014002644456923008
1783169144649716700,1.813716796875,-0.0002272389829158783,0.0005482099950313568,-0.000006549060344696045
1783169144659665700,1.823665771484375,-0.0008703935891389847,0.00040200259536504745,-0.0014406614936888218
1783169144669613600,1.833613525390625,-0.0003680717200040817,-0.00016533862799406052,-0.0003795912489295006
1783169144679593500,1.843593505859375,-0.0006959065794944763,-0.0006529632955789566,0.0018260381184518337
1783169144689541600,1.853541748046875,0.0003764946013689041,-0.00041429558768868446,-0.0003381231799721718
1783169144699490600,1.863490478515625,-0.0008642729371786118,0.0003023608587682247,0.0007689530029892921
1783169144709439500,1.873439453125,-0.0007603801786899567,0.0017470293678343296,0.0013772998936474323
1783169144719418600,1.883418701171875,-0.0005944669246673584,-0.001307616475969553,0.0004515852779150009
1783169144729367800,1.893367919921875,0.0010233856737613678,0.00011082692071795464,0.0004584542475640774
1783169144739315500,1.9033154296875,-0.0010128673166036606,-0.00005775131285190582,-0.00022890791296958923
1783169144749264600,1.9132646484375,-0.00024629198014736176,-0.000637332908809185,-0.000539176631718874
1783169144759243800,1.923243896484375,0.0006911419332027435,0.0021589864045381546,-0.0009903167374432087
1783169144769192700,1.933192626953125,-0.00018952228128910065,0.0009119589813053608,-0.0029369648545980453
1783169144779141600,1.9431416015625,0.0009263418614864349,-0.0007242872379720211,-0.0006210803985595703
1783169144789090600,1.953090576171875,0.0006282981485128403,-0.0016552046872675419,0.00040927669033408165
1783169144799069700,1.963069580078125,0.0003760959953069687,-0.0004948657006025314,-0.0004157708026468754
1783169144809018600,1.9730185546875,0.0005632564425468445,0.000988601241260767,-0.0005602110177278519
1783169144818966500,1.982966552734375,-0.0007874984294176102,-0.001101447269320488,-0.002132807858288288
1783169144828915700,1.992915771484375,0.0018577724695205688,-0.0003845435567200184,-0.0011064903810620308
1783169144838894600,2.00289453125,0.0020244866609573364,0.0020431941375136375,0.001328437589108944
1783169144848843500,2.012843505859375,0.0027686692774295807,0.00017424114048480988,-0.0006868075579404831
1783169144858792400,2.02279248046875,0.0016464125365018845,0.004114388022571802,-0.001986430026590824
1783169144868771600,2.032771484375,0.0010449234396219254,0.00024994369596242905,-0.001011681742966175
1783169144878720500,2.042720458984375,-0.0003521721810102463,-0.0012049409560859203,-0.0005645370110869408
1783169144888669700,2.052669677734375,-0.0006947442889213562,-0.0005684108473360538,-0.0004955586045980453
1783169144898640100,2.06264013671875,0.0009167343378067017,-0.00011167861521244049,0.00036384398117661476
1783169144908619300,2.072619384765625,-0.0004322752356529236,-0.0003373133949935436,0.0007058549672365189
1783169144918568200,2.082568115234375,-0.000012561678886413574,-0.00034876493737101555,0.0012230412103235722
1783169144928517000,2.09251708984375,0.0022411048412323,0.0000013150274753570557,0.00174386752769351
1783169144938466000,2.102466064453125,-0.0017666872590780258,-0.0041422974318265915,-0.0004359297454357147
1783169144948445200,2.112445068359375,-0.0004479065537452698,0.0003622886724770069,-0.00046654511243104935
1783169144958394000,2.12239404296875,0.00041149556636810303,-0.0029115353245288134,-0.0010551037266850471
1783169144968342000,2.132342041015625,0.001355750486254692,-0.0007072952575981617,-0.0008092187345027924
1783169144978291000,2.142291015625,-0.00025839172303676605,-0.0015885354951024055,-0.00019456073641777039
1783169144988270000,2.15227001953125,0.0003642179071903229,0.0008545783348381519,-0.00021045375615358353
1783169144998219000,2.162218994140625,-0.0007969215512275696,-0.0004583601839840412,0.0000023329630494117737
1783169145008168200,2.172168212890625,-0.0007670335471630096,0.002451907843351364,-0.0020712707191705704
1783169145018147300,2.182147216796875,-0.0009185671806335449,-0.0004301648586988449,-0.0008605979382991791
1783169145028096300,2.19209619140625,0.00001216307282447815,0.0007611666806042194,-0.0016103656962513924
1783169145038045200,2.202045166015625,0.0017826315015554428,-0.00021594716235995293,-0.00043138395994901657
1783169145047993000,2.2119931640625,0.000713719055056572,-0.00045902887359261513,-0.00121387280523777
1783169145057973200,2.22197314453125,0.0009065326303243637,0.002182560972869396,0.00024287588894367218
1783169145067921200,2.231921142578125,0.0005318541079759598,0.0006249221041798592,-0.00016997568309307098
1783169145077870000,2.2418701171875,-0.00067109614610672,0.0014598234556615353,-0.000878908671438694
1783169145087819000,2.251819091796875,0.0003690924495458603,-0.0017419732175767422,-0.0009251879528164864
1783169145097798100,2.261798095703125,0.000587737187743187,-0.0006359624676406384,0.001478581689298153
1783169145107747000,2.2717470703125,0.00041649676859378815,0.0013830624520778656,-0.0008889148011803627
1783169145117695000,2.281695068359375,-0.00015475042164325714,-0.0002625049091875553,0.00010843947529792786
1783169145127644200,2.29164404296875,-0.0003826841711997986,0.0008128359913825989,0.0015994105488061905
1783169145137623000,2.301623046875,-0.0005470011383295059,-0.0001043565571308136,-0.00018064584583044052
1783169145147572000,2.311572021484375,-0.00036039575934410095,0.0017939242534339428,-0.00015026796609163284
1783169145157521000,2.32152099609375,0.0012446921318769455,-0.001189881470054388,0.00028968602418899536
1783169145167500000,2.3315,-0.0006542280316352844,0.0007997839711606503,-0.0004136133939027786
1783169145177449200,2.34144921875,-0.0019815489649772644,-0.000012213829904794693,-0.0005499674007296562
1783169145187398100,2.351398193359375,0.0005209632217884064,0.00005254102870821953,-0.00048732664436101913
1783169145197346300,2.36134619140625,0.0009217690676450729,0.00004535028710961342,0.0004466441459953785
1783169145207326200,2.371326171875,0.0009366180747747421,0.001616775058209896,0.0003039063885807991
1783169145217274000,2.381274169921875,0.0002982579171657562,0.0008223541080951691,-0.0019254256039857864
1783169145227223000,2.39122314453125,-0.000818595290184021,0.0009914962574839592,0.0008113761432468891
1783169145237172200,2.401172119140625,-0.0009083431214094162,-0.00027270615100860596,-0.0001622755080461502
1783169145247151000,2.411151123046875,0.00035974569618701935,-0.0014346567913889885,0.001689285971224308
1783169145257100000,2.42110009765625,-0.0005779527127742767,-0.0007065488025546074,0.00036249915137887
1783169145267048200,2.431048095703125,-0.0002856161445379257,0.0005158185958862305,-0.00183075200766325
1783169145276997000,2.4409970703125,0.0019064322113990784,-0.000912967137992382,-0.0002538943663239479
1783169145286976000,2.45097607421875,-0.0000821780413389206,0.00046874675899744034,-0.00040181539952754974
1783169145296925200,2.46092529296875,0.0009612496942281723,-0.000547782052308321,0.0013625286519527435
1783169145306874000,2.4708740234375,0.0002497546374797821,0.001736537553369999,-0.0005985908210277557
1783169145316823000,2.480822998046875,0.001037783920764923,0.0025991355068981647,-0.0019261771813035011
1783169145326802000,2.490802001953125,-0.00031715817749500275,-0.0014768107794225216,-0.0002508731558918953
1783169145336751000,2.500751220703125,0.00016354210674762726,-0.0022137074265629053,-0.0005811052396893501
1783169145346699300,2.51069921875,-0.000470917671918869,0.0007670852355659008,0.0002943882718682289
1783169145356679200,2.52067919921875,-0.0012714620679616928,0.00047520268708467484,0.0000014407560229301453
1783169145366627300,2.53062744140625,-0.0005406178534030914,0.0019492590799927711,0.0005383286625146866
1783169145376576300,2.540576171875,-0.0015779193490743637,-0.0013266950845718384,0.00033246632665395737
1783169145386525200,2.550525146484375,0.0013264380395412445,0.0020075212232768536,0.0009285113774240017
1783169145396504000,2.560504150390625,-0.0005798526108264923,0.0008663567714393139,-0.0005428846925497055
1783169145406453200,2.570453369140625,0.0003024507313966751,-0.0005831415764987469,-0.0007523475214838982
1783169145416401200,2.580401123046875,0.0010484028607606888,0.0018102414906024933,-0.0011225268244743347
1783169145426350000,2.59035009765625,-0.001859668642282486,-0.002663013990968466,0.0006733611226081848
1783169145436329200,2.6003291015625,-0.0006402060389518738,0.0017610290087759495,0.0003668311983346939
1783169145446278100,2.610278076171875,0.002048412337899208,-0.00042819278314709663,-0.0006362637504935265
1783169145456227000,2.62022705078125,-0.0002179369330406189,-0.0012732138857245445,0.0018074526451528072
1783169145466176000,2.630176025390625,0.0007644891738891602,0.0010799653828144073,0.0017119869589805603
1783169145476155100,2.640155029296875,0.0003477036952972412,-0.002944337436929345,0.00125791784375906
1783169145486104000,2.65010400390625,0.0007038917392492294,-0.00007384177297353745,-0.000836201012134552
1783169145496052000,2.660052001953125,0.002159843221306801,0.00002442905679345131,0.0006969808600842953
1783169145506032000,2.6700322265625,0.000681363046169281,-0.0007690670900046825,-0.0010934621095657349
1783169145515980000,2.67997998046875,-0.0007460899651050568,0.0009510684758424759,-0.0018013305962085724
1783169145525929200,2.68992919921875,0.001258891075849533,-0.0038165918085724115,0.0008997940458357334
1783169145535878100,2.699878173828125,0.0007733982056379318,0.0012857583351433277,-0.0028446102514863014
1783169145545857300,2.709857177734375,-0.00011228583753108978,0.0007499759085476398,-0.0018882472068071365
1783169145555806200,2.71980615234375,0.0007391255348920822,-0.000048972200602293015,0.00010219961404800415
1783169145565755100,2.729755126953125,0.0010064579546451569,0.00008512940257787704,-0.00022831279784440994
1783169145575703000,2.739703125,-0.000040164217352867126,0.0016990052536129951,0.00011177267879247665
1783169145585682200,2.74968212890625,-0.0004536174237728119,0.0005879346281290054,-0.0010393708944320679
1783169145595631000,2.759631103515625,0.0009655822068452835,-0.0007476406171917915,0.000020034611225128174
1783169145605580000,2.769580078125,-0.0005692709237337112,0.0028560087084770203,-0.002213224768638611
1783169145615529000,2.779529052734375,-0.0009197443723678589,-0.0018942716997116804,-0.0015964368358254433
1783169145625508000,2.789508056640625,-0.0018363315612077713,0.0010609100572764874,-0.00022034812718629837
1783169145635457000,2.79945703125,0.0011501386761665344,-0.00016307877376675606,0.00025635771453380585
1783169145645405000,2.809405029296875,-0.00042279064655303955,-0.00037235626950860023,0.00007421616464853287
1783169145655385000,2.819385009765625,-0.0007239952683448792,-0.0030480341520160437,-0.000797702930867672
1783169145665333000,2.8293330078125,-0.0000027883797883987427,0.0017469348385930061,-0.0008704895153641701
1783169145675282200,2.8392822265625,-0.00032662786543369293,0.0016587842255830765,-0.0013458635658025742
1783169145685231000,2.849231201171875,-0.00014127977192401886,0.0004812725819647312,-0.000585983507335186
1783169145695210200,2.859210205078125,0.0006885621696710587,0.0006423937156796455,0.0016175154596567154
1783169145705159200,2.8691591796875,-0.0005992818623781204,-0.00018505984917283058,-0.00036356598138809204
1783169145715108000,2.879108154296875,0.0008414890617132187,-0.0005123624578118324,0.0016188910230994225
1783169145725056300,2.88905615234375,-0.0015222486108541489,0.0019156928174197674,0.00014704233035445213
1783169145735036200,2.8990361328125,-0.0017174594104290009,-0.0007770294323563576,-0.0003448436036705971
1783169145744984000,2.908984130859375,-0.0024117957800626755,-0.0012564747594296932,-0.00040000583976507187
1783169145754933000,2.91893310546875,0.0019869469106197357,0.000570986419916153,-0.00035872682929039
1783169145764882200,2.928882080078125,-0.0005778856575489044,0.001226280815899372,-0.0016748514026403427
1783169145774861000,2.938861083984375,-0.001855669543147087,0.0010646269656717777,-0.0009635211899876595
1783169145784810000,2.94881005859375,0.0005847178399562836,0.0016432232223451138,0.001723289955407381
1783169145794758100,2.958758056640625,0.0003642085939645767,0.0011374889872968197,0.0010074321180582047
1783169145804707000,2.96870703125,0.0010349750518798828,-0.00031664082780480385,0.0016751759685575962
1783169145814686000,2.97868603515625,0.0006496161222457886,-0.000831962563097477,0.0014253715053200722
1783169145824635100,2.98863525390625,0.00007529556751251221,-0.0011419644579291344,0.0009201597422361374
1783169145834584300,2.998584228515625,0.0005014017224311829,-0.0003725769929587841,0.0022125919349491596
1783169145844563000,3.00856298828125,-0.00021319091320037842,-0.001939941430464387,0.0004865187220275402
1783169145854512000,3.01851220703125,-0.0008142665028572083,0.001129351556301117,-0.0020227115601301193
1783169145864461000,3.0284609375,0.0008577834814786911,0.00035693123936653137,-0.0008289637044072151
1783169145874409200,3.0384091796875,0.00003619678318500519,-0.002532864920794964,-0.0001618415117263794
1783169145884389000,3.04838916015625,-0.00008083507418632507,-0.00029182713478803635,0.0013390970416367054
1783169145894337300,3.058337158203125,-0.0012214668095111847,-0.0009701340459287167,-0.002215956337749958
1783169145904302800,3.068302734375,0.00041102804243564606,0.00033298274502158165,-0.0011198539286851883
1783169145914251800,3.078251708984375,-0.0008971169590950012,0.0006429748609662056,0.0017688772641122341
1783169145924231000,3.08823095703125,0.0002710316330194473,-0.0028497849125415087,0.0007115956395864487
1783169145934179800,3.098179931640625,0.0008377525955438614,-0.0007514804601669312,-0.002139052376151085
1783169145944127700,3.108127685546875,-0.00021981261670589447,-0.0006165658123791218,0.001180646475404501
1783169145954076700,3.11807666015625,0.00024970248341560364,-0.0006418661214411259,-0.000058788806200027466
1783169145964055800,3.128055908203125,0.00038739293813705444,0.0006823427975177765,-0.0010413508862257004
1783169145974005000,3.1380048828125,-0.0005966462194919586,-0.0025222389958798885,-0.00034040678292512894
1783169145983954000,3.147953857421875,0.0005526077002286911,0.0002777576446533203,0.00033665960654616356
1783169145993933000,3.15793310546875,-0.0007933545857667923,-0.0020951188635081053,-0.0009294068440794945
1783169146003882000,3.167882080078125,-0.0000591520220041275,-0.00052682776004076,0.001085516531020403
1783169146013831000,3.177830810546875,-0.0008956491947174072,-0.000784887932240963,-0.00033741071820259094
1783169146023778800,3.18777880859375,0.000025656074285507202,-0.004055749159306288,-0.001064102165400982
1783169146033759000,3.197759033203125,0.00030821748077869415,0.00032435217872262,0.0005851932801306248
1783169146043707000,3.207706787109375,0.000934995710849762,-0.0015298007056117058,0.0006258683279156685
1783169146053655800,3.21765576171875,0.0011781416833400726,0.0006662420928478241,-0.0016601895913481712
1783169146063604700,3.227604736328125,0.001170998439192772,0.000708108302205801,-0.0031673135235905647
1783169146073583900,3.237583984375,-0.00023248791694641113,0.0022066691890358925,-0.00029216520488262177
1783169146083532800,3.24753271484375,0.002099229022860527,-0.0006919042207300663,-0.001141408458352089
1783169146093480700,3.257480712890625,-0.0008267853409051895,-0.0008029579184949398,-0.0020783087238669395
1783169146103430000,3.267429931640625,-0.0003091413527727127,-0.0009444020688533783,-0.0008050659671425819
1783169146113408800,3.27740869140625,0.0005358792841434479,0.0002795867621898651,-0.0007526008412241936
1783169146123357700,3.287357666015625,0.0008873604238033295,-0.0026559627149254084,-0.00002455431967973709
1783169146133307000,3.297306884765625,-0.0008002854883670807,-0.0007331604138016701,0.0002207225188612938
1783169146143256000,3.307256103515625,0.00012128986418247223,-0.001267152838408947,0.0003599459305405617
1783169146153235000,3.31723486328125,-0.0006702020764350891,0.00015710573643445969,-0.0020342357456684113
1783169146163183900,3.327183837890625,-0.0009285192936658859,0.0007882141508162022,-0.0005955789238214493
1783169146173132000,3.337132080078125,-0.00039348937571048737,-0.00016013765707612038,0.0002534366212785244
1783169146183112000,3.34711181640625,-0.00041289255023002625,-0.00018149754032492638,0.0001194709911942482
1783169146193059800,3.357059814453125,-0.0009322073310613632,0.0006012055091559887,-0.0017146477475762367
1783169146203008800,3.3670087890625,-0.0026495475322008133,-0.0016675652004778385,0.0007243664003908634
1783169146212958000,3.3769580078125,0.0011521149426698685,0.0009609749540686607,-0.0008500944823026657
1783169146222936800,3.386936767578125,0.0006308853626251221,0.00023970147594809532,0.00002180691808462143
1783169146232885800,3.3968857421875,-0.00008923187851905823,-0.0017273093108087778,0.0001640194095671177
1783169146242834000,3.406833984375,0.00007547810673713684,0.00018309615552425385,-0.00036411359906196594
1783169146252782800,3.416782958984375,-0.0005077533423900604,-0.0028638264629989862,-0.0012027435004711151
1783169146262761700,3.42676171875,0.0004596523940563202,0.001116518396884203,0.0006074891425669193
1783169146272711000,3.4367109375,0.0006735045462846756,0.0012392904609441757,0.0007552946917712688
1783169146282659800,3.446659912109375,-0.0007047802209854126,0.000665794126689434,-0.001911909319460392
1783169146292609000,3.456609130859375,-0.00012101605534553528,0.0013861791230738163,0.00004871003329753876
1783169146302588000,3.466587890625,-0.0010088272392749786,-0.0017225733026862144,0.0007204827852547169
1783169146312536800,3.476536865234375,-0.0005600843578577042,-0.0020229779183864594,0.0002738707698881626
1783169146322485000,3.486485107421875,0.0011346209794282913,0.0017922846600413322,0.0005842540413141251
1783169146332465000,3.49646484375,0.0008770935237407684,0.001093471422791481,-0.0006906008347868919
1783169146342413000,3.5064130859375,0.001148836687207222,-0.0011212644167244434,0.0007028086110949516
1783169146352362000,3.516362060546875,-0.000709783285856247,0.0005248356610536575,-0.0013880394399166107
1783169146362311000,3.526310791015625,0.0007601231336593628,-0.0002481536939740181,-0.00015365146100521088
1783169146372289800,3.536289794921875,0.0009737070649862289,-0.0038713845424354076,0.0009409072808921337
1783169146382239000,3.546239013671875,0.00008841417729854584,0.0007469924166798592,-0.00005531776696443558
1783169146392188000,3.55618798828125,0.0002620518207550049,0.003165408968925476,-0.0020713303238153458
1783169146402135800,3.5661357421875,-0.0008815228939056396,-0.0008649243973195553,0.001987217925488949
1783169146412115700,3.57611572265625,0.00002288818359375,0.00033190008252859116,-0.0010357359424233437
1783169146422063900,3.58606396484375,0.000025657936930656433,-0.00009927758947014809,-0.001907198689877987
1783169146432012800,3.5960126953125,-0.0007972586899995804,0.00004533212631940842,-0.000014224089682102203
1783169146441961700,3.605961669921875,0.0009215250611305237,-0.00044227996841073036,-0.0008560400456190109
1783169146451940900,3.61594091796875,-0.0003924798220396042,-0.0012204553931951523,-0.0006602983921766281
1783169146461890000,3.62589013671875,0.0009922254830598831,0.0016586384736001492,-0.002075113356113434
1783169146471837700,3.635837646484375,-0.0004341639578342438,0.000896175391972065,-0.0022673942148685455
1783169146481817900,3.64581787109375,-0.0017858128994703293,-0.0005965577438473701,-0.0002079242840409279
1783169146491766000,3.65576611328125,-0.00161031074821949,-0.001359286718070507,-0.0004513375461101532
1783169146501715000,3.66571484375,-0.00002925284206867218,0.00081251235678792,-0.0001024371013045311
1783169146511663900,3.675663818359375,-0.0008628219366073608,0.00014592334628105164,-0.0009312126785516739
1783169146521643000,3.68564306640625,0.000510677695274353,0.0006181476637721062,-0.00020268931984901428
1783169146531592000,3.695592041015625,-0.0007726997137069702,-0.0007240856066346169,0.0019068005494773388
1783169146541540900,3.705540771484375,-0.0006395392119884491,0.002724781632423401,0.0007007885724306107
1783169146551488800,3.71548876953125,-0.00026935897767543793,0.001098122913390398,-0.0008638184517621994
1783169146561469000,3.725468994140625,-0.00022782199084758759,0.0013544023968279362,-0.0005809590220451355
1783169146571416800,3.735416748046875,-0.0007756352424621582,-0.0005598780699074268,-0.0014459537342190742
1783169146581365800,3.74536572265625,-0.0006584636867046356,-0.0004311683587729931,-0.00007186084985733032
1783169146591314700,3.755314697265625,-0.0003130529075860977,-0.00011505139991641045,-0.00064071174710989
1783169146601293800,3.7652939453125,-0.0005379561334848404,0.0010683904401957989,0.003032543696463108
1783169146611242800,3.77524267578125,-0.000035682693123817444,0.0003549298271536827,0.0003986773081123829
1783169146621191000,3.78519091796875,-0.0008547846227884293,0.0005024741403758526,0.0006728116422891617
1783169146631139800,3.795139892578125,-0.0012015271931886673,-0.0008213832043111324,0.0005178153514862061
1783169146641118700,3.80511865234375,-0.00034125521779060364,0.0019765617325901985,0.0006072367541491985
1783169146651068000,3.81506787109375,0.0006427839398384094,0.0010748151689767838,-0.0009086346253752708
1783169146661016800,3.825016845703125,-0.000429786741733551,0.0015323515981435776,-0.0002669673413038254
1783169146670996000,3.834995849609375,-0.0004468318074941635,0.0010090405121445656,-0.00035911332815885544
1783169146680945000,3.84494482421875,-0.0007643699645996094,0.0005041821859776974,-0.0003165286034345627
1783169146690893800,3.854893798828125,-0.0004652980715036392,0.0012290943413972855,-0.0012345202267169952
1783169146700842000,3.864842041015625,-0.000733768567442894,0.001710698939859867,-0.0018690591678023338
1783169146710822000,3.87482177734375,-0.0006043389439582825,-0.0007343492470681667,0.0006305836141109467
1783169146720769800,3.884769775390625,0.0012033004313707352,-0.00002795737236738205,-0.0011896593496203423
1783169146730719000,3.894718994140625,-0.0018540099263191223,-0.0001568542793393135,0.0003035753034055233
1783169146740668000,3.90466796875,0.0009727943688631058,0.0024092597886919975,-0.002044791355729103
1783169146750646800,3.914646728515625,0.000055868178606033325,0.0007288050837814808,-0.0018184231594204903
1783169146760595700,3.924595703125,-0.00023561716079711914,0.0006919424049556255,0.00041564274579286575
1783169146770543900,3.9345439453125,-0.00014320388436317444,0.0018126005306839943,0.00016690324991941452
1783169146780492800,3.944492919921875,-0.00034697167575359344,0.0012106504291296005,0.00047820527106523514
1783169146790471700,3.9544716796875,0.0007324069738388062,0.0014948099851608276,-0.0011252844706177711
1783169146800420900,3.9644208984375,0.0010679662227630615,0.0005153208039700985,-0.0007644584402441978
1783169146810370000,3.9743701171875,-0.0018226299434900284,-0.00493696890771389,0.001725597307085991
1783169146820349000,3.984348876953125,-0.000837184488773346,-0.00020717410370707512,0.0007694424130022526
1783169146830297900,3.9942978515625,0.0014494061470031738,0.0009459746070206165,0.0014991485513746738
1783169146840247000,4.0042470703125,0.000426318496465683,-0.002270828001201153,0.0013509886339306831
1783169146850195000,4.01419482421875,-0.0008823592215776443,-0.0005344469100236893,0.0010798787698149681
1783169146860174800,4.0241748046875,0.0005956199020147324,0.003118467051535845,0.00019175466150045395
1783169146870123000,4.034123046875,-0.0003348886966705322,-0.0023468718864023685,0.0011281222105026245
1783169146880072000,4.044072021484375,0.00032777711749076843,0.00003254180774092674,-0.0010436251759529114
1783169146890020900,4.054020751953125,0.001035112887620926,0.0007726340554654598,-0.00043456070125102997
1783169146900031000,4.064031005859375,-0.00035610422492027283,0.0006626006215810776,-0.0016457615420222282
1783169146909980000,4.07397998046875,0.0006321948021650314,0.00288953585550189,-0.001035097986459732
1783169146919927800,4.083927734375,0.0001017637550830841,-0.0005434099584817886,-0.0026954803615808487
1783169146929876700,4.093876708984375,0.0018570534884929657,-0.00042756227776408195,-0.002089611254632473
1783169146939856000,4.10385595703125,0.0006936900317668915,0.0008240863680839539,-0.0011521149426698685
1783169146949804800,4.1138046875,0.0007916949689388275,0.001850734930485487,0.0009536468423902988
1783169146959754000,4.12375390625,0.0012038946151733398,-0.0015325117856264114,0.0007588984444737434
1783169146969732900,4.13373291015625,-0.00022355839610099792,-0.0003966735675930977,-0.0003159530460834503
1783169146979682000,4.14368212890625,-0.0006589926779270172,-0.0005391868762671947,-0.0009951507672667503
1783169146989631000,4.153630859375,-0.0007609911262989044,0.0006097005680203438,-0.0010313699021935463
1783169146999579000,4.163578857421875,-0.00006655976176261902,-0.0006170403212308884,-0.0009657479822635651
1783169147009559000,4.17355908203125,0.00014569424092769623,-0.0037268134765326977,0.00106517830863595
1783169147019507000,4.1835068359375,-0.000048432499170303345,0.0017420672811567783,-0.0022825468331575394
1783169147029456000,4.193455810546875,-0.0007584318518638611,0.0006496384739875793,-0.0004755929112434387
1783169147039404800,4.20340478515625,0.00014147348701953888,0.0024415594525635242,0.0009684381075203419
1783169147049384000,4.213384033203125,0.0003627818077802658,0.0010998588986694813,0.000016357749700546265
1783169147059332900,4.223332763671875,0.00011329352855682373,-0.0008668019436299801,0.0003361571580171585
1783169147069281800,4.23328173828125,0.000301579013466835,0.0006408132612705231,-0.0009653298184275627
1783169147079230000,4.24322998046875,-0.0002517234534025192,0.0004655425436794758,0.0007947278209030628
1783169147089208800,4.253208740234375,-0.0006959382444620132,-0.0016215769574046135,-0.000579196959733963
1783169147099157800,4.26315771484375,-0.00010636262595653534,-0.0011412957683205605,0.0004404648207128048
1783169147109106700,4.273106689453125,-0.0017005298286676407,-0.002410292159765959,-0.00025115814059972763
1783169147119056000,4.283055908203125,0.0008233692497014999,-0.0021525733172893524,-0.00013159681111574173
1783169147129034800,4.29303466796875,0.0007647797465324402,0.00015265913680195808,0.00012619700282812119
1783169147138984000,4.30298388671875,0.0001938268542289734,-0.001320186536759138,0.0008919397369027138
1783169147148932000,4.31293212890625,0.0010311231017112732,-0.001937773311510682,0.001646147109568119
1783169147158912000,4.322912109375,-0.000013304874300956726,0.0017934548668563366,0.0007727541960775852
1783169147168860000,4.33285986328125,-0.0007475372403860092,-0.0005605127662420273,0.0006470526568591595
1783169147178808800,4.342808837890625,-0.0004495140165090561,0.00035795755684375763,-0.0006173644214868546
1783169147188758000,4.352758056640625,-0.0013997294008731842,-0.00131211057305336,0.0012108958326280117
1783169147198737000,4.36273681640625,0.00020237267017364502,0.0008604442700743675,-0.002314436249434948
1783169147208685800,4.372685791015625,0.0008391328155994415,0.0014543291181325912,0.00024273153394460678
1783169147218634800,4.382634765625,0.0008303318172693253,-0.000059310346841812134,-0.0017430484294891357
1783169147228583000,4.3925830078125,0.002007182687520981,0.0013740030117332935,-0.00007084943354129791
1783169147238562800,4.402562744140625,0.0010411236435174942,-0.0019239485263824463,0.0005861734971404076
1783169147248510700,4.4125107421875,0.0006805304437875748,0.0005301544442772865,-0.0017954912036657333
1783169147258460000,4.4224599609375,-0.0003451816737651825,-0.0005862931720912457,0.0005546589381992817
1783169147268408800,4.432408935546875,0.0007501747459173203,0.0006329021416604519,-0.00018942821770906448
1783169147278387700,4.4423876953125,-0.00011318549513816833,-0.0005048825405538082,-0.002711547538638115
1783169147288337000,4.4523369140625,0.0011630002409219742,-0.0016835974529385567,-0.00042176153510808945
1783169147298284800,4.462284912109375,-0.0004508625715970993,-0.0002854960039258003,0.0001861853525042534
1783169147308265000,4.472264892578125,-0.0002737622708082199,-0.0014580856077373028,0.001369694247841835
1783169147318212900,4.482212890625,-0.000543767586350441,-0.00033156899735331535,0.0009737070649862289
1783169147328162000,4.492162109375,-0.0005754586309194565,-0.000994962640106678,-0.0006276518106460571
1783169147338111000,4.502111083984375,0.0005566701292991638,0.001170136034488678,-0.0013148291036486626
1783169147348089900,4.51208984375,0.0001295004040002823,0.0005549457855522633,-0.00011747237294912338
1783169147358038800,4.522038818359375,0.00034779123961925507,-0.0002718898467719555,-0.0010011354461312294
1783169147367988000,4.531988037109375,-0.0006186701357364655,-0.00023007811978459358,-0.00007595308125019073
1783169147377936000,4.541935791015625,-0.0007516872137784958,0.0013744398020207882,-0.0004219384863972664
1783169147387915800,4.551915771484375,0.0020821820944547653,-0.00007485225796699524,0.000055033713579177856
1783169147397864000,4.561864013671875,-0.00056462362408638,-0.0012914869002997875,-0.00024123024195432663
1783169147407812900,4.571812744140625,0.002208258956670761,0.0005743238143622875,-0.00028543826192617416
1783169147417761800,4.58176171875,-0.00039189495146274567,-0.0012741610407829285,-0.0002068663015961647
1783169147427741000,4.591740966796875,-0.0017714127898216248,-0.0018786985892802477,-0.0002497434616088867
1783169147437689900,4.60168994140625,-0.00041618943214416504,0.0010806862264871597,0.00021815020591020584
1783169147447637800,4.6116376953125,0.00008022226393222809,0.000001573469489812851,0.0008378680795431137
1783169147457617700,4.62161767578125,0.00006401166319847107,0.004310654476284981,-0.002133416011929512
1783169147467565800,4.63156591796875,-0.0011474601924419403,0.0009470819495618343,-0.00014403462409973145
1783169147477515000,4.641514892578125,-0.000863589346408844,-0.0010930215939879417,0.00025405455380678177
1783169147487464000,4.6514638671875,0.0011012908071279526,-0.001324716955423355,0.001769126858562231
1783169147497443000,4.661443115234375,-0.0005820952355861664,0.0007336805574595928,0.00013413280248641968
1783169147507392000,4.67139208984375,-0.00016637705266475677,-0.0015236143954098225,0.0013341531157493591
1783169147517341000,4.6813408203125,0.0005235224962234497,0.0013941158540546894,0.00042820582166314125
1783169147527288800,4.691288818359375,0.000858016312122345,0.0004737274721264839,-0.0004469091072678566
1783169147537269000,4.70126904296875,0.0012049246579408646,-0.0005984622985124588,0.00090377451851964
1783169147547217000,4.711216796875,0.00008985958993434906,-0.00032628700137138367,0.0003940453752875328
1783169147557165800,4.721165771484375,-0.0014822911471128464,0.0011648330837488174,0.0009540729224681854
1783169147567114800,4.73111474609375,0.0011622291058301926,-0.0004708804190158844,0.0009623286314308643
1783169147577094000,4.741093994140625,-0.0006665177643299103,0.0031289709731936455,-0.0012488197535276413
1783169147587042800,4.751042724609375,-0.0006699804216623306,-0.001686556963250041,0.00019035208970308304
1783169147596990700,4.76099072265625,-0.00038685835897922516,0.001356921624392271,0.002027265727519989
1783169147606940000,4.77093994140625,-0.0013722274452447891,0.0012898100540041924,0.001771069597452879
1783169147616918800,4.780918701171875,0.000463046133518219,-0.0015423363074660301,-0.0006651030853390694
1783169147626867700,4.79086767578125,0.000758390873670578,-0.0002725408412516117,0.0008523659780621529
1783169147636817000,4.80081689453125,0.0020040571689605713,0.0006828834302723408,-0.0019666971638798714
1783169147646796000,4.810796142578125,-0.00006175599992275238,-0.0006486969068646431,0.000811778474599123
1783169147656745000,4.820744873046875,-0.0005883313715457916,0.000055701471865177155,0.0019726743921637535
1783169147666694000,4.83069384765625,-0.0008421316742897034,-0.0006827930919826031,0.0018200753256678581
1783169147676642000,4.84064208984375,0.00039348937571048737,0.0030545806512236595,-0.001200757920742035
1783169147686622000,4.8506220703125,0.001001756638288498,0.0009181932546198368,-0.00025933049619197845
1783169147696569900,4.86056982421875,-0.00010875798761844635,-0.0014844532124698162,0.00048732059076428413
1783169147706518800,4.870518798828125,-0.001002781093120575,-0.0005012140609323978,-0.0020362911745905876
1783169147716468000,4.880468017578125,-0.0007480625063180923,0.0003432878293097019,-0.0004819221794605255
1783169147726446800,4.89044677734375,-0.000583212822675705,0.002926287706941366,-0.0013897931203246117
1783169147736395800,4.900395751953125,-0.0009973365813493729,0.00028351182118058205,-0.0005302019417285919
1783169147746344000,4.910343994140625,-0.0005595125257968903,-0.00040464894846081734,0.0007904600352048874
1783169147756292900,4.92029296875,0.00032250210642814636,-0.00010873284190893173,0.0014226878993213177
1783169147766271700,4.930271728515625,-0.0006796456873416901,-0.0007356409914791584,-0.0005493825301527977
1783169147776220700,4.940220703125,0.00218268483877182,0.0007362165488302708,-0.0006649689748883247
1783169147786169900,4.950169921875,0.0010298024863004684,0.00228111632168293,-0.0014830920845270157
1783169147796148700,4.960148681640625,0.0005381833761930466,0.00040915515273809433,-0.0009515946730971336
1783169147806098000,4.970097900390625,-0.0016874205321073532,-0.00035650376230478287,0.0016148937866091728
1783169147816046800,4.980046875,0.00008519552648067474,-0.0006047994829714298,-0.0008185245096683502
1783169147825995000,4.9899951171875,-0.0002799239009618759,-0.0012311749160289764,0.0014062803238630295
1783169147835975000,4.999974853515625,0.0008515678346157074,0.00016802502796053886,0.0011930647306144238
1783169147845923000,5.009923095703125,0.0010233428329229355,-0.0005552894435822964,-0.00044717639684677124
1783169147855872000,5.0198720703125,-0.0009290669113397598,0.002072063274681568,0.000007603317499160767
1783169147865821000,5.029821044921875,0.0010454002767801285,-0.0016065612435340881,-0.00045685190707445145
1783169147875799800,5.0397998046875,0.0007879305630922318,0.0002957289107143879,-0.000809788703918457
1783169147885748700,5.049748779296875,0.0009746178984642029,-0.0005530207417905331,0.0006336444057524204
1783169147895698000,5.059697998046875,0.0019588060677051544,0.0012239161878824234,0.0006182752549648285
1783169147905664800,5.069664794921875,0.00008793547749519348,0.0015024826861917973,-0.00024139322340488434
1783169147915644700,5.079644775390625,0.0006846580654382706,0.0007115774787962437,-0.0004994384944438934
1783169147925592600,5.089592529296875,0.00020608678460121155,0.0004449947737157345,0.00006328802555799484
1783169147935541500,5.09954150390625,-0.00032426416873931885,0.0009462740272283554,-0.0014895834028720856
1783169147945520600,5.109520751953125,-0.00111442431807518,0.00016090786084532738,-0.0005359053611755371
1783169147955469800,5.1194697265625,0.0001807715743780136,-0.0001268228515982628,-0.0010327920317649841
1783169147965418800,5.129418701171875,0.0002955533564090729,-0.0011998103000223637,0.0004274193197488785
1783169147975367000,5.139366943359375,0.00035019032657146454,0.004474593326449394,-0.0020240778103470802
1783169147985346800,5.149346923828125,0.0007664430886507034,0.0030876193195581436,-0.0019178176298737526
1783169147995294700,5.159294677734375,0.0005096495151519775,0.0008348212577402592,-0.0006475448608398438
1783169148005244000,5.169243896484375,0.0004289541393518448,-0.0006152698770165443,-0.00020119920372962952
1783169148015192800,5.17919287109375,0.0011509209871292114,0.0009287102147936821,0.0002040378749370575
1783169148025171700,5.189171630859375,-0.0000363178551197052,0.0005737105384469032,-0.001722758635878563
1783169148035120600,5.19912060546875,0.0016457680612802505,0.0014364691451191902,-0.0008988603949546814
1783169148045069600,5.209069580078125,-0.0003769025206565857,0.0003384477458894253,-0.0006384029984474182
1783169148055017700,5.219017822265625,0.0004777442663908005,-0.000273069366812706,-0.000007984228432178497
1783169148064997600,5.22899755859375,0.0010593794286251068,-0.0017170351929962635,0.0029049813747406006
1783169148074945800,5.23894580078125,-0.00025527365505695343,0.0027848300524055958,0.0004840926267206669
1783169148084894700,5.248894775390625,0.000207582488656044,0.00034191273152828217,-0.0021796012297272682
1783169148094844000,5.258843994140625,0.0017849337309598923,0.002021683845669031,-0.00004510954022407532
1783169148104822500,5.268822509765625,0.0003710612654685974,-0.0016617344226688147,-0.0009585730731487274
1783169148114772000,5.27877197265625,-0.000545114278793335,0.00043805409222841263,-0.00047452375292778015
1783169148124719900,5.288719970703125,0.00017926469445228577,0.001695332583039999,0.0008069896139204502
1783169148134699800,5.29869970703125,-0.0007352773100137711,0.000005281064659357071,-0.0016154581680893898
1783169148144648000,5.30864794921875,0.000028517097234725952,-0.0004983227699995041,-0.00006336718797683716
1783169148154596900,5.318596923828125,0.0006427038460969925,-0.0004337728023529053,-0.0008265916258096695
1783169148164545800,5.3285458984375,0.0005814507603645325,0.0012852977961301804,-0.0003600064665079117
1783169148174524700,5.338524658203125,0.0006697326898574829,-0.000583380926400423,0.0003412831574678421
1783169148184473900,5.348473876953125,0.0016495101153850555,-0.0010185413993895054,-0.00003342330455780029
1783169148194422800,5.3584228515625,0.000009605661034584045,0.0010694046504795551,-0.00019470229744911194
1783169148204370700,5.36837060546875,-0.0005222279578447342,0.0002177259884774685,-0.00023731309920549393
1783169148214350600,5.3783505859375,-0.0005492642521858215,0.001236173789948225,0.0002752123400568962
1783169148224298800,5.388298828125,0.0010419748723506927,0.0015831836499273777,0.0002637607976794243
1783169148234247700,5.39824755859375,-0.0006771162152290344,-0.001153082586824894,-0.00003516208380460739
1783169148244196600,5.408196533203125,-0.00020680204033851624,0.00183391897007823,-0.0022098999470472336
1783169148254175700,5.41817578125,0.0009458493441343307,0.0003635687753558159,0.0008199554868042469
1783169148264124700,5.428124755859375,0.00014956481754779816,-0.000675862655043602,0.00006841123104095459
1783169148274072600,5.438072509765625,-0.0006456580013036728,-0.001473205629736185,0.0011701551266014576
1783169148284052700,5.448052734375,-0.0001367274671792984,0.0009033991955220699,0.0006545670330524445
1783169148294001000,5.4580009765625,-0.0006591752171516418,0.003771665506064892,0.0009176903404295444
1783169148303949800,5.46794970703125,0.0006359200924634933,0.0011492506600916386,-0.00014943815767765045
1783169148313898800,5.477898681640625,0.002114906907081604,-0.0005614235997200012,-0.00014787260442972183
1783169148323878000,5.4878779296875,-0.0009194985032081604,-0.0004391847178339958,-0.002052832394838333
1783169148333826800,5.497826904296875,-0.0008491910994052887,0.00032007135450839996,-0.0011120736598968506
1783169148343775700,5.507775634765625,-0.0007077772170305252,-0.0005324068479239941,-0.0006742505356669426
1783169148353723600,5.5177236328125,0.0009681079536676407,0.0007968060672283173,-0.0011807354167103767
1783169148363703800,5.527703857421875,-0.0019379351288080215,0.0006415438838303089,-0.002711254172027111
1783169148373651700,5.537651611328125,0.0009123235940933228,-0.0012857713736593723,0.0007624062709510326
1783169148383600600,5.5476005859375,0.0006060600280761719,0.0022919191978871822,0.00004574935883283615
1783169148393549600,5.557549560546875,0.001040346920490265,-0.003047781763598323,0.001969657838344574
1783169148403528700,5.56752880859375,0.0008105151355266571,0.001147496048361063,0.00033714016899466515
1783169148413477600,5.5774775390625,0.00016492605209350586,0.00039436109364032745,0.001056839246302843
1783169148423425800,5.58742578125,-0.0002539902925491333,0.001275600865483284,-0.001846538856625557
1783169148433405700,5.59740576171875,0.00016675330698490143,-0.001254186499863863,0.0006206189282238483
1783169148443353600,5.607353515625,-0.0005560293793678284,-0.0015053227543830872,0.00011142250150442123
1783169148453302800,5.617302734375,-0.00003247708082199097,-0.0005501881241798401,0.00015707872807979584
1783169148463251700,5.627251708984375,-0.00029000453650951385,0.0008690105751156807,-0.0003217579796910286
1783169148473230800,5.63723095703125,-0.0008034948259592056,0.00007033208385109901,0.00040924595668911934
1783169148483179800,5.6471796875,-0.0007678084075450897,-0.0013946727849543095,0.0006963345222175121
1783169148493128700,5.657128662109375,0.0020811259746551514,0.000972419511526823,-0.0003414861857891083
1783169148503076900,5.667076904296875,-0.0008890964090824127,0.0003098254092037678,0.0005727773532271385
1783169148513056800,5.677056884765625,0.0011460166424512863,0.0002205241471529007,-0.0004909280687570572
1783169148523004700,5.687004638671875,0.00010978057980537415,-0.0017992171924561262,-0.0011194339022040367
1783169148532953900,5.696953857421875,-0.0014882944524288177,-0.0025712624192237854,0.0026324433274567127
1783169148542902800,5.70690283203125,-0.0009316932410001755,-0.002100415527820587,-0.00037719495594501495
1783169148552881700,5.716881591796875,-0.00038619711995124817,-0.0016836400609463453,-0.0003439309075474739
1783169148562830600,5.72683056640625,0.0015030484646558762,0.001559291034936905,-0.0027791252359747887
1783169148572779800,5.73677978515625,-0.0008888337761163712,0.0008524805307388306,-0.0010350793600082397
1783169148582727700,5.746727783203125,0.00080094113945961,-0.0013542147353291512,-0.0007937969639897346
1783169148592706600,5.75670654296875,-0.0007351376116275787,0.000672582071274519,-0.00010719988495111465
1783169148602655700,5.76665576171875,-0.0007212888449430466,0.0009490181691944599,0.0030885934829711914
1783169148612605000,5.77660498046875,0.00031567178666591644,0.0011153733357787132,-0.0018350742757320404
1783169148622583800,5.786583740234375,-0.0006872750818729401,-0.0013112989254295826,-0.001078736037015915
1783169148632532700,5.79653271484375,0.000571858137845993,0.00007443036884069443,-0.002113139256834984
1783169148642482000,5.80648193359375,-0.0007285643368959427,-0.000656607560813427,-0.0010657180100679398
1783169148652429800,5.816429931640625,0.00012291595339775085,0.0009166225790977478,-0.000010443851351737976
1783169148662409700,5.82640966796875,-0.0006597861647605896,0.00010222801938652992,-0.001789701171219349
1783169148672358000,5.83635791015625,-0.0000933576375246048,-0.002729975851252675,0.0014850432053208351
1783169148682306800,5.846306884765625,-0.0004914999008178711,0.0002373182214796543,0.0003800974227488041
1783169148692255700,5.856255859375,-0.0005484204739332199,-0.0007983911782503128,0.0002625025808811188
1783169148702234600,5.866234619140625,-0.00041020289063453674,-0.0010607126168906689,-0.0002730591222643852
1783169148712183800,5.876183837890625,-0.0006803330034017563,-0.0006979629397392273,-0.0005611004307866096
1783169148722132700,5.8861328125,0.0010896045714616776,0.0033263396471738815,-0.0012990627437829971
1783169148732080600,5.89608056640625,-0.0013243500143289566,0.0009811259806156158,0.00022338423877954483
1783169148742060500,5.906060546875,0.0016306936740875244,0.00059896195307374,-0.0013100644573569298
1783169148752008700,5.9160087890625,-0.00011026673018932343,0.00016725528985261917,-0.0018975110724568367
1783169148761957600,5.92595751953125,0.00006603449583053589,0.0007813805714249611,-0.001200561411678791
1783169148771936800,5.935936767578125,-0.00004737265408039093,-0.000029719434678554535,0.00039063533768057823
1783169148781886000,5.945885986328125,0.0006708819419145584,0.000376679003238678,-0.0010157804936170578
1783169148791835000,5.9558349609375,0.0006303805857896805,0.0005744318477809429,0.00042464444413781166
1783169148801782800,5.96578271484375,0.0020471829921007156,0.0009014680981636047,0.00017404090613126755
1783169148811762700,5.9757626953125,-0.0002008732408285141,-0.0002520764246582985,0.0008474742062389851
1783169148821710800,5.9857109375,0.0016454961150884628,-0.002586070913821459,0.00013241544365882874
1783169148831659800,5.99565966796875,0.00024295784533023834,0.0005584652535617352,-0.00005549285560846329
1783169148841608700,6.005608642578125,-0.0007940772920846939,-0.001001880969852209,0.0003559654578566551
1783169148851587800,6.015587890625,0.0015885885804891586,0.001689353957772255,-0.00042129214853048325
1783169148861536800,6.025536865234375,-0.00005218386650085449,0.000886410940438509,-0.000960049219429493
1783169148871485700,6.035485595703125,0.0003446042537689209,-0.00014176871627569199,-0.001287279650568962
1783169148881433600,6.04543359375,-0.0019049663096666336,-0.00010262057185173035,-0.001986093819141388
1783169148891413800,6.055413818359375,-0.0004034265875816345,-0.0007866667583584785,0.0004576719366014004
1783169148901383700,6.0653837890625,-0.0007954444736242294,-0.0026793754659593105,0.000035560689866542816
1783169148911332600,6.07533251953125,-0.0006631873548030853,0.001441769301891327,-0.0008778488263487816
1783169148921311700,6.085311767578125,-0.00009939633309841156,-0.00010366318747401237,-0.0002773059532046318
1783169148931260700,6.0952607421875,0.0008451584726572037,0.0002142665907740593,0.00001903437077999115
1783169148941209600,6.105209716796875,-0.0008648578077554703,0.0008840514346957207,-0.00034022610634565353
1783169148951157500,6.115157470703125,0.0005914829671382904,0.0011343504302203655,0.0008030957542359829
1783169148961137700,6.1251376953125,0.0011115986853837967,0.0026230569928884506,-0.002109603025019169
1783169148971085600,6.13508544921875,0.00019478052854537964,0.001005722675472498,0.0015707463026046753
1783169148981034800,6.14503466796875,-0.0003612879663705826,0.00005763722583651543,0.0010410435497760773
1783169148990983700,6.154983642578125,-0.0007437653839588165,0.004096237942576408,0.0002799155190587044
1783169149000962800,6.164962890625,0.000012306496500968933,-0.000027134548872709274,0.000367533415555954
1783169149010911700,6.174911865234375,0.0013528075069189072,-0.0008625863119959831,-0.00023771636188030243
1783169149020860700,6.184860595703125,-0.0003683939576148987,0.0005704606883227825,0.00020863022655248642
1783169149030808600,6.19480859375,0.0013950057327747345,-0.0004439381882548332,-0.001253284513950348
1783169149040788700,6.204788818359375,0.002076774835586548,0.0008194656111299992,-0.0014602122828364372
1783169149050736600,6.214736572265625,0.0006103254854679108,0.0006943126209080219,0.0008739931508898735
1783169149060685600,6.224685546875,-0.001947375014424324,-0.0004045078530907631,0.0008018212392926216
1783169149070634500,6.234634521484375,0.0009883381426334381,-0.0018638025503605604,-0.0006397822871804237
1783169149080613600,6.244613525390625,-0.0009062346071004868,-0.0015937578864395618,0.0016268338076770306
1783169149090562600,6.2545625,-0.0004017949104309082,0.0007187183946371078,0.0009843488223850727
1783169149100510700,6.2645107421875,-0.0003762282431125641,-0.0015718666836619377,0.0012914114631712437
1783169149110490600,6.27449072265625,0.00010146945714950562,0.0023125759325921535,-0.0010679801926016808
1783169149120438500,6.2844384765625,0.0005760453641414642,0.000033709220588207245,-0.0016384292393922806
1783169149130387700,6.2943876953125,0.000005932524800300598,-0.0006199963390827179,-0.0005294913426041603
1783169149140336600,6.304336669921875,0.001243768259882927,0.002917747013270855,-0.0006490675732493401
1783169149150315800,6.314315673828125,0.0008311383426189423,0.0015786015428602695,0.00004649721086025238
1783169149160264700,6.3242646484375,0.00016481615602970123,-0.004462779499590397,-0.00089999008923769
1783169149170213600,6.334213623046875,-0.0005397386848926544,0.0012681824155151844,0.00010819733142852783
1783169149180161800,6.344161865234375,-0.00032721832394599915,0.0015605976805090904,0.0007468229159712791
1783169149190141700,6.3541416015625,0.0000035353004932403564,-0.0018464382737874985,-0.0005384460091590881
1783169149200089600,6.364089599609375,0.0011758580803871155,0.0002662474289536476,0.00022987555712461472
1783169149210038800,6.374038818359375,-0.000996878370642662,0.0009239315986633301,-0.0016054436564445496
1783169149219987700,6.38398779296875,-0.0003348160535097122,-0.0010390845127403736,0.0004539783112704754
1783169149229966600,6.393966552734375,0.0011767782270908356,0.0011000684462487698,0.0005705836229026318
1783169149239915500,6.40391552734375,-0.0006773155182600021,-0.0014802683144807816,-0.00028189457952976227
1783169149249864700,6.41386474609375,0.0009799450635910034,-0.0014693555422127247,0.0010251794010400772
1783169149259843600,6.423843505859375,-0.0006738770753145218,-0.0007761344313621521,0.0020254626870155334
1783169149269791500,6.43379150390625,-0.0006910823285579681,-0.00030233152210712433,-0.0005666092038154602
1783169149279740700,6.44374072265625,0.0019260067492723465,-0.00017396733164787292,0.0013964073732495308
1783169149289689900,6.45368994140625,0.00004478916525840759,0.0004520667716860771,-0.001523875631392002
1783169149299668500,6.46366845703125,0.0006767567247152328,-0.0005636624991893768,0.001885769423097372
1783169149309617700,6.47361767578125,-0.0007652062922716141,-0.001645947340875864,0.0012538665905594826
1783169149319566800,6.48356689453125,-0.0017582979053258896,0.00012026075273752213,-0.0019387304782867432
1783169149329514800,6.4935146484375,0.001830296590924263,0.0010853162966668606,-0.002993484027683735
1783169149339494700,6.50349462890625,-0.0012283436954021454,0.0001497478224337101,-0.0010531051084399223
1783169149349442800,6.51344287109375,-0.0009729526937007904,-0.0007919352501630783,-0.000677717849612236
1783169149359391700,6.523391845703125,-0.0007210168987512589,-0.0012278947979211807,0.0012972820550203323
1783169149369340700,6.533340576171875,-0.0006643962115049362,-0.00034869182854890823,0.0016633188351988792
1783169149379319600,6.543319580078125,0.0009074024856090546,0.00015437928959727287,-0.0005010319873690605
1783169149389268700,6.553268798828125,0.001111416146159172,0.0005003130063414574,0.0005628904327750206
1783169149399217700,6.5632177734375,-0.0008369516581296921,-0.0011710869148373604,-0.00008798576891422272
1783169149409165600,6.57316552734375,0.0007202103734016418,-0.001580855343490839,0.00031514931470155716
1783169149419145500,6.5831455078125,-0.0013488009572029114,-0.0007286439649760723,-0.0006510447710752487
1783169149429093600,6.59309375,0.00007736124098300934,0.000045350752770900726,0.00014927610754966736
1783169149439042600,6.60304248046875,-0.00027364306151866913,-0.0020561497658491135,0.0011215964332222939
1783169149449021700,6.613021728515625,-0.0005280729383230209,0.0004370966926217079,0.0005876496434211731
1783169149458970600,6.622970703125,0.00015609338879585266,0.0021596290171146393,-0.002001475542783737
1783169149468919800,6.632919921875,0.0012636389583349228,-0.0005525015294551849,0.00041998084634542465
1783169149478867700,6.64286767578125,-0.0006519723683595657,0.0003460487350821495,0.0003584623336791992
1783169149488847600,6.65284765625,-0.0011742394417524338,-0.0003820699639618397,0.002963535487651825
1783169149498795800,6.662795654296875,0.00203859806060791,-0.0007613040506839752,-0.00006660912185907364
1783169149508744700,6.67274462890625,0.0013929978013038635,0.0022673853673040867,-0.0007100114598870277
1783169149518693600,6.682693603515625,-0.0010437946766614914,-0.0024978090077638626,-0.0004895012825727463
1783169149528672800,6.6926728515625,0.0007556993514299393,-0.001361228059977293,-0.0002599600702524185
1783169149538621700,6.70262158203125,-0.0008264854550361633,0.0010257628746330738,0.000008220784366130829
1783169149548570600,6.712570556640625,0.00038439780473709106,-0.0005729002878069878,0.0008865376003086567
1783169149558518500,6.7225185546875,0.0004642922431230545,-0.0004685046151280403,0.00041063129901885986
1783169149568498700,6.732498779296875,-0.0005490351468324661,-0.00039181578904390335,-0.0004982342943549156
1783169149578446600,6.742446533203125,-0.0010710153728723526,0.002183727454394102,0.00032628048211336136
1783169149588395500,6.7523955078125,0.0008369889110326767,0.0010915035381913185,-0.0011893901973962784
1783169149598374700,6.762374755859375,0.000422867015004158,0.001277924980968237,-0.0020325472578406334
1783169149608323600,6.772323486328125,0.0008522011339664459,-0.0008965833112597466,0.002824926283210516
1783169149618272800,6.782272705078125,-0.0006484910845756531,-0.00022839615121483803,0.001181222964078188
1783169149628220700,6.792220703125,-0.00002695806324481964,0.0023516868241131306,0.00162197882309556
1783169149638200800,6.802200927734375,0.00017517618834972382,0.000057373661547899246,0.0006901388987898827
1783169149648148700,6.812148681640625,-0.0002598091959953308,-0.0018002779688686132,0.0016095642931759357
1783169149658097700,6.82209765625,-0.0005737952888011932,-0.0027512928936630487,-0.0009609190747141838
1783169149668046600,6.832046630859375,0.0010931305587291718,-0.0009785913862287998,0.001034339889883995
1783169149678025700,6.842025634765625,0.0003972463309764862,0.0018627350218594074,0.001025285106152296
1783169149687974700,6.851974609375,-0.0007095839828252792,0.0004968694411218166,0.0001010112464427948
1783169149697923600,6.861923583984375,-0.0012568626552820206,0.0005442737601697445,-0.0013474822044372559
1783169149707871700,6.871871826171875,0.00039395876228809357,-0.003827085718512535,0.0010610390454530716
1783169149717851600,6.8818515625,-0.0008406825363636017,0.0010507600381970406,-0.0010172920301556587
1783169149727799600,6.891799560546875,0.000493394210934639,0.001755302306264639,-0.0016565555706620216
1783169149737748700,6.901748779296875,-0.0005593523383140564,0.002026678528636694,-0.0011500222608447075
1783169149747727600,6.9117275390625,-0.00016731582581996918,0.0007501682266592979,-0.00003600865602493286
1783169149757676500,6.921676513671875,0.0013642683625221252,0.002304388675838709,-0.0014197872951626778
1783169149767625500,6.93162548828125,0.0008120760321617126,-0.00025671254843473434,0.0020778384059667587
1783169149777573600,6.94157373046875,0.0017758756875991821,-0.0012167817912995815,0.0005497164092957973
1783169149787553500,6.951553466796875,0.002197837457060814,0.001878666691482067,-0.00041286274790763855
1783169149797501400,6.96150146484375,0.002162950113415718,0.00014308467507362366,0.0006867568008601665
1783169149807451000,6.971450927734375,0.0007384568452835083,0.00043750228360295296,0.0010986141860485077
1783169149817399800,6.98139990234375,-0.0016626492142677307,-0.002533786464482546,-0.00047824345529079437
1783169149827378700,6.991378662109375,0.001080390065908432,-0.0017501323018223047,-0.002085041254758835
1783169149837327600,7.00132763671875,0.0006795842200517654,0.0012352713383734226,0.0008942373096942902
1783169149847276800,7.01127685546875,-0.000026093795895576477,-0.0028381114825606346,-0.0019287094473838806
1783169149857224700,7.021224609375,0.00017364323139190674,0.0013041691854596138,-0.0002312110736966133
1783169149867204600,7.03120458984375,0.001882830634713173,0.0010313172824680805,0.0017593959346413612
1783169149877152800,7.04115283203125,-0.001403510570526123,-0.00028907787054777145,0.00012741144746541977
1783169149887101700,7.051101806640625,0.0009894371032714844,0.000561883207410574,-0.00045798253268003464
1783169149897050600,7.061050537109375,0.0004815738648176193,-0.0015012677758932114,-0.00024306587874889374
1783169149907021300,7.071021240234375,-0.0007687248289585114,-0.00045001180842518806,-0.0001605721190571785
1783169149916970200,7.08097021484375,9.294599294662476e-7,-0.0011181989684700966,-0.0005706995725631714
1783169149926918100,7.090918212890625,-0.00011244602501392365,0.00048826588317751884,-0.001820513978600502
1783169149936898300,7.100898193359375,0.0009837113320827484,-0.00015302328392863274,0.00008764024823904037
1783169149946846200,7.11084619140625,0.001177772879600525,0.0004897736944258213,0.0009151631966233253
1783169149956795100,7.120795166015625,-0.0014406461268663406,-0.00011982396245002747,-0.0014254888519644737
1783169149966744000,7.130744140625,-0.00028701499104499817,-0.0005514319054782391,0.0017036511562764645
1783169149976723200,7.14072314453125,-0.0006723739206790924,0.00024778302758932114,0.00007459521293640137
1783169149986672000,7.150672119140625,-0.000585729256272316,-0.0007563787512481213,-0.00017647258937358856
1783169149996621000,7.16062109375,-0.00001794286072254181,-0.00022800778970122337,0.002905337605625391
1783169150006569200,7.1705693359375,-0.0018526632338762283,0.00015319138765335083,-0.0001887194812297821
1783169150016549000,7.180549072265625,-0.00007074326276779175,-0.0018074277322739363,-0.0019647814333438873
1783169150026497000,7.1904970703125,0.00024767592549324036,-0.0005036564543843269,-0.0007010782137513161
1783169150036446200,7.2004462890625,0.00014674291014671326,-0.0006064544431865215,0.0015066820196807384
1783169150046395100,7.21039501953125,-0.00010452419519424438,0.002370520494878292,0.0005713962018489838
1783169150056374000,7.2203740234375,0.0008238535374403,-0.0016380699817091227,-0.0008571231737732887
1783169150066323200,7.2303232421875,0.0007104035466909409,-0.0008877255022525787,-0.00032975059002637863
1783169150076272000,7.240272216796875,-0.00019959919154644012,0.0019275019876658916,-0.002136439085006714
1783169150086251300,7.250251220703125,0.0009880922734737396,0.0008181584998965263,-0.00009644031524658203
1783169150096199200,7.26019921875,0.0009731780737638474,0.00008845236152410507,0.0015746927820146084
1783169150106148400,7.2701484375,0.00042095035314559937,-0.0013956674374639988,0.0006562876515090466
1783169150116097300,7.28009716796875,-0.00044351257383823395,0.0004032975994050503,-0.0012151151895523071
1783169150126076200,7.290076171875,0.0010753832757472992,0.0020949644967913628,0.0019064554944634438
1783169150136025000,7.300025146484375,-0.00066366046667099,-0.00042811455205082893,-0.0006065033376216888
1783169150145974300,7.309974365234375,-0.0008878502994775772,-0.00016699451953172684,-0.000004398636519908905
1783169150155922200,7.319922119140625,0.001061582937836647,-0.00024342723190784454,0.0007972130551934242
1783169150165902000,7.329902099609375,-0.00008496083319187164,0.000799874309450388,0.0006166528910398483
1783169150175850200,7.339850341796875,0.00030918605625629425,-0.0007122685201466084,-0.0013554180040955544
1783169150185799200,7.349799072265625,0.0022926293313503265,0.00016732420772314072,-0.0010747471824288368
1783169150195748000,7.359748046875,0.0016143210232257843,0.0002088695764541626,-0.0017828820273280144
1783169150205727000,7.36972705078125,0.0018732845783233643,0.00002971431240439415,-0.0001317868009209633
1783169150215676200,7.37967626953125,-0.00009665638208389282,-0.0015940149314701557,0.0004434557631611824
1783169150225625300,7.389625244140625,0.00005658343434333801,0.0014574779197573662,-0.0014068661257624626
1783169150235604000,7.39960400390625,0.0001410059630870819,0.0012737195938825607,-0.0004667695611715317
1783169150245553200,7.40955322265625,0.000059388577938079834,0.0003171549178659916,0.0017362069338560104
1783169150255501300,7.419501220703125,0.0004021376371383667,-0.0016453282441943884,0.001355375163257122
1783169150265450200,7.4294501953125,0.000029768794775009155,0.0010101841762661934,0.000033670105040073395
1783169150275429400,7.439429443359375,0.00037198513746261597,0.0007047192193567753,0.00010877102613449097
1783169150285378300,7.44937841796875,0.0022177044302225113,-0.00015899771824479103,-0.0011716336011886597
1783169150295327200,7.4593271484375,-0.00006701983511447906,-0.00028762826696038246,0.00002891942858695984
1783169150305275100,7.469275146484375,0.0010971352458000183,-0.0026824045926332474,0.0005292454734444618
1783169150315255000,7.479255126953125,0.002266794443130493,-0.0006035412661731243,0.0019950494170188904
1783169150325203200,7.489203125,0.0010416842997074127,-0.0032933924812823534,0.0021259537898004055
1783169150335152000,7.499152099609375,0.0008017346262931824,0.0007873689755797386,-0.0006400058045983315
1783169150345101000,7.50910107421875,-0.0000720638781785965,-0.0000384058803319931,-0.0003297189250588417
1783169150355080200,7.519080078125,-0.00015808455646038055,-0.0009963447228074074,0.0009696376509964466
1783169150365029000,7.529029052734375,-0.001163223758339882,-0.0009523234330117702,-0.0016356762498617172
1783169150374978000,7.53897802734375,-0.0014513786882162094,0.0018887370824813843,0.000042115338146686554
1783169150384926200,7.54892626953125,0.0002452116459608078,-0.00019686855375766754,0.00034137628972530365
1783169150394906400,7.55890625,0.001096092164516449,-0.00042403629049658775,-0.00024531781673431396
1783169150404854000,7.56885400390625,0.0010098982602357864,0.0010882439091801643,0.00017947610467672348
1783169150414803200,7.57880322265625,0.00021281465888023376,-0.002129920059815049,0.0005592433735728264
1783169150424782300,7.5887822265625,0.0015699248760938644,0.0019621937535703182,-0.0005216468125581741
1783169150434731300,7.598731201171875,-0.0006737895309925079,-0.00019336910918354988,-0.0019917115569114685
1783169150444680200,7.60868017578125,0.0002974551171064377,0.0007111546583473682,0.0009870878420770168
1783169150454628400,7.61862841796875,0.0008018575608730316,0.00022139959037303925,-0.00006060022860765457
1783169150464608300,7.628608154296875,-0.00038966722786426544,0.0015787817537784576,0.00000860169529914856
1783169150474556200,7.63855615234375,0.0009363200515508652,-0.00005133915692567825,0.00007944181561470032
1783169150484505000,7.648505126953125,-0.0001875702291727066,0.00011447397992014885,-0.0019502313807606697
1783169150494454300,7.658454345703125,-0.000007539987564086914,0.0008873231709003448,-0.0003273012116551399
1783169150504433200,7.66843310546875,0.0008522719144821167,-0.0016205406282097101,-0.000458267517387867
1783169150514382000,7.678382080078125,0.0006567966192960739,0.00114035839214921,-0.0004848996177315712
1783169150524331000,7.6883310546875,-0.0006657931953668594,0.0023063626140356064,0.00048262905329465866
1783169150534279200,7.698279052734375,-0.0002711135894060135,0.0007960842922329903,-0.0008513480424880981
1783169150544259000,7.708259033203125,-0.0006444267928600311,0.0000804876908659935,-0.000587688758969307
1783169150554207000,7.71820703125,0.0007177796214818954,-0.00019594840705394745,0.000010989606380462646
1783169150564156200,7.72815625,0.0003730505704879761,-0.0007314416579902172,0.0009228968992829323
1783169150574135000,7.738135009765625,-0.00037476420402526855,-0.001097892876714468,0.00016309693455696106
1783169150584084200,7.748084228515625,-0.00005511939525604248,-0.0015236539766192436,0.0013794242404401302
1783169150594033200,7.758033203125,0.0007677972316741943,-0.0003832881338894367,0.0005575725808739662
1783169150603981300,7.767981201171875,0.0008522868156433105,-0.0005284855142235756,0.00047553982585668564
1783169150613961200,7.777961181640625,0.0005502849817276001,-0.0017716491129249334,-0.000412624329328537
1783169150623909000,7.7879091796875,0.0009857043623924255,-0.00037748320028185844,-0.000500895082950592
1783169150633858300,7.7978583984375,0.0007244497537612915,0.0003468967042863369,-0.0009477734565734863
1783169150643807200,7.80780712890625,0.0004478190094232559,0.000977314542979002,-0.0005127266049385071
1783169150653786000,7.8177861328125,0.000682709738612175,0.001448960043489933,0.0012340405955910683
1783169150663735000,7.827735107421875,-0.0008218735456466675,-0.0016719994600862265,-0.000785444863140583
1783169150673684200,7.837684326171875,-0.00011906400322914124,-0.0004991432651877403,0.00017355941236019135
1783169150683632000,7.847632080078125,0.000811256468296051,-0.0013649994507431984,0.0016640298999845982
1783169150693612000,7.857612060546875,0.002030983567237854,0.0008361032232642174,-0.0009546559303998947
1783169150703560200,7.867560302734375,0.000420277938246727,0.0007718955166637897,-0.0005938252434134483
1783169150713509000,7.877509033203125,-0.0017541944980621338,-0.0013200175017118454,-0.001186111941933632
1783169150723458000,7.8874580078125,0.0014549270272254944,0.0015118452720344067,0.000024432316422462463
1783169150733437200,7.897437255859375,0.0006067100912332535,-0.0000066892243921756744,0.00009713694453239441
1783169150743386400,7.907386474609375,0.0011478923261165619,-0.0009051444940268993,0.0007613529451191425
1783169150753335300,7.917335205078125,0.0010102074593305588,-0.001654291758313775,0.00033604633063077927
1783169150763314200,7.927314208984375,0.0020529665052890778,-0.0005034278146922588,-0.0018075313419103622
1783169150773262300,7.937262451171875,0.00012830086052417755,-0.002569508273154497,0.0001978287473320961
1783169150783211300,7.947211181640625,-0.0010216087102890015,0.001226554624736309,-0.0008598016574978828
1783169150793160200,7.95716015625,0.0015648528933525085,0.0004071001894772053,-0.0017868485301733017
1783169150803139300,7.967139404296875,-0.0012287944555282593,0.0002499106340110302,0.001980236731469631
1783169150813088300,7.977088134765625,-0.00045061856508255005,-0.0005897842347621918,-0.0014797421172261238
1783169150823037200,7.987037109375,0.0006007123738527298,-0.00043052900582551956,-0.0018486222252249718
1783169150832985000,7.996985107421875,0.0015938039869070053,-0.0013732877559959888,0.0023091044276952744
1783169150842965200,8.00696533203125,0.0006352178752422333,0.000766959972679615,0.0017868592403829098
1783169150852913200,8.0169130859375,-0.0006185974925756454,0.00018186355009675026,-0.00005338527262210846
1783169150862862000,8.026862060546875,-0.0002320520579814911,0.0012205829843878746,-0.0015839207917451859
1783169150872811000,8.03681103515625,-0.0018629711121320724,0.00010551745072007179,-0.0006025461480021477
1783169150882790100,8.0467900390625,-0.0015055816620588303,-0.0007294383831322193,-0.00087782833725214
1783169150892739000,8.056739013671875,-0.0008669551461935043,-0.005688777193427086,0.0013272687792778015
1783169150902710800,8.066710693359376,0.000015204772353172302,-0.00018170615658164024,0.0005726860836148262
1783169150912689700,8.076689697265625,-0.0005243513733148575,0.0013229800388216972,0.00065577682107687
1783169150922638600,8.086638671875,-0.0007077325135469437,-0.00016563385725021362,0.0006739855743944645
1783169150932586800,8.096586669921875,0.0011056140065193176,-0.0011025341227650642,-0.0006240392103791237
1783169150942535700,8.10653564453125,0.0017563272267580032,-0.00022194860503077507,-0.0019367067143321037
1783169150952514600,8.1165146484375,-0.00005835108458995819,-0.0009268871508538723,-0.0016490845009684563
1783169150962463700,8.126463623046876,-0.0008250605314970016,-0.0014849184080958366,0.0009101666510105133
1783169150972412700,8.13641259765625,0.0003536548465490341,-0.0009946306236088276,-0.0017902785912156105
1783169150982360600,8.146360595703126,0.0013503525406122208,0.001277858391404152,0.00015801656991243362
1783169150992340500,8.156340576171875,0.00013248808681964874,-0.0016249872278422117,0.0010909214615821838
1783169151002288600,8.16628857421875,-0.0004964377731084824,0.001599399372935295,-0.0018080202862620354
1783169151012237600,8.176237548828125,2.421438694000244e-7,0.0005626305937767029,-0.0018138792365789413
1783169151022186500,8.1861865234375,0.0016552545130252838,-0.0013727536424994469,-0.001003325916826725
1783169151032165600,8.19616552734375,0.000019008293747901917,-0.0007109581492841244,-0.0017135906964540482
1783169151042114800,8.20611474609375,0.0002911761403083801,-0.0021274464670568705,0.003700817469507456
1783169151052063700,8.216063720703126,0.00036973878741264343,-0.001350868958979845,0.0017772158607840538
1783169151062042600,8.226042724609375,0.00007479451596736908,-0.0021848371252417564,0.0011754757724702358
1783169151071991800,8.23599169921875,-0.0005510468035936356,0.0005696704611182213,0.0008934466168284416
1783169151081939700,8.245939697265625,-0.00060313381254673,0.00023253075778484344,-0.0017730128020048141
1783169151091888600,8.255888671875,-0.0015440285205841064,-0.0006604273803532124,-0.0013261344283819199
1783169151101867800,8.26586767578125,-0.0005067773163318634,0.0007693283259868622,0.0003273133188486099
1783169151111816700,8.275816650390626,-0.0024173278361558914,0.0009400369599461555,-0.0001749591901898384
1783169151121765600,8.285765625,-0.0015725381672382355,0.0003825640305876732,-0.00044673122465610504
1783169151131713500,8.295713623046876,-0.0006809122860431671,0.00043742498382925987,-0.0017042765393853188
1783169151141693700,8.305693603515625,-0.0014222003519535065,-0.00011599669232964516,-0.0013706982135772705
1783169151151641600,8.3156416015625,0.002189045771956444,0.0006134430877864361,-0.00028759054839611053
1783169151161590500,8.325590576171875,-0.00029148347675800323,-0.00027040252462029457,-0.0017658369615674019
1783169151171539500,8.33553955078125,0.0002922825515270233,0.0008585113100707531,-0.00037566665560007095
1783169151181518600,8.3455185546875,-0.0003944225609302521,0.000011306721717119217,0.0007178280502557755
1783169151191467500,8.355467529296876,-0.0004863012582063675,0.0015420918352901936,-0.0017738258466124535
1783169151201416700,8.365416748046876,0.0004434380680322647,0.0003090221434831619,0.0005145939067006111
1783169151211364600,8.375364501953126,-0.0005688294768333435,0.0004717409610748291,0.00004747603088617325
1783169151221344800,8.3853447265625,0.0013506412506103516,0.0013523236848413944,0.00016851536929607391
1783169151231292700,8.395292724609375,-0.0019713863730430603,0.0017486019060015678,-0.00004879850894212723
1783169151241241600,8.40524169921875,0.002003764733672142,-0.002803073264658451,-0.0019657090306282043
1783169151251220700,8.415220703125,-0.000558461993932724,-0.00031514838337898254,-0.0006114915013313293
1783169151261169700,8.425169677734376,-0.0013963934034109116,-0.001663596834987402,-0.00009467266499996185
1783169151271118600,8.43511865234375,-0.0009553749114274979,-0.0016175243072211742,0.002600979059934616
1783169151281066800,8.445066650390626,0.00023014657199382782,0.0014949431642889977,-0.00034885015338659286
1783169151291046700,8.455046630859375,-0.0009056925773620605,-0.0013863304629921913,-0.0017105238512158394
1783169151300994600,8.46499462890625,-0.0019186362624168396,-0.0005219276063144207,-0.0010982993990182877
1783169151310943500,8.474943603515625,-0.0015884041786193848,-0.00019995123147964478,0.0009331600740551949
1783169151320892700,8.484892578125,-0.0015819724649190903,0.0005110953934490681,0.0006510680541396141
1783169151330871600,8.49487158203125,-0.0009686462581157684,0.0022528027184307575,-0.00025147758424282074
1783169151340820500,8.504820556640626,0.0020013246685266495,-0.0013525327667593956,-0.0008997293189167976
1783169151350769400,8.514769287109376,0.0010820012539625168,0.000895441509783268,-0.004094723612070084
1783169151360717600,8.524717529296876,-0.0006313193589448929,-0.0032969259191304445,0.00009801145642995834
1783169151370697700,8.53469775390625,0.0008965358138084412,0.0016320524737238884,0.000536101870238781
1783169151380645600,8.544645751953125,-0.0008749756962060928,0.00003857351839542389,-0.0004414208233356476
1783169151390594800,8.5545947265625,-0.00014819763600826263,0.0019523212686181068,-0.00031066033989191055
1783169151400573700,8.56457373046875,-0.0004455558955669403,-0.00019936170428991318,-0.0014054812490940094
1783169151410522600,8.574522705078126,0.001075906679034233,0.0013199718669056892,-0.0016299858689308167
1783169151420471600,8.584471435546876,-0.0004598591476678848,0.00039247097447514534,-0.00010646507143974304
1783169151430419700,8.594419677734376,0.00016385316848754883,0.0005946047604084015,-0.0029073115438222885
1783169151440399600,8.604399658203125,-0.00027898140251636505,-0.00012835580855607986,0.001501645427197218
1783169151450347800,8.61434765625,0.0007849521934986115,0.001234383787959814,-0.0005500540137290955
1783169151460296700,8.624296630859375,-0.00006700307130813599,-0.004778677131980658,0.0012155519798398018
1783169151470245600,8.63424560546875,-0.0019131079316139221,0.0031660646200180054,-0.0017003435641527176
1783169151480224500,8.644224609375,0.00045418553054332733,0.001089249737560749,-0.002625442110002041
1783169151490173700,8.654173583984376,0.0010824259370565414,-0.0018141285981982946,0.0017077876254916191
1783169151500122600,8.66412255859375,-0.0003046710044145584,0.0009513096883893013,-0.0005165934562683105
1783169151510070500,8.674070556640626,-0.00009907595813274384,0.0023790299892425537,0.0008858270011842251
1783169151520050400,8.684050537109375,0.0004609525203704834,0.0006307368166744709,-0.00004838872700929642
1783169151529998600,8.69399853515625,0.002820512279868126,-0.0004007052630186081,-0.001538960263133049
1783169151539947500,8.703947509765625,-0.0008482895791530609,-0.00018964940682053566,0.00018542539328336716
1783169151549926400,8.713926513671876,0.00150328129529953,-0.0002511683851480484,-0.0004281671717762947
1783169151559875800,8.723875732421876,-0.00018353573977947235,0.001376911997795105,0.0002127625048160553
1783169151569824800,8.73382470703125,0.00019569694995880127,-0.00134563772007823,-0.0007321275770664215
1783169151579773700,8.743773681640626,-0.00023964978754520416,-0.0014393022283911705,0.000983704812824726
1783169151589752600,8.753752685546875,-0.0004228763282299042,-0.0014912337064743042,0.00025186873972415924
1783169151599701800,8.76370166015625,-0.0006515029817819595,0.0010486850515007973,-0.0015175295993685722
1783169151609649700,8.773649658203125,-0.0008480437099933624,-0.0009510824456810951,0.000020178966224193573
1783169151619598600,8.7835986328125,-0.0007092654705047607,0.001530444249510765,-0.0007700016722083092
1783169151629577700,8.79357763671875,-0.0008331015706062317,-0.0018429821357131004,0.0010718400590121746
1783169151639526700,8.803526611328126,-0.000377388671040535,0.0015059029683470726,-0.0004145381972193718
1783169151649475600,8.8134755859375,0.0012985393404960632,-0.0001804106868803501,0.00038147997111082077
1783169151659423500,8.823423583984376,-0.002005467191338539,-0.0008865161798894405,-0.00006787758320569992
1783169151669403600,8.833403564453125,0.0003213360905647278,0.0014299014583230019,0.00023838598281145096
1783169151679351600,8.8433515625,0.002030070871114731,0.0030499929562211037,-0.00043109524995088577
1783169151689300500,8.853300537109375,0.0007293839007616043,0.002414829097688198,0.00039501767605543137
1783169151699249400,8.86324951171875,-0.0016855504363775253,0.00005246233195066452,-0.0007819784805178642
1783169151709228500,8.873228515625,-0.0017356183379888535,-0.0006303722038865089,-0.0012861145660281181
1783169151719177700,8.883177734375,0.0014730095863342285,0.0006058486178517342,-0.0015354594215750694
1783169151729126700,8.893126708984376,-0.00048574432730674744,0.00005617225542664528,-0.0017588986083865166
1783169151739105800,8.903105712890625,-0.0016084443777799606,0.0005350382998585701,-0.0007727332413196564
1783169151749054700,8.9130546875,-0.0008726119995117188,0.0020541055127978325,-0.00039456505328416824
1783169151759002600,8.923002685546875,0.00041771866381168365,-0.00010024430230259895,0.0008702580817043781
1783169151768951600,8.93295166015625,-0.0003641843795776367,-0.00018360139802098274,0.0021083615720272064
1783169151778930700,8.9429306640625,-0.0016796514391899109,-0.0027251688297837973,0.0005206940695643425
1783169151788879600,8.952879638671876,0.00007537193596363068,0.000262631569057703,0.000006703659892082214
1783169151798828500,8.96282861328125,-0.0008459258824586868,0.000040683429688215256,0.0025324062444269657
1783169151808776700,8.972776611328126,0.0005343891680240631,-0.0006514722481369972,0.000599483959376812
1783169151818756600,8.982756591796875,0.0011758990585803986,-0.0007432634010910988,0.0006313449703156948
1783169151828704500,8.99270458984375,-0.0008347872644662857,0.0008090934716165066,0.0007155006751418114
1783169151838653400,9.0026533203125,-0.0001081656664609909,-0.0000922870822250843,0.001190059818327427
1783169151848602600,9.0126025390625,-0.0005204230546951294,0.0010249088518321514,-0.0007463246583938599
1783169151858581500,9.02258154296875,-0.001436624675989151,0.0028426232747733593,-0.001965493895113468
1783169151868530400,9.032530517578126,-0.000931955873966217,-0.0004144227132201195,0.00014372915029525757
1783169151878479600,9.042479736328126,-0.0005666632205247879,-0.0005958010442554951,0.0017226208001375198
1783169151888458800,9.052458740234375,0.0013809055089950562,-0.00017635291442275047,-0.0018787719309329987
1783169151898407700,9.06240771484375,-0.0016272403299808502,0.00014013564214110374,0.0008220276795327663
1783169151908393000,9.07239306640625,-0.001959601417183876,-0.0024085096083581448,0.0005828756839036942
1783169151918342100,9.082342041015625,-0.0011619962751865387,-0.0024084404576569796,0.0012489850632846355
1783169151928320800,9.09232080078125,0.00030540674924850464,0.0010012048296630383,-0.0015710359439253807
1783169151938270200,9.102270263671874,0.0006790310144424438,0.0004255436360836029,0.0005339188501238823
1783169151948219100,9.11221923828125,0.002503829076886177,-0.0005824626423418522,0.0018151653930544853
1783169151958167000,9.1221669921875,0.0018001515418291092,0.0027182400226593018,-0.0023048287257552147
1783169151968147000,9.13214697265625,-0.0009120125323534012,-0.0011119185946881771,0.0005580699071288109
1783169151978095000,9.14209521484375,-0.00021343305706977844,0.0008142325095832348,0.0005569262430071831
1783169151988044000,9.1520439453125,-0.0014467444270849228,0.0017087883315980434,0.0016546817496418953
1783169151997993000,9.161992919921875,-0.0016348566859960556,0.003235861659049988,-0.001356690190732479
1783169152007972000,9.17197216796875,-0.0026655010879039764,-0.0016880568582564592,0.0019227266311645508
1783169152017921000,9.181921142578124,-0.0012833978980779648,-0.0005166982300579548,0.0020179268904030323
1783169152027870000,9.191869873046874,-0.0007078889757394791,-0.00036569731310009956,-0.0005490938201546669
1783169152037817900,9.20181787109375,-0.0010494999587535858,0.0006410353817045689,-0.0008789021521806717
1783169152047798000,9.211798095703125,-0.0008236635476350784,-0.00017762044444680214,0.0015309923328459263
1783169152057746000,9.221745849609375,-0.000021517276763916016,0.001205146312713623,-0.00044519826769828796
1783169152067694800,9.23169482421875,0.0002607777714729309,-0.000026565976440906525,-0.0007759630680084229
1783169152077674000,9.241674072265624,0.0014595817774534225,0.000764939934015274,-0.0005104998126626015
1783169152087623000,9.251622802734374,0.00008432567119598389,0.0011324561201035976,0.0011606337502598763
1783169152097572000,9.261572021484374,-0.0012037325650453568,-0.0024051887448877096,-0.000283227302134037
1783169152107520000,9.27152001953125,-0.0011115875095129013,-0.001127137802541256,0.00015486311167478561
1783169152117500200,9.281500244140625,-0.0012368559837341309,-0.00031915633007884026,0.00013711117208003998
1783169152127448000,9.291447998046875,0.000006042420864105225,-0.0005465904250741005,0.0013198209926486015
1783169152137397000,9.30139697265625,-0.00012846291065216064,-0.002158605959266424,-0.0005201715975999832
1783169152147346000,9.311345947265625,0.001024685800075531,0.0008837892673909664,0.0008830484002828598
1783169152157325000,9.321324951171874,0.001363193616271019,-0.0010784091427922249,0.0012052319943904877
1783169152167274000,9.33127392578125,0.0015698540955781937,-0.001018487848341465,0.00046700332313776016
1783169152177223000,9.341222900390624,-0.0007892753928899765,0.0005991966463625431,-0.002503371797502041
1783169152187171000,9.351171142578124,-0.0009322874248027802,0.0005035889334976673,-0.0008815061300992966
1783169152197151000,9.36115087890625,-0.0014992859214544296,-0.0015330626629292965,-0.0000775633379817009
1783169152207099000,9.371098876953125,-0.0008462779223918915,-0.0014864574186503887,-0.0008141938596963882
1783169152217047800,9.3810478515625,0.0006056912243366241,0.0013266266323626041,-0.0015138154849410057
1783169152227027000,9.39102685546875,-0.001893419772386551,0.0012251604348421097,0.0001306859776377678
1783169152236975900,9.400975830078124,-0.000804191455245018,0.0004356107674539089,0.0017079436220228672
1783169152246925000,9.410925048828124,-0.0014196466654539108,-0.001209690235555172,0.0008038002997636795
1783169152256874000,9.4208740234375,0.0022247284650802612,-0.0005502542480826378,-0.00030708033591508865
1783169152266853000,9.43085302734375,0.0004899445921182632,-0.00035318033769726753,-0.0007632793858647346
1783169152276801000,9.440801025390625,0.0007725842297077179,-0.0005906862206757069,0.00020174961537122726
1783169152286750000,9.45075,-0.0006226450204849243,0.00080507667735219,-0.0011087916791439056
1783169152296699100,9.46069921875,-0.0003015417605638504,-0.0014288541860878468,0.0009657964110374451
1783169152306678000,9.470677978515624,-0.001035774126648903,0.00010778941214084625,0.00045526865869760513
1783169152316627000,9.480626953125,0.0004147198051214218,-0.00036316225305199623,-0.0011252295225858688
1783169152326575900,9.490575927734374,0.000014446675777435303,-0.0013623801060020924,0.001131267286837101
1783169152336524000,9.50052392578125,0.00009335577487945557,0.0007882765494287014,0.0006043072789907455
1783169152346504000,9.51050390625,-0.0004773605614900589,0.0007339483126997948,-0.0001810593530535698
1783169152356452000,9.5204521484375,0.0006546564400196075,-0.00017768796533346176,0.00016615819185972214
1783169152366401000,9.530401123046875,0.0006362814456224442,-0.00010498333722352982,-0.0005872501060366631
1783169152376380000,9.5403798828125,-0.001147150993347168,-0.001712509198114276,0.0005263229832053185
1783169152386328800,9.550328857421874,-0.00040226615965366364,0.0020777015015482903,0.000640838872641325
1783169152396278000,9.560278076171874,-0.0015738904476165771,-0.0016802933532744646,-0.0002200435847043991
1783169152406227200,9.570227294921875,-0.00030622631311416626,0.0005591586232185364,-0.0016506938263773918
1783169152416205800,9.580205810546875,0.001140659675002098,-0.0006177974864840508,0.0004960298538208008
1783169152426155000,9.590155029296875,-0.0030277203768491745,-0.0011405758559703827,-0.0026992307975888252
1783169152436103200,9.600103271484375,-0.0012853816151618958,-0.0013479082845151424,-0.0015819193795323372
1783169152446052000,9.610052001953125,-0.00118924118578434,0.0009056585840880871,-0.001002415083348751
1783169152456031000,9.620031005859374,-0.00030152127146720886,0.00034461915493011475,-0.0011975429952144623
1783169152465980200,9.629980224609374,0.00039516203105449677,0.00009454833343625069,-0.002489974722266197
1783169152475929000,9.63992919921875,-0.0005177948623895645,0.004061540588736534,7.59027898311615e-7
1783169152485877000,9.649876953125,0.0017160642892122269,0.0002114083617925644,0.0006764032877981663
1783169152495857000,9.65985693359375,0.0021757930517196655,0.0001765233464539051,0.00011326000094413757
1783169152505805000,9.66980517578125,0.0016154646873474121,-0.0018583978526294231,-0.000972243957221508
1783169152515754000,9.67975390625,-0.0008283834904432297,-0.0004679970443248749,0.0011023175902664661
1783169152525703000,9.689702880859375,-0.0017210748046636581,-0.00017158733680844307,-0.0018495302647352219
1783169152535682000,9.69968212890625,-0.0014676712453365326,0.001730981282889843,-0.001417703926563263
1783169152545631000,9.709630859375,-0.0005041398108005524,0.00042736437171697617,0.0012659630738198757
1783169152555580000,9.719579833984374,-0.001759132370352745,-0.0011325362138450146,0.0011477824300527573
1783169152565558800,9.729558837890625,0.000901099294424057,-0.00021214783191680908,-0.0009949970990419388
1783169152575508200,9.73950830078125,0.0002380218356847763,-0.001083224080502987,-0.001640336588025093
1783169152585455900,9.749455810546875,-0.00035985931754112244,-0.0003375392407178879,-0.00007892586290836334
1783169152595405000,9.759405029296875,0.0008475575596094131,0.0003754058852791786,0.0002939049154520035
1783169152605384200,9.76938427734375,0.0000043995678424835205,-0.0009593702852725983,0.00026940368115901947
1783169152615333000,9.7793330078125,-0.0016257073730230331,-0.0004103551618754864,-0.00024325121194124222
1783169152625282000,9.789281982421874,-0.0006073154509067535,-0.0033163963817059994,0.0008108275942504406
1783169152635230000,9.79922998046875,-0.0017752256244421005,0.0008678948506712914,0.0012965272180736065
1783169152645210000,9.809210205078125,0.0005832705646753311,-0.002803805051371455,0.0008405940607190132
1783169152655158000,9.819157958984375,0.00017179176211357117,-0.0009752819314599037,-0.000568067654967308
1783169152665107000,9.82910693359375,0.0005574170500040054,0.0012966608628630638,-0.000524657778441906
1783169152675055900,9.839055908203125,0.0009525269269943237,-0.0026046005077660084,0.0022560101933777332
1783169152685035000,9.849034912109374,0.0007935352623462677,0.001257781870663166,-0.0005802558735013008
1783169152694984000,9.85898388671875,-0.0015168040990829468,0.0013940930366516113,-0.0014449413865804672
1783169152704932900,9.868932861328124,-0.0008084047585725784,0.0006193798035383224,-0.0003365343436598778
1783169152714912000,9.878912109375,-0.0018170010298490524,-0.0011667460203170776,-0.0015220707282423973
1783169152724861000,9.88886083984375,0.0002964828163385391,-0.00005487632006406784,0.0011402913369238377
1783169152734808800,9.898808837890625,0.001794859766960144,-0.0003096400760114193,0.0005633113905787468
1783169152744758000,9.908758056640625,0.0012268070131540298,0.0005015586502850056,0.0012765061110258102
1783169152754737000,9.91873681640625,0.0006681196391582489,-0.0006859502755105495,0.003272601403295994
1783169152764686000,9.92868603515625,0.0005104616284370422,0.0013380520977079868,0.0006395340897142887
1783169152774635000,9.938635009765624,-0.0006021521985530853,0.001325701829046011,0.0012072105892002583
1783169152784583200,9.948583251953124,-0.0015291981399059296,-0.001284994650632143,-0.000041279010474681854
1783169152794563000,9.95856298828125,-0.0003506988286972046,-0.0009377365931868553,0.0002506095916032791
1783169152804511000,9.968510986328125,-0.0005096886307001114,-0.0007252162322402,-0.00005938299000263214
1783169152814460200,9.978460205078125,-0.0012535229325294495,0.00007578544318675995,-0.00018656998872756958
1783169152824409000,9.9884091796875,-0.0007368698716163635,0.0012973775155842304,-0.0005823150277137756
1783169152834388000,9.998387939453124,0.0011360347270965576,-0.0013318550772964954,0.00017352867871522903
1783169152844337000,10.0083369140625,0.0001032613217830658,-0.0010221293196082115,-0.00022115185856819153
1783169152854286000,10.0182861328125,0.0009924732148647308,-0.00044267671182751656,0.0013196850195527077
1783169152864234000,10.02823388671875,0.000823361799120903,0.0009536189027130604,-0.0004244185984134674
1783169152874214000,10.0382138671875,-0.0004711318761110306,0.002160517033189535,-0.0017015570774674416
1783169152884162000,10.048162109375,-0.0003214627504348755,-0.0005346019752323627,-0.0006674518808722496
1783169152894111000,10.058111083984375,-0.0005387701094150543,0.0002916022203862667,-0.0008417926728725433
1783169152904098000,10.06809814453125,0.0010223742574453354,-0.0006282534450292587,0.0007419888861477375
1783169152914047000,10.078046875,-0.001257592812180519,-0.001572966342791915,0.0021380670368671417
1783169152923996000,10.087995849609374,-0.000924963504076004,0.000447307713329792,-0.0011232402175664902
1783169152933944000,10.097944091796874,-0.0002812109887599945,-0.0003806678578257561,-0.0007222369313240051
1783169152943924000,10.107924072265625,0.00040242262184619904,0.0013333423994481564,0.0009957682341337204
1783169152953872000,10.117871826171875,-0.0007737483829259872,0.00022904295474290848,-0.0017743809148669243
1783169152963821000,10.127821044921875,0.0010486524552106857,0.0003486187197268009,0.00138173159211874
1783169152973770000,10.13777001953125,0.0011717434972524643,0.0010812240652740002,0.001650895457714796
1783169152983748900,10.147748779296874,0.0013187490403652191,-0.0027566575445234776,0.0002439478412270546
1783169152993697800,10.15769775390625,0.0007318388670682907,0.0016206013970077038,0.0000922083854675293
1783169153003647000,10.16764697265625,0.0005068015307188034,-0.00019913678988814354,0.0007641240954399109
1783169153013595000,10.177594970703124,0.00035362690687179565,-0.0012288158759474754,0.002283995971083641
1783169153023574800,10.18757470703125,0.00007079914212226868,0.0019909460097551346,-0.0007115276530385017
1783169153033523000,10.19752294921875,0.00012411177158355713,-0.0013090134598314762,-0.0017366604879498482
1783169153043472000,10.207471923828125,0.00006765127182006836,-0.0015763945411890745,0.00011556781828403473
1783169153053450800,10.21745068359375,0.000707775354385376,0.0014903619885444641,-0.00044488441199064255
1783169153063400000,10.22739990234375,-0.002348201349377632,-0.00044708745554089546,0.0005668504163622856
1783169153073349000,10.23734912109375,-0.0005570687353610992,-0.001236459705978632,0.0011547240428626537
1783169153083298000,10.247298095703124,0.0006293691694736481,0.001251731999218464,0.0006825453601777554
1783169153093277000,10.25727685546875,0.0006873477250337601,0.002458175178617239,-0.001727920025587082
1783169153103225900,10.267225830078125,0.0016410257667303085,0.00024189241230487823,-0.0003289617598056793
1783169153113174000,10.277174072265625,-0.00014599226415157318,-0.00064418138936162,0.0012361779808998108
1783169153123123000,10.287123046875,-0.0006485302001237869,-0.0021043927408754826,0.00014508049935102463
1783169153133101800,10.297101806640624,0.0012519918382167816,-0.00010721897706389427,-0.0008479924872517586
1783169153143051000,10.307051025390624,0.0009318813681602478,0.0005026450380682945,-0.0006964579224586487
1783169153153000000,10.317,-0.0008140541613101959,-0.0014916304498910904,0.0012997952289879322
1783169153162947800,10.32694775390625,0.001069067046046257,-0.001024778001010418,0.0006425268948078156
1783169153172927700,10.336927734375,0.0009179133921861649,0.00007662875577807426,-0.0012681139633059502
1783169153182876000,10.3468759765625,-0.0002496149390935898,-0.0010056798346340656,0.0009657456539571285
1783169153192824800,10.356824951171875,0.0009119119495153427,0.0016549509018659592,-0.00012203399091959
1783169153202804000,10.366803955078124,-0.00016879849135875702,-0.0007309750653803349,-0.0006714435294270515
1783169153212753000,10.3767529296875,-0.000011494383215904236,0.0003558807075023651,-0.000438629649579525
1783169153222702000,10.3867021484375,0.001874024048447609,-0.0013112579472362995,-0.0006354376673698425
1783169153232651000,10.396651123046874,-0.0006822925060987473,-0.0024618604220449924,0.0007103262469172478
1783169153242630000,10.4066298828125,-0.00035232678055763245,0.0014236913993954659,-0.0016542943194508553
1783169153252579000,10.4165791015625,0.0010776743292808533,0.0008759708143770695,-0.0006250264123082161
1783169153262527000,10.42652685546875,0.0001839175820350647,0.0005529290065169334,0.0009992355480790138
1783169153272476000,10.436475830078125,-0.0005550291389226913,-0.0018771560862660408,-0.0018057581037282944
1783169153282455000,10.446455078125,0.00015150569379329681,0.0012006592005491257,-0.0010661985725164413
1783169153292404000,10.456404052734374,-0.0007780324667692184,-0.005698744673281908,0.0019589648582041264
1783169153302353000,10.466352783203124,-0.0022909734398126602,-0.0016613923944532871,0.0005320431664586067
1783169153312300800,10.47630078125,-0.0006872452795505524,-0.00020956061780452728,-0.001726727932691574
1783169153322281000,10.486281005859375,0.0007303543388843536,-0.0023342305794358253,-0.0005839653313159943
1783169153332228900,10.496228759765625,-0.0013754889369010925,0.002118992153555155,0.0001457473263144493
1783169153342177800,10.506177734375,-0.0007568374276161194,0.0010974034667015076,0.00001791585236787796
1783169153352126700,10.516126708984375,0.0020896270871162415,-0.0008319010958075523,-0.00046002864837646484
1783169153362105900,10.52610595703125,0.0017551332712173462,0.0008906316943466663,0.0000995006412267685
1783169153372054800,10.5360546875,0.001260140910744667,0.001583680510520935,-0.0007814150303602219
1783169153382004000,10.54600390625,0.0012622717767953873,-0.0002784016542136669,0.0028538000769913197
1783169153391983000,10.555983154296875,-0.002591332420706749,-0.00023094937205314636,0.0006998241879045963
1783169153401932000,10.56593212890625,0.004027688875794411,0.0013541639782488346,-0.0006264299154281616
1783169153411880000,10.5758798828125,0.0021236389875411987,-0.0027073537930846214,0.00204639695584774
1783169153421828900,10.585828857421875,0.00029910728335380554,-0.0014109271578490734,-0.0011834846809506416
1783169153431808000,10.59580810546875,0.0011176206171512604,-0.00014090538024902344,-0.0013151764869689941
1783169153441757000,10.6057568359375,0.0009325295686721802,0.0008921348489820957,-0.0009407354518771172
1783169153451705900,10.615705810546874,0.00004099495708942413,0.00037123728543519974,-0.0010850727558135986
1783169153461654000,10.625654052734374,-0.00021253898739814758,0.0010703173466026783,0.000025199726223945618
1783169153471634000,10.635634033203125,-0.0002600196748971939,-0.0009124688804149628,0.0010385713540017605
1783169153481581800,10.645581787109375,0.00022627413272857666,-0.00007916567847132683,0.0006220526993274689
1783169153491531000,10.655531005859375,-0.0021972041577100754,-0.000973294023424387,0.0021462677977979183
1783169153501480000,10.66547998046875,-0.00047094374895095825,-0.00048513663932681084,0.0006903177127242088
1783169153511458800,10.675458740234374,-0.0006856396794319153,-0.0007566125132143497,-0.00028252508491277695
1783169153521407700,10.68540771484375,0.00039613619446754456,-0.0011254604905843735,-0.00040050316601991653
1783169153531357000,10.69535693359375,0.001116674393415451,0.00009786197915673256,-0.00011024158447980881
1783169153541335800,10.705335693359375,0.000793900340795517,-0.0003700554370880127,0.0006950981914997101
1783169153551285000,10.715284912109375,0.0004323013126850128,0.001156599260866642,-0.0003333892673254013
1783169153561233000,10.72523291015625,0.0015676077455282211,0.0028202757239341736,-0.00012912414968013763
1783169153571182000,10.73518212890625,0.000992562621831894,0.0005503594875335693,0.0021547209471464157
1783169153581161000,10.745160888671874,-0.0013523511588573456,-0.0009564566425979137,-0.0007340097799897194
1783169153591110000,10.75510986328125,0.0007724128663539886,-0.0008543948642909527,0.0011793323792517185
1783169153601059000,10.76505908203125,-0.0014167055487632751,0.00034109828993678093,0.001227002590894699
1783169153611007000,10.775007080078124,-0.0004948265850543976,0.001924232579767704,-0.002142705023288727
1783169153620987000,10.78498681640625,0.001701749861240387,-0.0018531952518969774,-0.0006745047867298126
1783169153630935000,10.79493505859375,0.0007998105138540268,-0.0004618307575583458,0.0002078469842672348
1783169153640884000,10.804884033203125,0.0003457404673099518,0.0003152796998620033,-0.0004771184176206589
1783169153650833000,10.8148330078125,-0.000687016174197197,-0.000443438533693552,-0.0014981329441070557
1783169153660811800,10.824811767578124,-0.0006316229701042175,0.000004505272954702377,0.00040709227323532104
1783169153670761000,10.834760986328124,-0.0017670933157205582,-0.00038969749584794044,-0.00040351785719394684
1783169153680710000,10.8447099609375,0.0013445429503917694,-0.0006299144588410854,-0.0006506592035293579
1783169153690657800,10.85465771484375,-0.000514596700668335,-0.00042511802166700363,-0.0006487024948000908
1783169153700637700,10.8646376953125,0.0010513421148061752,0.0008761025965213776,0.00020164530724287033
1783169153710585900,10.8745859375,0.0003429017961025238,-0.0012193406000733376,0.0011051115579903126
1783169153720534800,10.88453466796875,-0.0001793447881937027,0.0013761762529611588,-0.0009694909676909447
1783169153730514000,10.894513916015624,0.0011056922376155853,0.0018109101802110672,-0.0003879573196172714
1783169153740463000,10.904463134765624,0.0011709388345479965,0.0009563020430505276,-0.0015171375125646591
1783169153750412000,10.914412109375,-0.0004185382276773453,-0.0013309293426573277,-0.0013376027345657349
1783169153760361000,10.92436083984375,0.0009223632514476776,-0.0006843139417469501,0.0020020012743771076
1783169153770339800,10.93433984375,-0.0003277100622653961,-0.0002601402811706066,-0.0008436860516667366
1783169153780288000,10.9442880859375,-0.0006012171506881714,-0.0005501587875187397,-0.00020372774451971054
1783169153790237000,10.95423681640625,0.0010178480297327042,0.0014036190696060658,0.00037070363759994507
1783169153800185900,10.964185791015625,0.00028334930539131165,-0.00015406403690576553,-0.0003736494109034538
1783169153810165000,10.9741650390625,-0.00037094391882419586,0.0019931867718696594,0.0008624889887869358
1783169153820114000,10.984114013671874,0.0021356232464313507,-0.0015474858228117228,0.0011596977710723877
1783169153830062800,10.994062744140624,-0.00012661516666412354,-0.0008082040585577488,-0.0005383230745792389
1783169153840011000,11.004010986328124,0.00004222989082336426,-0.0019509666599333286,0.0007828711532056332
1783169153849991000,11.013990966796875,0.00033951178193092346,0.0006624250672757626,-0.00016497354954481125
1783169153859938800,11.023938720703125,-0.00012201257050037384,0.00010928651317954063,0.0007018852047622204
1783169153869887700,11.0338876953125,0.00023705139756202698,-0.0000025909394025802612,0.00025019701570272446
1783169153879867000,11.043866943359374,0.0011997837573289871,-0.0005243043415248394,-0.0003458186984062195
1783169153889815800,11.05381591796875,-0.0001752227544784546,0.000015105120837688446,0.0006655938923358917
1783169153899765000,11.063764892578124,-0.0007440727204084396,0.0001317514106631279,0.00036119483411312103
1783169153909751000,11.0737509765625,0.0005154814571142197,0.0025719469413161278,0.0006526922807097435
1783169153919730000,11.08372998046875,0.001491796225309372,-0.0005045370198786259,0.0005403067916631699
1783169153929678800,11.093678955078126,0.00006391666829586029,0.00005770102143287659,-0.0004690438508987427
1783169153939627000,11.103626953125,-0.0003504697233438492,-0.001770558999851346,-0.0006349589675664902
1783169153949576000,11.113575927734376,0.0007960479706525803,-0.00034912535920739174,-0.0005115419626235962
1783169153959554800,11.123554931640625,0.0005297306925058365,-0.0008519301190972328,0.001237621996551752
1783169153969504000,11.13350390625,-0.0007424075156450272,-0.0003689550794661045,0.0006039580330252647
1783169153979453000,11.143452880859375,0.00035028718411922455,0.00033411942422389984,-0.001159587875008583
1783169153989400800,11.15340087890625,-0.0006103292107582092,-0.0005096886307001114,0.0004757000133395195
1783169153999380700,11.163380615234376,-0.0007437542080879211,0.0002343985252082348,0.00083895493298769
1783169154009329000,11.173328857421875,0.001868942752480507,0.0011706906370818615,0.0001941351220011711
1783169154019277800,11.18327783203125,-0.00036038830876350403,-0.0014447998255491257,0.0008902857080101967
1783169154029256700,11.193256591796874,0.0009084604680538177,0.0007812622934579849,-0.00001090019941329956
1783169154039206000,11.203205810546875,-0.0001999475061893463,0.00018471432849764824,0.001139319036155939
1783169154049154800,11.21315478515625,0.0009036380797624588,-0.0002803439274430275,-0.00040969252586364746
1783169154059104000,11.22310400390625,0.0011486485600471497,0.0005553560331463814,0.0007522441446781158
1783169154069083000,11.233082763671876,-0.0009267274290323257,0.0003233635798096657,0.000013259239494800568
1783169154079032000,11.243031982421876,0.0008591879159212112,0.001048009842634201,-0.00016597192734479904
1783169154088980000,11.25297998046875,0.0007827877998352051,0.0007401341572403908,0.00015617813915014267
1783169154098929000,11.262928955078126,-0.00048807263374328613,0.00008206674829125404,-0.0005612773820757866
1783169154108908000,11.272907958984375,-0.0004529636353254318,0.00117495097219944,-0.0005715936422348022
1783169154118857000,11.28285693359375,0.00017634034156799316,-0.0004096296615898609,0.0017152628861367702
1783169154128806000,11.292805908203125,0.0003992784768342972,-0.0014314264990389347,0.0000871419906616211
1783169154138753800,11.30275390625,-0.00039008259773254395,-0.0017083955463021994,-0.0006095413118600845
1783169154148734000,11.31273388671875,0.00037231482565402985,-0.00039795180782675743,-0.0009706756100058556
1783169154158681900,11.322681884765625,-0.00027962587773799896,-0.003213978372514248,0.0015931492671370506
1783169154168630800,11.332630859375,0.0007729772478342056,0.00005012005567550659,0.0008941530250012875
1783169154178579700,11.342579833984376,-0.0008845757693052292,-0.000825527124106884,-0.000296812504529953
1783169154188558800,11.352558837890625,0.001953423023223877,0.0005761710926890373,0.00017344672232866287
1783169154198507800,11.3625078125,0.0004926789551973343,0.0008475473150610924,0.0015809275209903717
1783169154208457000,11.37245703125,-0.0011577513068914413,0.00202483544126153,-0.0005138702690601349
1783169154218435800,11.382435791015626,-0.0005481541156768799,0.001432281918823719,-0.00016286596655845642
1783169154228385000,11.392385009765626,0.000546010211110115,0.002386135049164295,-0.00046761613339185715
1783169154238333000,11.4023330078125,-0.0009725242853164673,-0.00020245742052793503,-0.0014561815187335014
1783169154248281900,11.41228173828125,-0.0003146585077047348,0.0007225554436445236,-0.0005243904888629913
1783169154258261000,11.422260986328125,-0.0005615334957838058,-0.0019046526867896318,0.000987219624221325
1783169154268210000,11.4322099609375,0.0003822389990091324,0.00014369143173098564,-0.0007165707647800446
1783169154278158800,11.442158935546875,-0.00006703659892082214,-0.000963917002081871,-0.0016737114638090134
1783169154288107000,11.45210693359375,0.0010153278708457947,-0.00010155793279409409,0.00011944863945245743
1783169154298087000,11.4620869140625,-0.0018648803234100342,0.001174362376332283,-0.00029280874878168106
1783169154308034800,11.472034912109375,0.00003575906157493591,0.0008215801790356636,-0.00014207884669303894
1783169154317983700,11.481983642578125,-0.0007069967687129974,0.0002564573660492897,0.0011058789677917957
1783169154327933000,11.491932861328126,0.0016639474779367447,0.0006262031383812428,0.0008099828846752644
1783169154337911800,11.501911865234375,-0.0002490021288394928,-0.0001349281519651413,0.002204946707934141
1783169154347860700,11.51186083984375,-0.0008690357208251953,-0.00001900782808661461,-0.0004787622019648552
1783169154357809700,11.5218095703125,-0.00003653205931186676,0.0002457103691995144,-0.0014196569100022316
1783169154367788800,11.531788818359376,-0.001516127958893776,0.0012888838537037373,0.000015221536159515381
1783169154377737700,11.54173779296875,0.0011006928980350494,0.0023096734657883644,0.00007966998964548111
1783169154387686000,11.551685791015625,-0.00020650029182434082,-0.00015619629994034767,-0.0015669716522097588
1783169154397635000,11.561635009765626,0.0007423833012580872,0.0017399745993316174,-0.0025352975353598595
1783169154407614000,11.571614013671875,0.00016567297279834747,0.0016438751481473446,-0.001546618528664112
1783169154417563000,11.58156298828125,0.00037899240851402283,0.0014257621951401234,0.0013610203750431538
1783169154427511800,11.59151171875,-0.001271769404411316,0.000030714552849531174,-0.0007502501830458641
1783169154437461000,11.6014609375,0.0008102897554636002,-0.000009499490261077881,-0.0004943208768963814
1783169154447440000,11.61143994140625,0.00013607554137706757,-0.0011499645188450813,-0.0013776402920484543
1783169154457388000,11.621387939453125,0.0009757690131664276,0.0011012055911123753,0.0021960558369755745
1783169154467337000,11.6313369140625,-0.0002674367278814316,0.00010669603943824768,-0.0014103148132562637
1783169154477286000,11.641285888671876,0.000528315082192421,-0.00013911398127675056,-0.001413244754076004
