time,seconds_elapsed,z,y,x
1783169098062351000,0.10135107421875,-0.9873504638671875,-0.034881591796875,0.0108795166015625
1783169098072300000,0.111300048828125,-0.98748779296875,-0.0352325439453125,0.01177978515625
1783169098082279000,0.12127880859375,-0.9880828857421875,-0.034637451171875,0.0087738037109375
1783169098092228000,0.13122802734375,-0.9868316650390625,-0.034576416015625,0.0056610107421875
1783169098102176300,0.14117626953125,-0.9869537353515625,-0.0344390869140625,0.000885009765625
1783169098112125200,0.151125244140625,-0.9867401123046875,-0.0366973876953125,-0.00091552734375
1783169098122104000,0.16110400390625,-0.9872283935546875,-0.035736083984375,-0.0008544921875
1783169098132053200,0.17105322265625,-0.9870147705078125,-0.0344696044921875,0.001312255859375
1783169098142002200,0.181002197265625,-0.98748779296875,-0.03271484375,0.00372314453125
1783169098151981000,0.19098095703125,-0.9860992431640625,-0.0312042236328125,0.007232666015625
1783169098161930000,0.200929931640625,-0.98651123046875,-0.0302734375,0.0098876953125
1783169098171878100,0.210878173828125,-0.9863739013671875,-0.0301361083984375,0.010101318359375
1783169098181827000,0.2208271484375,-0.987091064453125,-0.0323333740234375,0.00970458984375
1783169098191806000,0.230805908203125,-0.98663330078125,-0.0332183837890625,0.007110595703125
1783169098201755100,0.240755126953125,-0.9863739013671875,-0.0343170166015625,0.0045928955078125
1783169098211704000,0.2507041015625,-0.98675537109375,-0.034149169921875,0.002532958984375
1783169098221653000,0.260653076171875,-0.986541748046875,-0.0346527099609375,0.0028228759765625
1783169098231632000,0.2706318359375,-0.987091064453125,-0.034149169921875,0.00323486328125
1783169098241581000,0.2805810546875,-0.986907958984375,-0.0334930419921875,0.0058746337890625
1783169098251529000,0.290529052734375,-0.987091064453125,-0.0334930419921875,0.0063323974609375
1783169098261478100,0.30047802734375,-0.9864349365234375,-0.0342559814453125,0.0072174072265625
1783169098271457000,0.31045703125,-0.9873046875,-0.0346527099609375,0.007598876953125
1783169098281406200,0.32040625,-0.986846923828125,-0.03497314453125,0.006134033203125
1783169098291355100,0.330355224609375,-0.9865570068359375,-0.035186767578125,0.0049285888671875
1783169098301334000,0.340333984375,-0.9858856201171875,-0.0358123779296875,0.0040283203125
1783169098311283200,0.350283203125,-0.9856719970703125,-0.034912109375,0.00225830078125
1783169098321231000,0.360231201171875,-0.9857177734375,-0.0349273681640625,0.0017547607421875
1783169098331180000,0.370179931640625,-0.985931396484375,-0.0352020263671875,0.0034637451171875
1783169098341159200,0.3801591796875,-0.9866943359375,-0.0341033935546875,0.004364013671875
1783169098351108000,0.390108154296875,-0.986297607421875,-0.033843994140625,0.00592041015625
1783169098361057000,0.40005712890625,-0.9868927001953125,-0.033416748046875,0.0074920654296875
1783169098371006000,0.410005859375,-0.9862060546875,-0.0323333740234375,0.00714111328125
1783169098380985000,0.419985107421875,-0.9858551025390625,-0.032318115234375,0.0068359375
1783169098390934000,0.42993408203125,-0.9862060546875,-0.0313873291015625,0.004730224609375
1783169098400882000,0.4398818359375,-0.9856414794921875,-0.0328369140625,0.00531005859375
1783169098410830800,0.449830810546875,-0.986236572265625,-0.0336456298828125,0.0051727294921875
1783169098420810000,0.45981005859375,-0.9865264892578125,-0.0337371826171875,0.004119873046875
1783169098430759000,0.469759033203125,-0.9860382080078125,-0.0346527099609375,0.0053253173828125
1783169098440708000,0.4797080078125,-0.9871978759765625,-0.03497314453125,0.004791259765625
1783169098450687200,0.489687255859375,-0.986480712890625,-0.0344085693359375,0.0047760009765625
1783169098460636200,0.49963623046875,-0.986358642578125,-0.034759521484375,0.00445556640625
1783169098470584000,0.509583984375,-0.9866943359375,-0.0341949462890625,0.0061492919921875
1783169098480533200,0.519533203125,-0.986358642578125,-0.0330963134765625,0.0059051513671875
1783169098490512100,0.52951220703125,-0.986724853515625,-0.03411865234375,0.0063018798828125
1783169098500461000,0.5394609375,-0.9864501953125,-0.034149169921875,0.004669189453125
1783169098510410000,0.549409912109375,-0.98602294921875,-0.0354766845703125,0.0050201416015625
1783169098520359000,0.55935888671875,-0.98699951171875,-0.0359344482421875,0.004638671875
1783169098530338000,0.569338134765625,-0.9861602783203125,-0.0359954833984375,0.0031585693359375
1783169098540287000,0.579286865234375,-0.986114501953125,-0.0360107421875,0.004364013671875
1783169098550235100,0.589235107421875,-0.9862823486328125,-0.0341033935546875,0.0041046142578125
1783169098560184000,0.59918408203125,-0.986968994140625,-0.03350830078125,0.0055999755859375
1783169098570163000,0.609162841796875,-0.9866790771484375,-0.0332183837890625,0.0068511962890625
1783169098580112000,0.61911181640625,-0.986053466796875,-0.032623291015625,0.0065155029296875
1783169098590061300,0.629061279296875,-0.98614501953125,-0.032928466796875,0.006866455078125
1783169098600040000,0.6390400390625,-0.986236572265625,-0.0344085693359375,0.0059051513671875
1783169098609989000,0.648989013671875,-0.9863433837890625,-0.0335540771484375,0.004913330078125
1783169098619937300,0.658937255859375,-0.9866485595703125,-0.0336456298828125,0.004638671875
1783169098629886200,0.66888623046875,-0.98626708984375,-0.0337371826171875,0.00311279296875
1783169098639865000,0.678864990234375,-0.9874114990234375,-0.03326416015625,0.00384521484375
1783169098649814000,0.68881396484375,-0.98590087890625,-0.0331268310546875,0.004638671875
1783169098659763200,0.69876318359375,-0.986968994140625,-0.033599853515625,0.0055694580078125
1783169098669712100,0.708712158203125,-0.9866790771484375,-0.0337982177734375,0.0067596435546875
1783169098679691000,0.71869091796875,-0.986846923828125,-0.034393310546875,0.006866455078125
1783169098689640000,0.728639892578125,-0.98663330078125,-0.0338134765625,0.0057220458984375
1783169098699588000,0.738588134765625,-0.9861297607421875,-0.03436279296875,0.0035552978515625
1783169098709537000,0.748537109375,-0.98699951171875,-0.034515380859375,0.003082275390625
1783169098719516200,0.75851611328125,-0.985870361328125,-0.034637451171875,0.00250244140625
1783169098729465000,0.768465087890625,-0.986785888671875,-0.03466796875,0.00347900390625
1783169098739414000,0.7784140625,-0.9860687255859375,-0.0341033935546875,0.00482177734375
1783169098749393000,0.788392822265625,-0.986907958984375,-0.03424072265625,0.0065460205078125
1783169098759342000,0.798342041015625,-0.986358642578125,-0.0339813232421875,0.0069122314453125
1783169098769290000,0.8082900390625,-0.986053466796875,-0.033905029296875,0.0073699951171875
1783169098779239200,0.8182392578125,-0.9863739013671875,-0.0334930419921875,0.00732421875
1783169098789218300,0.82821826171875,-0.986175537109375,-0.033172607421875,0.0066680908203125
1783169098799167200,0.838167236328125,-0.9858551025390625,-0.032958984375,0.005767822265625
1783169098809116200,0.8481162109375,-0.98626708984375,-0.0329132080078125,0.00531005859375
1783169098819065000,0.858065185546875,-0.985931396484375,-0.0342864990234375,0.0039215087890625
1783169098829044200,0.868044189453125,-0.9871978759765625,-0.0344085693359375,0.002838134765625
1783169098838993200,0.8779931640625,-0.9862213134765625,-0.034149169921875,0.005462646484375
1783169098848941000,0.887941162109375,-0.98651123046875,-0.0347137451171875,0.00634765625
1783169098858916600,0.89791650390625,-0.9865875244140625,-0.03515625,0.00689697265625
1783169098868895500,0.9078955078125,-0.9856109619140625,-0.0337371826171875,0.0059356689453125
1783169098878844400,0.917844482421875,-0.9854278564453125,-0.0335540771484375,0.00482177734375
1783169098888793300,0.92779345703125,-0.986114501953125,-0.03369140625,0.004425048828125
1783169098898772500,0.9377724609375,-0.9861907958984375,-0.0340576171875,0.0039215087890625
1783169098908721400,0.947721435546875,-0.98638916015625,-0.0334930419921875,0.003814697265625
1783169098918670300,0.95767041015625,-0.98736572265625,-0.0342559814453125,0.004669189453125
1783169098928618500,0.967618408203125,-0.986053466796875,-0.0338897705078125,0.00628662109375
1783169098938597400,0.977597412109375,-0.98577880859375,-0.0345306396484375,0.0063629150390625
1783169098948546600,0.987546630859375,-0.9857025146484375,-0.0348968505859375,0.00634765625
1783169098958495700,0.997495849609375,-0.98681640625,-0.0342559814453125,0.00628662109375
1783169098968444700,1.007444580078125,-0.9869537353515625,-0.03436279296875,0.0055694580078125
1783169098978423600,1.017423583984375,-0.98675537109375,-0.0335235595703125,0.00494384765625
1783169098988372500,1.02737255859375,-0.9871368408203125,-0.0331573486328125,0.004486083984375
1783169098998320600,1.037320556640625,-0.986846923828125,-0.0331268310546875,0.0044403076171875
1783169099008269600,1.04726953125,-0.9852142333984375,-0.033905029296875,0.0048065185546875
1783169099018248400,1.05724853515625,-0.9857177734375,-0.0335845947265625,0.004730224609375
1783169099028197600,1.06719775390625,-0.9855194091796875,-0.0348663330078125,0.0061798095703125
1783169099038146600,1.077146484375,-0.9864959716796875,-0.0346221923828125,0.0064697265625
1783169099048125400,1.08712548828125,-0.9874267578125,-0.0336761474609375,0.0057830810546875
1783169099058074400,1.097074462890625,-0.9869232177734375,-0.0337677001953125,0.0051116943359375
1783169099068023600,1.1070234375,-0.9866943359375,-0.034088134765625,0.0050506591796875
1783169099077971500,1.116971435546875,-0.986846923828125,-0.0337371826171875,0.0048980712890625
1783169099087951400,1.126951416015625,-0.9869232177734375,-0.033721923828125,0.0047149658203125
1783169099097899500,1.1368994140625,-0.9861907958984375,-0.033721923828125,0.004669189453125
1783169099107848700,1.1468486328125,-0.9858245849609375,-0.0340423583984375,0.00433349609375
1783169099117797600,1.156797607421875,-0.9852752685546875,-0.0339202880859375,0.0052337646484375
1783169099127776500,1.166776611328125,-0.9862060546875,-0.03411865234375,0.005340576171875
1783169099137725700,1.1767255859375,-0.98565673828125,-0.0341644287109375,0.0056915283203125
1783169099147673600,1.186673583984375,-0.9858551025390625,-0.034271240234375,0.0053558349609375
1783169099157622500,1.19662255859375,-0.986907958984375,-0.034515380859375,0.005584716796875
1783169099167601700,1.2066015625,-0.986572265625,-0.0340423583984375,0.0057373046875
1783169099177550600,1.216550537109375,-0.986358642578125,-0.0337982177734375,0.0057373046875
1783169099187499500,1.22649951171875,-0.98614501953125,-0.0348968505859375,0.0049896240234375
1783169099197478700,1.236478759765625,-0.9868316650390625,-0.034881591796875,0.0052642822265625
1783169099207427600,1.246427490234375,-0.98626708984375,-0.0335540771484375,0.004638671875
1783169099217376500,1.25637646484375,-0.985992431640625,-0.033477783203125,0.0056610107421875
1783169099227324400,1.266324462890625,-0.98626708984375,-0.0336761474609375,0.0055999755859375
1783169099237304600,1.2763046875,-0.9863739013671875,-0.033111572265625,0.00494384765625
1783169099247252500,1.28625244140625,-0.98614501953125,-0.033477783203125,0.0059814453125
1783169099257201400,1.296201416015625,-0.9862518310546875,-0.034515380859375,0.005523681640625
1783169099267150600,1.306150634765625,-0.9856414794921875,-0.03387451171875,0.0041046142578125
1783169099277129500,1.31612939453125,-0.9857635498046875,-0.03424072265625,0.00457763671875
1783169099287078700,1.32607861328125,-0.986297607421875,-0.0338592529296875,0.004974365234375
1783169099297026600,1.336026611328125,-0.9870758056640625,-0.0341949462890625,0.004852294921875
1783169099306975500,1.3459755859375,-0.9865875244140625,-0.0344085693359375,0.005096435546875
1783169099316954600,1.35595458984375,-0.9861297607421875,-0.0340576171875,0.0059814453125
1783169099326903600,1.365903564453125,-0.98626708984375,-0.0337677001953125,0.0057830810546875
1783169099336852500,1.3758525390625,-0.985565185546875,-0.0334930419921875,0.006195068359375
1783169099346831600,1.38583154296875,-0.9855804443359375,-0.0341339111328125,0.0061187744140625
1783169099356780500,1.395780517578125,-0.9870147705078125,-0.034332275390625,0.0066375732421875
1783169099366729500,1.4057294921875,-0.9875335693359375,-0.03436279296875,0.0056915283203125
1783169099376677600,1.415677734375,-0.986602783203125,-0.03350830078125,0.0049285888671875
1783169099386657500,1.425657470703125,-0.987060546875,-0.03363037109375,0.0057373046875
1783169099396605400,1.43560546875,-0.9865570068359375,-0.0344696044921875,0.005615234375
1783169099406554400,1.445554443359375,-0.9864044189453125,-0.0354766845703125,0.005218505859375
1783169099416503600,1.455503662109375,-0.9876708984375,-0.0355377197265625,0.00482177734375
1783169099426482400,1.465482421875,-0.987030029296875,-0.034423828125,0.005218505859375
1783169099436431600,1.475431640625,-0.987060546875,-0.03302001953125,0.0057220458984375
1783169099446379500,1.485379638671875,-0.986175537109375,-0.0337677001953125,0.005279541015625
1783169099456328700,1.49532861328125,-0.98590087890625,-0.0337677001953125,0.0047149658203125
1783169099466307600,1.5053076171875,-0.986419677734375,-0.03448486328125,0.0045013427734375
1783169099476256500,1.515256591796875,-0.985565185546875,-0.03363037109375,0.0052490234375
1783169099486205700,1.525205810546875,-0.9857177734375,-0.0338897705078125,0.0052490234375
1783169099496184600,1.5351845703125,-0.9863128662109375,-0.034027099609375,0.004486083984375
1783169099506133500,1.545133544921875,-0.987579345703125,-0.0340118408203125,0.0048675537109375
1783169099516082400,1.55508251953125,-0.9862213134765625,-0.0346527099609375,0.0052947998046875
1783169099526030600,1.565030517578125,-0.986236572265625,-0.033782958984375,0.0056915283203125
1783169099536010500,1.575010498046875,-0.986480712890625,-0.03387451171875,0.005859375
1783169099545958400,1.58495849609375,-0.9866790771484375,-0.0329132080078125,0.005523681640625
1783169099555907600,1.594907470703125,-0.9858245849609375,-0.0332489013671875,0.005523681640625
1783169099565856500,1.6048564453125,-0.98626708984375,-0.034393310546875,0.0047149658203125
1783169099575835400,1.61483544921875,-0.986358642578125,-0.034088134765625,0.00408935546875
1783169099585784300,1.624784423828125,-0.9853515625,-0.0340423583984375,0.004974365234375
1783169099595733800,1.634733642578125,-0.9857177734375,-0.0341796875,0.0047760009765625
1783169099605681400,1.644681396484375,-0.9861907958984375,-0.03436279296875,0.00469970703125
1783169099615660500,1.65466064453125,-0.986541748046875,-0.033935546875,0.005889892578125
1783169099625609700,1.664609619140625,-0.9871063232421875,-0.0345458984375,0.0059814453125
1783169099635558700,1.67455859375,-0.987213134765625,-0.0339813232421875,0.0043792724609375
1783169099645537500,1.68453759765625,-0.9868316650390625,-0.0332489013671875,0.004608154296875
1783169099655486500,1.694486572265625,-0.9869842529296875,-0.03509521484375,0.0057373046875
1783169099665435600,1.704435546875,-0.986785888671875,-0.034271240234375,0.00506591796875
1783169099675383600,1.714383544921875,-0.987091064453125,-0.0330352783203125,0.0042572021484375
1783169099685363500,1.724363525390625,-0.986785888671875,-0.034576416015625,0.004669189453125
1783169099695311600,1.7343115234375,-0.98614501953125,-0.034454345703125,0.0057220458984375
1783169099705260500,1.744260498046875,-0.9862823486328125,-0.034271240234375,0.0048980712890625
1783169099715209500,1.75420947265625,-0.98748779296875,-0.034423828125,0.0051422119140625
1783169099725188600,1.764188720703125,-0.986083984375,-0.0339508056640625,0.0049285888671875
1783169099735137500,1.774137451171875,-0.9868316650390625,-0.0331573486328125,0.0049591064453125
1783169099745086500,1.78408642578125,-0.9871978759765625,-0.0338592529296875,0.0051422119140625
1783169099755034400,1.794034423828125,-0.9867401123046875,-0.0340576171875,0.0059356689453125
1783169099765014500,1.8040146484375,-0.98651123046875,-0.0341033935546875,0.0056915283203125
1783169099774962400,1.81396240234375,-0.9858245849609375,-0.0345916748046875,0.004547119140625
1783169099784911600,1.82391162109375,-0.9861602783203125,-0.034698486328125,0.005218505859375
1783169099794890800,1.833890869140625,-0.986663818359375,-0.0345611572265625,0.0058441162109375
1783169099804839700,1.843839599609375,-0.9859619140625,-0.03436279296875,0.00567626953125
1783169099814788600,1.85378857421875,-0.9859771728515625,-0.03485107421875,0.00531005859375
1783169099824736500,1.863736572265625,-0.986114501953125,-0.03424072265625,0.004852294921875
1783169099834716700,1.873716552734375,-0.987060546875,-0.034698486328125,0.0051116943359375
1783169099844664600,1.88366455078125,-0.9879150390625,-0.034881591796875,0.004852294921875
1783169099854613500,1.893613525390625,-0.987152099609375,-0.0342559814453125,0.003875732421875
1783169099864573700,1.90357373046875,-0.9868927001953125,-0.034149169921875,0.0053253173828125
1783169099874552800,1.913552734375,-0.98553466796875,-0.0339508056640625,0.0050811767578125
1783169099884501800,1.923501708984375,-0.9859161376953125,-0.03350830078125,0.0048065185546875
1783169099894450700,1.93345068359375,-0.98651123046875,-0.03460693359375,0.0060272216796875
1783169099904398600,1.943398681640625,-0.986724853515625,-0.0343170166015625,0.0052337646484375
1783169099914378800,1.953378662109375,-0.987579345703125,-0.033416748046875,0.0048675537109375
1783169099924326700,1.96332666015625,-0.98663330078125,-0.03436279296875,0.00555419921875
1783169099934275600,1.973275634765625,-0.9866485595703125,-0.03387451171875,0.00506591796875
1783169099944224500,1.983224609375,-0.9872589111328125,-0.0343170166015625,0.0051422119140625
1783169099954203600,1.99320361328125,-0.9869232177734375,-0.0341949462890625,0.0041961669921875
1783169099964152600,2.003152587890625,-0.98760986328125,-0.0344390869140625,0.0042266845703125
1783169099974100500,2.0131005859375,-0.987213134765625,-0.033599853515625,0.0059356689453125
1783169099984080600,2.02308056640625,-0.98651123046875,-0.033233642578125,0.0060577392578125
1783169099994028500,2.033028564453125,-0.986602783203125,-0.035400390625,0.0054473876953125
1783169100003977500,2.0429775390625,-0.9864501953125,-0.0339508056640625,0.0055084228515625
1783169100013926700,2.0529267578125,-0.9860382080078125,-0.034515380859375,0.00579833984375
1783169100023905800,2.06290576171875,-0.9864044189453125,-0.0349273681640625,0.006134033203125
1783169100033854700,2.072854736328125,-0.9869842529296875,-0.0350189208984375,0.0055389404296875
1783169100043803600,2.0828037109375,-0.9866180419921875,-0.0345001220703125,0.0050811767578125
1783169100053751800,2.092751708984375,-0.9870758056640625,-0.0340118408203125,0.005828857421875
1783169100063731700,2.102731689453125,-0.9866180419921875,-0.0334930419921875,0.005828857421875
1783169100073679600,2.1126796875,-0.9872589111328125,-0.0333251953125,0.005462646484375
1783169100083628500,2.122628662109375,-0.9862823486328125,-0.0349273681640625,0.00531005859375
1783169100093577700,2.13257763671875,-0.985992431640625,-0.033782958984375,0.0052032470703125
1783169100103556600,2.142556640625,-0.98712158203125,-0.03338623046875,0.0057830810546875
1783169100113505500,2.152505615234375,-0.9869842529296875,-0.0336761474609375,0.0047149658203125
1783169100123453700,2.16245361328125,-0.98638916015625,-0.0338287353515625,0.004486083984375
1783169100133433600,2.17243359375,-0.9866943359375,-0.0336761474609375,0.0046539306640625
1783169100143381500,2.182381591796875,-0.9861602783203125,-0.03326416015625,0.0049591064453125
1783169100153330700,2.19233056640625,-0.986724853515625,-0.0332794189453125,0.005462646484375
1783169100163280000,2.20227978515625,-0.9866180419921875,-0.0333251953125,0.0051727294921875
1783169100173258500,2.212258544921875,-0.98736572265625,-0.0345916748046875,0.0059814453125
1783169100183207700,2.222207763671875,-0.986358642578125,-0.0344085693359375,0.0053863525390625
1783169100193156600,2.232156494140625,-0.987060546875,-0.0343780517578125,0.0049591064453125
1783169100203104800,2.242104736328125,-0.9866180419921875,-0.03375244140625,0.0055694580078125
1783169100213084700,2.252084716796875,-0.986724853515625,-0.0340728759765625,0.0052032470703125
1783169100223032800,2.26203271484375,-0.9865875244140625,-0.0335845947265625,0.0048065185546875
1783169100232981800,2.271981689453125,-0.9862518310546875,-0.032867431640625,0.0052947998046875
1783169100242930700,2.2819306640625,-0.986419677734375,-0.0341796875,0.0059356689453125
1783169100252909600,2.29190966796875,-0.9861602783203125,-0.0346527099609375,0.0048980712890625
1783169100262858800,2.301858642578125,-0.9864501953125,-0.0345458984375,0.00537109375
1783169100272806700,2.311806640625,-0.9865570068359375,-0.0335540771484375,0.0044708251953125
1783169100282786600,2.32178662109375,-0.985626220703125,-0.0338287353515625,0.0054779052734375
1783169100292734700,2.331734619140625,-0.9871063232421875,-0.0346832275390625,0.0059967041015625
1783169100302683600,2.34168359375,-0.9878997802734375,-0.0338134765625,0.00494384765625
1783169100312632600,2.351632568359375,-0.9869232177734375,-0.033538818359375,0.005157470703125
1783169100322611500,2.361611572265625,-0.9864959716796875,-0.0341796875,0.0048675537109375
1783169100332560600,2.371560546875,-0.98663330078125,-0.0334014892578125,0.00421142578125
1783169100342509800,2.381509765625,-0.9872894287109375,-0.0339202880859375,0.0044097900390625
1783169100352457700,2.391457763671875,-0.987060546875,-0.0341339111328125,0.00482177734375
1783169100362437600,2.401437744140625,-0.986572265625,-0.0337066650390625,0.00537109375
1783169100372385800,2.4113857421875,-0.9871673583984375,-0.03338623046875,0.006683349609375
1783169100382334700,2.421334716796875,-0.9866943359375,-0.0346832275390625,0.0059051513671875
1783169100392283600,2.43128369140625,-0.986114501953125,-0.034637451171875,0.0056610107421875
1783169100402262800,2.4412626953125,-0.9866790771484375,-0.0341949462890625,0.00482177734375
1783169100412211700,2.451211669921875,-0.9862213134765625,-0.0341796875,0.004180908203125
1783169100422160600,2.46116064453125,-0.9857940673828125,-0.0336456298828125,0.0048675537109375
1783169100432139500,2.471139404296875,-0.986724853515625,-0.03448486328125,0.0055084228515625
1783169100442088700,2.481088623046875,-0.9865875244140625,-0.0341644287109375,0.0055084228515625
1783169100452036600,2.49103662109375,-0.9867706298828125,-0.0340728759765625,0.0050506591796875
1783169100461985500,2.500985595703125,-0.9870147705078125,-0.0333099365234375,0.0048370361328125
1783169100471964700,2.510964599609375,-0.9870758056640625,-0.0341339111328125,0.0053253173828125
1783169100481913600,2.52091357421875,-0.9865875244140625,-0.03399658203125,0.0051727294921875
1783169100491862500,2.530862548828125,-0.9866790771484375,-0.034515380859375,0.0051422119140625
1783169100501810400,2.540810546875,-0.9865264892578125,-0.0347137451171875,0.0048370361328125
1783169100511790800,2.550790771484375,-0.9873046875,-0.0347137451171875,0.0059661865234375
1783169100521738800,2.56073876953125,-0.986541748046875,-0.0341644287109375,0.005615234375
1783169100531687700,2.570687744140625,-0.98602294921875,-0.03369140625,0.0053558349609375
1783169100541636600,2.58063671875,-0.987213134765625,-0.03326416015625,0.00506591796875
1783169100551615700,2.59061572265625,-0.98760986328125,-0.0340576171875,0.0042877197265625
1783169100561564700,2.600564697265625,-0.9868927001953125,-0.03411865234375,0.005615234375
1783169100571513600,2.610513671875,-0.986358642578125,-0.03387451171875,0.0051422119140625
1783169100581492700,2.62049267578125,-0.98773193359375,-0.034576416015625,0.0051422119140625
1783169100591441700,2.630441650390625,-0.986785888671875,-0.0346832275390625,0.0052490234375
1783169100601389600,2.6403896484375,-0.9862213134765625,-0.0342864990234375,0.0048980712890625
1783169100611338500,2.65033837890625,-0.986602783203125,-0.03399658203125,0.0051422119140625
1783169100621317600,2.660317626953125,-0.9860992431640625,-0.0340118408203125,0.00518798828125
1783169100631266600,2.6702666015625,-0.986328125,-0.0344085693359375,0.004302978515625
1783169100641215500,2.680215576171875,-0.9864349365234375,-0.034698486328125,0.0048370361328125
1783169100651163600,2.69016357421875,-0.986968994140625,-0.0340728759765625,0.0061798095703125
1783169100661143600,2.7001435546875,-0.9871673583984375,-0.0338134765625,0.0045623779296875
1783169100671091500,2.710091552734375,-0.9867401123046875,-0.0343170166015625,0.00543212890625
1783169100681040600,2.72004052734375,-0.98602294921875,-0.033721923828125,0.0056304931640625
1783169100690989800,2.72998974609375,-0.985809326171875,-0.03436279296875,0.0054779052734375
1783169100700968700,2.73996875,-0.9859619140625,-0.0342254638671875,0.005950927734375
1783169100710917600,2.749917724609375,-0.9872894287109375,-0.0339508056640625,0.00469970703125
1783169100720866600,2.759866455078125,-0.987091064453125,-0.0342864990234375,0.005706787109375
1783169100730845700,2.769845703125,-0.986114501953125,-0.0334014892578125,0.0056915283203125
1783169100740794600,2.779794677734375,-0.9861602783203125,-0.0336151123046875,0.0055084228515625
1783169100750742800,2.78974267578125,-0.986663818359375,-0.03387451171875,0.00531005859375
1783169100760691700,2.799691650390625,-0.9866790771484375,-0.0337982177734375,0.0051422119140625
1783169100770670600,2.809670654296875,-0.986541748046875,-0.0337677001953125,0.005462646484375
1783169100780619500,2.81961962890625,-0.986419677734375,-0.03350830078125,0.0057525634765625
1783169100790568700,2.829568603515625,-0.9863739013671875,-0.0333404541015625,0.0054168701171875
1783169100800516600,2.8395166015625,-0.98687744140625,-0.0341339111328125,0.004974365234375
1783169100810496500,2.84949658203125,-0.9862823486328125,-0.0335845947265625,0.0046539306640625
1783169100820444700,2.859444580078125,-0.9860992431640625,-0.034027099609375,0.0052947998046875
1783169100830393600,2.8693935546875,-0.98675537109375,-0.03448486328125,0.00506591796875
1783169100840342800,2.8793427734375,-0.9873809814453125,-0.0344696044921875,0.005584716796875
1783169100850321700,2.88932177734375,-0.9869537353515625,-0.034088134765625,0.0045318603515625
1783169100860295000,2.899294921875,-0.9865570068359375,-0.0343170166015625,0.005218505859375
1783169100870243800,2.909243896484375,-0.9874420166015625,-0.0341796875,0.00494384765625
1783169100880222700,2.91922265625,-0.9874114990234375,-0.0336151123046875,0.0058135986328125
1783169100890172000,2.929171875,-0.9869537353515625,-0.0341033935546875,0.004638671875
1783169100900120000,2.9391201171875,-0.986602783203125,-0.033538818359375,0.0045928955078125
1783169100910069000,2.949069091796875,-0.986480712890625,-0.0340118408203125,0.005645751953125
1783169100920047900,2.9590478515625,-0.9866485595703125,-0.0344085693359375,0.005340576171875
1783169100929997000,2.9689970703125,-0.986480712890625,-0.0345458984375,0.00518798828125
1783169100939946000,2.978946044921875,-0.9864349365234375,-0.033935546875,0.0051116943359375
1783169100949894000,2.988893798828125,-0.986907958984375,-0.033966064453125,0.005340576171875
1783169100959873800,2.998873779296875,-0.9871673583984375,-0.0343475341796875,0.0048370361328125
1783169100969822000,3.008822021484375,-0.986572265625,-0.0337066650390625,0.0040130615234375
1783169100979771000,3.01877099609375,-0.9863739013671875,-0.0340728759765625,0.0049896240234375
1783169100989719800,3.0287197265625,-0.9860076904296875,-0.033782958984375,0.0051422119140625
1783169100999699000,3.038698974609375,-0.98614501953125,-0.0341339111328125,0.005096435546875
1783169101009647900,3.04864794921875,-0.98590087890625,-0.033905029296875,0.0056610107421875
1783169101019596800,3.0585966796875,-0.985748291015625,-0.033599853515625,0.00555419921875
1783169101029576000,3.068575927734375,-0.9868927001953125,-0.033538818359375,0.0050201416015625
1783169101039524900,3.07852490234375,-0.986907958984375,-0.033447265625,0.0057373046875
1783169101049472800,3.08847265625,-0.98675537109375,-0.0338134765625,0.005523681640625
1783169101059422000,3.098421875,-0.9864501953125,-0.0340576171875,0.0048065185546875
1783169101069400800,3.10840087890625,-0.986419677734375,-0.033721923828125,0.0052337646484375
1783169101079350000,3.11835009765625,-0.987457275390625,-0.033843994140625,0.005279541015625
1783169101089299000,3.128298828125,-0.9863128662109375,-0.0341949462890625,0.00457763671875
1783169101099247900,3.138247802734375,-0.9867095947265625,-0.0334930419921875,0.005126953125
1783169101109227000,3.14822705078125,-0.9872283935546875,-0.0344696044921875,0.0059051513671875
1783169101119175000,3.1581748046875,-0.98687744140625,-0.0336456298828125,0.0054779052734375
1783169101129123800,3.168123779296875,-0.986602783203125,-0.0341339111328125,0.0053558349609375
1783169101139072800,3.17807275390625,-0.9868621826171875,-0.033111572265625,0.004852294921875
1783169101149052000,3.188052001953125,-0.987060546875,-0.0337066650390625,0.0039215087890625
1783169101159000800,3.198000732421875,-0.9865570068359375,-0.034393310546875,0.005584716796875
1783169101168949800,3.20794970703125,-0.9860076904296875,-0.033782958984375,0.00555419921875
1783169101178929000,3.217928955078125,-0.986724853515625,-0.0341949462890625,0.005645751953125
1783169101188877800,3.2278779296875,-0.9870147705078125,-0.0342559814453125,0.00506591796875
1783169101198825700,3.23782568359375,-0.9864501953125,-0.0332489013671875,0.0041656494140625
1783169101208775000,3.24777490234375,-0.986541748046875,-0.0336151123046875,0.0052642822265625
1783169101218753800,3.25775390625,-0.9868011474609375,-0.0338134765625,0.0054931640625
1783169101228703000,3.267702880859375,-0.987396240234375,-0.0338287353515625,0.0051727294921875
1783169101238652000,3.27765185546875,-0.98663330078125,-0.0326385498046875,0.0054473876953125
1783169101248600800,3.287600830078125,-0.98663330078125,-0.033843994140625,0.005615234375
1783169101258580000,3.297580078125,-0.987335205078125,-0.0341644287109375,0.0052642822265625
1783169101268529000,3.30752880859375,-0.986968994140625,-0.033935546875,0.00506591796875
1783169101278477000,3.31747705078125,-0.9874267578125,-0.034027099609375,0.004638671875
1783169101288426000,3.327426025390625,-0.9860382080078125,-0.034271240234375,0.0048980712890625
1783169101298404900,3.33740478515625,-0.9870147705078125,-0.033935546875,0.0061492919921875
1783169101308353800,3.347353759765625,-0.986907958984375,-0.033843994140625,0.00537109375
1783169101318303000,3.357302978515625,-0.98663330078125,-0.033721923828125,0.0052337646484375
1783169101328251000,3.3672509765625,-0.9875030517578125,-0.0341949462890625,0.004852294921875
1783169101338230800,3.377230712890625,-0.9866485595703125,-0.034637451171875,0.003875732421875
1783169101348179000,3.387178955078125,-0.98712158203125,-0.034149169921875,0.00506591796875
1783169101358127900,3.3971279296875,-0.9861297607421875,-0.033355712890625,0.00579833984375
1783169101368106800,3.407106689453125,-0.986602783203125,-0.0338287353515625,0.0052490234375
1783169101378056000,3.417055908203125,-0.9858551025390625,-0.0352935791015625,0.00482177734375
1783169101388005000,3.427005126953125,-0.9870452880859375,-0.034149169921875,0.0048828125
1783169101397954000,3.4369541015625,-0.9877471923828125,-0.03363037109375,0.0051422119140625
1783169101407933000,3.446932861328125,-0.98638916015625,-0.03399658203125,0.00543212890625
1783169101417881900,3.4568818359375,-0.9871368408203125,-0.0335540771484375,0.0050048828125
1783169101427830000,3.466830078125,-0.9866790771484375,-0.03326416015625,0.0048980712890625
1783169101437779000,3.476779052734375,-0.9874114990234375,-0.034637451171875,0.0048980712890625
1783169101447758000,3.486758056640625,-0.9859771728515625,-0.0339508056640625,0.0051422119140625
1783169101457707000,3.49670703125,-0.986053466796875,-0.034027099609375,0.0057830810546875
1783169101467656000,3.506656005859375,-0.985992431640625,-0.033782958984375,0.006011962890625
1783169101477603800,3.516603759765625,-0.9866180419921875,-0.0342559814453125,0.00445556640625
1783169101487584000,3.526583984375,-0.9864959716796875,-0.0333404541015625,0.0054168701171875
1783169101497532000,3.536531982421875,-0.9865570068359375,-0.0338287353515625,0.0048980712890625
1783169101507480800,3.546480712890625,-0.98663330078125,-0.03411865234375,0.0048675537109375
1783169101517460000,3.5564599609375,-0.986724853515625,-0.03363037109375,0.0053558349609375
1783169101527409000,3.566408935546875,-0.9867401123046875,-0.0335540771484375,0.0053558349609375
1783169101537357800,3.57635791015625,-0.98638916015625,-0.0340728759765625,0.005340576171875
1783169101547307000,3.58630712890625,-0.986480712890625,-0.033599853515625,0.00543212890625
1783169101557286000,3.596285888671875,-0.986328125,-0.0327911376953125,0.00482177734375
1783169101567235000,3.606235107421875,-0.9868316650390625,-0.03326416015625,0.0048370361328125
1783169101577183000,3.616182861328125,-0.9861602783203125,-0.0341796875,0.0049591064453125
1783169101587132000,3.6261318359375,-0.9864349365234375,-0.0340118408203125,0.0046234130859375
1783169101597111000,3.636111083984375,-0.986236572265625,-0.0345916748046875,0.0054931640625
1783169101607060000,3.64606005859375,-0.985443115234375,-0.034698486328125,0.0051727294921875
1783169101617009000,3.6560087890625,-0.9864044189453125,-0.033294677734375,0.005340576171875
1783169101626957000,3.66595703125,-0.986358642578125,-0.0331268310546875,0.004547119140625
1783169101636937000,3.67593701171875,-0.9865875244140625,-0.03338623046875,0.0047454833984375
1783169101646884900,3.685884765625,-0.9872589111328125,-0.0341644287109375,0.0053253173828125
1783169101656833800,3.695833740234375,-0.987213134765625,-0.033721923828125,0.005767822265625
1783169101666813000,3.70581298828125,-0.9860687255859375,-0.0335540771484375,0.0056915283203125
1783169101676761900,3.715761962890625,-0.985626220703125,-0.03411865234375,0.004791259765625
1783169101686710800,3.725710693359375,-0.9862518310546875,-0.034271240234375,0.0054168701171875
1783169101696659700,3.73565966796875,-0.985931396484375,-0.034332275390625,0.0055999755859375
1783169101706638800,3.745638916015625,-0.987030029296875,-0.0341644287109375,0.00555419921875
1783169101716588000,3.755588134765625,-0.9869842529296875,-0.0341644287109375,0.0057830810546875
1783169101726535700,3.76553564453125,-0.9869537353515625,-0.0341949462890625,0.0059814453125
1783169101736485000,3.775485107421875,-0.987060546875,-0.0344696044921875,0.0054931640625
1783169101746464000,3.785464111328125,-0.985992431640625,-0.034271240234375,0.005340576171875
1783169101756413000,3.795412841796875,-0.9867401123046875,-0.034393310546875,0.0057525634765625
1783169101766361900,3.80536181640625,-0.9865570068359375,-0.0340728759765625,0.0062713623046875
1783169101776310000,3.81531005859375,-0.986907958984375,-0.034454345703125,0.0052032470703125
1783169101786290000,3.8252900390625,-0.9865264892578125,-0.03375244140625,0.004852294921875
1783169101796237800,3.83523779296875,-0.98602294921875,-0.0338592529296875,0.004974365234375
1783169101806187000,3.84518701171875,-0.9868927001953125,-0.033935546875,0.0049285888671875
1783169101816166000,3.855165771484375,-0.9872894287109375,-0.03424072265625,0.0054473876953125
1783169101826114800,3.86511474609375,-0.9861907958984375,-0.0341033935546875,0.005615234375
1783169101836063700,3.875063720703125,-0.9871368408203125,-0.0337677001953125,0.0053558349609375
1783169101846013000,3.885012939453125,-0.9862060546875,-0.0342864990234375,0.00518798828125
1783169101855991800,3.89499169921875,-0.986297607421875,-0.034393310546875,0.0050201416015625
1783169101865963300,3.90496337890625,-0.9868011474609375,-0.0347137451171875,0.0061798095703125
1783169101875911200,3.9149111328125,-0.9872589111328125,-0.03375244140625,0.0056610107421875
1783169101885860000,3.924860107421875,-0.9856719970703125,-0.03363037109375,0.005462646484375
1783169101895839200,3.934839111328125,-0.9860076904296875,-0.033355712890625,0.00567626953125
1783169101905788200,3.9447880859375,-0.9874267578125,-0.0332489013671875,0.00531005859375
1783169101915737000,3.954737060546875,-0.9875335693359375,-0.0340576171875,0.0053253173828125
1783169101925686000,3.96468603515625,-0.9873504638671875,-0.03424072265625,0.0048828125
1783169101935665200,3.9746650390625,-0.986968994140625,-0.034332275390625,0.0052490234375
1783169101945614000,3.984614013671875,-0.987091064453125,-0.034942626953125,0.0059967041015625
1783169101955562200,3.994562255859375,-0.986480712890625,-0.034912109375,0.0053558349609375
1783169101965541000,4.004541015625,-0.9870758056640625,-0.034332275390625,0.005767822265625
1783169101975490000,4.014489990234375,-0.9860992431640625,-0.033905029296875,0.0047607421875
1783169101985439000,4.02443896484375,-0.9857177734375,-0.0337371826171875,0.005584716796875
1783169101995388200,4.03438818359375,-0.987274169921875,-0.033538818359375,0.004638671875
1783169102005367000,4.044366943359375,-0.988128662109375,-0.03363037109375,0.00457763671875
1783169102015316200,4.054316162109375,-0.98687744140625,-0.0338592529296875,0.005859375
1783169102025264400,4.064264404296875,-0.9864959716796875,-0.0338592529296875,0.005615234375
1783169102035213300,4.07421337890625,-0.9863739013671875,-0.033905029296875,0.00555419921875
1783169102045192200,4.084192138671875,-0.986572265625,-0.03436279296875,0.005462646484375
1783169102055141000,4.09414111328125,-0.9866790771484375,-0.0342559814453125,0.0045623779296875
1783169102065090300,4.10409033203125,-0.9867401123046875,-0.0341949462890625,0.0052490234375
1783169102075039200,4.114039306640625,-0.98663330078125,-0.0337371826171875,0.0055084228515625
1783169102085018000,4.12401806640625,-0.9865264892578125,-0.0332489013671875,0.00537109375
1783169102094967000,4.133967041015625,-0.98748779296875,-0.033477783203125,0.0059661865234375
1783169102104915200,4.143915283203125,-0.9872894287109375,-0.0327301025390625,0.0055084228515625
1783169102114895000,4.15389501953125,-0.98638916015625,-0.0330352783203125,0.00494384765625
1783169102124843000,4.163843017578125,-0.986541748046875,-0.0342254638671875,0.0059051513671875
1783169102134792200,4.173792236328125,-0.98651123046875,-0.0343017578125,0.004974365234375
1783169102144741000,4.1837412109375,-0.9864959716796875,-0.0334320068359375,0.005096435546875
1783169102154720000,4.193719970703125,-0.9866943359375,-0.034393310546875,0.0055084228515625
1783169102164669000,4.2036689453125,-0.98663330078125,-0.0341033935546875,0.0049896240234375
1783169102174617000,4.2136171875,-0.9868011474609375,-0.03363037109375,0.0054779052734375
1783169102184566300,4.223566162109375,-0.9868927001953125,-0.0341644287109375,0.005218505859375
1783169102194545200,4.233545166015625,-0.987091064453125,-0.0333404541015625,0.0046844482421875
1783169102204494300,4.243494384765625,-0.9874267578125,-0.0341339111328125,0.004547119140625
1783169102214443300,4.253443359375,-0.987091064453125,-0.034149169921875,0.00555419921875
1783169102224392200,4.26339208984375,-0.9866485595703125,-0.0339508056640625,0.00531005859375
1783169102234371000,4.27337109375,-0.986907958984375,-0.03326416015625,0.0053863525390625
1783169102244320300,4.2833203125,-0.98663330078125,-0.034149169921875,0.006072998046875
1783169102254268200,4.29326806640625,-0.986480712890625,-0.03302001953125,0.005584716796875
1783169102264248000,4.303248046875,-0.986175537109375,-0.0340728759765625,0.005279541015625
1783169102274196200,4.3131962890625,-0.9860687255859375,-0.0343017578125,0.0046539306640625
1783169102284145200,4.323145263671875,-0.9853515625,-0.0338287353515625,0.005340576171875
1783169102294094000,4.333093994140625,-0.9862060546875,-0.033477783203125,0.005157470703125
1783169102304073200,4.3430732421875,-0.986572265625,-0.0344390869140625,0.004669189453125
1783169102314022100,4.353022216796875,-0.986480712890625,-0.0337982177734375,0.005523681640625
1783169102323970000,4.362969970703125,-0.9857940673828125,-0.0340118408203125,0.005950927734375
1783169102333919000,4.3729189453125,-0.9866485595703125,-0.034454345703125,0.0051422119140625
1783169102343898000,4.382898193359375,-0.986785888671875,-0.03436279296875,0.0047454833984375
1783169102353847300,4.392847412109375,-0.986785888671875,-0.033172607421875,0.0049285888671875
1783169102363796200,4.402796142578125,-0.9873199462890625,-0.0341033935546875,0.004364013671875
1783169102373745200,4.4127451171875,-0.98712158203125,-0.0341796875,0.00579833984375
1783169102383724300,4.422724365234375,-0.9863128662109375,-0.0342254638671875,0.0050811767578125
1783169102393673200,4.432673095703125,-0.9869232177734375,-0.0352630615234375,0.0052490234375
1783169102403621000,4.44262109375,-0.987030029296875,-0.033966064453125,0.0053863525390625
1783169102413601300,4.452601318359375,-0.9861602783203125,-0.033782958984375,0.00469970703125
1783169102423549200,4.462549072265625,-0.9861907958984375,-0.033721923828125,0.0051727294921875
1783169102433498000,4.472498046875,-0.98675537109375,-0.03302001953125,0.005126953125
1783169102443447000,4.482447021484375,-0.9865570068359375,-0.0336761474609375,0.005218505859375
1783169102453426200,4.49242626953125,-0.9870147705078125,-0.03460693359375,0.0050506591796875
1783169102463375000,4.502375,-0.986297607421875,-0.0331268310546875,0.0044097900390625
1783169102473323000,4.512322998046875,-0.986053466796875,-0.0345001220703125,0.00469970703125
1783169102483272200,4.522272216796875,-0.985931396484375,-0.03411865234375,0.0059661865234375
1783169102493251000,4.5322509765625,-0.98626708984375,-0.034088134765625,0.0054168701171875
1783169102503200000,4.542199951171875,-0.9861602783203125,-0.034881591796875,0.005035400390625
1783169102513149200,4.552149169921875,-0.986572265625,-0.0345916748046875,0.0049591064453125
1783169102523098000,4.56209814453125,-0.986053466796875,-0.0340576171875,0.00506591796875
1783169102533077200,4.5720771484375,-0.9854888916015625,-0.03424072265625,0.0045318603515625
1783169102543026200,4.582026123046875,-0.9864349365234375,-0.034393310546875,0.0046844482421875
1783169102552974300,4.591974365234375,-0.98687744140625,-0.0341949462890625,0.004547119140625
1783169102562954200,4.601954345703125,-0.9865264892578125,-0.033599853515625,0.0046844482421875
1783169102572902100,4.611902099609375,-0.985992431640625,-0.034149169921875,0.005584716796875
1783169102582851000,4.62185107421875,-0.9854888916015625,-0.0334930419921875,0.00531005859375
1783169102592800300,4.63180029296875,-0.9861907958984375,-0.033843994140625,0.0052642822265625
1783169102602779100,4.641779052734375,-0.9860992431640625,-0.03363037109375,0.0050811767578125
1783169102612728000,4.65172802734375,-0.987030029296875,-0.033843994140625,0.00555419921875
1783169102622676200,4.66167626953125,-0.987152099609375,-0.0336456298828125,0.0052947998046875
1783169102632625200,4.671625244140625,-0.9864654541015625,-0.034454345703125,0.0054473876953125
1783169102642604000,4.68160400390625,-0.98651123046875,-0.0341796875,0.0059661865234375
1783169102652553000,4.691552978515625,-0.986175537109375,-0.03411865234375,0.0051116943359375
1783169102662502100,4.701502197265625,-0.9854278564453125,-0.03387451171875,0.0052947998046875
1783169102672451300,4.711451416015625,-0.986236572265625,-0.033905029296875,0.0056304931640625
1783169102682430200,4.72143017578125,-0.987396240234375,-0.0341033935546875,0.0055389404296875
1783169102692379100,4.731379150390625,-0.9859619140625,-0.0343780517578125,0.00537109375
1783169102702327300,4.741327392578125,-0.9871063232421875,-0.0340576171875,0.005218505859375
1783169102712307200,4.75130712890625,-0.9866180419921875,-0.033721923828125,0.005218505859375
1783169102722255000,4.761255126953125,-0.98602294921875,-0.0343475341796875,0.0058441162109375
1783169102732204300,4.771204345703125,-0.986480712890625,-0.034271240234375,0.0054779052734375
1783169102742153200,4.7811533203125,-0.986419677734375,-0.03363037109375,0.005401611328125
1783169102752132000,4.791132080078125,-0.9870147705078125,-0.0340423583984375,0.0057373046875
1783169102762081000,4.8010810546875,-0.9862518310546875,-0.034210205078125,0.0047454833984375
1783169102772030200,4.8110302734375,-0.9863739013671875,-0.0345916748046875,0.004486083984375
1783169102781978000,4.82097802734375,-0.9859161376953125,-0.034881591796875,0.0061492919921875
1783169102791957200,4.830957275390625,-0.98565673828125,-0.033660888671875,0.0050811767578125
1783169102801906200,4.84090625,-0.9858245849609375,-0.033477783203125,0.005035400390625
1783169102811855000,4.850855224609375,-0.986541748046875,-0.0341033935546875,0.00518798828125
1783169102821804000,4.860803955078125,-0.9857330322265625,-0.0342864990234375,0.004913330078125
1783169102831783200,4.870783203125,-0.986236572265625,-0.03448486328125,0.004547119140625
1783169102841732400,4.880732421875,-0.98675537109375,-0.033233642578125,0.0052032470703125
1783169102851680000,4.890679931640625,-0.98663330078125,-0.0337677001953125,0.0053863525390625
1783169102861635600,4.900635498046875,-0.9861602783203125,-0.03436279296875,0.004974365234375
1783169102871614700,4.91061474609375,-0.9859466552734375,-0.0337677001953125,0.004638671875
1783169102881563600,4.920563720703125,-0.9871673583984375,-0.0328216552734375,0.0047454833984375
1783169102891512800,4.930512939453125,-0.9867095947265625,-0.0331878662109375,0.005126953125
1783169102901492000,4.940491943359375,-0.986968994140625,-0.03448486328125,0.0048980712890625
1783169102911441000,4.95044091796875,-0.98651123046875,-0.0335235595703125,0.0053253173828125
1783169102921389800,4.960389892578125,-0.9865264892578125,-0.0342559814453125,0.005706787109375
1783169102931337700,4.970337646484375,-0.986419677734375,-0.033721923828125,0.005645751953125
1783169102941318000,4.98031787109375,-0.9864349365234375,-0.0343017578125,0.0050048828125
1783169102951265800,4.990265869140625,-0.9871978759765625,-0.034393310546875,0.00537109375
1783169102961214700,5.000214599609375,-0.9860076904296875,-0.0345916748046875,0.0049591064453125
1783169102971163600,5.01016357421875,-0.986541748046875,-0.03448486328125,0.0050506591796875
1783169102981142800,5.020142822265625,-0.9866943359375,-0.034423828125,0.00537109375
1783169102991091700,5.030091796875,-0.9871673583984375,-0.0347747802734375,0.0052490234375
1783169103001039600,5.04003955078125,-0.987274169921875,-0.0337677001953125,0.0050048828125
1783169103010988800,5.04998876953125,-0.98724365234375,-0.03375244140625,0.0049591064453125
1783169103020967700,5.0599677734375,-0.9861907958984375,-0.033966064453125,0.0051116943359375
1783169103030916600,5.06991650390625,-0.9867095947265625,-0.034820556640625,0.00506591796875
1783169103040865800,5.07986572265625,-0.98663330078125,-0.03369140625,0.005096435546875
1783169103050844700,5.0898447265625,-0.987457275390625,-0.033355712890625,0.00567626953125
1783169103060793900,5.0997939453125,-0.988128662109375,-0.03448486328125,0.005218505859375
1783169103070742800,5.10974267578125,-0.9859619140625,-0.03448486328125,0.0049591064453125
1783169103080691000,5.11969091796875,-0.9864044189453125,-0.033477783203125,0.00518798828125
1783169103090670800,5.1296708984375,-0.986602783203125,-0.034332275390625,0.0051116943359375
1783169103100618800,5.13961865234375,-0.9871978759765625,-0.034149169921875,0.0054931640625
1783169103110568000,5.14956787109375,-0.9866943359375,-0.035125732421875,0.0045928955078125
1783169103120516900,5.159516845703125,-0.98724365234375,-0.0345306396484375,0.0047607421875
1783169103130495700,5.169495849609375,-0.9865264892578125,-0.033447265625,0.0051727294921875
1783169103140444700,5.179444580078125,-0.98614501953125,-0.033843994140625,0.0058746337890625
1783169103150392800,5.189392822265625,-0.9859161376953125,-0.033477783203125,0.0056304931640625
1783169103160341800,5.199341796875,-0.9871368408203125,-0.033294677734375,0.0056304931640625
1783169103170320600,5.209320556640625,-0.9868316650390625,-0.0339508056640625,0.005462646484375
1783169103180269800,5.219269775390625,-0.98583984375,-0.03363037109375,0.00469970703125
1783169103190218800,5.22921875,-0.9861297607421875,-0.0337982177734375,0.0050811767578125
1783169103200197600,5.23919775390625,-0.9862518310546875,-0.0333251953125,0.0053253173828125
1783169103210146600,5.249146484375,-0.9862213134765625,-0.0335845947265625,0.004974365234375
1783169103220096000,5.259095947265625,-0.986663818359375,-0.0340118408203125,0.006103515625
1783169103230044000,5.2690439453125,-0.98712158203125,-0.0341033935546875,0.005462646484375
1783169103240023800,5.27902392578125,-0.9860076904296875,-0.03387451171875,0.0053863525390625
1783169103249972000,5.288971923828125,-0.9861602783203125,-0.0342864990234375,0.00604248046875
1783169103259921000,5.2989208984375,-0.986907958984375,-0.03326416015625,0.0057830810546875
1783169103269869800,5.308869873046875,-0.98699951171875,-0.0335845947265625,0.0059967041015625
1783169103279848700,5.3188486328125,-0.986419677734375,-0.0340576171875,0.00518798828125
1783169103289798000,5.3287978515625,-0.9866180419921875,-0.033843994140625,0.0056304931640625
1783169103299745800,5.338745849609375,-0.9861907958984375,-0.03369140625,0.005706787109375
1783169103309694700,5.34869482421875,-0.9866943359375,-0.0338134765625,0.0056915283203125
1783169103319673900,5.358673828125,-0.9875335693359375,-0.033660888671875,0.005126953125
1783169103329622800,5.368622802734375,-0.986419677734375,-0.0336456298828125,0.004669189453125
1783169103339571700,5.37857177734375,-0.98614501953125,-0.033294677734375,0.00537109375
1783169103349550800,5.38855078125,-0.9871368408203125,-0.0343780517578125,0.006072998046875
1783169103359499800,5.398499755859375,-0.98699951171875,-0.033447265625,0.00494384765625
1783169103369448700,5.40844873046875,-0.98626708984375,-0.0337066650390625,0.00433349609375
1783169103379396600,5.418396728515625,-0.9859619140625,-0.034454345703125,0.00592041015625
1783169103389376800,5.428376708984375,-0.9862213134765625,-0.033447265625,0.0051422119140625
1783169103399325000,5.438324951171875,-0.9870147705078125,-0.033782958984375,0.0053253173828125
1783169103409273900,5.44827392578125,-0.98736572265625,-0.03485107421875,0.0053558349609375
1783169103419222800,5.458222900390625,-0.9872283935546875,-0.0344390869140625,0.0052337646484375
1783169103429202000,5.468201904296875,-0.9871063232421875,-0.034423828125,0.0055389404296875
1783169103439150800,5.47815087890625,-0.9865570068359375,-0.0330657958984375,0.0048370361328125
1783169103449099800,5.488099853515625,-0.985504150390625,-0.0334014892578125,0.00555419921875
1783169103459047700,5.498047607421875,-0.9872283935546875,-0.03375244140625,0.0057373046875
1783169103469026800,5.50802685546875,-0.987091064453125,-0.034027099609375,0.0050201416015625
1783169103478975700,5.517975830078125,-0.9863433837890625,-0.034271240234375,0.005401611328125
1783169103488924700,5.527924560546875,-0.9864654541015625,-0.0345001220703125,0.005584716796875
1783169103498903800,5.53790380859375,-0.9868316650390625,-0.0335235595703125,0.00531005859375
1783169103508852700,5.547852783203125,-0.9867706298828125,-0.0341033935546875,0.0053253173828125
1783169103518801700,5.5578017578125,-0.9864501953125,-0.0337677001953125,0.0045166015625
1783169103528749800,5.567749755859375,-0.9858551025390625,-0.0328826904296875,0.004913330078125
1783169103538729700,5.577729736328125,-0.986907958984375,-0.034393310546875,0.0050048828125
1783169103548677600,5.587677734375,-0.98760986328125,-0.0345306396484375,0.005523681640625
1783169103558626800,5.597626708984375,-0.98681640625,-0.034271240234375,0.0060577392578125
1783169103568575700,5.60757568359375,-0.9863433837890625,-0.03497314453125,0.0048980712890625
1783169103578555000,5.617554931640625,-0.986541748046875,-0.0342254638671875,0.0048675537109375
1783169103588503800,5.62750390625,-0.986785888671875,-0.0345916748046875,0.0061187744140625
1783169103598452700,5.63745263671875,-0.9864349365234375,-0.03375244140625,0.0061798095703125
1783169103608401000,5.64740087890625,-0.9873046875,-0.0341033935546875,0.0056304931640625
1783169103618380800,5.657380859375,-0.9870452880859375,-0.0346527099609375,0.00616455078125
1783169103628328700,5.66732861328125,-0.9864044189453125,-0.0342254638671875,0.0057373046875
1783169103638278000,5.67727783203125,-0.986419677734375,-0.0343475341796875,0.00543212890625
1783169103648256800,5.6872568359375,-0.986480712890625,-0.035858154296875,0.0048065185546875
1783169103658205700,5.697205810546875,-0.9854736328125,-0.0349578857421875,0.00518798828125
1783169103668154600,5.707154541015625,-0.9856109619140625,-0.034149169921875,0.0056304931640625
1783169103678102800,5.717102783203125,-0.9865875244140625,-0.034393310546875,0.0053863525390625
1783169103688082700,5.727082763671875,-0.986053466796875,-0.0346832275390625,0.0045623779296875
1783169103698030600,5.737030517578125,-0.98675537109375,-0.0344696044921875,0.006256103515625
1783169103707979800,5.746979736328125,-0.986419677734375,-0.033721923828125,0.005157470703125
1783169103717929000,5.756928955078125,-0.9867095947265625,-0.034423828125,0.005828857421875
1783169103727907800,5.766907958984375,-0.9869232177734375,-0.0347137451171875,0.0059356689453125
1783169103737856800,5.776856689453125,-0.9862518310546875,-0.034210205078125,0.0057830810546875
1783169103747806000,5.786805908203125,-0.98583984375,-0.0337066650390625,0.0059814453125
1783169103757753900,5.79675390625,-0.9866943359375,-0.0337677001953125,0.006134033203125
1783169103767733800,5.806733642578125,-0.9868621826171875,-0.0335693359375,0.0050811767578125
1783169103777682000,5.816681884765625,-0.9862823486328125,-0.0341644287109375,0.0047760009765625
1783169103787630800,5.826630859375,-0.986328125,-0.034088134765625,0.00469970703125
1783169103797609700,5.836609619140625,-0.9869537353515625,-0.033843994140625,0.0057525634765625
1783169103807558700,5.84655859375,-0.986358642578125,-0.034271240234375,0.0068359375
1783169103817507800,5.8565078125,-0.9862060546875,-0.033355712890625,0.0063934326171875
1783169103827455700,5.866455810546875,-0.98663330078125,-0.033477783203125,0.0057830810546875
1783169103837435600,5.876435546875,-0.986053466796875,-0.033660888671875,0.005096435546875
1783169103847383800,5.8863837890625,-0.9866790771484375,-0.0334014892578125,0.0045623779296875
1783169103857332700,5.896332763671875,-0.986541748046875,-0.0330810546875,0.00604248046875
1783169103867314700,5.906314697265625,-0.9862518310546875,-0.033203125,0.0054931640625
1783169103877293600,5.91629345703125,-0.9867706298828125,-0.03411865234375,0.00311279296875
1783169103887242500,5.926242431640625,-0.986968994140625,-0.03399658203125,0.00494384765625
1783169103897191400,5.93619140625,-0.9869384765625,-0.034271240234375,0.007415771484375
1783169103907139600,5.9461396484375,-0.986419677734375,-0.033538818359375,0.00738525390625
1783169103917119500,5.956119384765625,-0.985870361328125,-0.0337982177734375,0.0061492919921875
1783169103927067400,5.9660673828125,-0.9866790771484375,-0.034210205078125,0.0036163330078125
1783169103937016600,5.9760166015625,-0.98687744140625,-0.0330657958984375,0.00360107421875
1783169103946995500,5.985995361328125,-0.9858245849609375,-0.0335845947265625,0.0046234130859375
1783169103956944400,5.9959443359375,-0.986328125,-0.03436279296875,0.0054473876953125
1783169103966893600,6.0058935546875,-0.986053466796875,-0.034637451171875,0.007232666015625
1783169103976841700,6.015841796875,-0.9862823486328125,-0.034759521484375,0.0062408447265625
1783169103986821600,6.025821533203125,-0.9863128662109375,-0.0352630615234375,0.004730224609375
1783169103996769800,6.035769775390625,-0.9871673583984375,-0.0345306396484375,0.0015869140625
1783169104006718700,6.04571875,-0.9860992431640625,-0.0339508056640625,-0.0002899169921875
1783169104016667600,6.055667724609375,-0.9871063232421875,-0.03326416015625,-0.0001220703125
1783169104026646500,6.065646484375,-0.9867401123046875,-0.0346221923828125,0.001953125
1783169104036595500,6.075595458984375,-0.9867706298828125,-0.0359649658203125,0.0053863525390625
1783169104046544600,6.085544677734375,-0.986907958984375,-0.035064697265625,0.008270263671875
1783169104056492500,6.095492431640625,-0.9872283935546875,-0.034515380859375,0.0100860595703125
1783169104066472400,6.105472412109375,-0.9871826171875,-0.034881591796875,0.0108489990234375
1783169104076420600,6.115420654296875,-0.9864959716796875,-0.03363037109375,0.010101318359375
1783169104086369500,6.12536962890625,-0.98687744140625,-0.032989501953125,0.009307861328125
1783169104096348400,6.135348388671875,-0.9862213134765625,-0.0330352783203125,0.00604248046875
1783169104106297600,6.145297607421875,-0.9860992431640625,-0.0330047607421875,0.0035247802734375
1783169104116246500,6.15524658203125,-0.9859161376953125,-0.0348358154296875,0.0021820068359375
1783169104126194400,6.1651943359375,-0.9858551025390625,-0.034027099609375,0.0037841796875
1783169104136174600,6.175174560546875,-0.9866943359375,-0.0327606201171875,0.006927490234375
1783169104146122500,6.18512255859375,-0.9864501953125,-0.0335235595703125,0.00885009765625
1783169104156071700,6.19507177734375,-0.986968994140625,-0.0333099365234375,0.009429931640625
1783169104166020600,6.2050205078125,-0.98699951171875,-0.032470703125,0.0092926025390625
1783169104175999700,6.214999755859375,-0.98651123046875,-0.03338623046875,0.0078582763671875
1783169104185948700,6.22494873046875,-0.986785888671875,-0.0333404541015625,0.0050201416015625
1783169104195897600,6.234897705078125,-0.9876861572265625,-0.0343017578125,0.004119873046875
1783169104205845500,6.244845458984375,-0.9864501953125,-0.0338134765625,0.0033721923828125
1783169104215825700,6.25482568359375,-0.9861907958984375,-0.0341033935546875,0.0040435791015625
1783169104225773600,6.264773681640625,-0.986419677734375,-0.03387451171875,0.0033721923828125
1783169104235722500,6.274722412109375,-0.9868316650390625,-0.033966064453125,0.004425048828125
1783169104245671400,6.28467138671875,-0.9873199462890625,-0.0343780517578125,0.0050811767578125
1783169104255650600,6.294650634765625,-0.9869537353515625,-0.0330657958984375,0.0058135986328125
1783169104265599500,6.304599609375,-0.9863128662109375,-0.0334014892578125,0.0047454833984375
1783169104275548400,6.31454833984375,-0.985870361328125,-0.03363037109375,0.0038299560546875
1783169104285527600,6.324527587890625,-0.986053466796875,-0.033966064453125,0.0030975341796875
1783169104295476700,6.334476806640625,-0.98663330078125,-0.03485107421875,0.00360107421875
1783169104305424400,6.34442431640625,-0.9869384765625,-0.0346527099609375,0.0039215087890625
1783169104315373600,6.35437353515625,-0.9865264892578125,-0.0343017578125,0.00579833984375
1783169104325352700,6.364352783203125,-0.9863128662109375,-0.0338287353515625,0.00653076171875
1783169104335301600,6.374301513671875,-0.9873199462890625,-0.0342254638671875,0.0070648193359375
1783169104345250600,6.38425048828125,-0.98699951171875,-0.0336151123046875,0.0072784423828125
1783169104355198700,6.39419873046875,-0.985992431640625,-0.033721923828125,0.0060272216796875
1783169104365178600,6.4041787109375,-0.9865875244140625,-0.034454345703125,0.0057373046875
1783169104375126500,6.41412646484375,-0.9865875244140625,-0.0347747802734375,0.0057830810546875
1783169104385075500,6.424075439453125,-0.986602783203125,-0.0345916748046875,0.0051116943359375
1783169104395024600,6.434024658203125,-0.9873046875,-0.0343017578125,0.0037841796875
1783169104405003500,6.44400341796875,-0.986541748046875,-0.0344390869140625,0.003753662109375
1783169104414952400,6.453952392578125,-0.9866943359375,-0.034698486328125,0.004364013671875
1783169104424901400,6.4639013671875,-0.9869232177734375,-0.0342559814453125,0.0048065185546875
1783169104434880500,6.473880615234375,-0.986419677734375,-0.034423828125,0.0050811767578125
1783169104444829400,6.483829345703125,-0.9859161376953125,-0.034454345703125,0.0068206787109375
1783169104454777600,6.493777587890625,-0.9868011474609375,-0.0335693359375,0.00701904296875
1783169104464726800,6.503726806640625,-0.9864044189453125,-0.0338287353515625,0.0052642822265625
1783169104474705400,6.513705322265625,-0.98681640625,-0.033782958984375,0.0032501220703125
1783169104484654600,6.523654541015625,-0.986541748046875,-0.0335845947265625,0.002197265625
1783169104494603500,6.533603515625,-0.986846923828125,-0.0345611572265625,0.0018768310546875
1783169104504551700,6.5435517578125,-0.986175537109375,-0.034912109375,0.002044677734375
1783169104514531600,6.553531494140625,-0.9863433837890625,-0.0350189208984375,0.0040130615234375
1783169104524479700,6.563479736328125,-0.9870147705078125,-0.0353240966796875,0.00531005859375
1783169104534428700,6.5734287109375,-0.9863739013671875,-0.0347747802734375,0.0048980712890625
1783169104544377600,6.583377685546875,-0.9860382080078125,-0.0341033935546875,0.0058135986328125
1783169104554356500,6.5933564453125,-0.986572265625,-0.0343170166015625,0.00616455078125
1783169104564305700,6.6033056640625,-0.9860687255859375,-0.03326416015625,0.0043792724609375
1783169104574254600,6.613254638671875,-0.986541748046875,-0.0337982177734375,0.0030364990234375
1783169104584233500,6.6232333984375,-0.9865875244140625,-0.034332275390625,0.002899169921875
1783169104594182400,6.633182373046875,-0.986602783203125,-0.0339202880859375,0.003021240234375
1783169104604130600,6.643130615234375,-0.987030029296875,-0.0344085693359375,0.004119873046875
1783169104614079500,6.65307958984375,-0.986663818359375,-0.034515380859375,0.006072998046875
1783169104624058400,6.663058349609375,-0.98626708984375,-0.0345001220703125,0.0068817138671875
1783169104634007600,6.673007568359375,-0.986053466796875,-0.0344085693359375,0.0068511962890625
1783169104643956700,6.682956787109375,-0.986572265625,-0.0337371826171875,0.006988525390625
1783169104653904600,6.692904541015625,-0.9866180419921875,-0.033203125,0.0053863525390625
1783169104663884500,6.702884521484375,-0.986328125,-0.033477783203125,0.0054473876953125
1783169104673832700,6.712832763671875,-0.9872589111328125,-0.0337982177734375,0.0058135986328125
1783169104683781600,6.72278173828125,-0.9869384765625,-0.034698486328125,0.0067596435546875
1783169104693730600,6.73273046875,-0.9864349365234375,-0.035308837890625,0.0088958740234375
1783169104703709700,6.742709716796875,-0.9865570068359375,-0.0348968505859375,0.008209228515625
1783169104713658600,6.75265869140625,-0.9860076904296875,-0.0342254638671875,0.0059356689453125
1783169104723607600,6.762607666015625,-0.9855499267578125,-0.0342254638671875,0.0045623779296875
1783169104733586400,6.77258642578125,-0.9859619140625,-0.033233642578125,0.0035858154296875
1783169104743535600,6.78253564453125,-0.9853515625,-0.0337677001953125,0.0040740966796875
1783169104753483500,6.7924833984375,-0.9863128662109375,-0.033905029296875,0.0064849853515625
1783169104763432400,6.802432373046875,-0.98577880859375,-0.0343017578125,0.0087127685546875
1783169104773411600,6.81241162109375,-0.986328125,-0.03466796875,0.0094757080078125
1783169104783360500,6.822360595703125,-0.986114501953125,-0.0352783203125,0.0079193115234375
1783169104793309700,6.832309814453125,-0.986480712890625,-0.034027099609375,0.00543212890625
1783169104803257300,6.84225732421875,-0.987152099609375,-0.033294677734375,0.0035400390625
1783169104813237800,6.85223779296875,-0.9868011474609375,-0.034332275390625,0.002197265625
1783169104823185700,6.862185546875,-0.98675537109375,-0.0343017578125,0.0016326904296875
1783169104833134600,6.872134521484375,-0.9864654541015625,-0.0339508056640625,0.0025177001953125
1783169104843083500,6.88208349609375,-0.986663818359375,-0.03485107421875,0.0048828125
1783169104853062700,6.892062744140625,-0.9860992431640625,-0.0341949462890625,0.00677490234375
1783169104863044900,6.902044921875,-0.9876708984375,-0.0340576171875,0.0088348388671875
1783169104872994000,6.911994140625,-0.9871368408203125,-0.033660888671875,0.0094146728515625
1783169104882973000,6.921972900390625,-0.98638916015625,-0.0340118408203125,0.0074005126953125
1783169104892921900,6.931921875,-0.98651123046875,-0.032989501953125,0.0063018798828125
1783169104902870000,6.9418701171875,-0.9857330322265625,-0.03350830078125,0.0042877197265625
1783169104912819000,6.95181884765625,-0.9864654541015625,-0.034759521484375,0.00286865234375
1783169104922797800,6.9617978515625,-0.987213134765625,-0.03509521484375,0.00341796875
1783169104932747000,6.9717470703125,-0.986328125,-0.034088134765625,0.0052490234375
1783169104942696000,6.981696044921875,-0.9857635498046875,-0.0330352783203125,0.006378173828125
1783169104952645000,6.99164501953125,-0.9864654541015625,-0.032806396484375,0.00677490234375
1783169104962623700,7.001623779296875,-0.9855499267578125,-0.03302001953125,0.005462646484375
1783169104972572000,7.011572021484375,-0.9866485595703125,-0.0331878662109375,0.0054931640625
1783169104982521000,7.02152099609375,-0.98663330078125,-0.03369140625,0.005035400390625
1783169104992470000,7.031469970703125,-0.9858245849609375,-0.0339813232421875,0.0050506591796875
1783169105002449200,7.04144921875,-0.98614501953125,-0.033905029296875,0.0049285888671875
1783169105012398000,7.051398193359375,-0.986602783203125,-0.03436279296875,0.0043487548828125
1783169105022347000,7.061346923828125,-0.9869232177734375,-0.0343170166015625,0.0030670166015625
1783169105032326000,7.071325927734375,-0.9869384765625,-0.03411865234375,0.0030975341796875
1783169105042275000,7.081275146484375,-0.986236572265625,-0.0340576171875,0.0047149658203125
1783169105052223000,7.091222900390625,-0.9869537353515625,-0.0338287353515625,0.0058441162109375
1783169105062172000,7.101171875,-0.9863739013671875,-0.0337677001953125,0.0069122314453125
1783169105072151000,7.111151123046875,-0.9864044189453125,-0.0335845947265625,0.006256103515625
1783169105082100000,7.121099853515625,-0.987518310546875,-0.0345306396484375,0.00494384765625
1783169105092049000,7.131048828125,-0.9862213134765625,-0.0337677001953125,0.005462646484375
1783169105101997800,7.140997802734375,-0.9862823486328125,-0.033416748046875,0.005035400390625
1783169105111977000,7.15097705078125,-0.987457275390625,-0.034698486328125,0.0053863525390625
1783169105121926000,7.16092578125,-0.9873504638671875,-0.034332275390625,0.0063018798828125
1783169105131873800,7.170873779296875,-0.9866790771484375,-0.03460693359375,0.006622314453125
1783169105141823000,7.180822998046875,-0.9860076904296875,-0.0340423583984375,0.007537841796875
1783169105151802000,7.190802001953125,-0.98626708984375,-0.0338592529296875,0.0063323974609375
1783169105161751000,7.2007509765625,-0.9866485595703125,-0.0336761474609375,0.0054931640625
1783169105171700000,7.210699951171875,-0.987762451171875,-0.0334625244140625,0.005340576171875
1783169105181679000,7.22067919921875,-0.9872283935546875,-0.0334930419921875,0.0046234130859375
1783169105191628000,7.2306279296875,-0.9860687255859375,-0.0331268310546875,0.0042724609375
1783169105201576000,7.240575927734375,-0.9860687255859375,-0.0342864990234375,0.004974365234375
1783169105211524900,7.25052490234375,-0.9873046875,-0.0346527099609375,0.00592041015625
1783169105221504000,7.26050390625,-0.9877166748046875,-0.03387451171875,0.00604248046875
1783169105231453000,7.270452880859375,-0.9873809814453125,-0.0342864990234375,0.00604248046875
1783169105241401900,7.28040185546875,-0.98663330078125,-0.0347747802734375,0.00518798828125
1783169105251350800,7.290350830078125,-0.987274169921875,-0.033721923828125,0.0045928955078125
1783169105261330000,7.300329833984375,-0.9868011474609375,-0.033203125,0.0036163330078125
1783169105271278800,7.31027880859375,-0.9859466552734375,-0.03472900390625,0.00323486328125
1783169105281226800,7.320226806640625,-0.98590087890625,-0.0344390869140625,0.0045928955078125
1783169105291176000,7.330176025390625,-0.98681640625,-0.0343475341796875,0.0053863525390625
1783169105301154800,7.34015478515625,-0.9869232177734375,-0.0344390869140625,0.0055999755859375
1783169105311104000,7.35010400390625,-0.986358642578125,-0.0335540771484375,0.006988525390625
1783169105321053000,7.360052978515625,-0.9864044189453125,-0.0344696044921875,0.0061492919921875
1783169105331032000,7.370031982421875,-0.9876708984375,-0.0345001220703125,0.006103515625
1783169105340981000,7.37998095703125,-0.987579345703125,-0.0341644287109375,0.004241943359375
1783169105350929000,7.389928955078125,-0.98626708984375,-0.0344390869140625,0.0034027099609375
1783169105360878000,7.399878173828125,-0.9872894287109375,-0.0344390869140625,0.0031280517578125
1783169105370857000,7.40985693359375,-0.98681640625,-0.034423828125,0.0040740966796875
1783169105380806000,7.419805908203125,-0.9859161376953125,-0.033966064453125,0.005859375
1783169105390754800,7.4297548828125,-0.986236572265625,-0.0336151123046875,0.007843017578125
1783169105400704000,7.4397041015625,-0.98663330078125,-0.032928466796875,0.008453369140625
1783169105410683000,7.449682861328125,-0.9865264892578125,-0.03350830078125,0.006683349609375
1783169105420631800,7.4596318359375,-0.9865875244140625,-0.0342559814453125,0.0046234130859375
1783169105430580000,7.469580078125,-0.985626220703125,-0.034027099609375,0.00390625
1783169105440529000,7.47952880859375,-0.986572265625,-0.03369140625,0.0031280517578125
1783169105450507800,7.4895078125,-0.9864044189453125,-0.0340728759765625,0.00335693359375
1783169105460457000,7.49945703125,-0.98529052734375,-0.0340576171875,0.0057830810546875
1783169105470406100,7.50940625,-0.98602294921875,-0.0339508056640625,0.00634765625
1783169105480384800,7.519384765625,-0.9868011474609375,-0.033782958984375,0.006988525390625
1783169105490334000,7.529333984375,-0.9858856201171875,-0.03326416015625,0.00628662109375
1783169105500282000,7.5392822265625,-0.9857940673828125,-0.03338623046875,0.0075531005859375
1783169105510231000,7.54923095703125,-0.9860076904296875,-0.0351104736328125,0.0059356689453125
1783169105520210000,7.5592099609375,-0.9859161376953125,-0.0347900390625,0.0041351318359375
1783169105530159000,7.5691591796875,-0.9865875244140625,-0.034881591796875,0.0045623779296875
1783169105540108000,7.57910791015625,-0.986358642578125,-0.03485107421875,0.0048675537109375
1783169105550057000,7.589056884765625,-0.9866180419921875,-0.0339813232421875,0.0045928955078125
1783169105560035800,7.599035888671875,-0.9864959716796875,-0.0343170166015625,0.0051727294921875
1783169105569985000,7.608985107421875,-0.98590087890625,-0.0339813232421875,0.00604248046875
1783169105579933000,7.618932861328125,-0.986175537109375,-0.0338592529296875,0.005218505859375
1783169105589881900,7.6288818359375,-0.985595703125,-0.03436279296875,0.005706787109375
1783169105599861000,7.638861083984375,-0.9859161376953125,-0.0345001220703125,0.0054931640625
1783169105609810000,7.648809814453125,-0.9863128662109375,-0.033843994140625,0.0057830810546875
1783169105619758800,7.6587587890625,-0.986328125,-0.0335540771484375,0.005401611328125
1783169105629708000,7.6687080078125,-0.9862060546875,-0.03363037109375,0.0061187744140625
1783169105639687200,7.678687255859375,-0.986083984375,-0.032867431640625,0.005889892578125
1783169105649634800,7.688634765625,-0.9862060546875,-0.033935546875,0.005340576171875
1783169105659584000,7.698583984375,-0.985870361328125,-0.0336456298828125,0.005706787109375
1783169105669563100,7.708563232421875,-0.9855194091796875,-0.033905029296875,0.0065765380859375
1783169105679512000,7.718511962890625,-0.985992431640625,-0.0341796875,0.0063629150390625
1783169105689461000,7.7284609375,-0.9866943359375,-0.03448486328125,0.005950927734375
1783169105699410000,7.738409912109375,-0.9859619140625,-0.0341949462890625,0.004852294921875
1783169105709389000,7.74838916015625,-0.9862518310546875,-0.0338897705078125,0.004180908203125
1783169105719338000,7.758337890625,-0.986297607421875,-0.0337371826171875,0.003692626953125
1783169105729286000,7.768285888671875,-0.98553466796875,-0.03350830078125,0.0040740966796875
1783169105739234800,7.77823486328125,-0.98583984375,-0.0338897705078125,0.0048065185546875
1783169105749214000,7.7882138671875,-0.98675537109375,-0.0343170166015625,0.00543212890625
1783169105759163000,7.798162841796875,-0.98602294921875,-0.0340728759765625,0.0052947998046875
1783169105769111800,7.80811181640625,-0.9862213134765625,-0.0347900390625,0.00506591796875
1783169105779060700,7.818060791015625,-0.9865875244140625,-0.0341644287109375,0.0053863525390625
1783169105789039900,7.828039794921875,-0.9859771728515625,-0.0339202880859375,0.006011962890625
1783169105798989000,7.837989013671875,-0.9867706298828125,-0.0330810546875,0.005767822265625
1783169105808937000,7.84793701171875,-0.9865264892578125,-0.0330810546875,0.004486083984375
1783169105818915800,7.857915771484375,-0.986907958984375,-0.03363037109375,0.0046234130859375
1783169105828865000,7.867864990234375,-0.9853363037109375,-0.034149169921875,0.0040435791015625
1783169105838814000,7.87781396484375,-0.9865570068359375,-0.033660888671875,0.0042266845703125
1783169105848763000,7.887762939453125,-0.986419677734375,-0.03369140625,0.00469970703125
1783169105858742000,7.897741943359375,-0.9871826171875,-0.033935546875,0.0051116943359375
1783169105868686800,7.907686767578125,-0.9868621826171875,-0.0345916748046875,0.005401611328125
1783169105878635000,7.917635009765625,-0.98614501953125,-0.0344696044921875,0.0056610107421875
1783169105888584000,7.927583984375,-0.9863739013671875,-0.034149169921875,0.0060272216796875
1783169105898562800,7.937562744140625,-0.986083984375,-0.03387451171875,0.0056304931640625
1783169105908512000,7.947511962890625,-0.98553466796875,-0.0340423583984375,0.0053253173828125
1783169105918461000,7.9574609375,-0.9868011474609375,-0.034210205078125,0.0041961669921875
1783169105928409900,7.967409912109375,-0.9860076904296875,-0.0349578857421875,0.00469970703125
1783169105938388700,7.977388671875,-0.98529052734375,-0.0350494384765625,0.0050048828125
1783169105948338000,7.987337890625,-0.9864654541015625,-0.0345306396484375,0.0053863525390625
1783169105958285800,7.997285888671875,-0.9866180419921875,-0.0343780517578125,0.005401611328125
1783169105968266000,8.007265869140625,-0.987396240234375,-0.0339813232421875,0.0052947998046875
1783169105978214000,8.0172138671875,-0.986419677734375,-0.0341339111328125,0.005889892578125
1783169105988163000,8.0271630859375,-0.9869384765625,-0.033782958984375,0.0066070556640625
1783169105998112000,8.037112060546875,-0.9863739013671875,-0.03497314453125,0.0058746337890625
1783169106008091000,8.0470908203125,-0.9862823486328125,-0.0346832275390625,0.0063629150390625
1783169106018040000,8.0570400390625,-0.98736572265625,-0.034576416015625,0.00604248046875
1783169106027988000,8.066988037109375,-0.9869384765625,-0.034698486328125,0.0045623779296875
1783169106037937000,8.07693701171875,-0.9858245849609375,-0.034149169921875,0.0041961669921875
1783169106047916000,8.086916015625,-0.986785888671875,-0.0345916748046875,0.003753662109375
1783169106057865000,8.096864990234375,-0.9866180419921875,-0.034271240234375,0.0048828125
1783169106067814000,8.10681396484375,-0.98614501953125,-0.0338592529296875,0.006134033203125
1783169106077762800,8.1167626953125,-0.985687255859375,-0.0347442626953125,0.006500244140625
1783169106087742000,8.126741943359375,-0.986541748046875,-0.0338592529296875,0.0060882568359375
1783169106097691000,8.13669091796875,-0.98614501953125,-0.033966064453125,0.0054168701171875
1783169106107638800,8.146638671875,-0.986358642578125,-0.0337677001953125,0.0051727294921875
1783169106117618700,8.15661865234375,-0.986572265625,-0.0334625244140625,0.004180908203125
1783169106127566800,8.16656689453125,-0.9858551025390625,-0.034576416015625,0.0035400390625
1783169106137516000,8.17651611328125,-0.9860076904296875,-0.0341949462890625,0.0035552978515625
1783169106147465000,8.18646484375,-0.9873504638671875,-0.034210205078125,0.00335693359375
1783169106157444000,8.196444091796875,-0.986724853515625,-0.0341644287109375,0.0033721923828125
1783169106167393000,8.20639306640625,-0.9861602783203125,-0.03460693359375,0.003662109375
1783169106177341000,8.2163408203125,-0.9856414794921875,-0.0355987548828125,0.0041046142578125
1783169106187289900,8.226289794921875,-0.986328125,-0.03546142578125,0.006256103515625
1783169106197269000,8.23626904296875,-0.9871063232421875,-0.0348968505859375,0.006500244140625
1783169106207218000,8.246218017578125,-0.9857940673828125,-0.034332275390625,0.00762939453125
1783169106217166800,8.256166748046875,-0.98626708984375,-0.0340423583984375,0.006591796875
1783169106227115800,8.26611572265625,-0.9858551025390625,-0.033782958984375,0.0047607421875
1783169106237095000,8.276094970703125,-0.9866180419921875,-0.034027099609375,0.0026397705078125
1783169106247043800,8.2860439453125,-0.98516845703125,-0.034332275390625,0.0017547607421875
1783169106256991700,8.29599169921875,-0.985626220703125,-0.033935546875,0.0029754638671875
1783169106266972000,8.305971923828125,-0.986083984375,-0.0343170166015625,0.0048370361328125
1783169106276919800,8.315919921875,-0.9865875244140625,-0.03424072265625,0.007476806640625
1783169106286868700,8.32586865234375,-0.9875640869140625,-0.033905029296875,0.010711669921875
1783169106296818000,8.33581787109375,-0.9878997802734375,-0.0337677001953125,0.0097198486328125
1783169106306796800,8.345796875,-0.986846923828125,-0.0337371826171875,0.0059661865234375
1783169106316746000,8.35574609375,-0.987030029296875,-0.03265380859375,0.005126953125
1783169106326694000,8.36569384765625,-0.9854278564453125,-0.033477783203125,0.0037078857421875
1783169106336643000,8.37564306640625,-0.986297607421875,-0.0348663330078125,0.00286865234375
1783169106346622000,8.3856220703125,-0.986663818359375,-0.0357513427734375,0.0045318603515625
1783169106356571000,8.39557080078125,-0.986541748046875,-0.0351715087890625,0.004974365234375
1783169106366519800,8.405519775390625,-0.986053466796875,-0.0337982177734375,0.005889892578125
1783169106376469000,8.415468994140625,-0.986907958984375,-0.033660888671875,0.007354736328125
1783169106386448000,8.42544775390625,-0.9874267578125,-0.034759521484375,0.0076751708984375
1783169106396396800,8.435396728515625,-0.987060546875,-0.0344085693359375,0.0060882568359375
1783169106406345000,8.445344970703125,-0.986602783203125,-0.0340423583984375,0.0037384033203125
1783169106416324900,8.455324951171875,-0.98590087890625,-0.0342254638671875,0.0035247802734375
1783169106426272800,8.465272705078124,-0.9864501953125,-0.03497314453125,0.002899169921875
1783169106436222000,8.475221923828125,-0.9860992431640625,-0.0343017578125,0.00384521484375
1783169106446171000,8.4851708984375,-0.986846923828125,-0.034515380859375,0.0055999755859375
1783169106456149800,8.495149658203125,-0.9866180419921875,-0.034942626953125,0.005035400390625
1783169106466098700,8.5050986328125,-0.9859466552734375,-0.0339202880859375,0.003570556640625
1783169106476046800,8.515046875,-0.9864654541015625,-0.033721923828125,0.0018768310546875
1783169106485996000,8.52499609375,-0.987091064453125,-0.0338287353515625,0.0014190673828125
1783169106495975000,8.534974853515624,-0.9863433837890625,-0.033599853515625,0.002960205078125
1783169106505924000,8.544924072265625,-0.9870758056640625,-0.0347900390625,0.00628662109375
1783169106515873000,8.554873046875,-0.9861297607421875,-0.0347137451171875,0.0086212158203125
1783169106525822000,8.564822021484375,-0.9860076904296875,-0.033935546875,0.00982666015625
1783169106535800800,8.57480078125,-0.986358642578125,-0.0340728759765625,0.007965087890625
1783169106545750000,8.58475,-0.9863739013671875,-0.0341033935546875,0.00701904296875
1783169106555698000,8.594697998046875,-0.98651123046875,-0.0330047607421875,0.007537841796875
1783169106565677800,8.604677734375,-0.986083984375,-0.0331878662109375,0.0058441162109375
1783169106575626000,8.6146259765625,-0.985992431640625,-0.0332489013671875,0.0048675537109375
1783169106585575000,8.624574951171875,-0.9858551025390625,-0.03399658203125,0.0038909912109375
1783169106595523800,8.63452392578125,-0.9868927001953125,-0.0348358154296875,0.002532958984375
1783169106605502700,8.644502685546875,-0.9868316650390625,-0.0354461669921875,0.0035400390625
1783169106615452000,8.654451904296875,-0.986907958984375,-0.03363037109375,0.0050201416015625
1783169106625401000,8.664401123046876,-0.9871673583984375,-0.03277587890625,0.006500244140625
1783169106635348700,8.6743486328125,-0.986236572265625,-0.03314208984375,0.008026123046875
1783169106645329000,8.684328857421875,-0.9851837158203125,-0.0336151123046875,0.0079193115234375
1783169106655277000,8.694277099609375,-0.9868927001953125,-0.0351409912109375,0.0058441162109375
1783169106665226000,8.70422607421875,-0.9861297607421875,-0.0347137451171875,0.0053253173828125
1783169106675175000,8.7141748046875,-0.9866943359375,-0.0338134765625,0.0032501220703125
1783169106685154000,8.724154052734375,-0.9871063232421875,-0.0341033935546875,0.002899169921875
1783169106695103000,8.73410302734375,-0.9867706298828125,-0.034759521484375,0.0030670166015625
1783169106705051000,8.74405078125,-0.9867401123046875,-0.0351409912109375,0.004852294921875
1783169106715030800,8.75403076171875,-0.986175537109375,-0.0341339111328125,0.0056304931640625
1783169106724979000,8.76397900390625,-0.9864044189453125,-0.0345916748046875,0.005279541015625
1783169106734928000,8.773927978515625,-0.9867095947265625,-0.0347137451171875,0.0058135986328125
1783169106744876800,8.783876708984375,-0.9862823486328125,-0.0339202880859375,0.005218505859375
1783169106754856000,8.79385595703125,-0.9870758056640625,-0.0329742431640625,0.004425048828125
1783169106764804900,8.803804931640625,-0.9869842529296875,-0.0339508056640625,0.0055389404296875
1783169106774753800,8.81375390625,-0.9870452880859375,-0.0343017578125,0.0046844482421875
1783169106784702000,8.823701904296875,-0.9864349365234375,-0.033843994140625,0.00390625
1783169106794681900,8.833681884765625,-0.98590087890625,-0.0341339111328125,0.00390625
1783169106804629800,8.843629638671874,-0.986175537109375,-0.033599853515625,0.004974365234375
1783169106814579000,8.853578857421875,-0.98626708984375,-0.033203125,0.0058441162109375
1783169106824528000,8.86352783203125,-0.9865570068359375,-0.03338623046875,0.0052490234375
1783169106834507000,8.873507080078125,-0.986328125,-0.0334930419921875,0.005218505859375
1783169106844456000,8.8834560546875,-0.98590087890625,-0.033599853515625,0.0041961669921875
1783169106854404000,8.893404052734375,-0.9856109619140625,-0.034149169921875,0.003692626953125
1783169106864398000,8.903398193359376,-0.9863128662109375,-0.03436279296875,0.0036773681640625
1783169106874346000,8.913345947265626,-0.986480712890625,-0.034423828125,0.0056304931640625
1783169106884295000,8.923294921875,-0.986724853515625,-0.0337371826171875,0.0054168701171875
1783169106894243800,8.933243896484376,-0.98681640625,-0.0340423583984375,0.005584716796875
1783169106904223000,8.943222900390625,-0.9864349365234375,-0.03369140625,0.005401611328125
1783169106914172000,8.953171875,-0.9871368408203125,-0.0337677001953125,0.004150390625
1783169106924120800,8.963120849609375,-0.9861297607421875,-0.034515380859375,0.0050048828125
1783169106934069000,8.973069091796875,-0.9861602783203125,-0.0337677001953125,0.004058837890625
1783169106944049000,8.983048828125,-0.98675537109375,-0.03387451171875,0.004486083984375
1783169106953996800,8.992996826171876,-0.98699951171875,-0.0335540771484375,0.0052642822265625
1783169106963946000,9.002946044921876,-0.9859619140625,-0.033935546875,0.0063323974609375
1783169106973895000,9.01289501953125,-0.9874725341796875,-0.034210205078125,0.007110595703125
1783169106983873800,9.022873779296875,-0.98760986328125,-0.033935546875,0.006103515625
1783169106993822700,9.03282275390625,-0.9868927001953125,-0.0341033935546875,0.00579833984375
1783169107003771000,9.04277099609375,-0.986297607421875,-0.034393310546875,0.0062103271484375
1783169107013719800,9.0527197265625,-0.9864501953125,-0.034149169921875,0.0052490234375
1783169107023698700,9.06269873046875,-0.987030029296875,-0.0338134765625,0.005035400390625
1783169107033648000,9.072648193359376,-0.9863433837890625,-0.033294677734375,0.003448486328125
1783169107043597000,9.08259716796875,-0.986663818359375,-0.033660888671875,0.00262451171875
1783169107053576000,9.092575927734375,-0.9871826171875,-0.0342254638671875,0.0051116943359375
1783169107063524900,9.10252490234375,-0.986602783203125,-0.0341796875,0.0067596435546875
1783169107073474000,9.11247412109375,-0.98583984375,-0.0347900390625,0.006561279296875
1783169107083422000,9.122421875,-0.98626708984375,-0.0340118408203125,0.006317138671875
1783169107093401900,9.13240185546875,-0.98651123046875,-0.034576416015625,0.006011962890625
1783169107103350000,9.14235009765625,-0.9850616455078125,-0.0339202880859375,0.004974365234375
1783169107113299000,9.152298828125,-0.986053466796875,-0.0331878662109375,0.0048675537109375
1783169107123247900,9.162247802734376,-0.986328125,-0.0340423583984375,0.0051727294921875
1783169107133226800,9.172226806640625,-0.9862213134765625,-0.0347137451171875,0.006103515625
1783169107143176000,9.182176025390625,-0.9863739013671875,-0.0341339111328125,0.0086669921875
1783169107153123800,9.192123779296875,-0.986358642578125,-0.0341033935546875,0.0109100341796875
1783169107163072800,9.20207275390625,-0.9876251220703125,-0.03350830078125,0.0104522705078125
1783169107173052000,9.212052001953126,-0.9869232177734375,-0.0336761474609375,0.00958251953125
1783169107183000800,9.222000732421876,-0.9865875244140625,-0.03350830078125,0.009307861328125
1783169107192950000,9.231949951171876,-0.9863433837890625,-0.033905029296875,0.01165771484375
1783169107202929000,9.241928955078125,-0.98699951171875,-0.032623291015625,0.0178985595703125
1783169107212878000,9.251878173828125,-0.9872894287109375,-0.03240966796875,0.0226287841796875
1783169107222827000,9.261826904296875,-0.9865875244140625,-0.033538818359375,0.0221099853515625
1783169107232775000,9.27177490234375,-0.986846923828125,-0.033447265625,0.0155181884765625
1783169107242754800,9.2817548828125,-0.98699951171875,-0.034271240234375,0.0042724609375
1783169107252703000,9.291702880859376,-0.986419677734375,-0.0331268310546875,-0.007476806640625
1783169107262652000,9.30165185546875,-0.9864349365234375,-0.0333404541015625,-0.015289306640625
1783169107272600800,9.311600830078126,-0.98638916015625,-0.0339813232421875,-0.0189971923828125
1783169107282580000,9.321580078125,-0.9858551025390625,-0.03570556640625,-0.017974853515625
1783169107292529000,9.33152880859375,-0.987518310546875,-0.0377655029296875,-0.0114898681640625
1783169107302477800,9.341477783203125,-0.98797607421875,-0.037994384765625,-0.003509521484375
1783169107312425700,9.35142578125,-0.98681640625,-0.037445068359375,0.0030517578125
1783169107322404900,9.36140478515625,-0.9858856201171875,-0.0359039306640625,0.00677490234375
1783169107332353800,9.371353759765626,-0.9871673583984375,-0.035308837890625,0.007843017578125
1783169107342302700,9.381302734375,-0.986572265625,-0.034576416015625,0.004302978515625
1783169107352281900,9.39128173828125,-0.9864349365234375,-0.033966064453125,-0.0013427734375
1783169107362231000,9.40123095703125,-0.986358642578125,-0.0334320068359375,-0.0084381103515625
1783169107372180000,9.411179931640625,-0.9859771728515625,-0.03497314453125,-0.0128326416015625
1783169107382128000,9.421128173828125,-0.98651123046875,-0.03460693359375,-0.0131072998046875
1783169107392108000,9.43110791015625,-0.98699951171875,-0.033447265625,-0.0085296630859375
1783169107402056000,9.441055908203126,-0.9868011474609375,-0.033172607421875,-0.0003814697265625
1783169107412004900,9.4510048828125,-0.9866943359375,-0.0319366455078125,0.0090789794921875
1783169107421953800,9.460953857421876,-0.986724853515625,-0.030517578125,0.01702880859375
1783169107431933000,9.470932861328125,-0.9863128662109375,-0.0319366455078125,0.022308349609375
1783169107441881900,9.4808818359375,-0.986968994140625,-0.0312957763671875,0.0254364013671875
1783169107451830800,9.490830810546875,-0.9864349365234375,-0.031707763671875,0.0240020751953125
1783169107461779000,9.500779052734375,-0.9859161376953125,-0.0327606201171875,0.0192413330078125
1783169107471758800,9.5107587890625,-0.98663330078125,-0.0339508056640625,0.0145721435546875
1783169107481706800,9.520706787109376,-0.9868011474609375,-0.0343780517578125,0.0071258544921875
1783169107491656000,9.530656005859376,-0.98614501953125,-0.0350189208984375,0.00244140625
1783169107501634800,9.540634765625,-0.986053466796875,-0.034759521484375,0
1783169107511583700,9.550583740234375,-0.985595703125,-0.03472900390625,0.0015411376953125
1783169107521533000,9.560532958984375,-0.9864501953125,-0.0341339111328125,0.0046844482421875
1783169107531480800,9.570480712890625,-0.9866180419921875,-0.0336151123046875,0.0084075927734375
1783169107541461000,9.5804609375,-0.9858856201171875,-0.0347900390625,0.011962890625
1783169107551409000,9.590408935546876,-0.9863433837890625,-0.0354156494140625,0.0139617919921875
1783169107561358000,9.600358154296876,-0.9869537353515625,-0.035186767578125,0.0111846923828125
1783169107571307000,9.61030712890625,-0.9866790771484375,-0.035858154296875,0.006103515625
1783169107581286000,9.620285888671875,-0.9864501953125,-0.03546142578125,0.0001220703125
1783169107591234800,9.63023486328125,-0.9864349365234375,-0.03643798828125,-0.004608154296875
1783169107601184000,9.64018408203125,-0.9864349365234375,-0.036163330078125,-0.006134033203125
1783169107611132000,9.6501318359375,-0.986175537109375,-0.03582763671875,-0.0032806396484375
1783169107621111800,9.66011181640625,-0.9871978759765625,-0.035552978515625,0.0000762939453125
1783169107631060000,9.67006005859375,-0.9864349365234375,-0.03338623046875,0.00518798828125
1783169107641009000,9.6800087890625,-0.9868927001953125,-0.0327606201171875,0.0107269287109375
1783169107650987800,9.68998779296875,-0.986541748046875,-0.031280517578125,0.0146484375
1783169107660937000,9.69993701171875,-0.987091064453125,-0.031951904296875,0.0167388916015625
1783169107670886000,9.709885986328125,-0.985748291015625,-0.032501220703125,0.0164642333984375
1783169107680833800,9.719833740234375,-0.9858856201171875,-0.033355712890625,0.012237548828125
1783169107690814000,9.72981396484375,-0.9852142333984375,-0.034210205078125,0.006103515625
1783169107700761900,9.739761962890626,-0.9870758056640625,-0.034515380859375,0.001495361328125
1783169107710711000,9.7497109375,-0.9865570068359375,-0.0346527099609375,-0.00103759765625
1783169107720660000,9.759659912109376,-0.9863739013671875,-0.034698486328125,0.0005950927734375
1783169107730639000,9.76963916015625,-0.985992431640625,-0.0341339111328125,0.0032196044921875
1783169107740588000,9.779588134765625,-0.9867401123046875,-0.0329132080078125,0.0089569091796875
1783169107750537000,9.789536865234375,-0.986846923828125,-0.0327301025390625,0.01080322265625
1783169107760484900,9.79948486328125,-0.9859619140625,-0.0320281982421875,0.01092529296875
1783169107770465000,9.809465087890626,-0.9862213134765625,-0.03363037109375,0.0081634521484375
1783169107780413000,9.819412841796876,-0.987030029296875,-0.034912109375,0.004119873046875
1783169107790361900,9.82936181640625,-0.9867095947265625,-0.036346435546875,-0.000030517578125
1783169107800310800,9.839310791015626,-0.9871826171875,-0.0361175537109375,-0.001495361328125
1783169107810290000,9.8492900390625,-0.9860382080078125,-0.036865234375,-0.000732421875
1783169107820238800,9.85923876953125,-0.98602294921875,-0.0365447998046875,0.0005035400390625
1783169107830186800,9.869186767578125,-0.986175537109375,-0.0347137451171875,0.003204345703125
1783169107840167000,9.8791669921875,-0.986541748046875,-0.03289794921875,0.0059814453125
1783169107850114800,9.88911474609375,-0.9871673583984375,-0.0320892333984375,0.0075531005859375
1783169107860063700,9.899063720703126,-0.9865264892578125,-0.0334625244140625,0.0086212158203125
1783169107870052400,9.90905224609375,-0.986114501953125,-0.033660888671875,0.0091400146484375
1783169107880031200,9.91903125,-0.9869232177734375,-0.0331573486328125,0.0088653564453125
1783169107889980400,9.92898046875,-0.987274169921875,-0.03399658203125,0.0074310302734375
1783169107899929300,9.938929443359376,-0.98663330078125,-0.0345458984375,0.0061492919921875
1783169107909877200,9.948877197265626,-0.9869384765625,-0.033935546875,0.0045013427734375
1783169107919857400,9.958857421875,-0.98681640625,-0.034576416015625,0.004150390625
1783169107929805600,9.9688056640625,-0.9871826171875,-0.0344085693359375,0.0059967041015625
1783169107939754500,9.97875439453125,-0.9855804443359375,-0.0340576171875,0.0055999755859375
1783169107949703400,9.988703369140625,-0.9867095947265625,-0.0330047607421875,0.00579833984375
1783169107959682600,9.9986826171875,-0.9869232177734375,-0.0337066650390625,0.006195068359375
1783169107969631500,10.008631591796876,-0.9864501953125,-0.0337066650390625,0.004425048828125
1783169107979579400,10.018579345703126,-0.9868927001953125,-0.03363037109375,0.0045623779296875
1783169107989559300,10.028559326171875,-0.986083984375,-0.0332489013671875,0.003662109375
1783169107999507500,10.038507568359375,-0.986602783203125,-0.03436279296875,0.0018768310546875
1783169108009456400,10.048456298828125,-0.986907958984375,-0.03460693359375,0.0019073486328125
1783169108019405300,10.0584052734375,-0.98602294921875,-0.0345916748046875,0.0031585693359375
1783169108029384400,10.068384521484376,-0.9860992431640625,-0.035736083984375,0.0038909912109375
1783169108039333400,10.07833349609375,-0.9864501953125,-0.0350189208984375,0.0050811767578125
1783169108049282300,10.0882822265625,-0.9870452880859375,-0.034515380859375,0.0066680908203125
1783169108059230200,10.098230224609376,-0.9878082275390625,-0.0335235595703125,0.0055389404296875
1783169108069210400,10.10821044921875,-0.987548828125,-0.0334320068359375,0.002105712890625
1783169108079158300,10.118158203125,-0.9873046875,-0.0340118408203125,0.0000762939453125
1783169108089107500,10.128107421875,-0.9870147705078125,-0.0341949462890625,-0.001190185546875
1783169108099056400,10.138056396484375,-0.986663818359375,-0.034027099609375,-0.00054931640625
1783169108109035500,10.148035400390626,-0.9868316650390625,-0.0345001220703125,0.003448486328125
1783169108118984400,10.157984375,-0.986083984375,-0.03570556640625,0.008148193359375
1783169108128933400,10.167933349609376,-0.986236572265625,-0.0360260009765625,0.0162200927734375
1783169108138912500,10.17791259765625,-0.9869842529296875,-0.0337677001953125,0.023895263671875
1783169108148861400,10.187861328125,-0.9861602783203125,-0.0350799560546875,0.019287109375
1783169108158809300,10.197809326171875,-0.986785888671875,-0.03411865234375,0.01318359375
1783169108168758300,10.20775830078125,-0.98577880859375,-0.0323486328125,0.0082550048828125
1783169108178737400,10.2177373046875,-0.98583984375,-0.0324859619140625,-0.0007476806640625
1783169108188686300,10.227686279296876,-0.9866790771484375,-0.0345458984375,-0.0086822509765625
1783169108198635300,10.23763525390625,-0.986846923828125,-0.0352783203125,-0.0079803466796875
1783169108208583400,10.24758349609375,-0.985992431640625,-0.0343780517578125,-0.001953125
1783169108218563300,10.257563232421875,-0.98626708984375,-0.03057861328125,0.0079498291015625
1783169108228511200,10.26751123046875,-0.986846923828125,-0.0302581787109375,0.0149383544921875
1783169108238460400,10.27746044921875,-0.9864044189453125,-0.0302886962890625,0.01904296875
1783169108248409600,10.28740966796875,-0.9864959716796875,-0.0312652587890625,0.017059326171875
1783169108258388500,10.297388427734376,-0.9861907958984375,-0.03271484375,0.010223388671875
1783169108268337400,10.30733740234375,-0.9861602783203125,-0.0331573486328125,0.00311279296875
1783169108278286300,10.317286376953126,-0.9869232177734375,-0.0345611572265625,-0.002288818359375
1783169108288265500,10.327265380859375,-0.986236572265625,-0.034332275390625,-0.0053863525390625
1783169108298214400,10.33721435546875,-0.986419677734375,-0.0341796875,-0.0070953369140625
1783169108308162600,10.34716259765625,-0.98590087890625,-0.0349578857421875,-0.0032958984375
1783169108318111500,10.357111572265625,-0.9854583740234375,-0.0349578857421875,0.0035247802734375
1783169108328090400,10.36709033203125,-0.987274169921875,-0.0350189208984375,0.009490966796875
1783169108338039300,10.377039306640626,-0.9865875244140625,-0.034637451171875,0.0133056640625
1783169108347988500,10.386988525390626,-0.987030029296875,-0.0353851318359375,0.014190673828125
1783169108357936400,10.396936279296876,-0.986724853515625,-0.0354766845703125,0.0108184814453125
1783169108367916300,10.406916259765625,-0.9852294921875,-0.0360565185546875,0.0064697265625
1783169108377864400,10.416864501953125,-0.986541748046875,-0.03680419921875,0.0004119873046875
1783169108387813400,10.4268134765625,-0.9870147705078125,-0.037322998046875,-0.0017547607421875
1783169108397762300,10.43676220703125,-0.9870452880859375,-0.0368499755859375,-0.0015411376953125
1783169108407741200,10.4467412109375,-0.986541748046875,-0.035400390625,0.0014190673828125
1783169108417690600,10.456690673828126,-0.986602783203125,-0.03387451171875,0.0041961669921875
1783169108427639600,10.4666396484375,-0.9869232177734375,-0.0335845947265625,0.01019287109375
1783169108437618400,10.476618408203125,-0.987457275390625,-0.031585693359375,0.0133056640625
1783169108447567400,10.4865673828125,-0.9866790771484375,-0.030059814453125,0.01239013671875
1783169108457515500,10.496515625,-0.9870452880859375,-0.030120849609375,0.0102691650390625
1783169108467464400,10.50646435546875,-0.9862518310546875,-0.0306396484375,0.0065460205078125
1783169108477443600,10.516443603515626,-0.985870361328125,-0.032073974609375,0.0026092529296875
1783169108487392500,10.526392578125,-0.9868011474609375,-0.033203125,0.00042724609375
1783169108497341400,10.536341552734376,-0.9854278564453125,-0.0344696044921875,-0.000335693359375
1783169108507289300,10.546289306640626,-0.9864501953125,-0.0354156494140625,0.0004425048828125
1783169108517269200,10.556269287109375,-0.986053466796875,-0.0352020263671875,0.002288818359375
1783169108527217400,10.566217529296875,-0.9855194091796875,-0.034515380859375,0.006378173828125
1783169108537166300,10.576166259765625,-0.9860687255859375,-0.033538818359375,0.01019287109375
1783169108547115300,10.586115234375,-0.9858856201171875,-0.03314208984375,0.0092926025390625
1783169108557094400,10.596094482421876,-0.986846923828125,-0.03369140625,0.006988525390625
1783169108567043300,10.606043212890626,-0.986602783203125,-0.0357208251953125,0.004180908203125
1783169108576992500,10.615992431640626,-0.987091064453125,-0.03619384765625,0.0030670166015625
1783169108586971600,10.6259716796875,-0.9866485595703125,-0.037689208984375,0.0020904541015625
1783169108596920600,10.635920654296875,-0.98614501953125,-0.0381317138671875,0.0023345947265625
1783169108606868500,10.645868408203125,-0.986572265625,-0.03765869140625,0.0042724609375
1783169108616817400,10.6558173828125,-0.9862213134765625,-0.0355987548828125,0.00604248046875
1783169108626796500,10.665796630859376,-0.9864349365234375,-0.0343170166015625,0.00762939453125
1783169108636745500,10.675745361328126,-0.986175537109375,-0.0329742431640625,0.0080108642578125
1783169108646694400,10.6856943359375,-0.98699951171875,-0.0324859619140625,0.0083465576171875
1783169108656642600,10.695642578125,-0.9876556396484375,-0.031646728515625,0.006195068359375
1783169108666622500,10.70562255859375,-0.9857025146484375,-0.031951904296875,0.0045318603515625
1783169108676570400,10.7155703125,-0.9860687255859375,-0.0330963134765625,0.0026397705078125
1783169108686519300,10.725519287109375,-0.9868927001953125,-0.033294677734375,0.001922607421875
1783169108696468500,10.735468505859375,-0.9869232177734375,-0.0329132080078125,0.002532958984375
1783169108706447400,10.745447265625,-0.9872283935546875,-0.0324554443359375,0.0040130615234375
1783169108716396300,10.755396240234376,-0.98699951171875,-0.03289794921875,0.0045623779296875
1783169108726345200,10.76534521484375,-0.9861907958984375,-0.032379150390625,0.0060272216796875
1783169108736293400,10.77529345703125,-0.987152099609375,-0.031494140625,0.0073699951171875
1783169108746273500,10.7852734375,-0.9870147705078125,-0.0321502685546875,0.006195068359375
1783169108756221200,10.79522119140625,-0.9859466552734375,-0.032989501953125,0.0057525634765625
1783169108766170600,10.805170654296875,-0.986083984375,-0.0338897705078125,0.003692626953125
1783169108776149500,10.8151494140625,-0.9870452880859375,-0.0341644287109375,0.0030364990234375
1783169108786098400,10.825098388671876,-0.98651123046875,-0.0349578857421875,0.0037994384765625
1783169108796047400,10.83504736328125,-0.9858245849609375,-0.035888671875,0.0045318603515625
1783169108805996500,10.84499658203125,-0.9867401123046875,-0.036712646484375,0.005889892578125
1783169108815975400,10.854975341796875,-0.9860687255859375,-0.03680419921875,0.00689697265625
1783169108825923300,10.86492333984375,-0.986785888671875,-0.0366973876953125,0.0076446533203125
1783169108835872500,10.87487255859375,-0.9862823486328125,-0.0367431640625,0.007598876953125
1783169108845821400,10.884821533203125,-0.986663818359375,-0.03515625,0.0063934326171875
1783169108855800300,10.89480029296875,-0.987091064453125,-0.0345611572265625,0.006256103515625
1783169108865776400,10.9047763671875,-0.9857330322265625,-0.0342559814453125,0.004852294921875
1783169108875725300,10.914725341796874,-0.98699951171875,-0.0331573486328125,0.0044403076171875
1783169108885673200,10.924673095703126,-0.986663818359375,-0.0326080322265625,0.0030517578125
1783169108895653000,10.934653076171875,-0.986541748046875,-0.0339202880859375,0.0032958984375
1783169108905601300,10.944601318359375,-0.98614501953125,-0.03369140625,0.00396728515625
1783169108915550200,10.95455029296875,-0.985931396484375,-0.0328369140625,0.0039520263671875
1783169108925529300,10.964529296875,-0.98736572265625,-0.0325775146484375,0.0053558349609375
1783169108935478300,10.974478271484376,-0.987518310546875,-0.031768798828125,0.0057525634765625
1783169108945427200,10.98442724609375,-0.98681640625,-0.0313720703125,0.0066070556640625
1783169108955376400,10.99437646484375,-0.98590087890625,-0.03118896484375,0.0068359375
1783169108965355500,11.00435546875,-0.986541748046875,-0.031951904296875,0.005615234375
1783169108975304400,11.014304443359375,-0.9870758056640625,-0.033447265625,0.006500244140625
1783169108985252400,11.02425244140625,-0.9879608154296875,-0.0337066650390625,0.005889892578125
1783169108995201300,11.034201171875,-0.986846923828125,-0.034698486328125,0.004486083984375
1783169109005180400,11.044180419921876,-0.986419677734375,-0.034393310546875,0.0051116943359375
1783169109015129300,11.05412939453125,-0.98577880859375,-0.0349578857421875,0.0060577392578125
1783169109025078300,11.064078369140624,-0.984954833984375,-0.0359649658203125,0.00677490234375
1783169109035026400,11.0740263671875,-0.9854736328125,-0.03546142578125,0.0070343017578125
1783169109045006300,11.08400634765625,-0.9863128662109375,-0.0360107421875,0.0080718994140625
1783169109054954200,11.093954345703125,-0.986663818359375,-0.036285400390625,0.006500244140625
1783169109064903200,11.103903076171875,-0.9868927001953125,-0.036224365234375,0.005523681640625
1783169109074882300,11.11388232421875,-0.9856109619140625,-0.0365753173828125,0.00390625
1783169109084831200,11.123831298828126,-0.9868316650390625,-0.0353240966796875,0.00335693359375
1783169109094780200,11.1337802734375,-0.987274169921875,-0.0345458984375,0.0028533935546875
1783169109104729000,11.14372900390625,-0.9869384765625,-0.0340576171875,0.0038909912109375
1783169109114708200,11.153708251953125,-0.986663818359375,-0.0330963134765625,0.00469970703125
1783169109124657400,11.163657470703125,-0.9864959716796875,-0.0329742431640625,0.00634765625
1783169109134605000,11.17360498046875,-0.9861297607421875,-0.0327606201171875,0.0075836181640625
1783169109144554500,11.183554443359375,-0.986419677734375,-0.0324554443359375,0.0066680908203125
1783169109154533400,11.193533447265626,-0.98663330078125,-0.0321807861328125,0.0051422119140625
1783169109164482300,11.203482421875,-0.98638916015625,-0.032958984375,0.004241943359375
1783169109174431200,11.21343115234375,-0.9870452880859375,-0.032318115234375,0.0033416748046875
1783169109184379400,11.22337939453125,-0.98614501953125,-0.0313720703125,0.002593994140625
1783169109194359300,11.233359375,-0.98675537109375,-0.0323333740234375,0.00372314453125
1783169109204307200,11.24330712890625,-0.986663818359375,-0.0331878662109375,0.006103515625
1783169109214256400,11.25325634765625,-0.986968994140625,-0.0330352783203125,0.006744384765625
1783169109224235300,11.2632353515625,-0.9874725341796875,-0.0333251953125,0.0078887939453125
1783169109234184200,11.27318408203125,-0.986663818359375,-0.0339813232421875,0.006561279296875
1783169109244133000,11.283133056640626,-0.98797607421875,-0.035369873046875,0.0053253173828125
1783169109254082300,11.293082275390624,-0.9866485595703125,-0.035797119140625,0.005126953125
1783169109264061200,11.303061279296875,-0.9861602783203125,-0.0366668701171875,0.0042572021484375
1783169109274010000,11.313010009765625,-0.9863739013671875,-0.0363006591796875,0.0046234130859375
1783169109283958300,11.322958251953125,-0.9858551025390625,-0.03515625,0.0045623779296875
1783169109293907200,11.3329072265625,-0.9871673583984375,-0.0354766845703125,0.005401611328125
1783169109303886000,11.342885986328126,-0.986846923828125,-0.0358428955078125,0.0063629150390625
1783169109313835300,11.352835205078126,-0.9863739013671875,-0.035675048828125,0.0060882568359375
1783169109323784400,11.362784423828124,-0.98699951171875,-0.0343170166015625,0.004180908203125
1783169109333732400,11.372732421875,-0.986419677734375,-0.033599853515625,0.0048370361328125
1783169109343712300,11.382712158203125,-0.9867095947265625,-0.0335693359375,0.0049896240234375
1783169109353660400,11.392660400390625,-0.9860687255859375,-0.0343017578125,0.00384521484375
1783169109363609300,11.402609375,-0.98638916015625,-0.0335693359375,0.0053863525390625
1783169109373588200,11.412588134765626,-0.9868316650390625,-0.03363037109375,0.00537109375
1783169109383537400,11.422537353515626,-0.987060546875,-0.0336456298828125,0.006317138671875
1783169109393486300,11.432486328125,-0.98699951171875,-0.0330352783203125,0.0062103271484375
1783169109403435300,11.442435302734374,-0.9861907958984375,-0.032318115234375,0.00531005859375
1783169109413414100,11.4524140625,-0.9860992431640625,-0.0322723388671875,0.0053558349609375
1783169109423363300,11.46236328125,-0.986907958984375,-0.0334930419921875,0.0048675537109375
1783169109433311200,11.472311279296875,-0.9865264892578125,-0.0335540771484375,0.006134033203125
1783169109443260200,11.48226025390625,-0.9862823486328125,-0.03369140625,0.005767822265625
1783169109453239300,11.4922392578125,-0.9858551025390625,-0.0347900390625,0.0054168701171875
1783169109463188200,11.502188232421876,-0.9861907958984375,-0.035125732421875,0.0063629150390625
1783169109473137400,11.512137451171874,-0.9870452880859375,-0.0351409912109375,0.0065765380859375
1783169109483086300,11.52208642578125,-0.9873199462890625,-0.0355987548828125,0.0059051513671875
1783169109493065500,11.5320654296875,-0.985382080078125,-0.0357513427734375,0.0050201416015625
1783169109503013400,11.542013427734375,-0.9857635498046875,-0.0356292724609375,0.00494384765625
1783169109512962300,11.55196240234375,-0.98675537109375,-0.035003662109375,0.0049896240234375
1783169109522941400,11.56194140625,-0.986297607421875,-0.03509521484375,0.0046539306640625
1783169109532890400,11.571890380859376,-0.986846923828125,-0.03436279296875,0.0047607421875
1783169109542839300,11.58183935546875,-0.9866790771484375,-0.0339202880859375,0.005157470703125
1783169109552788200,11.591788330078124,-0.9866790771484375,-0.0355224609375,0.005523681640625
1783169109562767400,11.601767333984375,-0.986480712890625,-0.0342254638671875,0.0062103271484375
1783169109572716300,11.61171630859375,-0.9866485595703125,-0.0335693359375,0.0061187744140625
1783169109582664200,11.621664306640625,-0.9862213134765625,-0.033660888671875,0.005767822265625
1783169109592613000,11.631613037109375,-0.986602783203125,-0.0328826904296875,0.0053863525390625
1783169109602592300,11.64159228515625,-0.987335205078125,-0.0334320068359375,0.0041046142578125
1783169109612541200,11.651541259765626,-0.9866180419921875,-0.033203125,0.0041961669921875
1783169109622490000,11.661489990234376,-0.9860076904296875,-0.0332794189453125,0.0047454833984375
1783169109632439300,11.671439208984374,-0.986297607421875,-0.0325927734375,0.005401611328125
1783169109642418400,11.68141845703125,-0.9865875244140625,-0.0327606201171875,0.006256103515625
1783169109652367400,11.691367431640625,-0.987091064453125,-0.034149169921875,0.0067291259765625
1783169109662315300,11.701315185546875,-0.9866180419921875,-0.033416748046875,0.0069580078125
1783169109672264400,11.711264404296875,-0.9864349365234375,-0.03411865234375,0.0068359375
1783169109682243300,11.721243408203126,-0.9871368408203125,-0.03375244140625,0.006439208984375
1783169109692192300,11.731192138671876,-0.985809326171875,-0.034637451171875,0.0042877197265625
1783169109702141200,11.74114111328125,-0.9866485595703125,-0.03546142578125,0.00335693359375
1783169109712120300,11.751120361328125,-0.986968994140625,-0.035064697265625,0.0042877197265625
1783169109722069200,11.7610693359375,-0.98614501953125,-0.03509521484375,0.004730224609375
1783169109732017200,11.77101708984375,-0.9857940673828125,-0.0353240966796875,0.006256103515625
1783169109741966300,11.78096630859375,-0.98614501953125,-0.0352020263671875,0.00689697265625
1783169109751945200,11.7909453125,-0.9858856201171875,-0.03521728515625,0.00579833984375
1783169109761894100,11.80089404296875,-0.986541748046875,-0.0340728759765625,0.0055084228515625
1783169109771843000,11.810843017578126,-0.986846923828125,-0.03399658203125,0.0048065185546875
1783169109781792300,11.820792236328124,-0.9855194091796875,-0.0334625244140625,0.00439453125
1783169109791771100,11.830771240234375,-0.985443115234375,-0.03369140625,0.005218505859375
1783169109801720300,11.84072021484375,-0.98236083984375,-0.033966064453125,0.005523681640625
1783169109811668500,11.85066845703125,-0.9829254150390625,-0.03228759765625,0.0059814453125
1783169109821617400,11.860617431640625,-0.9834442138671875,-0.033050537109375,0.0060272216796875
1783169109831596300,11.87059619140625,-0.9850616455078125,-0.03369140625,0.0068206787109375
1783169109841545200,11.880545166015626,-0.9942169189453125,-0.03436279296875,0.0093841552734375
1783169109851494400,11.890494384765624,-0.98529052734375,-0.0326385498046875,0.0065765380859375
1783169109861473300,11.900473388671875,-0.987579345703125,-0.0333709716796875,0.006072998046875
1783169109871431700,11.910431640625,-0.98834228515625,-0.0350799560546875,0.00567626953125
1783169109881379600,11.920379638671875,-0.9873046875,-0.035125732421875,0.0052032470703125
1783169109891328800,11.930328857421875,-0.9878387451171875,-0.0355377197265625,0.005035400390625
1783169109901307600,11.9403076171875,-0.9876556396484375,-0.035400390625,0.0055084228515625
1783169109911256800,11.9502568359375,-0.9877166748046875,-0.0350799560546875,0.0070037841796875
1783169109921205800,11.960205810546874,-0.9874725341796875,-0.034881591796875,0.00872802734375
1783169109931154700,11.97015478515625,-0.98687744140625,-0.0352325439453125,0.0089111328125
1783169109941133800,11.9801337890625,-0.989654541015625,-0.0354461669921875,0.0088348388671875
1783169109951082800,11.990082763671875,-0.9822845458984375,-0.035430908203125,0.0037078857421875
