time,seconds_elapsed,z,y,x
1783153020977623800,0.282623779296875,0.12644538283348083,1.1099094152450562,0.4159869849681854
1783153020987334100,0.292334228515625,0.15943112969398499,0.9290986657142639,0.5632011890411377
1783153020997044700,0.302044677734375,0.18875180184841156,0.7140804529190063,0.6670452356338501
1783153021006755300,0.31175537109375,0.2107423096895218,0.518609344959259,0.6957550048828125
1783153021016466000,0.3214658203125,0.2357870489358902,0.3897205591201782,0.6694886088371277
1783153021026176300,0.33117626953125,0.2516690790653229,0.30481278896331787,0.5766398310661316
1783153021035886800,0.340886962890625,0.26938363909721375,0.2498365342617035,0.416597843170166
1783153021045597400,0.350597412109375,0.29503923654556274,0.23334364593029022,0.2235700935125351
1783153021055307800,0.360307861328125,0.3158080279827118,0.24006296694278717,0.034818295389413834
1783153021065018400,0.370018310546875,0.32252734899520874,0.24189551174640656,-0.1423274129629135
1783153021074729000,0.37972900390625,0.3249707520008087,0.21807247400283813,-0.2907632887363434
1783153021084439300,0.389439208984375,0.3286358118057251,0.18753011524677277,-0.4068242609500885
1783153021094150000,0.39914990234375,0.3549022674560547,0.1575985997915268,-0.49234288930892944
1783153021103860500,0.408860595703125,0.4062134325504303,0.1050657257437706,-0.5351021885871887
1783153021113571000,0.418571044921875,0.47951510548591614,0.0653606578707695,-0.5491516590118408
1783153021123281400,0.428281494140625,0.43919917941093445,0.08002099394798279,-0.4727957844734192
1783153021132992000,0.437991943359375,0.4190412163734436,0.19119518995285034,-0.29687178134918213
1783153021142702600,0.44770263671875,0.2363978922367096,0.2638860046863556,-0.20341213047504425
1783153021152413000,0.457412841796875,0.2486148327589035,0.18691925704479218,-0.17348061501979828
1783153021162123500,0.46712353515625,0.29748260974884033,0.31825143098831177,-0.20524467527866364
1783153021171834000,0.476834228515625,0.29565006494522095,0.5919110178947449,-0.2223484069108963
1783153021181544400,0.48654443359375,0.19302773475646973,0.7049177289009094,-0.24678228795528412
1783153021191255000,0.496255126953125,0.13560809195041656,0.818535327911377,-0.27915719151496887
1783153021200965600,0.505965576171875,0.130721315741539,0.8710681796073914,-0.31947311758995056
1783153021210676200,0.51567626953125,0.22845686972141266,0.9077190160751343,-0.37078428268432617
1783153021220386600,0.525386474609375,0.3646758198738098,0.8454126119613647,-0.3946073353290558
1783153021230097200,0.53509716796875,0.474017471075058,0.712247908115387,-0.3817795515060425
1783153021239807700,0.544807861328125,0.5424323678016663,0.5253286361694336,-0.3249707520008087
1783153021249518000,0.55451806640625,0.5839699506759644,0.3408527672290802,-0.23945212364196777
1783153021259228700,0.564228759765625,0.5913001298904419,0.17836740612983704,-0.16187451779842377
1783153021268939300,0.573939208984375,0.5858024954795837,0.06658235192298889,-0.09956810623407364
1783153021278649900,0.58364990234375,0.5741963982582092,0.01710372418165207,-0.051922015845775604
1783153021288360200,0.593360107421875,0.5454866290092468,-0.0036650835536420345,-0.036039989441633224
1783153021298070800,0.60307080078125,0.5008947253227234,-0.01588202826678753,-0.055587101727724075
1783153021307781400,0.612781494140625,0.45080527663230896,-0.017714571207761765,-0.10262233763933182
1783153021317492000,0.622491943359375,0.41171106696128845,0.0018325417768210173,-0.17470231652259827
1783153021327202300,0.632202392578125,0.38544461131095886,0.0390942245721817,-0.26632940769195557
1783153021336913000,0.641912841796875,0.37139514088630676,0.1044548824429512,-0.3408527672290802
1783153021346623200,0.651623291015625,0.3701734244823456,0.1954711228609085,-0.3793361485004425
1783153021356333800,0.661333740234375,0.3762819170951843,0.27915719151496887,-0.3683409094810486
1783153021366044400,0.67104443359375,0.3646758198738098,0.3310792148113251,-0.31825143098831177
1783153021375755000,0.680755126953125,0.3365768492221832,0.3286358118057251,-0.23334364593029022
1783153021385465300,0.69046533203125,0.30725616216659546,0.28343313932418823,-0.1301104724407196
1783153021395176000,0.700176025390625,0.288930743932724,0.25533416867256165,-0.014660334214568138
1783153021404886500,0.709886474609375,0.2761029601097107,0.2608317732810974,0.11300674080848694
1783153021414597000,0.71959716796875,0.27060532569885254,0.2632751762866974,0.24617144465446472
1783153021424307500,0.729307373046875,0.2736595869064331,0.22784602642059326,0.3646758198738098
1783153021434018000,0.73901806640625,0.2870981991291046,0.18019993603229523,0.4563029110431671
1783153021443728600,0.748728759765625,0.3243598937988281,0.1429382562637329,0.5204418897628784
1783153021453439000,0.75843896484375,0.3817795515060425,0.12155860662460327,0.5741963982582092
1783153021463149600,0.768149658203125,0.44103172421455383,0.09712471067905426,0.6206207871437073
1783153021472860200,0.777860107421875,0.48989951610565186,0.05803048983216286,0.6707102656364441
1783153021482570800,0.78757080078125,0.5289937257766724,0.033596597611904144,0.739736020565033
1783153021492281000,0.797281005859375,0.5717530250549316,0.055587101727724075,0.8484668135643005
1783153021501991700,0.80699169921875,0.6273401379585266,0.08002099394798279,0.9529217481613159
1783153021511702300,0.816702392578125,0.6768187880516052,0.029320668429136276,0.998735249042511
1783153021521412600,0.82641259765625,0.7043069005012512,-0.05008947476744652,0.9694145917892456
1783153021531123200,0.836123291015625,0.7000309824943542,-0.06780404597520828,0.8802309036254883
1783153021540833800,0.845833740234375,0.6682668924331665,-0.021379653364419937,0.7794411182403564
1783153021550544400,0.85554443359375,0.6077930331230164,0.06719319522380829,0.6902574300765991
1783153021560254700,0.865254638671875,0.5418215394020081,0.16553960740566254,0.5906893014907837
1783153021569965300,0.87496533203125,0.4868452548980713,0.24006296694278717,0.4599680006504059
1783153021579676000,0.884676025390625,0.4727957844734192,0.2883199155330658,0.29687178134918213
1783153021589386200,0.89438623046875,0.5076140761375427,0.29381752014160156,0.12827792763710022
1783153021599096800,0.904096923828125,0.5595360994338989,0.24128466844558716,-0.042759306728839874
1783153021608807400,0.913807373046875,0.5998520255088806,0.1710372269153595,-0.1960819661617279
1783153021618518000,0.92351806640625,0.5955760478973389,0.08857285231351852,-0.3304683566093445
1783153021628228400,0.933228271484375,0.546097457408905,-0.0006108472589403391,-0.4489727318286896
1783153021637939000,0.94293896484375,0.49234288930892944,-0.053143709897994995,-0.5412106513977051
1783153021647649500,0.9526494140625,0.4453076422214508,-0.062306419014930725,-0.6047387719154358
1783153021657360000,0.96235986328125,0.41171106696128845,0.010995250195264816,-0.6175665855407715
1783153021667070500,0.972070556640625,0.3823903799057007,0.1575985997915268,-0.5613686442375183
1783153021676781000,0.981781005859375,0.3390202224254608,0.3286358118057251,-0.4489727318286896
1783153021686491600,0.99149169921875,0.29442837834358215,0.46607646346092224,-0.30481278896331787
1783153021696202000,1.001201904296875,0.24556060135364532,0.5393781065940857,-0.13621893525123596
1783153021705912600,1.01091259765625,0.20768806338310242,0.53143709897995,0.02870982140302658
1783153021715623200,1.020623046875,0.17836740612983704,0.4709632396697998,0.18630841374397278
1783153021725333500,1.03033349609375,0.15087927877902985,0.38605546951293945,0.3029802441596985
1783153021735044000,1.040044189453125,0.13377554714679718,0.2895416021347046,0.35978904366493225
1783153021744754700,1.049754638671875,0.1313321590423584,0.20341213047504425,0.3561239540576935
1783153021754465300,1.05946533203125,0.13560809195041656,0.1435490995645523,0.29626092314720154
1783153021764175600,1.069175537109375,0.1423274129629135,0.12583453953266144,0.20280128717422485
1783153021773886200,1.07888623046875,0.1441599577665329,0.15393351018428802,0.08735115826129913
1783153021783596800,1.0885966796875,0.13988402485847473,0.22540263831615448,-0.05925218388438225
1783153021793307400,1.098307373046875,0.13988402485847473,0.34940463304519653,-0.21379654109477997
1783153021803017700,1.108017822265625,0.15271180868148804,0.49173203110694885,-0.34635040163993835
1783153021812728300,1.117728271484375,0.1704263836145401,0.5961869359016418,-0.4428642690181732
1783153021822439000,1.12743896484375,0.19241689145565033,0.6383354067802429,-0.4886777997016907
1783153021832149200,1.137149169921875,0.20646637678146362,0.6297835111618042,-0.4837910234928131
1783153021841859800,1.14685986328125,0.2211267054080963,0.605960488319397,-0.4453076422214508
1783153021851570400,1.1565703125,0.24250635504722595,0.610236406326294,-0.393385648727417
1783153021861281000,1.166281005859375,0.2620534598827362,0.648108959197998,-0.3402419090270996
1783153021870991400,1.175991455078125,0.29503923654556274,0.6994200944900513,-0.2773246467113495
1783153021880702000,1.185701904296875,0.34512871503829956,0.7476770281791687,-0.2095206081867218
1783153021890412500,1.19541259765625,0.390942245721817,0.7556180357933044,-0.16065283119678497
1783153021900123000,1.205122802734375,0.4159869849681854,0.7153021693229675,-0.14660334587097168
1783153021909833500,1.21483349609375,0.42637139558792114,0.6487197875976562,-0.14721418917179108
1783153021919544000,1.2245439453125,0.42331716418266296,0.5809157490730286,-0.15149012207984924
1783153021929254700,1.234254638671875,0.40071579813957214,0.5289937257766724,-0.16370706260204315
1783153021938965000,1.243965087890625,0.363454133272171,0.49112120270729065,-0.18814095854759216
1783153021948675600,1.253675537109375,0.3268032968044281,0.48928865790367126,-0.23090025782585144
1783153021958386200,1.26338623046875,0.3127537965774536,0.517998456954956,-0.26938363909721375
1783153021968096800,1.2730966796875,0.3176405727863312,0.5583143830299377,-0.2980934679508209
1783153021977807000,1.28280712890625,0.3408527672290802,0.5888567566871643,-0.32008397579193115
1783153021987517700,1.292517578125,0.3701734244823456,0.6200099587440491,-0.34573954343795776
1783153021997228300,1.302228271484375,0.390942245721817,0.6591041684150696,-0.37506023049354553
1783153022006938600,1.311938720703125,0.3903313875198364,0.7153021693229675,-0.418430358171463
1783153022016649200,1.321649169921875,0.367730051279068,0.7476770281791687,-0.46607646346092224
1783153022026359800,1.33135986328125,0.3567348122596741,0.7800519466400146,-0.49234288930892944
1783153022036070400,1.3410703125,0.36162158846855164,0.8154810667037964,-0.47890424728393555
1783153022045780700,1.35078076171875,0.3830012381076813,0.8405258059501648,-0.45508119463920593
1783153022055491300,1.3604912109375,0.39643988013267517,0.8478559851646423,-0.4471401870250702
1783153022065202000,1.370201904296875,0.39888325333595276,0.8674030900001526,-0.4300364851951599
1783153022074912300,1.379912353515625,0.416597843170166,0.9028322696685791,-0.38605546951293945
1783153022084622800,1.389622802734375,0.4489727318286896,0.9181034564971924,-0.3176405727863312
1783153022094333400,1.39933349609375,0.48928865790367126,0.9064973592758179,-0.23823043704032898
1783153022104044000,1.4090439453125,0.5393781065940857,0.8771766424179077,-0.14904673397541046
1783153022113754400,1.41875439453125,0.5803049206733704,0.8667922616004944,-0.053143709897994995
1783153022123465000,1.42846484375,0.5992411375045776,0.8655705451965332,0.045202698558568954
1783153022133175600,1.438175537109375,0.5894675850868225,0.8496885299682617,0.1313321590423584
1783153022142886000,1.447885986328125,0.5717530250549316,0.837471604347229,0.19058434665203094
1783153022152596500,1.457596435546875,0.5619794726371765,0.8484668135643005,0.20646637678146362
1783153022162307000,1.46730712890625,0.5625903010368347,0.8832851648330688,0.17470231652259827
1783153022172017700,1.477017578125,0.5613686442375183,0.9229902029037476,0.11972606182098389
1783153022181728000,1.48672802734375,0.5424323678016663,0.9217684864997864,0.08124268800020218
1783153022191438600,1.4964384765625,0.5155550837516785,0.8948912620544434,0.04459185153245926
1783153022201149200,1.506149169921875,0.49234288930892944,0.8551861643791199,-0.0024433890357613564
1783153022210859800,1.51585986328125,0.4850127100944519,0.7983773946762085,-0.05864133685827255
1783153022220570000,1.525570068359375,0.4844018816947937,0.7605048418045044,-0.12339114397764206
1783153022230280700,1.53528076171875,0.4886777997016907,0.7452336549758911,-0.17531315982341766
1783153022239991300,1.5449912109375,0.4886777997016907,0.7195780873298645,-0.22662433981895447
1783153022249701600,1.55470166015625,0.47890424728393555,0.6927008032798767,-0.2877090573310852
1783153022259412200,1.564412109375,0.46241137385368347,0.7232431769371033,-0.33169007301330566
1783153022269122800,1.574122802734375,0.44958359003067017,0.8118160367012024,-0.34573954343795776
1783153022278833400,1.58383349609375,0.44103172421455383,0.8997780084609985,-0.3170297145843506
1783153022288543700,1.593543701171875,0.4422534108161926,0.9492566585540771,-0.27121618390083313
1783153022298254300,1.60325439453125,0.4569137394428253,0.9492566585540771,-0.20585553348064423
1783153022307965000,1.61296484375,0.4746283292770386,0.9168817400932312,-0.12644538283348083
1783153022317675300,1.62267529296875,0.5027272701263428,0.8533536195755005,-0.03420744836330414
1783153022327385900,1.6323857421875,0.5247178077697754,0.7580614686012268,0.045202698558568954
1783153022337096400,1.642096435546875,0.5436540842056274,0.6542174220085144,0.10201149433851242
1783153022346807000,1.65180712890625,0.5644228458404541,0.5570927262306213,0.11178504675626755
1783153022356517400,1.661517333984375,0.577861487865448,0.49173203110694885,0.07391251623630524
1783153022366228000,1.67122802734375,0.577861487865448,0.4978405237197876,-0.007330167107284069
1783153022375938600,1.6809384765625,0.5686988234519958,0.5717530250549316,-0.11483928561210632
1783153022385649200,1.690649169921875,0.5632011890411377,0.6780404448509216,-0.2217375487089157
1783153022395359500,1.700359375,0.5638120174407959,0.7843278646469116,-0.30664533376693726
1783153022405070000,1.710070068359375,0.5754181146621704,0.8545753359794617,-0.34879377484321594
1783153022414780700,1.71978076171875,0.5888567566871643,0.8863393664360046,-0.3512371778488159
1783153022424491000,1.729490966796875,0.6016845703125,0.8753440976142883,-0.30908870697021484
1783153022434201600,1.73920166015625,0.6108472347259521,0.8283088803291321,-0.2223484069108963
1783153022443912200,1.748912109375,0.6151232123374939,0.7684458494186401,-0.11545012891292572
1783153022453622800,1.758622802734375,0.6181774139404297,0.7024743556976318,0.0006108472589403391
1783153022463333400,1.76833349609375,0.6255075931549072,0.6517740488052368,0.10017894953489304
1783153022473043700,1.778043701171875,0.6273401379585266,0.6230642199516296,0.1820324808359146
1783153022482754300,1.78775439453125,0.6200099587440491,0.6090146899223328,0.22845686972141266
1783153022492465000,1.79746484375,0.6181774139404297,0.5986303091049194,0.2339545041322708
1783153022502175200,1.80717529296875,0.6108472347259521,0.5961869359016418,0.20157960057258606
1783153022511885800,1.8168857421875,0.6047387719154358,0.5986303091049194,0.14721418917179108
1783153022521596400,1.826596435546875,0.5851916670799255,0.5919110178947449,0.08063183724880219
1783153022531307000,1.83630712890625,0.5638120174407959,0.5729747414588928,0.005497625097632408
1783153022541017300,1.846017333984375,0.5405998229980469,0.5399889945983887,-0.0781884491443634
1783153022550728000,1.85572802734375,0.5106683373451233,0.503948986530304,-0.17531315982341766
1783153022560438500,1.8654384765625,0.4856235682964325,0.469741553068161,-0.27060532569885254
1783153022570148900,1.87514892578125,0.4679090082645416,0.45263782143592834,-0.34451785683631897
1783153022579859500,1.884859375,0.4459185004234314,0.448361873626709,-0.39643988013267517
1783153022589570000,1.894570068359375,0.42881476879119873,0.46241137385368347,-0.4282039403915405
1783153022599280600,1.90428076171875,0.4080459773540497,0.4734066128730774,-0.4343124032020569
1783153022608991000,1.913990966796875,0.38910970091819763,0.46851983666419983,-0.4214846193790436
1783153022618701600,1.92370166015625,0.3695625960826874,0.46302223205566406,-0.3897205591201782
1783153022628412200,1.933412109375,0.36101073026657104,0.46302223205566406,-0.34696123003959656
1783153022638122800,1.943122802734375,0.3665083646774292,0.46241137385368347,-0.2864873707294464
1783153022647833000,1.9528330078125,0.3823903799057007,0.4611896872520447,-0.23151111602783203
1783153022657543700,1.962543701171875,0.4080459773540497,0.45019441843032837,-0.17592400312423706
1783153022667254300,1.972254150390625,0.43919917941093445,0.4306473135948181,-0.13499724864959717
1783153022676964600,1.981964599609375,0.4715740978717804,0.4227063059806824,-0.1050657257437706
1783153022686675200,1.99167529296875,0.5051707029342651,0.4343124032020569,-0.08307522535324097
1783153022696385800,2.0013857421875,0.5369347333908081,0.4471401870250702,-0.06780404597520828
1783153022706096400,2.011096435546875,0.5723638534545898,0.45385950803756714,-0.07024743407964706
1783153022715806700,2.020806640625,0.6108472347259521,0.45324867963790894,-0.10078980028629303
1783153022725517300,2.030517333984375,0.6529957056045532,0.46485477685928345,-0.1429382562637329
1783153022735228000,2.040227783203125,0.7098045349121094,0.45080527663230896,-0.182643324136734
1783153022744938500,2.0499384765625,0.7684458494186401,0.448361873626709,-0.21807247400283813
1783153022754648800,2.05964892578125,0.8270871639251709,0.4727957844734192,-0.2473931461572647
1783153022764359400,2.069359375,0.869235634803772,0.5332696437835693,-0.2767138183116913
1783153022774070000,2.079070068359375,0.9028322696685791,0.5772506594657898,-0.3292466700077057
1783153022783780600,2.088780517578125,0.9358180165290833,0.6236750483512878,-0.38605546951293945
1783153022793491000,2.098490966796875,0.9400939345359802,0.6652126908302307,-0.4434750974178314
1783153022803201500,2.108201416015625,0.9217684864997864,0.6786513328552246,-0.4837910234928131
1783153022812912000,2.117912109375,0.8961129188537598,0.6902574300765991,-0.5002838969230652
1783153022822622500,2.12762255859375,0.8612946271896362,0.7098045349121094,-0.49295374751091003
1783153022832333000,2.1373330078125,0.8344173431396484,0.6957550048828125,-0.4825693368911743
1783153022842043600,2.147043701171875,0.8124268651008606,0.6303943991661072,-0.47707170248031616
1783153022851754200,2.156754150390625,0.8026533126831055,0.3823903799057007,-0.44103172421455383
1783153022861464600,2.166464599609375,0.6365028619766235,0.4471401870250702,-0.43919917941093445
1783153022871175200,2.176175048828125,0.5625903010368347,0.5821374654769897,-0.4611896872520447
1783153022880885800,2.1858857421875,0.6664343476295471,0.4367557764053345,-0.4300364851951599
1783153022890596000,2.19559619140625,0.7091936469078064,0.4282039403915405,-0.40987852215766907
1783153022900306700,2.205306640625,0.7049177289009094,0.6584933400154114,-0.3970507085323334
1783153022910017300,2.215017333984375,0.7715001106262207,0.6963658928871155,-0.3390202224254608
1783153022919727900,2.224727783203125,0.8002098798751831,0.7201889157295227,-0.25716668367385864
1783153022929438200,2.234438232421875,0.8209787011146545,0.712247908115387,-0.15515519678592682
1783153022939148800,2.244148681640625,0.8411366939544678,0.7049177289009094,-0.053143709897994995
1783153022948859400,2.253859375,0.8490777015686035,0.7189671993255615,0.028098974376916885
1783153022958570000,2.263570068359375,0.856407880783081,0.7262973785400391,0.08612946420907974
1783153022968280300,2.2732802734375,0.8655705451965332,0.7043069005012512,0.1313321590423584
1783153022977991000,2.282990966796875,0.8759549856185913,0.624896764755249,0.17897824943065643
1783153022987701500,2.292701416015625,0.8918370008468628,0.5399889945983887,0.2339545041322708
1783153022997412000,2.302412109375,0.9229902029037476,0.4593571424484253,0.2895416021347046
1783153023007122400,2.312122314453125,0.9633061289787292,0.3396310806274414,0.31886225938796997
1783153023016833000,2.3218330078125,0.9810206890106201,0.28343313932418823,0.32069480419158936
1783153023026543600,2.331543701171875,1.037218689918518,0.22051586210727692,0.3164188861846924
1783153023036254200,2.341254150390625,1.0683718919754028,0.1429382562637329,0.2993151545524597
1783153023045964500,2.350964599609375,1.0793671607971191,0.08979454636573792,0.2504473626613617
1783153023055675100,2.360675048828125,1.032942771911621,0.1569877415895462,0.12094775587320328
1783153023065385700,2.3703857421875,0.9877400398254395,0.24433889985084534,-0.04581354558467865
1783153023075096000,2.380095947265625,0.9517000317573547,0.3561239540576935,-0.21868331730365753
1783153023084806700,2.389806640625,0.9266552925109863,0.49051034450531006,-0.367730051279068
1783153023094517200,2.399517333984375,0.9071081876754761,0.610236406326294,-0.4709632396697998
1783153023104227800,2.409227783203125,0.8936695456504822,0.7207997441291809,-0.517998456954956
1783153023113938400,2.4189384765625,0.888171911239624,0.8295305967330933,-0.5033381581306458
1783153023123648800,2.428648681640625,0.8765658140182495,0.9236010313034058,-0.45080527663230896
1783153023133359400,2.438359375,0.8582404255867004,0.9907942414283752,-0.37689274549484253
1783153023143070000,2.448070068359375,0.8429692387580872,1.0274450778961182,-0.3035911023616791
1783153023152780300,2.4577802734375,0.846023440361023,1.0304993391036987,-0.2339545041322708
1783153023162491000,2.467490966796875,0.8527427911758423,1.0048437118530273,-0.16370706260204315
1783153023172201500,2.477201416015625,0.8753440976142883,0.9602518677711487,-0.09468132257461548
1783153023181912000,2.486912109375,0.8936695456504822,0.8948912620544434,-0.02993151545524597
1783153023191622400,2.496622314453125,0.9003888368606567,0.8160919547080994,0.022601349279284477
1783153023201333000,2.5063330078125,0.8936695456504822,0.7385143637657166,0.05375456064939499
1783153023211043600,2.516043701171875,0.8710681796073914,0.6951441764831543,0.05803048983216286
1783153023220754000,2.52575390625,0.836860716342926,0.70308518409729,0.05070032179355621
1783153023230464500,2.535464599609375,0.8026533126831055,0.7360709309577942,0.026877280324697495
1783153023240175000,2.545175048828125,0.7708892226219177,0.7727217674255371,0
1783153023249885700,2.5548857421875,0.7427902817726135,0.8063184022903442,-0.028098974376916885
1783153023259596000,2.564595947265625,0.7153021693229675,0.832584798336029,-0.05497625470161438
1783153023269306600,2.574306640625,0.6817055344581604,0.8674030900001526,-0.08246438205242157
1783153023279017200,2.584017333984375,0.648108959197998,0.8887827396392822,-0.09590301662683487
1783153023288727800,2.593727783203125,0.624285876750946,0.9071081876754761,-0.09712471067905426
1783153023298438100,2.603438232421875,0.601073682308197,0.92054682970047,-0.08979454636573792
1783153023308148700,2.613148681640625,0.5815265774726868,0.9236010313034058,-0.0653606578707695
1783153023317859300,2.622859375,0.5656445622444153,0.8961129188537598,-0.038483377546072006
1783153023327570000,2.63256982421875,0.5479300022125244,0.8466343283653259,-0.021379653364419937
1783153023337280300,2.6422802734375,0.5344913601875305,0.7971556782722473,-0.01954711228609085
1783153023346990800,2.651990966796875,0.5167768001556396,0.7794411182403564,-0.023823043331503868
1783153023356701400,2.661701416015625,0.5057815313339233,0.7855495810508728,-0.026877280324697495
1783153023366411800,2.671411865234375,0.4984513521194458,0.7776085734367371,-0.04092676565051079
1783153023376122400,2.681122314453125,0.5008947253227234,0.7458444833755493,-0.07085828483104706
1783153023385833000,2.6908330078125,0.5033381581306458,0.7067502737045288,-0.10934165865182877
1783153023395543600,2.70054345703125,0.5155550837516785,0.6719319820404053,-0.15515519678592682
1783153023405254000,2.71025390625,0.522885262966156,0.6389462351799011,-0.1985253542661667
1783153023414964500,2.719964599609375,0.5241069197654724,0.6132906675338745,-0.23151111602783203
1783153023424675000,2.729675048828125,0.5106683373451233,0.5864133834838867,-0.2486148327589035
1783153023434385700,2.7393857421875,0.4837910234928131,0.5558710098266602,-0.261442631483078
1783153023444096000,2.749095947265625,0.45324867963790894,0.5063923597335815,-0.26877278089523315
1783153023453806600,2.758806640625,0.4294256269931793,0.4679090082645416,-0.2644968628883362
1783153023463517200,2.76851708984375,0.4074351191520691,0.4446968138217926,-0.2486148327589035
1783153023473227800,2.778227783203125,0.38422292470932007,0.42514967918395996,-0.22601348161697388
1783153023482938000,2.787938232421875,0.36284327507019043,0.4037700295448303,-0.19241689145565033
1783153023492648700,2.797648681640625,0.34940463304519653,0.3787252902984619,-0.16431790590286255
1783153023502359300,2.807359375,0.3426853120326996,0.34451785683631897,-0.14171656966209412
1783153023512070000,2.81706982421875,0.33291175961494446,0.32252734899520874,-0.1178935244679451
1783153023521780200,2.8267802734375,0.3274141252040863,0.30786702036857605,-0.10201149433851242
1783153023531490800,2.83649072265625,0.32130566239356995,0.29503923654556274,-0.08368607610464096
1783153023541201400,2.846201416015625,0.314586341381073,0.2852656841278076,-0.062306419014930725
1783153023550911700,2.855911865234375,0.314586341381073,0.26938363909721375,-0.0390942245721817
1783153023560622300,2.865622314453125,0.30603447556495667,0.24494975805282593,-0.01038440316915512
1783153023570333000,2.8753330078125,0.291374146938324,0.25350162386894226,0.02626643143594265
1783153023580043500,2.88504345703125,0.258999228477478,0.2877090573310852,0.06780404597520828
1783153023589753900,2.89475390625,0.21196399629116058,0.3243598937988281,0.10811996459960938
1783153023599464400,2.90446435546875,0.16492876410484314,0.34818294644355774,0.14171656966209412
1783153023609175000,2.914175048828125,0.11606097966432571,0.3536805510520935,0.16737215220928192
1783153023618885600,2.9238857421875,0.06413896381855011,0.3408527672290802,0.19119518995285034
1783153023628596000,2.933595947265625,0.023823043331503868,0.3042019307613373,0.20280128717422485
1783153023638306600,2.943306640625,-0.01038440316915512,0.2626643180847168,0.21990501880645752
1783153023648017200,2.95301708984375,-0.04031591862440109,0.2363978922367096,0.237008735537529
1783153023657727700,2.962727783203125,-0.06169557198882103,0.23151111602783203,0.25655585527420044
1783153023667438000,2.97243798828125,-0.0781884491443634,0.237008735537529,0.26694026589393616
1783153023677148700,2.982148681640625,-0.08979454636573792,0.23884128034114838,0.26755109429359436
1783153023686859300,2.991859375,-0.08796200156211853,0.2504473626613617,0.2736595869064331
1783153023696569900,3.00156982421875,-0.08551861345767975,0.32374903559684753,0.2883199155330658
1783153023706280200,3.0112802734375,-0.10384403169155121,0.45324867963790894,0.3176405727863312
1783153023715990800,3.02099072265625,-0.14049486815929413,0.5589252710342407,0.35795649886131287
1783153023725701400,3.030701416015625,-0.16126367449760437,0.5833591222763062,0.3903313875198364
1783153023735412000,3.040411865234375,-0.1710372269153595,0.4837910234928131,0.39766156673431396
1783153023745122300,3.050122314453125,-0.16248537600040436,0.2767138183116913,0.37200596928596497
1783153023754833000,3.0598330078125,-0.1459924876689911,-0.008551862090826035,0.3139754831790924
1783153023764543500,3.06954345703125,-0.12705622613430023,-0.2877090573310852,0.237008735537529
1783153023774253800,3.07925390625,-0.1301104724407196,-0.47829338908195496,0.15393351018428802
1783153023783964400,3.08896435546875,-0.13805148005485535,-0.5247178077697754,0.05741964280605316
1783153023793675000,3.098675048828125,-0.13927318155765533,-0.45080527663230896,-0.03542914241552353
1783153023803385600,3.108385498046875,-0.1435490995645523,-0.27976804971694946,-0.1172826737165451
1783153023813096200,3.11809619140625,-0.1588202863931656,-0.09773556143045425,-0.18081079423427582
1783153023822806500,3.127806640625,-0.19363857805728912,0.06169557198882103,-0.22662433981895447
1783153023832517000,3.13751708984375,-0.23945212364196777,0.182643324136734,-0.2522799074649811
1783153023842227700,3.147227783203125,-0.2773246467113495,0.22540263831615448,-0.25350162386894226
1783153023851938000,3.15693798828125,-0.29687178134918213,0.17958909273147583,-0.2516690790653229
1783153023861648600,3.166648681640625,-0.30664533376693726,0.0916270911693573,-0.24311721324920654
1783153023871359200,3.176359130859375,-0.29381752014160156,0.013438640162348747,-0.22662433981895447
1783153023881069800,3.18606982421875,-0.2632751762866974,-0.016492875292897224,-0.20402298867702484
1783153023890780200,3.1957802734375,-0.22967857122421265,-0.012216945178806782,-0.16676130890846252
1783153023900490800,3.20549072265625,-0.1954711228609085,0.020157959312200546,-0.11178504675626755
1783153023910201300,3.215201416015625,-0.15454435348510742,0.0390942245721817,-0.056808795779943466
1783153023919912000,3.224911865234375,-0.09712471067905426,-0.0018325417768210173,-0.023212196305394173
1783153023929622300,3.234622314453125,-0.026877280324697495,-0.11056335270404816,-0.01710372418165207
1783153023939332900,3.244332763671875,0.04581354558467865,-0.2602209448814392,-0.05070032179355621
1783153023949043500,3.25404345703125,0.11239589750766754,-0.4037700295448303,-0.10689827054738998
1783153023958754000,3.263754150390625,0.15515519678592682,-0.4978405237197876,-0.17348061501979828
1783153023968464400,3.27346435546875,0.17958909273147583,-0.554649293422699,-0.2363978922367096
1783153023978175000,3.283175048828125,0.19241689145565033,-0.5851916670799255,-0.2919849753379822
1783153023987885600,3.292885498046875,0.20463383197784424,-0.5925218462944031,-0.33535513281822205
1783153023997596000,3.302595947265625,0.2089097648859024,-0.5949652194976807,-0.3640649616718292
1783153024007306500,3.312306396484375,0.20707722008228302,-0.5790832042694092,-0.3781144618988037
1783153024017017000,3.32201708984375,0.19913621246814728,-0.5479300022125244,-0.3781144618988037
1783153024026727700,3.331727783203125,0.1844758689403534,-0.53143709897995,-0.3683409094810486
1783153024036438300,3.341438232421875,0.15026842057704926,-0.5564818382263184,-0.36039987206459045
1783153024046148600,3.351148681640625,0.09040539711713791,-0.6187883019447327,-0.36162158846855164
1783153024055859200,3.360859130859375,0.021379653364419937,-0.6957550048828125,-0.3701734244823456
1783153024065569800,3.37056982421875,-0.10201149433851242,-0.9914051294326782,-0.4868452548980713
1783153024075280100,3.380280029296875,-0.4159869849681854,-1.4294589757919312,-0.7550072073936462
1783153024084990700,3.38999072265625,-0.3414636254310608,-1.42335045337677,-0.869235634803772
1783153024094701300,3.399701416015625,-0.1710372269153595,-1.389753818511963,-0.9718579649925232
1783153024104412000,3.409411865234375,-0.03420744836330414,-1.383034586906433,-1.0787562131881714
1783153024114122200,3.419122314453125,-0.04886778071522713,-1.368374228477478,-1.138619303703308
1783153024123832800,3.428832763671875,-0.15210096538066864,-1.2559019327163696,-1.1080769300460815
1783153024133543400,3.43854345703125,-0.29442837834358215,-1.0445488691329956,-0.9761339426040649
1783153024143254000,3.44825390625,-0.45202696323394775,-0.9119949340820312,-0.8435800671577454
1783153024152964400,3.45796435546875,-0.5760289430618286,-0.8313631415367126,-0.7232431769371033
1783153024162675000,3.467675048828125,-0.6694886088371277,-0.7201889157295227,-0.582748293876648
1783153024172385500,3.477385498046875,-0.8063184022903442,-0.8081509470939636,-0.5082249045372009
1783153024182096100,3.48709619140625,-0.9657495021820068,-0.9425373077392578,-0.4593571424484253
1783153024191806500,3.496806396484375,-1.0763128995895386,-0.9926267862319946,-0.40193748474121094
1783153024201517000,3.50651708984375,-1.1257915496826172,-1.0341644287109375,-0.3658975064754486
1783153024211227600,3.5162275390625,-1.1123528480529785,-1.109298586845398,-0.3830012381076813
1783153024220938000,3.52593798828125,-1.0531007051467896,-1.1783243417739868,-0.4446968138217926
1783153024230648600,3.535648681640625,-0.9791881442070007,-1.1606098413467407,-0.5259394645690918
1783153024240359200,3.545359130859375,-0.939483106136322,-1.0830321311950684,-0.5949652194976807
1783153024250069800,3.55506982421875,-0.9645278453826904,-0.9846857786178589,-0.6597150564193726
1783153024259780400,3.5647802734375,-1.037218689918518,-0.8594620823860168,-0.7275190949440002
1783153024269490700,3.57449072265625,-1.1172395944595337,-0.7262973785400391,-0.8057075142860413
1783153024279201300,3.584201171875,-1.166107416152954,-0.624896764755249,-0.8747332692146301
1783153024288912000,3.593911865234375,-1.1459494829177856,-0.5741963982582092,-0.8961129188537598
1783153024298622200,3.603622314453125,-1.0677610635757446,-0.6145123243331909,-0.8533536195755005
1783153024308332800,3.613332763671875,-0.9681929349899292,-0.7550072073936462,-0.7324058413505554
1783153024318043400,3.62304345703125,-0.8857285380363464,-0.9022213816642761,-0.550373375415802
1783153024327754000,3.63275390625,-0.8478559851646423,-1.0017894506454468,-0.3255815804004669
1783153024337464600,3.642464599609375,-0.8637380003929138,-1.110520362854004,-0.11667182296514511
1783153024347175000,3.6521748046875,-0.9101623892784119,-1.220472812652588,0.04153761267662048
1783153024356885500,3.661885498046875,-0.9877400398254395,-1.277281641960144,0.129499614238739
1783153024366596000,3.67159619140625,-1.0946383476257324,-1.2980504035949707,0.14965757727622986
1783153024376306400,3.681306396484375,-1.2015365362167358,-1.2723948955535889,0.1044548824429512
1783153024386017000,3.69101708984375,-1.299272060394287,-1.1697725057601929,0.022601349279284477
1783153024395727600,3.7007275390625,-1.3744826316833496,-0.9547542929649353,-0.07207997888326645
1783153024405438200,3.710438232421875,-1.4135769605636597,-0.6499415040016174,-0.16126367449760437
1783153024415148500,3.7201484375,-1.3866996765136719,-0.3164188861846924,-0.21929416060447693
1783153024424859100,3.729859130859375,-1.334777593612671,-0.08246438205242157,-0.265718549489975
1783153024434569700,3.73956982421875,-1.2662863731384277,-0.038483377546072006,-0.28282228112220764
1783153024444280300,3.7492802734375,-1.192984700202942,-0.13927318155765533,-0.2748812735080719
1783153024453990700,3.75899072265625,-1.1160179376602173,-0.3243598937988281,-0.2363978922367096
1783153024463701200,3.768701171875,-1.0573766231536865,-0.5015056133270264,-0.16309621930122375
1783153024473411800,3.778411865234375,-1.0030112266540527,-0.6652126908302307,-0.08429691940546036
1783153024483122400,3.788122314453125,-0.938872218132019,-0.7776085734367371,-0.045202698558568954
1783153024492832800,3.797832763671875,-0.8655705451965332,-0.833195686340332,-0.047646086663007736
1783153024502543400,3.80754345703125,-0.7989882230758667,-0.763559103012085,-0.10873081535100937
1783153024512254000,3.81725390625,-0.7537854909896851,-0.5222744345664978,-0.20707722008228302
1783153024521964500,3.826964599609375,-0.7470661997795105,-0.07635590434074402,-0.31886225938796997
1783153024531675000,3.8366748046875,-0.7739434838294983,0.5210527181625366,-0.42392799258232117
1783153024541385500,3.846385498046875,-0.7989882230758667,1.115407109260559,-0.5100574493408203
1783153024551096000,3.856095947265625,-0.7989882230758667,1.5375789403915405,-0.5809157490730286
1783153024560806700,3.865806640625,-0.758672297000885,1.6976208686828613,-0.6108472347259521
1783153024570517000,3.87551708984375,-0.6786513328552246,1.6450880765914917,-0.5577035546302795
1783153024580227600,3.8852275390625,-0.5717530250549316,1.43312406539917,-0.3927747905254364
1783153024589938200,3.894938232421875,-0.46302223205566406,1.0799779891967773,-0.11911521852016449
1783153024599648800,3.904648681640625,-0.3536805510520935,0.6181774139404297,0.23334364593029022
1783153024609359000,3.914359130859375,-0.25472331047058105,0.12644538283348083,0.6487197875976562
1783153024619069700,3.924069580078125,-0.20341213047504425,-0.34573954343795776,1.0567657947540283
1783153024628780300,3.9337802734375,-0.2113531529903412,-0.7495095729827881,1.3848670721054077
1783153024638491000,3.943490966796875,-0.2620534598827362,-1.0213366746902466,1.6017178297042847
1783153024648201200,3.953201171875,-0.34940463304519653,-1.1361758708953857,1.6847931146621704
1783153024657911800,3.962911865234375,-0.446529358625412,-1.1398409605026245,1.641422986984253
1783153024667622400,3.972622314453125,-0.5405998229980469,-1.0592091083526611,1.5143667459487915
1783153024677333000,3.9823330078125,-0.5955760478973389,-0.8906152844429016,1.3304253816604614
1783153024687043600,3.992043701171875,-0.5949652194976807,-0.6927008032798767,1.1123528480529785
1783153024696754000,4.00175390625,-0.5632011890411377,-0.5253286361694336,0.8942803740501404
1783153024706464500,4.011464599609375,-0.4953971207141876,-0.4343124032020569,0.6810947060585022
1783153024716175000,4.021175048828125,-0.42331716418266296,-0.41354358196258545,0.46668729186058044
1783153024725885400,4.030885498046875,-0.3811686933040619,-0.4593571424484253,0.2516690790653229
1783153024735596000,4.040595947265625,-0.37261682748794556,-0.5198310017585754,0.03420744836330414
1783153024745306600,4.050306640625,-0.3970507085323334,-0.5338805317878723,-0.1698155403137207
1783153024755017200,4.060017333984375,-0.45385950803756714,-0.48989951610565186,-0.3555130958557129
1783153024764727800,4.069727783203125,-0.5265503525733948,-0.3836120665073395,-0.5021164417266846
1783153024774438100,4.079438232421875,-0.5894675850868225,-0.23823043704032898,-0.5839699506759644
1783153024784148700,4.089148681640625,-0.6212316751480103,-0.07269082218408585,-0.5974085927009583
1783153024793859300,4.098859375,-0.6371136903762817,0.08124268800020218,-0.5644228458404541
1783153024803569700,4.108569580078125,-0.6322268843650818,0.20341213047504425,-0.48928865790367126
1783153024813280300,4.1182802734375,-0.5851916670799255,0.28037887811660767,-0.37322768568992615
1783153024822990800,4.127990966796875,-0.5002838969230652,0.261442631483078,-0.237008735537529
1783153024832701400,4.137701416015625,-0.3836120665073395,0.15149012207984924,-0.09956810623407364
1783153024842411800,4.147411865234375,-0.25411245226860046,-0.0036650835536420345,0.03237490355968475
1783153024852122400,4.157122314453125,-0.1435490995645523,-0.1588202863931656,0.16187451779842377
1783153024861833000,4.1668330078125,-0.07635590434074402,-0.2651077210903168,0.2620534598827362
1783153024871543600,4.17654345703125,-0.03542914241552353,-0.31825143098831177,0.3243598937988281
1783153024881254000,4.18625390625,0.0012216945178806782,-0.29626092314720154,0.36162158846855164
1783153024890964500,4.195964599609375,0.01832541823387146,-0.2089097648859024,0.3811686933040619
1783153024900675000,4.205675048828125,0.012216945178806782,-0.09773556143045425,0.38422292470932007
1783153024910385700,4.2153857421875,-0.0012216945178806782,0.018936265259981155,0.37383851408958435
1783153024920096000,4.225095947265625,-0.006108472589403391,0.129499614238739,0.3646758198738098
1783153024929806600,4.234806640625,-0.012827792204916477,0.23334364593029022,0.3549022674560547
1783153024939517200,4.24451708984375,-0.024433890357613564,0.2980934679508209,0.34451785683631897
1783153024949227800,4.254227783203125,-0.0397050715982914,0.3023693859577179,0.3268032968044281
1783153024958938400,4.2639384765625,-0.05070032179355621,0.284654825925827,0.31092125177383423
1783153024968648700,4.273648681640625,-0.054365407675504684,0.2870981991291046,0.29442837834358215
1783153024978359300,4.283359375,-0.05803048983216286,0.30847787857055664,0.2724378705024719
1783153024988070000,4.29306982421875,-0.04581354558467865,0.33352261781692505,0.24556060135364532
1783153024997780200,4.3027802734375,-0.025655584409832954,0.3793361485004425,0.2211267054080963
1783153025007490800,4.31249072265625,0.0018325417768210173,0.45202696323394775,0.2235700935125351
1783153025017201400,4.322201416015625,0.03665083646774292,0.5418215394020081,0.25350162386894226
1783153025026912000,4.331912109375,0.07269082218408585,0.6193991303443909,0.3176405727863312
1783153025036622600,4.34162255859375,0.0922379344701767,0.6829272508621216,0.42392799258232117
1783153025046333000,4.3513330078125,0.06841489672660828,0.7348492741584778,0.5619794726371765
1783153025056043500,4.36104345703125,0.012216945178806782,0.6713211536407471,0.6975875496864319
1783153025065754000,4.370754150390625,-0.03298575058579445,0.4556920528411865,0.7769976854324341
1783153025075464700,4.380464599609375,-0.061084724962711334,0.12888877093791962,0.7739434838294983
1783153025085175000,4.390175048828125,-0.08674030750989914,-0.23273280262947083,0.660936713218689
1783153025094885600,4.3998857421875,-0.08490777015686035,-0.4837910234928131,0.46424391865730286
1783153025104596200,4.40959619140625,-0.0659715011715889,-0.5442649126052856,0.23823043704032898
1783153025114306800,4.419306884765625,-0.0397050715982914,-0.4214846193790436,0.051922015845775604
1783153025124017200,4.42901708984375,0.0030542362947016954,-0.16676130890846252,-0.05741964280605316
1783153025133727700,4.438727783203125,0.05864133685827255,0.13560809195041656,-0.08002099394798279
1783153025143438300,4.448438232421875,0.11361759155988693,0.3781144618988037,-0.02626643143594265
1783153025153149000,4.45814892578125,0.1820324808359146,0.4856235682964325,0.07024743407964706
1783153025162859500,4.467859619140625,0.2608317732810974,0.4471401870250702,0.21196399629116058
1783153025172569900,4.47756982421875,0.30786702036857605,0.36223241686820984,0.40987852215766907
1783153025182280400,4.487280517578125,0.2980934679508209,0.2999260127544403,0.6536065936088562
1783153025191991000,4.496990966796875,0.2498365342617035,0.2651077210903168,0.911384105682373
1783153025201701400,4.506701416015625,0.1960819661617279,0.24311721324920654,1.1209046840667725
1783153025211412000,4.516411865234375,0.15271180868148804,0.19058434665203094,1.245517611503601
1783153025221122600,4.52612255859375,0.12400199472904205,0.1185043677687645,1.26872980594635
1783153025230833200,4.535833251953125,0.11422843486070633,0.07024743407964706,1.202147364616394
1783153025240543700,4.545543701171875,0.10201149433851242,0.03298575058579445,1.063485026359558
1783153025250254000,4.555254150390625,0.08490777015686035,0.010995250195264816,0.8722898960113525
1783153025259964700,4.564964599609375,0.07330167293548584,0.01832541823387146,0.6627692580223083
1783153025269675300,4.57467529296875,0.0659715011715889,0.05619794875383377,0.45324867963790894
1783153025279385900,4.5843857421875,0.06658235192298889,0.11545012891292572,0.26938363909721375
1783153025289096200,4.59409619140625,0.07574506103992462,0.17286977171897888,0.1056765764951706
1783153025298806800,4.603806884765625,0.10262233763933182,0.2217375487089157,-0.025655584409832954
1783153025308517400,4.613517333984375,0.1447708010673523,0.2510582208633423,-0.12094775587320328
1783153025318228000,4.62322802734375,0.17225892841815948,0.25533416867256165,-0.18569757044315338
1783153025327938300,4.632938232421875,0.182643324136734,0.25289076566696167,-0.21196399629116058
1783153025337649000,4.64264892578125,0.1716480851173401,0.24433889985084534,-0.1973036676645279
1783153025347359500,4.652359375,0.14660334587097168,0.24128466844558716,-0.14721418917179108
1783153025357070000,4.662070068359375,0.1178935244679451,0.24372805655002594,-0.08918370306491852
1783153025366780400,4.671780517578125,0.09834641218185425,0.25411245226860046,-0.030542362481355667
1783153025376491000,4.681490966796875,0.10201149433851242,0.25289076566696167,0.015271181240677834
1783153025386201600,4.69120166015625,0.12400199472904205,0.2583884000778198,0.0525328628718853
1783153025395912200,4.700912109375,0.16798299551010132,0.2644968628883362,0.08246438205242157
1783153025405622500,4.71062255859375,0.2229592502117157,0.2620534598827362,0.10017894953489304
1783153025415333000,4.7203330078125,0.2877090573310852,0.23090025782585144,0.11300674080848694
1783153025425043700,4.730043701171875,0.36101073026657104,0.17409147322177887,0.12705622613430023
1783153025434754300,4.73975439453125,0.4227063059806824,0.10323318839073181,0.1575985997915268
1783153025444464600,4.749464599609375,0.43614494800567627,0.036039989441633224,0.20035789906978607
1783153025454175200,4.75917529296875,0.4178195297718048,-0.0018325417768210173,0.2492256760597229
1783153025463885800,4.7688857421875,0.38422292470932007,-0.006719320081174374,0.2883199155330658
1783153025473596400,4.778596435546875,0.3426853120326996,0.018936265259981155,0.30847787857055664
1783153025483307000,4.78830712890625,0.30786702036857605,0.043981000781059265,0.3035911023616791
1783153025493017300,4.798017333984375,0.284654825925827,0.05070032179355621,0.2742704153060913
1783153025502728000,4.80772802734375,0.27976804971694946,0.04886778071522713,0.22784602642059326
1783153025512438500,4.8174384765625,0.2907632887363434,0.05131116881966591,0.183865025639534
1783153025522149000,4.827149169921875,0.3054236173629761,0.04886778071522713,0.1441599577665329
1783153025531859500,4.836859375,0.3115321099758148,0.042759306728839874,0.11606097966432571
1783153025541570000,4.846570068359375,0.3023693859577179,0.05986303091049194,0.10201149433851242
1783153025551280600,4.85628076171875,0.2767138183116913,0.08979454636573792,0.09895725548267365
1783153025560991200,4.8659912109375,0.24006296694278717,0.12339114397764206,0.1056765764951706
1783153025570701600,4.87570166015625,0.1979145109653473,0.16492876410484314,0.1301104724407196
1783153025580412200,4.885412109375,0.16309621930122375,0.20585553348064423,0.18019993603229523
1783153025590122800,4.895122802734375,0.1447708010673523,0.2473931461572647,0.2486148327589035
1783153025599833300,4.904833251953125,0.1325538605451584,0.2583884000778198,0.3176405727863312
1783153025609544000,4.9145439453125,0.12216944992542267,0.2241809368133545,0.3646758198738098
1783153025619254300,4.924254150390625,0.12522368133068085,0.16309621930122375,0.3897205591201782
1783153025628964900,4.93396484375,0.13499724864959717,0.0794101431965828,0.39643988013267517
1783153025638675500,4.943675537109375,0.13988402485847473,-0.008551862090826035,0.3793361485004425
1783153025648386000,4.953385986328125,0.1429382562637329,-0.08246438205242157,0.3408527672290802
1783153025658096400,4.963096435546875,0.12583453953266144,-0.12888877093791962,0.2736595869064331
1783153025667807000,4.972806884765625,0.10995250940322876,-0.13621893525123596,0.19058434665203094
1783153025677517600,4.982517578125,0.11117420345544815,-0.11056335270404816,0.12461283802986145
1783153025687228200,4.992228271484375,0.1050657257437706,-0.0647498071193695,0.06719319522380829
1783153025696938500,5.0019384765625,0.08429691940546036,0.017714571207761765,0.02626643143594265
1783153025706649000,5.011649169921875,0.07269082218408585,0.10628741979598999,0.01954711228609085
1783153025716359700,5.021359619140625,0.05619794875383377,0.13377554714679718,0.009773556143045425
1783153025726070300,5.0310703125,0.036039989441633224,0.05864133685827255,-0.013438640162348747
1783153025735780900,5.04078076171875,-0.010995250195264816,-0.12278030067682266,-0.09590301662683487
1783153025745491200,5.0504912109375,-0.08124268800020218,-0.342074453830719,-0.2351761907339096
1783153025755201800,5.060201904296875,-0.1569877415895462,-0.5296045541763306,-0.42514967918395996
1783153025764912400,5.069912353515625,-0.31886225938796997,-0.4324798583984375,-0.6193991303443909
1783153025774623000,5.079623046875,-0.2638860046863556,-0.6084038615226746,-0.7879929542541504
1783153025784333300,5.089333251953125,-0.15271180868148804,-0.7739434838294983,-1.0017894506454468
1783153025794044000,5.0990439453125,-0.3762819170951843,-1.2290246486663818,-1.2369656562805176
1783153025803754500,5.10875439453125,-0.48073679208755493,-1.2357439994812012,-1.2821683883666992
1783153025813465000,5.118465087890625,-0.3304683566093445,-0.873511552810669,-1.156944751739502
1783153025823175400,5.128175537109375,-0.15943112969398499,-0.3426853120326996,-0.9926267862319946
1783153025832886000,5.137885986328125,-0.05741964280605316,0.23090025782585144,-0.869846522808075
1783153025842596600,5.1475966796875,-0.023212196305394173,0.6817055344581604,-0.7757760286331177
1783153025852307200,5.15730712890625,-0.05864133685827255,0.998735249042511,-0.7091936469078064
1783153025862017800,5.167017822265625,-0.10811996459960938,1.1752700805664062,-0.633448600769043
1783153025871728000,5.17672802734375,-0.15087927877902985,1.3549355268478394,-0.5558710098266602
1783153025881438700,5.186438720703125,-0.14660334587097168,1.4758833646774292,-0.4825693368911743
1783153025891149300,5.1961494140625,-0.1459924876689911,1.5754514932632446,-0.43736663460731506
1783153025900860000,5.20585986328125,-0.16676130890846252,1.6799063682556152,-0.45141613483428955
1783153025910570500,5.215570556640625,-0.19241689145565033,1.7525970935821533,-0.5015056133270264
1783153025920280800,5.22528076171875,-0.22479179501533508,1.5864466428756714,-0.5625903010368347
1783153025929991400,5.234991455078125,-0.26632940769195557,1.1532796621322632,-0.6126797795295715
1783153025939702000,5.244701904296875,-0.30786702036857605,0.679872989654541,-0.6181774139404297
1783153025949412600,5.25441259765625,-0.3286358118057251,0.3671191930770874,-0.5583143830299377
1783153025959123000,5.264123046875,-0.3280249834060669,0.2113531529903412,-0.46546560525894165
1783153025968833500,5.27383349609375,-0.3286358118057251,0.12216944992542267,-0.37689274549484253
1783153025978544000,5.283544189453125,-0.3524588644504547,-0.0006108472589403391,-0.30725616216659546
1783153025988254700,5.293254638671875,-0.40010493993759155,-0.13988402485847473,-0.2522799074649811
1783153025997965000,5.302965087890625,-0.4599680006504059,-0.2742704153060913,-0.21379654109477997
1783153026007675600,5.312675537109375,-0.49051034450531006,-0.33718767762184143,-0.21318569779396057
1783153026017386200,5.32238623046875,-0.47951510548591614,-0.3683409094810486,-0.2736595869064331
1783153026027096800,5.332096923828125,-0.4202629029750824,-0.38727715611457825,-0.37261682748794556
1783153026036807400,5.341807373046875,-0.3115321099758148,-0.3432961702346802,-0.4605788290500641
1783153026046518000,5.35151806640625,-0.1948602795600891,-0.24556060135364532,-0.5112791657447815
1783153026056228400,5.361228271484375,-0.1056765764951706,-0.13927318155765533,-0.5161659121513367
1783153026065939000,5.37093896484375,-0.04703523963689804,-0.034818295389413834,-0.4746283292770386
1783153026075649500,5.3806494140625,-0.034818295389413834,0.09529217332601547,-0.4068242609500885
1783153026085360000,5.390360107421875,-0.054365407675504684,0.21257483959197998,-0.3432961702346802
1783153026095070500,5.400070556640625,-0.06963659077882767,0.25533416867256165,-0.3035911023616791
1783153026104781000,5.409781005859375,-0.056808795779943466,0.23212195932865143,-0.29259583353996277
1783153026114491600,5.41949169921875,-0.030542362481355667,0.17225892841815948,-0.3029802441596985
1783153026124202200,5.4292021484375,-0.0006108472589403391,0.09345962852239609,-0.3255815804004669
1783153026133912600,5.43891259765625,0.026877280324697495,0.037261683493852615,-0.36101073026657104
1783153026143623200,5.448623046875,0.05803048983216286,0.011606098152697086,-0.3939964771270752
1783153026153333800,5.458333740234375,0.09773556143045425,0.020157959312200546,-0.4220954477787018
1783153026163044400,5.46804443359375,0.1459924876689911,0.05925218388438225,-0.4611896872520447
1783153026172755000,5.4777548828125,0.19363857805728912,0.12033691257238388,-0.5027272701263428
1783153026182465300,5.48746533203125,0.22723518311977386,0.17592400312423706,-0.5308262705802917
1783153026192175900,5.49717578125,0.2241809368133545,0.19302773475646973,-0.5338805317878723
1783153026201886500,5.506886474609375,0.182643324136734,0.21501824259757996,-0.5112791657447815
1783153026211597000,5.51659716796875,0.13988402485847473,0.237008735537529,-0.4752391576766968
1783153026221307600,5.5263076171875,0.12278030067682266,0.26816195249557495,-0.4324798583984375
1783153026231018000,5.53601806640625,0.12278030067682266,0.3151971995830536,-0.41232189536094666
1783153026240728600,5.545728515625,0.14721418917179108,0.34818294644355774,-0.4043808877468109
1783153026250439200,5.555439208984375,0.19180603325366974,0.38605546951293945,-0.38788801431655884
1783153026260149800,5.565149658203125,0.24678228795528412,0.46424391865730286,-0.3518480062484741
1783153026269860400,5.5748603515625,0.312142938375473,0.554649293422699,-0.32130566239356995
1783153026279570700,5.58457080078125,0.37689274549484253,0.6084038615226746,-0.31825143098831177
1783153026289281300,5.59428125,0.4489727318286896,0.6420004963874817,-0.31886225938796997
1783153026298991900,5.603991943359375,0.5033381581306458,0.6920899152755737,-0.2877090573310852
1783153026308702500,5.613702392578125,0.5155550837516785,0.7006418108940125,-0.24372805655002594
1783153026318413000,5.6234130859375,0.4618005156517029,0.5729747414588928,-0.2241809368133545
1783153026328123400,5.633123291015625,0.3799470067024231,0.2718270421028137,-0.28404396772384644
1783153026337834000,5.642833984375,0.2858765125274658,0.009773556143045425,-0.3903313875198364
1783153026347544600,5.652544677734375,0.1973036676645279,-0.033596597611904144,-0.5045598149299622
1783153026357255200,5.662255126953125,0.11361759155988693,0.09712471067905426,-0.6022953987121582
1783153026366965500,5.671965576171875,0.04825693368911743,0.2748812735080719,-0.6749862432479858
1783153026376676000,5.681676025390625,0.03237490355968475,0.4563029110431671,-0.684759795665741
1783153026386386700,5.69138671875,0.02626643143594265,0.582748293876648,-0.6310052275657654
1783153026396097300,5.70109716796875,0.011606098152697086,0.6132906675338745,-0.5680879354476929
1783153026405807900,5.710807861328125,0.012216945178806782,0.5222744345664978,-0.49356457591056824
1783153026415518200,5.720518310546875,0.028098974376916885,0.41537612676620483,-0.3897205591201782
1783153026425228800,5.730228759765625,0.04886778071522713,0.33718767762184143,-0.27976804971694946
1783153026434939400,5.739939453125,0.08612946420907974,0.312142938375473,-0.17348061501979828
1783153026444650000,5.74964990234375,0.11667182296514511,0.3512371778488159,-0.0922379344701767
1783153026454360300,5.7593603515625,0.13438639044761658,0.42698222398757935,-0.06352811306715012
1783153026464071000,5.76907080078125,0.18142163753509521,0.5393781065940857,-0.08490777015686035
1783153026473781500,5.778781494140625,0.2510582208633423,0.6310052275657654,-0.13988402485847473
1783153026483492000,5.7884921875,0.3133646547794342,0.6340594291687012,-0.21685077250003815
1783153026493202700,5.79820263671875,0.36162158846855164,0.5418215394020081,-0.291374146938324
1783153026502913000,5.8079130859375,0.4691306948661804,0.3549022674560547,-0.40071579813957214
1783153026512623600,5.81762353515625,0.5265503525733948,0.25350162386894226,-0.49234288930892944
1783153026522334200,5.827334228515625,0.6597150564193726,0.13316470384597778,-0.5259394645690918
1783153026532044800,5.837044921875,0.6914790868759155,-0.06413896381855011,-0.5393781065940857
1783153026541755400,5.84675537109375,0.6927008032798767,-0.2339545041322708,-0.5155550837516785
1783153026551466000,5.856466064453125,0.707361102104187,-0.24311721324920654,-0.45508119463920593
1783153026561176300,5.86617626953125,0.7183563709259033,-0.17836740612983704,-0.37200596928596497
1783153026570887000,5.875886962890625,0.7171346545219421,-0.10934165865182877,-0.2736595869064331
1783153026580597500,5.885597412109375,0.7036960124969482,-0.015271181240677834,-0.1710372269153595
1783153026590308000,5.89530810546875,0.7000309824943542,0.045202698558568954,-0.08796200156211853
1783153026600018700,5.905018798828125,0.7140804529190063,0.037261683493852615,-0.022601349279284477
1783153026609729000,5.91472900390625,0.7342383861541748,-0.031153209507465363,0.03237490355968475
1783153026619439600,5.924439697265625,0.7446228265762329,-0.12461283802986145,0.06780404597520828
1783153026629150200,5.934150146484375,0.7464553713798523,-0.21807247400283813,0.08063183724880219
1783153026638860800,5.94386083984375,0.7507312893867493,-0.237008735537529,0.07085828483104706
1783153026648571400,5.9535712890625,0.7519529461860657,-0.23212195932865143,0.05070032179355621
1783153026658281700,5.96328173828125,0.7482879161834717,-0.23945212364196777,0.018936265259981155
1783153026667992300,5.972992431640625,0.7440119385719299,-0.1850867122411728,-0.02504473738372326
1783153026677703000,5.982702880859375,0.7458444833755493,-0.07757759839296341,-0.06413896381855011
1783153026687413500,5.99241357421875,0.758672297000885,0.007941014133393764,-0.08063183724880219
1783153026697124000,6.0021240234375,0.7879929542541504,0.10017894953489304,-0.05986303091049194
1783153026706834400,6.01183447265625,0.818535327911377,0.18569757044315338,-0.0030542362947016954
1783153026716545000,6.021544921875,0.8399149775505066,0.21746163070201874,0.061084724962711334
1783153026726255600,6.031255615234375,0.8551861643791199,0.20157960057258606,0.11972606182098389
1783153026735966200,6.04096630859375,0.8796200752258301,0.17775654792785645,0.18691925704479218
1783153026745676800,6.0506767578125,0.8918370008468628,0.15271180868148804,0.24189551174640656
1783153026755387400,6.060387451171875,0.8900044560432434,0.10078980028629303,0.28404396772384644
1783153026765097700,6.07009765625,0.8796200752258301,0.04092676565051079,0.30847787857055664
1783153026774808300,6.079808349609375,0.8680139780044556,-0.013438640162348747,0.32252734899520874
1783153026784519000,6.089518798828125,0.8502993583679199,-0.04703523963689804,0.31947311758995056
1783153026794229500,6.0992294921875,0.81425940990448,-0.05925218388438225,0.30664533376693726
1783153026803940000,6.108940185546875,0.7892146706581116,-0.02870982140302658,0.3011476993560791
1783153026813650400,6.118650390625,0.7660024762153625,0.022601349279284477,0.2980934679508209
1783153026823361000,6.128361083984375,0.7525638341903687,0.051922015845775604,0.29565006494522095
1783153026833071600,6.138071533203125,0.7452336549758911,0.07330167293548584,0.29687178134918213
1783153026842782200,6.1477822265625,0.730573296546936,0.09284878522157669,0.3054236173629761
1783153026852492800,6.157492919921875,0.7012526392936707,0.10323318839073181,0.3139754831790924
1783153026862203100,6.167203125,0.6548282504081726,0.08612946420907974,0.30969956517219543
1783153026871913700,6.176913818359375,0.5992411375045776,0.04092676565051079,0.2864873707294464
1783153026881624300,6.186624267578125,0.5467082858085632,-0.007330167107284069,0.24678228795528412
1783153026891335000,6.1963349609375,0.4947862923145294,-0.05070032179355621,0.20096874237060547
1783153026901045500,6.20604541015625,0.45080527663230896,-0.06352811306715012,0.15026842057704926
1783153026910755800,6.215755859375,0.42637139558792114,-0.04153761267662048,0.09407047927379608
1783153026920466400,6.225466552734375,0.4037700295448303,0.004275931045413017,0.033596597611904144
1783153026930177000,6.235177001953125,0.3939964771270752,0.08185353130102158,-0.01832541823387146
1783153026939887600,6.2448876953125,0.40254834294319153,0.20402298867702484,-0.03176405653357506
1783153026949598200,6.25459814453125,0.4300364851951599,0.314586341381073,-0.0024433890357613564
1783153026959308500,6.26430859375,0.4471401870250702,0.3701734244823456,0.02504473738372326
1783153026969019100,6.27401904296875,0.45080527663230896,0.37200596928596497,0.023212196305394173
1783153026978729700,6.283729736328125,0.43736663460731506,0.30603447556495667,-0.02626643143594265
1783153026988440300,6.2934404296875,0.4031592011451721,0.1575985997915268,-0.14171656966209412
1783153026998151000,6.30315087890625,0.34940463304519653,-0.022601349279284477,-0.29565006494522095
1783153027007861500,6.312861572265625,0.29748260974884033,-0.1850867122411728,-0.4556920528411865
1783153027017571800,6.32257177734375,0.24250635504722595,-0.27976804971694946,-0.5925218462944031
1783153027027282400,6.332282470703125,0.18142163753509521,-0.29748260974884033,-0.7049177289009094
1783153027036993000,6.341992919921875,0.15026842057704926,-0.23884128034114838,-0.7647807598114014
1783153027046703600,6.35170361328125,0.17225892841815948,-0.09956810623407364,-0.7470661997795105
1783153027056414200,6.361414306640625,0.24006296694278717,0.07513421028852463,-0.6578825116157532
1783153027066124500,6.37112451171875,0.3249707520008087,0.24433889985084534,-0.53143709897995
1783153027075835100,6.380835205078125,0.393385648727417,0.393385648727417,-0.3946073353290558
1783153027085545700,6.390545654296875,0.45019441843032837,0.4837910234928131,-0.2858765125274658
1783153027095256300,6.40025634765625,0.49051034450531006,0.46668729186058044,-0.2089097648859024
1783153027104967000,6.409966796875,0.5192201733589172,0.36039987206459045,-0.16187451779842377
1783153027114677200,6.41967724609375,0.5326588153839111,0.1716480851173401,-0.12522368133068085
1783153027124387800,6.429387939453125,0.5289937257766724,-0.03237490355968475,-0.09284878522157669
1783153027134098400,6.439098388671875,0.5222744345664978,-0.1710372269153595,-0.042759306728839874
1783153027143809000,6.44880908203125,0.49356457591056824,-0.25655585527420044,0.0018325417768210173
1783153027153519600,6.45851953125,0.44042086601257324,-0.28160059452056885,0.04031591862440109
1783153027163230000,6.46822998046875,0.37322768568992615,-0.21807247400283813,0.05986303091049194
1783153027172940500,6.4779404296875,0.29442837834358215,-0.10262233763933182,0.054365407675504684
1783153027182651100,6.487651123046875,0.22967857122421265,0.021379653364419937,0.03298575058579445
1783153027192361700,6.49736181640625,0.19180603325366974,0.1313321590423584,-0.0018325417768210173
1783153027202072300,6.507072265625,0.1850867122411728,0.21379654109477997,-0.020157959312200546
1783153027211783000,6.516782958984375,0.17348061501979828,0.26999449729919434,-0.02993151545524597
1783153027221493200,6.5264931640625,0.1423274129629135,0.29259583353996277,-0.03665083646774292
1783153027231203800,6.536203857421875,0.10017894953489304,0.2980934679508209,-0.05925218388438225
1783153027240914400,6.54591455078125,0.062306419014930725,0.3042019307613373,-0.09651386737823486
1783153027250625000,6.555625,0.03420744836330414,0.2901524603366852,-0.15271180868148804
1783153027260335600,6.565335693359375,0.011606098152697086,0.27854636311531067,-0.22967857122421265
1783153027270046200,6.575046142578125,-0.007330167107284069,0.28282228112220764,-0.3127537965774536
1783153027279756500,6.584756591796875,-0.020157959312200546,0.3054236173629761,-0.395218163728714
1783153027289467100,6.594467041015625,-0.02504473738372326,0.314586341381073,-0.46302223205566406
1783153027299177700,6.604177734375,-0.01832541823387146,0.3176405727863312,-0.5247178077697754
1783153027308888300,6.613888427734375,0,0.31947311758995056,-0.5577035546302795
1783153027318599000,6.623598876953125,0.022601349279284477,0.29565006494522095,-0.5680879354476929
1783153027328309500,6.6333095703125,0.037261683493852615,0.2363978922367096,-0.5399889945983887
1783153027338019800,6.643019775390625,0.04214845970273018,0.17286977171897888,-0.4715740978717804
1783153027347730400,6.65273046875,0.029320668429136276,0.14110571146011353,-0.3512371778488159
1783153027357441000,6.66244091796875,-0.02504473738372326,0.11911521852016449,-0.2217375487089157
1783153027367151600,6.672151611328125,-0.10995250940322876,0.07513421028852463,-0.10750912129878998
1783153027376862200,6.6818623046875,-0.2217375487089157,0.020157959312200546,-0.036039989441633224
1783153027386572800,6.69157275390625,-0.3500154912471771,-0.061084724962711334,-0.0030542362947016954
1783153027396283100,6.701283203125,-0.4874561131000519,-0.14843589067459106,-0.01038440316915512
1783153027405993700,6.71099365234375,-0.6273401379585266,-0.20524467527866364,-0.05619794875383377
1783153027415704300,6.720704345703125,-0.7360709309577942,-0.19119518995285034,-0.12766708433628082
1783153027425415000,6.730414794921875,-0.7965448498725891,-0.12094775587320328,-0.2101314514875412
1783153027435125500,6.74012548828125,-0.8167027831077576,-0.02626643143594265,-0.2864873707294464
1783153027444835800,6.7498359375,-0.8057075142860413,0.042759306728839874,-0.34757208824157715
1783153027454546400,6.75954638671875,-0.754396378993988,0.11239589750766754,-0.38422292470932007
1783153027464257000,6.769257080078125,-0.6927008032798767,0.15393351018428802,-0.3897205591201782
1783153027473967600,6.778967529296875,-0.6487197875976562,0.13560809195041656,-0.34818294644355774
1783153027483678200,6.78867822265625,-0.6505523324012756,0.03665083646774292,-0.2626643180847168
1783153027493388500,6.798388427734375,-0.6817055344581604,-0.11117420345544815,-0.1441599577665329
1783153027503099100,6.80809912109375,-0.7262973785400391,-0.2626643180847168,0.012216945178806782
1783153027512809700,6.817809814453125,-0.7617265582084656,-0.40254834294319153,0.16248537600040436
1783153027522520300,6.827520263671875,-0.7036960124969482,-0.5473191738128662,0.2773246467113495
1783153027532231000,6.83723095703125,-0.7409577369689941,-0.3500154912471771,0.29381752014160156
1783153027541941500,6.84694140625,-0.6407787799835205,-0.18081079423427582,0.33291175961494446
1783153027551651800,6.85665185546875,-0.5595360994338989,-0.030542362481355667,0.37261682748794556
1783153027561362400,6.866362548828125,-0.5088357925415039,0.07024743407964706,0.3823903799057007
1783153027571073000,6.876072998046875,-0.4446968138217926,0.13805148005485535,0.3658975064754486
1783153027580783600,6.88578369140625,-0.3921639323234558,0.25350162386894226,0.3683409094810486
1783153027590494200,6.895494140625,-0.3640649616718292,0.4074351191520691,0.4031592011451721
1783153027600204800,6.905204833984375,-0.36223241686820984,0.48928865790367126,0.4556920528411865
1783153027609915400,6.914915283203125,-0.3817795515060425,0.43858832120895386,0.48806697130203247
1783153027619625700,6.924625732421875,-0.395218163728714,0.3005368411540985,0.4746283292770386
1783153027629336300,6.93433642578125,-0.3542914092540741,0.14721418917179108,0.38849884271621704
1783153027639047000,6.944046875,-0.2754921019077301,-0.009773556143045425,0.22540263831615448
1783153027648757500,6.953757568359375,-0.2113531529903412,-0.13621893525123596,0.012827792204916477
1783153027658468000,6.963468017578125,-0.1985253542661667,-0.20463383197784424,-0.20157960057258606
1783153027668178700,6.9731787109375,-0.2101314514875412,-0.18142163753509521,-0.3561239540576935
1783153027677889000,6.982888916015625,-0.23212195932865143,-0.08857285231351852,-0.4080459773540497
1783153027687599600,6.992599609375,-0.2583884000778198,0.02748812735080719,-0.3426853120326996
1783153027697310200,7.002310302734375,-0.2895416021347046,0.13499724864959717,-0.17958909273147583
1783153027707020800,7.012020751953125,-0.33596599102020264,0.23334364593029022,0.06719319522380829
1783153027716731400,7.0217314453125,-0.3811686933040619,0.3127537965774536,0.35856732726097107
1783153027726441700,7.031441650390625,-0.39766156673431396,0.3390202224254608,0.6273401379585266
1783153027736152300,7.04115234375,-0.3695625960826874,0.2773246467113495,0.8252546191215515
1783153027745863000,7.05086279296875,-0.29626092314720154,0.16553960740566254,0.9620844125747681
1783153027755573500,7.060573486328125,-0.1985253542661667,0.04031591862440109,1.0433270931243896
1783153027765284000,7.0702841796875,-0.10873081535100937,-0.09712471067905426,1.0610417127609253
1783153027774994700,7.07999462890625,-0.04031591862440109,-0.23273280262947083,1.014006495475769
1783153027784705000,7.089705078125,-0.014049487188458443,-0.33535513281822205,0.9107732772827148
1783153027794415600,7.09941552734375,-0.03237490355968475,-0.3836120665073395,0.767224133014679
1783153027804126200,7.109126220703125,-0.08857285231351852,-0.39643988013267517,0.6004628539085388
1783153027813836800,7.1188369140625,-0.17348061501979828,-0.4074351191520691,0.4330907166004181
1783153027823547400,7.12854736328125,-0.2742704153060913,-0.4086568057537079,0.2644968628883362
1783153027833258000,7.138258056640625,-0.3658975064754486,-0.39949411153793335,0.10384403169155121
1783153027842968300,7.14796826171875,-0.42637139558792114,-0.38605546951293945,-0.03420744836330414
1783153027852679000,7.157678955078125,-0.4599680006504059,-0.3665083646774292,-0.13866232335567474
1783153027862389500,7.167389404296875,-0.4734066128730774,-0.3542914092540741,-0.1954711228609085
1783153027872100000,7.17710009765625,-0.4850127100944519,-0.3390202224254608,-0.2107423096895218
1783153027881810700,7.186810791015625,-0.4850127100944519,-0.33413344621658325,-0.19241689145565033
1783153027891521300,7.196521240234375,-0.474017471075058,-0.3268032968044281,-0.1569877415895462
1783153027901231600,7.206231689453125,-0.44103172421455383,-0.3274141252040863,-0.1172826737165451
1783153027910942200,7.215942138671875,-0.3921639323234558,-0.3567348122596741,-0.08551861345767975
1783153027920652800,7.22565283203125,-0.3292466700077057,-0.4086568057537079,-0.05803048983216286
1783153027930363400,7.23536328125,-0.2516690790653229,-0.41293275356292725,-0.023823043331503868
1783153027940074000,7.245073974609375,-0.17225892841815948,-0.37444937229156494,0.014660334214568138
1783153027949784600,7.25478466796875,-0.09345962852239609,-0.33596599102020264,0.05619794875383377
1783153027959495000,7.264494873046875,-0.017714571207761765,-0.3054236173629761,0.08307522535324097
1783153027969205500,7.27420556640625,0.045202698558568954,-0.2993151545524597,0.09712471067905426
1783153027978916000,7.283916015625,0.09895725548267365,-0.3023693859577179,0.08918370306491852
1783153027988626700,7.293626708984375,0.14660334587097168,-0.2993151545524597,0.07513421028852463
1783153027998337300,7.303337158203125,0.18569757044315338,-0.288930743932724,0.05070032179355621
1783153028008047900,7.3130478515625,0.2095206081867218,-0.2852656841278076,0.021990500390529633
1783153028017758200,7.32275830078125,0.2089097648859024,-0.28343313932418823,-0.012216945178806782
1783153028027468800,7.33246875,0.1985253542661667,-0.25289076566696167,-0.04581354558467865
1783153028037179400,7.342179443359375,0.18569757044315338,-0.1979145109653473,-0.06780404597520828
1783153028046890000,7.351889892578125,0.1710372269153595,-0.10995250940322876,-0.07574506103992462
1783153028056600600,7.3616005859375,0.15087927877902985,0.023823043331503868,-0.07574506103992462
1783153028066311200,7.371311279296875,0.12094775587320328,0.14965757727622986,-0.07452336698770523
1783153028076021800,7.381021728515625,0.0910162404179573,0.22845686972141266,-0.0916270911693573
1783153028085732000,7.390732177734375,0.07635590434074402,0.2632751762866974,-0.11117420345544815
1783153028095442700,7.400442626953125,0.08735115826129913,0.2736595869064331,-0.11972606182098389
1783153028105153300,7.4101533203125,0.11606097966432571,0.25533416867256165,-0.11117420345544815
1783153028114863900,7.41986376953125,0.1557660549879074,0.23151111602783203,-0.08185353130102158
1783153028124574500,7.429574462890625,0.2101314514875412,0.19363857805728912,-0.042759306728839874
1783153028134284800,7.439284912109375,0.2638860046863556,0.1575985997915268,0.007330167107284069
1783153028143995400,7.448995361328125,0.312142938375473,0.17592400312423706,0.0781884491443634
1783153028153706000,7.4587060546875,0.3255815804004669,0.20768806338310242,0.15943112969398499
1783153028163416600,7.46841650390625,0.30908870697021484,0.20768806338310242,0.2211267054080963
1783153028173127200,7.478127197265625,0.2724378705024719,0.2223484069108963,0.25289076566696167
1783153028182837800,7.487837646484375,0.2211267054080963,0.2211267054080963,0.24556060135364532
1783153028192548000,7.497548095703125,0.17836740612983704,0.19119518995285034,0.20157960057258606
1783153028202258700,7.5072587890625,0.15271180868148804,0.17714570462703705,0.12583453953266144
1783153028211969300,7.51696923828125,0.14721418917179108,0.16615045070648193,0.02626643143594265
1783153028221679900,7.526679931640625,0.16676130890846252,0.14782503247261047,-0.061084724962711334
1783153028231390500,7.536390380859375,0.21257483959197998,0.14843589067459106,-0.11178504675626755
1783153028241101000,7.54610107421875,0.2730487287044525,0.11972606182098389,-0.11545012891292572
1783153028250811600,7.555811767578125,0.3561239540576935,0.09345962852239609,-0.07085828483104706
1783153028260522000,7.56552197265625,0.45508119463920593,0.055587101727724075,0.014660334214568138
1783153028270232600,7.575232666015625,0.527161180973053,-0.08307522535324097,0.12400199472904205
1783153028279943200,7.584943115234375,0.5369347333908081,-0.27976804971694946,0.2363978922367096
1783153028289653800,7.59465380859375,0.5063923597335815,-0.46851983666419983,0.3390202224254608
1783153028299364400,7.6043642578125,0.4337015450000763,-0.6462764143943787,0.390942245721817
1783153028309075000,7.614074951171875,0.3023693859577179,-0.7782194018363953,0.3500154912471771
1783153028318785300,7.623785400390625,0.15271180868148804,-0.8276980519294739,0.20219044387340546
1783153028328495900,7.633495849609375,0.026877280324697495,-0.7293516397476196,-0.026877280324697495
1783153028338206500,7.64320654296875,-0.043981000781059265,-0.5216635465621948,-0.29503923654556274
1783153028347917000,7.6529169921875,-0.04031591862440109,-0.28343313932418823,-0.5650337338447571
1783153028357627600,7.662627685546875,0.03298575058579445,-0.05619794875383377,-0.781884491443634
1783153028367338200,7.672338134765625,0.16370706260204315,0.16370706260204315,-0.8912261724472046
1783153028377048600,7.682048583984375,0.32008397579193115,0.3701734244823456,-0.8551861643791199
1783153028386759200,7.69175927734375,0.47646087408065796,0.527161180973053,-0.6902574300765991
1783153028396469800,7.7014697265625,0.6206207871437073,0.5809157490730286,-0.42881476879119873
1783153028406180400,7.711180419921875,0.7611156702041626,0.5381564497947693,-0.12278030067682266
1783153028415891000,7.720890869140625,0.8912261724472046,0.37078428268432617,0.17348061501979828
1783153028425601500,7.7306015625,1.0017894506454468,0.08918370306491852,0.42453885078430176
1783153028435312000,7.74031201171875,1.0836430788040161,-0.21990501880645752,0.6090146899223328
1783153028445022500,7.7500224609375,1.132510781288147,-0.4825693368911743,0.7324058413505554
1783153028454733000,7.759733154296875,1.1392301321029663,-0.5967977643013,0.8002098798751831
1783153028464443600,7.769443603515625,1.0958600044250488,-0.5479300022125244,0.8075400590896606
1783153028474154200,7.779154296875,1.0042328834533691,-0.4318690001964569,0.7641699314117432
1783153028483864800,7.78886474609375,0.8936695456504822,-0.26877278089523315,0.6694886088371277
1783153028493575200,7.7985751953125,0.7757760286331177,-0.09773556143045425,0.550373375415802
1783153028503285800,7.80828564453125,0.6707102656364441,0.05803048983216286,0.41537612676620483
1783153028512996400,7.817996337890625,0.5766398310661316,0.17958909273147583,0.28221142292022705
1783153028522707000,7.82770703125,0.4953971207141876,0.261442631483078,0.16248537600040436
1783153028532417500,7.83741748046875,0.41232189536094666,0.30603447556495667,0.055587101727724075
1783153028542128000,7.847128173828125,0.31825143098831177,0.31947311758995056,-0.04886778071522713
1783153028551838500,7.85683837890625,0.21807247400283813,0.3255815804004669,-0.13377554714679718
1783153028561549000,7.866549072265625,0.10750912129878998,0.3500154912471771,-0.21196399629116058
1783153028571259600,7.876259765625,-0.004886778071522713,0.3836120665073395,-0.2761029601097107
1783153028580970200,7.88597021484375,-0.10384403169155121,0.42392799258232117,-0.33413344621658325
1783153028590680800,7.895680908203125,-0.18142163753509521,0.46729815006256104,-0.38544461131095886
1783153028600391400,7.905391357421875,-0.2229592502117157,0.5015056133270264,-0.4349232614040375
1783153028610102000,7.91510205078125,-0.21929416060447693,0.5082249045372009,-0.47890424728393555
1783153028619812400,7.924812255859375,-0.18081079423427582,0.5015056133270264,-0.517998456954956
1783153028629523000,7.93452294921875,-0.11911521852016449,0.49112120270729065,-0.5351021885871887
1783153028639233500,7.944233642578125,-0.06169557198882103,0.47707170248031616,-0.5137225389480591
1783153028648944000,7.953944091796875,0.004275931045413017,0.43797749280929565,-0.46485477685928345
1783153028658654700,7.96365478515625,0.08185353130102158,0.37383851408958435,-0.40193748474121094
1783153028668365000,7.973364990234375,0.1588202863931656,0.2980934679508209,-0.33474430441856384
1783153028678075600,7.98307568359375,0.21501824259757996,0.2107423096895218,-0.2895416021347046
1783153028687786200,7.9927861328125,0.2498365342617035,0.15026842057704926,-0.25594499707221985
1783153028697496800,8.002496826171875,0.2644968628883362,0.1325538605451584,-0.2363978922367096
1783153028707207400,8.01220751953125,0.2632751762866974,0.1423274129629135,-0.2339545041322708
1783153028716918000,8.02191796875,0.25777754187583923,0.15087927877902985,-0.24617144465446472
1783153028726628600,8.031628662109375,0.2522799074649811,0.1588202863931656,-0.26755109429359436
1783153028736339200,8.041339111328124,0.2516690790653229,0.1704263836145401,-0.2907632887363434
1783153028746049500,8.051049560546875,0.2644968628883362,0.18753011524677277,-0.31886225938796997
1783153028755760000,8.060760009765625,0.2895416021347046,0.20463383197784424,-0.3530697226524353
1783153028765470700,8.070470703125,0.3304683566093445,0.22906772792339325,-0.3793361485004425
1783153028775181300,8.080181396484376,0.38849884271621704,0.3005368411540985,-0.3915531039237976
1783153028784892000,8.089891845703125,0.4343124032020569,0.42759308218955994,-0.4074351191520691
1783153028794602500,8.0996025390625,0.4752391576766968,0.5528167486190796,-0.4282039403915405
1783153028804312800,8.109312744140626,0.503948986530304,0.6676560640335083,-0.45324867963790894
1783153028814023400,8.1190234375,0.5076140761375427,0.7525638341903687,-0.49173203110694885
1783153028823734000,8.128734130859375,0.4587462842464447,0.7995990514755249,-0.5448757410049438
1783153028833444600,8.138444580078126,0.39643988013267517,0.81425940990448,-0.5894675850868225
1783153028843155200,8.1481552734375,0.31886225938796997,0.7947123050689697,-0.6163448691368103
1783153028852865500,8.157865478515625,0.24311721324920654,0.7421793937683105,-0.6139014959335327
1783153028862576000,8.167576171875,0.1692046970129013,0.648108959197998,-0.5888567566871643
1783153028872286700,8.17728662109375,0.10995250940322876,0.5259394645690918,-0.5424323678016663
1783153028881997300,8.186997314453125,0.08063183724880219,0.4062134325504303,-0.47707170248031616
1783153028891708000,8.1967080078125,0.08124268800020218,0.28037887811660767,-0.40132665634155273
1783153028901418500,8.20641845703125,0.10995250940322876,0.19058434665203094,-0.32313820719718933
1783153028911129000,8.216129150390625,0.15149012207984924,0.17470231652259827,-0.23334364593029022
1783153028920839700,8.225839599609374,0.18081079423427582,0.17836740612983704,-0.1313321590423584
1783153028930550000,8.235550048828125,0.17714570462703705,0.05925218388438225,-0.08002099394798279
1783153028940260600,8.245260498046875,0.11972606182098389,-0.13805148005485535,-0.1447708010673523
1783153028949971200,8.25497119140625,0.018936265259981155,-0.28160059452056885,-0.28404396772384644
1783153028959681800,8.264681884765626,-0.08307522535324097,-0.33718767762184143,-0.4190412163734436
1783153028969392400,8.274392333984375,-0.17470231652259827,-0.3439069986343384,-0.5063923597335815
1783153028979102700,8.284102783203124,-0.2651077210903168,-0.2718270421028137,-0.5473191738128662
1783153028988813300,8.293813232421876,-0.3261924386024475,-0.11667182296514511,-0.5332696437835693
1783153028998524000,8.30352392578125,-0.3530697226524353,0.08796200156211853,-0.46851983666419983
1783153029008234500,8.313234375,-0.36101073026657104,0.25655585527420044,-0.37444937229156494
1783153029017945000,8.322945068359376,-0.34573954343795776,0.32191649079322815,-0.25716668367385864
1783153029027655700,8.33265576171875,-0.30664533376693726,0.3390202224254608,-0.10262233763933182
1783153029037366300,8.3423662109375,-0.2638860046863556,0.3530697226524353,0.1044548824429512
1783153029047076600,8.35207666015625,-0.22723518311977386,0.3402419090270996,0.3701734244823456
1783153029056787200,8.361787109375,-0.17286977171897888,0.2767138183116913,0.6639909744262695
1783153029066497800,8.371497802734375,-0.11361759155988693,0.14782503247261047,0.9339854717254639
1783153029076208400,8.38120849609375,-0.05925218388438225,0.014049487188458443,1.1453386545181274
1783153029085919000,8.3909189453125,-0.023823043331503868,-0.10078980028629303,1.2601778507232666
1783153029095629600,8.400629638671875,0.006108472589403391,-0.20341213047504425,1.266897201538086
1783153029105340000,8.41033984375,0.05803048983216286,-0.24067382514476776,1.1948171854019165
1783153029115050500,8.420050537109375,0.12583453953266144,-0.17286977171897888,1.0934165716171265
1783153029124761000,8.429760986328125,0.19424942135810852,-0.0787992998957634,0.9675820469856262
1783153029134471700,8.4394716796875,0.2644968628883362,0.029320668429136276,0.8344173431396484
1783153029144182300,8.449182373046876,0.33474430441856384,0.1557660549879074,0.6969767212867737
1783153029153892900,8.458892822265625,0.38727715611457825,0.27121618390083313,0.5674771070480347
1783153029163603200,8.468603271484374,0.42453885078430176,0.3530697226524353,0.4569137394428253
1783153029173313800,8.478313720703126,0.45202696323394775,0.4068242609500885,0.3689517378807068
1783153029183024400,8.4880244140625,0.4746283292770386,0.4434750974178314,0.30786702036857605
1783153029192735000,8.49773486328125,0.5057815313339233,0.44958359003067017,0.2742704153060913
1783153029202445600,8.507445556640626,0.5491516590118408,0.4294256269931793,0.2632751762866974
1783153029212156200,8.51715625,0.605960488319397,0.40254834294319153,0.26938363909721375
1783153029221866800,8.52686669921875,0.6725428104400635,0.38483378291130066,0.2864873707294464
1783153029231577000,8.5365771484375,0.7519529461860657,0.3762819170951843,0.30847787857055664
1783153029241287700,8.54628759765625,0.8301414251327515,0.3811686933040619,0.3274141252040863
1783153029250998300,8.555998291015625,0.9083298444747925,0.37383851408958435,0.3408527672290802
1783153029260708900,8.565708984375,0.9852966070175171,0.35917818546295166,0.3506263196468353
1783153029270419500,8.57541943359375,1.060430884361267,0.3365768492221832,0.34635040163993835
1783153029280130000,8.585130126953125,1.1373976469039917,0.29626092314720154,0.31886225938796997
1783153029289840400,8.59484033203125,1.1935955286026,0.2504473626613617,0.3017585575580597
1783153029299551000,8.604551025390625,1.2326897382736206,0.21257483959197998,0.3017585575580597
1783153029309261600,8.614261474609375,1.2577345371246338,0.20157960057258606,0.33535513281822205
1783153029318972200,8.62397216796875,1.273005723953247,0.22662433981895447,0.4031592011451721
1783153029328682800,8.633682861328126,1.2656755447387695,0.2644968628883362,0.4709632396697998
1783153029338393300,8.643393310546875,1.2546802759170532,0.30481278896331787,0.5253286361694336
1783153029348104000,8.65310400390625,1.2375766038894653,0.33169007301330566,0.5595360994338989
1783153029357814300,8.662814208984376,1.216196894645691,0.3151971995830536,0.5754181146621704
1783153029367524900,8.67252490234375,1.1679399013519287,0.2510582208633423,0.569309651851654
1783153029377235500,8.6822353515625,1.0854755640029907,0.17714570462703705,0.5467082858085632
1783153029386946000,8.691946044921876,0.9718579649925232,0.11911521852016449,0.5192201733589172
1783153029396656600,8.70165673828125,0.8405258059501648,0.08185353130102158,0.49234288930892944
1783153029406367200,8.7113671875,0.7232431769371033,0.08002099394798279,0.469741553068161
1783153029416077600,8.72107763671875,0.6261184215545654,0.11117420345544815,0.4605788290500641
1783153029425788200,8.7307880859375,0.5485408306121826,0.1435490995645523,0.4599680006504059
1783153029435498800,8.740498779296875,0.47829338908195496,0.13866232335567474,0.46607646346092224
1783153029445209300,8.750209228515626,0.41171106696128845,0.09529217332601547,0.47707170248031616
1783153029454920000,8.759919921875,0.34512871503829956,0.02870982140302658,0.49173203110694885
1783153029464630500,8.769630615234375,0.28221142292022705,-0.04337015375494957,0.4978405237197876
1783153029474341000,8.779341064453124,0.2241809368133545,-0.09651386737823486,0.4960079789161682
1783153029484051700,8.7890517578125,0.17348061501979828,-0.1429382562637329,0.49112120270729065
1783153029493762000,8.798761962890625,0.1325538605451584,-0.1575985997915268,0.47646087408065796
1783153029503472600,8.80847265625,0.09773556143045425,-0.14843589067459106,0.43981003761291504
1783153029513183200,8.818183349609376,0.07391251623630524,-0.13744063675403595,0.3836120665073395
1783153029522893800,8.827893798828125,0.055587101727724075,-0.12888877093791962,0.30908870697021484
1783153029532604400,8.8376044921875,0.04092676565051079,-0.10078980028629303,0.21807247400283813
1783153029542314800,8.847314697265626,0.038483377546072006,-0.04214845970273018,0.12216944992542267
1783153029552025300,8.857025390625,0.05131116881966591,-0.02870982140302658,0.030542362481355667
1783153029561736000,8.86673583984375,0.07513421028852463,-0.1185043677687645,-0.062306419014930725
1783153029571446500,8.876446533203126,0.09712471067905426,-0.23151111602783203,-0.18142163753509521
1783153029581157000,8.8861572265625,0.07391251623630524,-0.2907632887363434,-0.31092125177383423
1783153029590867700,8.89586767578125,-0.013438640162348747,-0.2651077210903168,-0.4178195297718048
1783153029600578300,8.905578369140626,-0.15515519678592682,-0.18814095854759216,-0.4966188073158264
1783153029610288600,8.91528857421875,-0.32313820719718933,-0.07757759839296341,-0.569309651851654
1783153029619999200,8.924999267578125,-0.469741553068161,0.025655584409832954,-0.6560499668121338
1783153029629709800,8.934709716796876,-0.5509842038154602,0.12339114397764206,-0.7666133046150208
1783153029639420400,8.94442041015625,-0.5296045541763306,0.20219044387340546,-0.8851176500320435
1783153029649131000,8.954131103515625,-0.41293275356292725,0.22906772792339325,-0.9914051294326782
1783153029658841600,8.963841552734374,-0.23090025782585144,0.20768806338310242,-1.0524898767471313
1783153029668552000,8.973552001953125,-0.05497625470161438,0.13682979345321655,-1.0488247871398926
1783153029678262500,8.983262451171875,0.06719319522380829,0.01954711228609085,-0.9981244206428528
1783153029687973000,8.99297314453125,0.1453816443681717,-0.13438639044761658,-0.9016105532646179
1783153029697683700,9.00268359375,0.17531315982341766,-0.3158080279827118,-0.7598940134048462
1783153029707394300,9.012394287109375,0.14904673397541046,-0.5063923597335815,-0.610236406326294
1783153029717105000,9.02210498046875,0.09590301662683487,-0.6664343476295471,-0.47951510548591614
1783153029726815500,9.0318154296875,0.038483377546072006,-0.7495095729827881,-0.4068242609500885
1783153029736525800,9.04152587890625,-0.024433890357613564,-0.7513421177864075,-0.4074351191520691
1783153029746236400,9.051236328125,-0.09040539711713791,-0.6749862432479858,-0.4813476502895355
1783153029755947000,9.060947021484376,-0.16615045070648193,-0.522885262966156,-0.5986303091049194
1783153029765657600,9.07065771484375,-0.24189551174640656,-0.3365768492221832,-0.7427902817726135
1783153029775368200,9.0803681640625,-0.2980934679508209,-0.15332266688346863,-0.8557969927787781
1783153029785078800,9.090078857421876,-0.3261924386024475,0.018936265259981155,-0.8887827396392822
1783153029794789000,9.0997890625,-0.3310792148113251,0.1313321590423584,-0.8209787011146545
1783153029804499700,9.109499755859375,-0.3286358118057251,0.16187451779842377,-0.6499415040016174
1783153029814210300,9.119210205078126,-0.32374903559684753,0.0794101431965828,-0.4172086715698242
1783153029823921000,9.1289208984375,-0.314586341381073,-0.1050657257437706,-0.17653486132621765
1783153029833631500,9.138631591796875,-0.2883199155330658,-0.32130566239356995,0.031153209507465363
1783153029843342000,9.148342041015624,-0.2596100866794586,-0.4874561131000519,0.18997350335121155
1783153029853052700,9.158052734375,-0.24250635504722595,-0.5638120174407959,0.291374146938324
1783153029862763000,9.167762939453125,-0.24678228795528412,-0.5473191738128662,0.3274141252040863
1783153029872473600,9.1774736328125,-0.25350162386894226,-0.48989951610565186,0.3261924386024475
1783153029882184200,9.18718408203125,-0.2596100866794586,-0.4074351191520691,0.3035911023616791
1783153029891894800,9.196894775390625,-0.26877278089523315,-0.3255815804004669,0.27060532569885254
1783153029901605400,9.20660546875,-0.28098973631858826,-0.25777754187583923,0.237008735537529
1783153029911316000,9.21631591796875,-0.2724378705024719,-0.2095206081867218,0.1966928243637085
1783153029921026600,9.226026611328125,-0.24433889985084534,-0.18814095854759216,0.16553960740566254
1783153029930737000,9.23573681640625,-0.20463383197784424,-0.16126367449760437,0.16126367449760437
1783153029940447500,9.245447509765626,-0.17897824943065643,-0.12094775587320328,0.182643324136734
1783153029950158000,9.255157958984375,-0.17897824943065643,-0.08857285231351852,0.21868331730365753
1783153029959868700,9.26486865234375,-0.1966928243637085,-0.04337015375494957,0.24067382514476776
1783153029969579300,9.274579345703126,-0.23334364593029022,-0.0018325417768210173,0.23090025782585144
1783153029979289900,9.284289794921875,-0.2748812735080719,0.03176405653357506,0.17958909273147583
1783153029989000400,9.29400048828125,-0.30847787857055664,0.04214845970273018,0.09773556143045425
1783153029998710800,9.303710693359376,-0.3365768492221832,0.01954711228609085,-0.0012216945178806782
1783153030008421400,9.31342138671875,-0.3573456406593323,-0.007330167107284069,-0.10201149433851242
1783153030018132000,9.323132080078125,-0.3695625960826874,-0.014049487188458443,-0.19058434665203094
1783153030027842600,9.332842529296874,-0.3775036036968231,-0.0018325417768210173,-0.27121618390083313
1783153030037553200,9.34255322265625,-0.37689274549484253,0.05619794875383377,-0.33596599102020264
1783153030047263700,9.352263671875,-0.3787252902984619,0.1563768982887268,-0.3799470067024231
1783153030056974000,9.36197412109375,-0.3701734244823456,0.2632751762866974,-0.4056025743484497
1783153030066684700,9.3716845703125,-0.34757208824157715,0.3762819170951843,-0.395218163728714
1783153030076395300,9.381395263671875,-0.3151971995830536,0.4727957844734192,-0.3268032968044281
1783153030086105900,9.39110595703125,-0.3005368411540985,0.5198310017585754,-0.2223484069108963
1783153030095816400,9.40081640625,-0.288930743932724,0.5338805317878723,-0.11422843486070633
1783153030105527000,9.410527099609375,-0.26694026589393616,0.5149442553520203,-0.04214845970273018
1783153030115237600,9.420237548828124,-0.22723518311977386,0.4734066128730774,0.008551862090826035
1783153030124948200,9.4299482421875,-0.17286977171897888,0.4593571424484253,0.05375456064939499
1783153030134658600,9.439658447265625,-0.13988402485847473,0.5002838969230652,0.09468132257461548
1783153030144369200,9.449369140625,-0.12461283802986145,0.5931326746940613,0.1441599577665329
1783153030154079700,9.459079833984376,-0.09590301662683487,0.6884248852729797,0.18630841374397278
1783153030163790300,9.468790283203125,-0.03787253051996231,0.7947123050689697,0.22906772792339325
1783153030173501000,9.4785009765625,0.022601349279284477,0.9400939345359802,0.25289076566696167
1783153030183211500,9.48821142578125,0.04947862774133682,0.9743013978004456,0.2736595869064331
1783153030192921900,9.497921875,0.043981000781059265,0.8405258059501648,0.30847787857055664
1783153030202632400,9.507632568359375,0.02076880633831024,0.6578825116157532,0.3939964771270752
1783153030212343000,9.517343017578124,-0.021379653364419937,0.49051034450531006,0.5088357925415039
1783153030222053600,9.5270537109375,-0.08857285231351852,0.3274141252040863,0.5961869359016418
1783153030231764200,9.53676416015625,-0.15943112969398499,0.25655585527420044,0.6371136903762817
1783153030241474800,9.546474853515624,-0.20768806338310242,0.4324798583984375,0.6456655263900757
1783153030251185400,9.556185302734375,-0.21929416060447693,0.679872989654541,0.5992411375045776
1783153030260895700,9.565895751953125,-0.21746163070201874,0.6975875496864319,0.46607646346092224
1783153030270606300,9.5756064453125,-0.20219044387340546,0.42514967918395996,0.208298921585083
1783153030280317000,9.58531689453125,-0.15087927877902985,0.05070032179355621,-0.12522368133068085
1783153030290027500,9.595027587890625,-0.08429691940546036,-0.30725616216659546,-0.4709632396697998
1783153030299738000,9.604738037109374,-0.05497625470161438,-0.6065713167190552,-0.7837170362472534
1783153030309448700,9.61444873046875,-0.03420744836330414,-0.7049177289009094,-1.0017894506454468
1783153030319159300,9.6241591796875,0.007330167107284069,-0.5125008225440979,-1.0677610635757446
1783153030328870000,9.633869873046875,0.07085828483104706,-0.07757759839296341,-0.9541434049606323
1783153030338580200,9.643580322265626,0.13560809195041656,0.4214846193790436,-0.6896465420722961
1783153030348290800,9.653290771484375,0.21318569779396057,0.8112051486968994,-0.34573954343795776
1783153030358001400,9.66300146484375,0.30481278896331787,0.9553651213645935,-0.01954711228609085
1783153030367712000,9.6727119140625,0.3823903799057007,0.813648521900177,0.22967857122421265
1783153030377422600,9.682422607421875,0.448361873626709,0.5204418897628784,0.4056025743484497
1783153030387133200,9.69213330078125,0.5198310017585754,0.17836740612983704,0.5076140761375427
1783153030396843800,9.70184375,0.5955760478973389,-0.1569877415895462,0.5326588153839111
1783153030406554000,9.71155419921875,0.6517740488052368,-0.4037700295448303,0.49234288930892944
1783153030416264700,9.7212646484375,0.6927008032798767,-0.48012593388557434,0.3817795515060425
1783153030425975300,9.730975341796874,0.7171346545219421,-0.4068242609500885,0.2223484069108963
1783153030435686000,9.740685791015625,0.7250757217407227,-0.2761029601097107,0.047646086663007736
1783153030445396500,9.750396484375,0.7110261917114258,-0.13866232335567474,-0.09956810623407364
1783153030455107000,9.760107177734374,0.6456655263900757,-0.017714571207761765,-0.17531315982341766
1783153030464817400,9.7698173828125,0.5241069197654724,0.0916270911693573,-0.18569757044315338
1783153030474528000,9.779528076171875,0.37322768568992615,0.17470231652259827,-0.15332266688346863
1783153030484238600,9.789238525390624,0.21501824259757996,0.20157960057258606,-0.12766708433628082
1783153030493949200,9.79894921875,0.0659715011715889,0.1563768982887268,-0.12216944992542267
1783153030503659800,9.80865966796875,-0.054365407675504684,0.0659715011715889,-0.1563768982887268
1783153030513370400,9.818370361328125,-0.13377554714679718,-0.016492875292897224,-0.23028941452503204
1783153030523081000,9.8280810546875,-0.13560809195041656,-0.06780404597520828,-0.31886225938796997
1783153030532791600,9.83779150390625,-0.07574506103992462,-0.08124268800020218,-0.3805578351020813
1783153030542502000,9.847501953125,-0.006719320081174374,-0.03665083646774292,-0.38666632771492004
1783153030552212500,9.85721240234375,0.05619794875383377,0.06841489672660828,-0.35978904366493225
1783153030561923000,9.866923095703125,0.10078980028629303,0.17897824943065643,-0.32130566239356995
1783153030571633700,9.876633544921875,0.12033691257238388,0.2516690790653229,-0.288930743932724
1783153030581344300,9.88634423828125,0.12094775587320328,0.21746163070201874,-0.26816195249557495
1783153030591054800,9.896054931640625,0.1050657257437706,0.1178935244679451,-0.27121618390083313
1783153030600765400,9.905765380859375,0.0794101431965828,0.004886778071522713,-0.26877278089523315
1783153030610476000,9.91547607421875,0.06047387793660164,-0.09345962852239609,-0.2486148327589035
1783153030620186400,9.925186279296875,0.06169557198882103,-0.16248537600040436,-0.23151111602783203
1783153030629897000,9.93489697265625,0.08796200156211853,-0.1820324808359146,-0.2241809368133545
1783153030639607600,9.944607666015624,0.1459924876689911,-0.13805148005485535,-0.20646637678146362
1783153030649318100,9.954318115234376,0.21379654109477997,-0.015271181240677834,-0.17348061501979828
1783153030659028700,9.96402880859375,0.2761029601097107,0.11178504675626755,-0.13744063675403595
1783153030668739300,9.9737392578125,0.30847787857055664,0.2089097648859024,-0.09895725548267365
1783153030678450000,9.983449951171876,0.29442837834358215,0.20096874237060547,-0.054365407675504684
1783153030688160300,9.99316015625,0.2211267054080963,0.07146912813186646,0.005497625097632408
1783153030697870800,10.002870849609375,0.09468132257461548,-0.11911521852016449,0.10323318839073181
1783153030707581400,10.01258154296875,-0.0653606578707695,-0.2730487287044525,0.24556060135364532
1783153030717292000,10.0222919921875,-0.21685077250003815,-0.2987042963504791,0.40193748474121094
1783153030727002600,10.032002685546875,-0.29748260974884033,-0.20341213047504425,0.5241069197654724
1783153030736713200,10.041713134765626,-0.25777754187583923,-0.07696675509214401,0.5796940326690674
1783153030746423800,10.051423828125,-0.11117420345544815,0.08185353130102158,0.5534276366233826
1783153030756134100,10.061134033203125,0.12827792763710022,0.2651077210903168,0.4428642690181732
1783153030765844700,10.0708447265625,0.4367557764053345,0.28343313932418823,0.2754921019077301
1783153030775555300,10.080555419921875,0.5766398310661316,-0.01710372418165207,0.08918370306491852
1783153030785266000,10.090265869140625,0.4086568057537079,-0.36223241686820984,0.020157959312200546
1783153030794976500,10.0999765625,0.15087927877902985,-0.5711421966552734,0.12522368133068085
1783153030804687000,10.10968701171875,-0.08185353130102158,-0.6041279435157776,0.3035911023616791
1783153030814397700,10.119397705078125,-0.17592400312423706,-0.34818294644355774,0.517998456954956
1783153030824108300,10.1291083984375,-0.31092125177383423,-0.5338805317878723,0.5858024954795837
1783153030833818600,10.138818603515626,-0.444085955619812,-0.7977665066719055,0.5430431962013245
1783153030843529200,10.148529296875,-0.5485408306121826,-1.0439379215240479,0.3396310806274414
1783153030853239800,10.15823974609375,-0.6670452356338501,-1.3078240156173706,-0.08063183724880219
1783153030862950400,10.167950439453126,-0.6725428104400635,-1.235133171081543,-0.5613686442375183
1783153030872661000,10.177660888671875,-0.5741963982582092,-1.0555440187454224,-1.035386085510254
1783153030882371600,10.18737158203125,-0.46424391865730286,-0.7470661997795105,-1.4215179681777954
1783153030892082200,10.197082275390626,-0.3512371778488159,-0.37506023049354553,-1.6322602033615112
1783153030901792500,10.20679248046875,-0.21379654109477997,-0.14904673397541046,-1.618210792541504
1783153030911503000,10.216503173828125,-0.06902574002742767,-0.09651386737823486,-1.3775368928909302
1783153030921213700,10.226213623046876,0.0922379344701767,-0.130721315741539,-0.9779664874076843
1783153030930924300,10.23592431640625,0.23945212364196777,-0.21196399629116058,-0.5155550837516785
1783153030940635000,10.245634765625,0.30481278896331787,-0.28282228112220764,-0.05497625470161438
1783153030950345500,10.255345458984374,0.2907632887363434,-0.3127537965774536,0.36101073026657104
1783153030960056000,10.26505615234375,0.24311721324920654,-0.32313820719718933,0.6933116316795349
1783153030969766700,10.2747666015625,0.2113531529903412,-0.33291175961494446,0.9046648144721985
1783153030979477000,10.28447705078125,0.22601348161697388,-0.3432961702346802,0.9449806809425354
1783153030989187600,10.2941875,0.258999228477478,-0.33535513281822205,0.8582404255867004
1783153030998898200,10.303898193359375,0.2651077210903168,-0.2901524603366852,0.7061394453048706
1783153031008608800,10.31360888671875,0.16004198789596558,0,0.5491516590118408
1783153031018319400,10.3233193359375,0.27060532569885254,-0.03787253051996231,0.4953971207141876
1783153031028030000,10.333030029296875,0.21379654109477997,0.02076880633831024,0.29748260974884033
1783153031037740500,10.342740478515625,0.10934165865182877,0.05925218388438225,0.10873081535100937
1783153031047451100,10.352451171875,-0.007941014133393764,0.12155860662460327,-0.028098974376916885
1783153031057161500,10.362161376953125,-0.09040539711713791,0.16309621930122375,-0.10140064358711243
1783153031066872000,10.3718720703125,-0.14782503247261047,0.18814095854759216,-0.11972606182098389
1783153031076582700,10.381582763671876,-0.18936264514923096,0.20219044387340546,-0.10323318839073181
1783153031086293200,10.391293212890625,-0.21990501880645752,0.208298921585083,-0.08063183724880219
1783153031096003800,10.40100390625,-0.25655585527420044,0.21501824259757996,-0.04886778071522713
1783153031105714400,10.41071435546875,-0.2919849753379822,0.1979145109653473,-0.026877280324697495
1783153031115425000,10.420425048828125,-0.33474430441856384,0.13988402485847473,-0.024433890357613564
1783153031125135600,10.430135498046875,-0.3921639323234558,0.042759306728839874,-0.054365407675504684
1783153031134846200,10.43984619140625,-0.4416425824165344,0.0012216945178806782,-0.12705622613430023
1783153031144556500,10.449556640625,-0.469741553068161,0.0525328628718853,-0.21318569779396057
1783153031154267100,10.45926708984375,-0.4837910234928131,0.1698155403137207,-0.2877090573310852
1783153031163977700,10.468977783203124,-0.4837910234928131,0.2987042963504791,-0.36039987206459045
1783153031173688300,10.478688232421876,-0.47829338908195496,0.3958290219306946,-0.42514967918395996
1783153031183399000,10.48839892578125,-0.4575245976448059,0.446529358625412,-0.4752391576766968
1783153031193109500,10.498109619140624,-0.39949411153793335,0.4282039403915405,-0.5008947253227234
1783153031202820000,10.507820068359376,-0.32191649079322815,0.367730051279068,-0.5076140761375427
1783153031212530700,10.51753076171875,-0.2522799074649811,0.29381752014160156,-0.4856235682964325
1783153031222241300,10.5272412109375,-0.23151111602783203,0.1954711228609085,-0.448361873626709
1783153031231951600,10.53695166015625,-0.2486148327589035,0.0781884491443634,-0.4349232614040375
1783153031241662200,10.546662109375,-0.25655585527420044,-0.01710372418165207,-0.46363306045532227
1783153031251372800,10.556372802734375,-0.2351761907339096,-0.0397050715982914,-0.5375455617904663
1783153031261083400,10.56608349609375,-0.1820324808359146,0.0397050715982914,-0.6352811455726624
1783153031270794000,10.5757939453125,-0.11483928561210632,0.1844758689403534,-0.7195780873298645
1783153031280504600,10.585504638671875,-0.046424392610788345,0.32069480419158936,-0.7763868570327759
1783153031290215200,10.595215087890624,0.01954711228609085,0.4416425824165344,-0.8240329623222351
1783153031299925800,10.60492578125,0.0659715011715889,0.5002838969230652,-0.8667922616004944
1783153031309636000,10.614635986328125,0.08124268800020218,0.49112120270729065,-0.8808417320251465
1783153031319346700,10.6243466796875,0.08857285231351852,0.45385950803756714,-0.8307522535324097
1783153031329057300,10.634057373046875,0.08796200156211853,0.43797749280929565,-0.70797199010849
1783153031338768000,10.643767822265625,0.08796200156211853,0.42331716418266296,-0.5442649126052856
1783153031348478500,10.653478515625,0.10017894953489304,0.37383851408958435,-0.3640649616718292
1783153031358189000,10.66318896484375,0.12400199472904205,0.2858765125274658,-0.1960819661617279
1783153031367899600,10.672899658203125,0.1588202863931656,0.19058434665203094,-0.06719319522380829
1783153031377610200,10.6826103515625,0.19913621246814728,0.12339114397764206,0.021990500390529633
1783153031387320600,10.692320556640626,0.24067382514476776,0.14721418917179108,0.07574506103992462
1783153031397031200,10.70203125,0.2870981991291046,0.2480039894580841,0.0916270911693573
1783153031406741800,10.71174169921875,0.33535513281822205,0.4190412163734436,0.11056335270404816
1783153031416452400,10.721452392578126,0.37139514088630676,0.6670452356338501,0.17225892841815948
1783153031426163000,10.731162841796875,0.365286648273468,0.8496885299682617,0.2620534598827362
1783153031435873500,10.74087353515625,0.3390202224254608,0.832584798336029,0.33535513281822205
1783153031445584100,10.750584228515624,0.33291175961494446,0.5558710098266602,0.3775036036968231
1783153031455294700,10.760294677734375,0.33291175961494446,0.024433890357613564,0.3280249834060669
1783153031465005000,10.770005126953125,0.3268032968044281,-0.684759795665741,0.10750912129878998
1783153031474715600,10.779715576171874,0.3549022674560547,-1.2577345371246338,-0.24433889985084534
1783153031484426200,10.78942626953125,0.4605788290500641,-1.3194301128387451,-0.5534276366233826
1783153031494136800,10.79913671875,0.624896764755249,-0.8222004175186157,-0.6426113247871399
1783153031503847400,10.808847412109374,0.7831062078475952,-0.025655584409832954,-0.497229665517807
1783153031513558000,10.81855810546875,0.8832851648330688,0.8087617754936218,-0.17409147322177887
1783153031523268600,10.8282685546875,0.8655705451965332,1.3017154932022095,0.20280128717422485
1783153031532979200,10.837979248046874,0.7574505805969238,1.230857253074646,0.5424323678016663
1783153031542689800,10.847689697265626,0.573585569858551,0.818535327911377,0.8197570443153381
1783153031552400400,10.857400390625,0.37139514088630676,0.32252734899520874,1.0158389806747437
1783153031562111000,10.867111083984375,0.25716668367385864,-0.08918370306491852,1.0958600044250488
1783153031571821300,10.8768212890625,0.26816195249557495,-0.342074453830719,1.0476030111312866
1783153031581532000,10.886531982421875,0.25350162386894226,-0.5302154421806335,0.9040539264678955
1783153031591242500,10.896242431640625,0.3518480062484741,-0.3011476993560791,0.7134696245193481
1783153031600953000,10.905953125,0.5699204802513123,-0.004275931045413017,0.5253286361694336
1783153031610663700,10.91566357421875,0.8057075142860413,0.3970507085323334,0.34512871503829956
1783153031620374300,10.925374267578125,0.9449806809425354,0.6157340407371521,0.237008735537529
1783153031630084900,10.9350849609375,0.9767447710037231,0.7012526392936707,0.20768806338310242
1783153031639795500,10.94479541015625,0.9168817400932312,0.712247908115387,0.25472331047058105
1783153031649505800,10.954505859375,0.8191461563110352,0.633448600769043,0.3402419090270996
1783153031659216400,10.96421630859375,0.7140804529190063,0.5070032477378845,0.4416425824165344
1783153031668927000,10.973927001953125,0.6096255779266357,0.32069480419158936,0.522885262966156
1783153031678637600,10.983637451171875,0.4978405237197876,0.13621893525123596,0.5644228458404541
1783153031688348200,10.99334814453125,0.42576053738594055,-0.011606098152697086,0.5699204802513123
1783153031698058800,11.003058837890626,0.40254834294319153,-0.11606097966432571,0.5412106513977051
1783153031707769300,11.012769287109375,0.4080459773540497,-0.13866232335567474,0.46729815006256104
1783153031717480000,11.02247998046875,0.45263782143592834,-0.042759306728839874,0.37322768568992615
1783153031727190500,11.0321904296875,0.5253286361694336,0.1325538605451584,0.2516690790653229
1783153031736901000,11.041901123046875,0.5900784730911255,0.3017585575580597,0.1185043677687645
1783153031746611700,11.05161181640625,0.6646018028259277,0.522885262966156,0.005497625097632408
1783153031756322000,11.061322021484376,0.7495095729827881,0.6762079000473022,-0.10078980028629303
1783153031766032600,11.07103271484375,0.8124268651008606,0.6646018028259277,-0.18019993603229523
1783153031775743200,11.0807431640625,0.8240329623222351,0.5662553906440735,-0.2089097648859024
1783153031785453800,11.090453857421876,0.8179244995117188,0.42881476879119873,-0.1985253542661667
1783153031795164400,11.100164306640625,0.8057075142860413,0.26755109429359436,-0.1966928243637085
1783153031804875000,11.109875,0.8038749694824219,0.12705622613430023,-0.21623992919921875
1783153031814585600,11.119585693359374,0.8038749694824219,0.03237490355968475,-0.23945212364196777
1783153031824296200,11.129296142578125,0.7886037826538086,0.015271181240677834,-0.258999228477478
1783153031834006500,11.139006591796875,0.7562289237976074,0.053143709897994995,-0.28404396772384644
1783153031843717000,11.148717041015624,0.7153021693229675,0.09895725548267365,-0.29626092314720154
1783153031853427700,11.158427734375,0.6688777208328247,0.1441599577665329,-0.291374146938324
1783153031863138300,11.16813818359375,0.5992411375045776,0.17531315982341766,-0.2718270421028137
1783153031872849000,11.177848876953124,0.4960079789161682,0.182643324136734,-0.23151111602783203
1783153031882559500,11.1875595703125,0.37261682748794556,0.1588202863931656,-0.19302773475646973
1783153031892270000,11.19727001953125,0.2620534598827362,0.12766708433628082,-0.15149012207984924
1783153031901980700,11.206980712890624,0.17958909273147583,0.09040539711713791,-0.11117420345544815
1783153031911691300,11.216691162109376,0.13316470384597778,0.053143709897994995,-0.0916270911693573
1783153031921401900,11.22640185546875,0.15515519678592682,0.006108472589403391,-0.08979454636573792
1783153031931112200,11.2361123046875,0.2223484069108963,-0.047646086663007736,-0.12155860662460327
1783153031940822800,11.24582275390625,0.2644968628883362,-0.15087927877902985,-0.20341213047504425
1783153031950533400,11.255533447265625,0.2516690790653229,-0.3164188861846924,-0.2626643180847168
1783153031960244000,11.265243896484375,0.21440738439559937,-0.3524588644504547,-0.2730487287044525
1783153031969954600,11.27495458984375,0.16431790590286255,-0.2877090573310852,-0.3029802441596985
1783153031979665200,11.2846650390625,0.12278030067682266,-0.22906772792339325,-0.3536805510520935
1783153031989375700,11.294375732421875,0.11239589750766754,-0.15332266688346863,-0.3530697226524353
1783153031999086300,11.30408642578125,0.13988402485847473,-0.06963659077882767,-0.2736595869064331
1783153032008797000,11.313796875,0.18875180184841156,0.02993151545524597,-0.12461283802986145
1783153032018507500,11.323507568359375,0.2486148327589035,0.07330167293548584,0.10017894953489304
1783153032028218000,11.333218017578124,0.2754921019077301,-0.0781884491443634,0.3268032968044281
1783153032037928400,11.342928466796875,0.25289076566696167,-0.3286358118057251,0.49173203110694885
1783153032047639000,11.35263916015625,0.19302773475646973,-0.5137225389480591,0.582748293876648
1783153032057349600,11.362349609375,0.12278030067682266,-0.5967977643013,0.5662553906440735
1783153032067060200,11.372060302734376,0.024433890357613564,-0.6468872427940369,0.4056025743484497
1783153032076770800,11.381770751953125,-0.08918370306491852,-0.6377245187759399,0.09529217332601547
1783153032086481400,11.3914814453125,-0.17836740612983704,-0.4434750974178314,-0.2993151545524597
1783153032096192000,11.40119189453125,-0.21623992919921875,-0.1185043677687645,-0.6456655263900757
1783153032105902600,11.410902587890625,-0.21501824259757996,0.20402298867702484,-0.8576295375823975
1783153032115613200,11.42061328125,-0.17531315982341766,0.41110020875930786,-0.8814526200294495
1783153032125323800,11.43032373046875,-0.12278030067682266,0.46851983666419983,-0.7507312893867493
1783153032135034400,11.440034423828125,-0.05375456064939499,0.4422534108161926,-0.48073679208755493
1783153032144744700,11.44974462890625,0.03298575058579445,0.37078428268432617,-0.12155860662460327
1783153032154455300,11.459455322265624,0.11300674080848694,0.2522799074649811,0.261442631483078
1783153032164166000,11.469165771484375,0.16615045070648193,0.09773556143045425,0.5967977643013
1783153032173876500,11.47887646484375,0.18630841374397278,-0.03176405653357506,0.8386932611465454
1783153032183587000,11.488587158203124,0.17897824943065643,-0.12216944992542267,0.9541434049606323
1783153032193297700,11.498297607421875,0.1569877415895462,-0.17531315982341766,0.9419264793395996
1783153032203008300,11.50800830078125,0.1313321590423584,-0.19119518995285034,0.8350282311439514
1783153032212718800,11.51771875,0.10873081535100937,-0.12216944992542267,0.6529957056045532
1783153032222429400,11.527429443359376,0.10262233763933182,0.021990500390529633,0.45141613483428955
1783153032232140000,11.53714013671875,0.1172826737165451,0.19058434665203094,0.284654825925827
1783153032241850400,11.546850341796874,0.14110571146011353,0.3158080279827118,0.19424942135810852
1783153032251561000,11.55656103515625,0.16004198789596558,0.37139514088630676,0.182643324136734
1783153032261271600,11.566271484375,0.17531315982341766,0.3500154912471771,0.23212195932865143
1783153032270982100,11.575982177734375,0.17225892841815948,0.29748260974884033,0.314586341381073
1783153032280692700,11.585692626953126,0.14171656966209412,0.25594499707221985,0.39766156673431396
1783153032290403300,11.5954033203125,0.08857285231351852,0.21990501880645752,0.46546560525894165
1783153032300114000,11.605114013671875,0.023212196305394173,0.18081079423427582,0.4978405237197876
1783153032309824500,11.614824462890626,-0.023823043331503868,0.16737215220928192,0.4831801950931549
1783153032319535000,11.62453515625,-0.030542362481355667,0.17470231652259827,0.42698222398757935
1783153032329245700,11.63424560546875,0.0012216945178806782,0.16492876410484314,0.34696123003959656
1783153032338956300,11.643956298828124,0.056808795779943466,0.14660334587097168,0.2486148327589035
1783153032348666600,11.65366650390625,0.11972606182098389,0.1459924876689911,0.1557660549879074
1783153032358377200,11.663377197265625,0.16553960740566254,0.13377554714679718,0.08368607610464096
1783153032368087800,11.673087890625,0.1954711228609085,0.12155860662460327,0.01832541823387146
1783153032377798400,11.68279833984375,0.20646637678146362,0.11178504675626755,-0.03420744836330414
1783153032387509000,11.692509033203125,0.21318569779396057,0.1172826737165451,-0.07146912813186646
1783153032397219600,11.702219482421874,0.22662433981895447,0.12278030067682266,-0.08796200156211853
1783153032406930200,11.71193017578125,0.261442631483078,0.1313321590423584,-0.09956810623407364
1783153032416640800,11.721640869140625,0.29748260974884033,0.12216944992542267,-0.10995250940322876
1783153032426351400,11.731351318359375,0.3255815804004669,0.1056765764951706,-0.12033691257238388
1783153032436062000,11.74106201171875,0.342074453830719,0.11972606182098389,-0.1301104724407196
1783153032445772500,11.7507724609375,0.3573456406593323,0.16065283119678497,-0.14660334587097168
1783153032455483000,11.76048291015625,0.3762819170951843,0.21623992919921875,-0.15943112969398499
1783153032465193500,11.770193359375,0.39643988013267517,0.29503923654556274,-0.16492876410484314
1783153032474904000,11.779904052734375,0.4282039403915405,0.3836120665073395,-0.16309621930122375
1783153032484614700,11.78961474609375,0.4709632396697998,0.48073679208755493,-0.14110571146011353
1783153032494325200,11.7993251953125,0.5118899941444397,0.5796940326690674,-0.10873081535100937
1783153032504035800,11.809035888671875,0.5558710098266602,0.7116370797157288,-0.12216944992542267
1783153032513746400,11.818746337890625,0.5900784730911255,0.9083298444747925,-0.18569757044315338
1783153032523457000,11.82845703125,0.6438329815864563,1.2229162454605103,-0.2345653474330902
1783153032533167600,11.838167724609375,0.7116370797157288,1.5143667459487915,-0.183865025639534
1783153032542878200,11.847878173828125,0.7409577369689941,1.412966012954712,0.010995250195264816
1783153032552588800,11.8575888671875,0.6578825116157532,0.9339854717254639,0.24678228795528412
1783153032562299400,11.86729931640625,0.390942245721817,0.5821374654769897,0.6120689511299133
1783153032572010000,11.877010009765625,0.0036650835536420345,-0.1850867122411728,0.8179244995117188
1783153032591431000,11.896430908203126,-0.04581354558467865,-0.6065713167190552,0.7562289237976074
1783153032601141500,11.9061416015625,0.16615045070648193,-0.2644968628883362,0.39949411153793335
1783153032610852000,11.91585205078125,0.4178195297718048,0.3292466700077057,0.024433890357613564
1783153032620562700,11.925562744140626,0.6016845703125,0.8600729703903198,-0.27976804971694946
1783153032630273300,11.935273193359375,0.6572716236114502,1.299272060394287,-0.444085955619812
1783153032639983900,11.94498388671875,0.6053496599197388,1.5510175228118896,-0.42881476879119873
