time,seconds_elapsed,z,y,x
1783153020938781700,0.24378173828125,0.010918894782662392,0.7676059603691101,-0.23273280262947083
1783153020977623800,0.282623779296875,0.120871402323246,1.107847809791565,0.4220954477787018
1783153020987334100,0.292334228515625,0.15385715663433075,0.9270370602607727,0.569309651851654
1783153020997044700,0.302044677734375,0.18317782878875732,0.7120188474655151,0.6731536984443665
1783153021006755300,0.31175537109375,0.20516832172870636,0.5165477395057678,0.7018635272979736
1783153021016466000,0.3214658203125,0.23021306097507477,0.387658953666687,0.675597071647644
1783153021026176300,0.33117626953125,0.24609509110450745,0.30275118350982666,0.582748293876648
1783153021035886800,0.340886962890625,0.2638096511363983,0.2477749139070511,0.4227063059806824
1783153021045597400,0.350597412109375,0.2895416021347046,0.231282040476799,0.22967857122421265
1783153021055307800,0.360307861328125,0.31031039357185364,0.23800136148929596,0.04092676565051079
1783153021065018400,0.370018310546875,0.3170297145843506,0.23983390629291534,-0.13621893525123596
1783153021074729000,0.37972900390625,0.31947311758995056,0.21601086854934692,-0.284654825925827
1783153021084439300,0.389439208984375,0.32313820719718933,0.18546849489212036,-0.40071579813957214
1783153021094150000,0.39914990234375,0.34940463304519653,0.1555369794368744,-0.4862344264984131
1783153021103860500,0.408860595703125,0.40071579813957214,0.10292776674032211,-0.5289937257766724
1783153021113571000,0.418571044921875,0.474017471075058,0.06322269141674042,-0.5430431962013245
1783153021123281400,0.428281494140625,0.4337015450000763,0.0778830274939537,-0.46668729186058044
1783153021132992000,0.437991943359375,0.41354358196258545,0.18913358449935913,-0.2907632887363434
1783153021142702600,0.44770263671875,0.23082390427589417,0.2618243992328644,-0.1973036676645279
1783153021152413000,0.457412841796875,0.24304085969924927,0.18485765159130096,-0.16737215220928192
1783153021162123500,0.46712353515625,0.2919849753379822,0.31618982553482056,-0.19913621246814728
1783153021171834000,0.476834228515625,0.2901524603366852,0.5898494124412537,-0.21623992919921875
1783153021181544400,0.48654443359375,0.1874537467956543,0.7028561234474182,-0.24067382514476776
1783153021191255000,0.496255126953125,0.13003410398960114,0.8164737224578857,-0.2730487287044525
1783153021200965600,0.505965576171875,0.12514732778072357,0.8690065741539001,-0.3133646547794342
1783153021210676200,0.51567626953125,0.22288289666175842,0.9056574106216431,-0.3646758198738098
1783153021220386600,0.525386474609375,0.35917818546295166,0.8433510065078735,-0.38849884271621704
1783153021230097200,0.53509716796875,0.46851983666419983,0.7101863026618958,-0.37567105889320374
1783153021239807700,0.544807861328125,0.5369347333908081,0.5232670307159424,-0.31886225938796997
1783153021249518000,0.55451806640625,0.578472375869751,0.338791161775589,-0.23334364593029022
1783153021259228700,0.564228759765625,0.5858024954795837,0.17630578577518463,-0.1557660549879074
1783153021268939300,0.573939208984375,0.5803049206733704,0.06444438546895981,-0.09345962852239609
1783153021278649900,0.58364990234375,0.5686988234519958,0.014965757727622986,-0.04581354558467865
1783153021288360200,0.593360107421875,0.5399889945983887,-0.005803049076348543,-0.02993151545524597
1783153021298070800,0.60307080078125,0.4953971207141876,-0.018019994720816612,-0.04947862774133682
1783153021307781400,0.612781494140625,0.4453076422214508,-0.0198525357991457,-0.09651386737823486
1783153021317492000,0.622491943359375,0.4062134325504303,-0.00030542362947016954,-0.16859383881092072
1783153021327202300,0.632202392578125,0.3799470067024231,0.03695625811815262,-0.2602209448814392
1783153021336913000,0.641912841796875,0.3658975064754486,0.10231691598892212,-0.33474430441856384
1783153021346623200,0.651623291015625,0.3646758198738098,0.1934095174074173,-0.37322768568992615
1783153021356333800,0.661333740234375,0.37078428268432617,0.27709558606147766,-0.36223241686820984
1783153021366044400,0.67104443359375,0.35917818546295166,0.32901760935783386,-0.312142938375473
1783153021375755000,0.680755126953125,0.3310792148113251,0.3265742063522339,-0.22723518311977386
1783153021385465300,0.69046533203125,0.3017585575580597,0.28137150406837463,-0.12400199472904205
1783153021395176000,0.700176025390625,0.28343313932418823,0.25327253341674805,-0.008551862090826035
1783153021404886500,0.709886474609375,0.27052897214889526,0.2587701678276062,0.11911521852016449
1783153021414597000,0.71959716796875,0.2650313675403595,0.2612135708332062,0.2522799074649811
1783153021424307500,0.729307373046875,0.2680855989456177,0.22578442096710205,0.37078428268432617
1783153021434018000,0.73901806640625,0.28160059452056885,0.17813833057880402,0.46241137385368347
1783153021443728600,0.748728759765625,0.31886225938796997,0.14080029726028442,0.5265503525733948
1783153021453439000,0.75843896484375,0.3762819170951843,0.11942064017057419,0.5803049206733704
1783153021463149600,0.768149658203125,0.4355340898036957,0.09498675167560577,0.6267293095588684
1783153021472860200,0.777860107421875,0.4844018816947937,0.055892523378133774,0.6768187880516052
1783153021482570800,0.78757080078125,0.5234960913658142,0.03145863488316536,0.7458444833755493
1783153021492281000,0.797281005859375,0.5662553906440735,0.05344913527369499,0.8545753359794617
1783153021501991700,0.80699169921875,0.6218425035476685,0.0778830274939537,0.9590302109718323
1783153021511702300,0.816702392578125,0.6713211536407471,0.027182703837752342,1.0048437118530273
1783153021521412600,0.82641259765625,0.6988092660903931,-0.0522274412214756,0.975523054599762
1783153021531123200,0.836123291015625,0.6945333480834961,-0.06994201242923737,0.8863393664360046
1783153021540833800,0.845833740234375,0.6627692580223083,-0.02351761981844902,0.7855495810508728
1783153021550544400,0.85554443359375,0.6022953987121582,0.0650552362203598,0.6963658928871155
1783153021560254700,0.865254638671875,0.5363239049911499,0.16347800195217133,0.5967977643013
1783153021569965300,0.87496533203125,0.4813476502895355,0.23800136148929596,0.46607646346092224
1783153021579676000,0.884676025390625,0.46729815006256104,0.2862583100795746,0.3029802441596985
1783153021589386200,0.89438623046875,0.5021164417266846,0.29175591468811035,0.13438639044761658
1783153021599096800,0.904096923828125,0.5540384650230408,0.23922306299209595,-0.03665083646774292
1783153021608807400,0.913807373046875,0.5943543910980225,0.1689756214618683,-0.18997350335121155
1783153021618518000,0.92351806640625,0.5900784730911255,0.08643488585948944,-0.3243598937988281
1783153021628228400,0.933228271484375,0.5405998229980469,-0.002748812548816204,-0.4428642690181732
1783153021637939000,0.94293896484375,0.4868452548980713,-0.05528167635202408,-0.5351021885871887
1783153021647649500,0.9526494140625,0.43981003761291504,-0.06444438546895981,-0.5986303091049194
1783153021657360000,0.96235986328125,0.4062134325504303,0.008857285603880882,-0.6114581227302551
1783153021667070500,0.972070556640625,0.37689274549484253,0.1555369794368744,-0.555260181427002
1783153021676781000,0.981781005859375,0.33352261781692505,0.3265742063522339,-0.4428642690181732
1783153021686491600,0.99149169921875,0.288930743932724,0.46401485800743103,-0.2987042963504791
1783153021696202000,1.001201904296875,0.2399866133928299,0.5373165011405945,-0.1301104724407196
1783153021705912600,1.01091259765625,0.20211409032344818,0.5293754935264587,0.034818295389413834
1783153021715623200,1.020623046875,0.1727934181690216,0.4689016342163086,0.19241689145565033
1783153021725333500,1.03033349609375,0.14530529081821442,0.38399386405944824,0.30908870697021484
1783153021735044000,1.040044189453125,0.12820157408714294,0.2874799966812134,0.3658975064754486
1783153021744754700,1.049754638671875,0.12575818598270416,0.20135052502155304,0.36223241686820984
1783153021754465300,1.05946533203125,0.13003410398960114,0.14141114056110382,0.3023693859577179
1783153021764175600,1.069175537109375,0.13675342500209808,0.12369657307863235,0.2089097648859024
1783153021773886200,1.07888623046875,0.13858596980571747,0.15187190473079681,0.09345962852239609
1783153021783596800,1.0885966796875,0.1343100368976593,0.22334103286266327,-0.053143709897994995
1783153021793307400,1.098307373046875,0.1343100368976593,0.3473430275917053,-0.20768806338310242
1783153021803017700,1.108017822265625,0.1471378356218338,0.48967042565345764,-0.3402419090270996
1783153021812728300,1.117728271484375,0.16485241055488586,0.5941253304481506,-0.4367557764053345
1783153021822439000,1.12743896484375,0.1868429034948349,0.6362738013267517,-0.4825693368911743
1783153021832149200,1.137149169921875,0.2008923888206482,0.627721905708313,-0.47768256068229675
1783153021841859800,1.14685986328125,0.21555273234844208,0.6038988828659058,-0.43919917941093445
1783153021851570400,1.1565703125,0.23693238198757172,0.6081748008728027,-0.38727715611457825
1783153021861281000,1.166281005859375,0.25647950172424316,0.6460473537445068,-0.33413344621658325
1783153021870991400,1.175991455078125,0.2895416021347046,0.6973584890365601,-0.27121618390083313
1783153021880702000,1.185701904296875,0.3396310806274414,0.7456154227256775,-0.20341213047504425
1783153021890412500,1.19541259765625,0.38544461131095886,0.7535564303398132,-0.15454435348510742
1783153021900123000,1.205122802734375,0.41048935055732727,0.7132405042648315,-0.14049486815929413
1783153021909833500,1.21483349609375,0.420873761177063,0.646658182144165,-0.14110571146011353
1783153021919544000,1.2245439453125,0.4178195297718048,0.5788541436195374,-0.1453816443681717
1783153021929254700,1.234254638671875,0.395218163728714,0.5269321203231812,-0.1575985997915268
1783153021938965000,1.243965087890625,0.35795649886131287,0.48905959725379944,-0.1820324808359146
1783153021948675600,1.253675537109375,0.32130566239356995,0.48722705245018005,-0.22479179501533508
1783153021958386200,1.26338623046875,0.30725616216659546,0.5159368515014648,-0.2632751762866974
1783153021968096800,1.2730966796875,0.312142938375473,0.5562527775764465,-0.2919849753379822
1783153021977807000,1.28280712890625,0.33535513281822205,0.5867951512336731,-0.3139754831790924
1783153021987517700,1.292517578125,0.3646758198738098,0.6179483532905579,-0.3396310806274414
1783153021997228300,1.302228271484375,0.38544461131095886,0.6570425629615784,-0.3689517378807068
1783153022006938600,1.311938720703125,0.38483378291130066,0.7132405042648315,-0.41232189536094666
1783153022016649200,1.321649169921875,0.36223241686820984,0.7456154227256775,-0.4599680006504059
1783153022026359800,1.33135986328125,0.3512371778488159,0.7779903411865234,-0.4862344264984131
1783153022036070400,1.3410703125,0.3561239540576935,0.8134194612503052,-0.4727957844734192
1783153022045780700,1.35078076171875,0.3775036036968231,0.8384642004966736,-0.4489727318286896
1783153022055491300,1.3604912109375,0.390942245721817,0.8457943797111511,-0.44103172421455383
1783153022065202000,1.370201904296875,0.393385648727417,0.8653414845466614,-0.42392799258232117
1783153022074912300,1.379912353515625,0.41110020875930786,0.9007706642150879,-0.3799470067024231
1783153022084622800,1.389622802734375,0.4434750974178314,0.9160417914390564,-0.3115321099758148
1783153022094333400,1.39933349609375,0.4837910234928131,0.9044356942176819,-0.23212195932865143
1783153022104044000,1.4090439453125,0.5338805317878723,0.8751150369644165,-0.1429382562637329
1783153022113754400,1.41875439453125,0.5748072862625122,0.8647306561470032,-0.04703523963689804
1783153022123465000,1.42846484375,0.5937435626983643,0.863508939743042,0.05131116881966591
1783153022133175600,1.438175537109375,0.5839699506759644,0.8476269245147705,0.13744063675403595
1783153022142886000,1.447885986328125,0.5662553906440735,0.8354099988937378,0.1966928243637085
1783153022152596500,1.457596435546875,0.5564818382263184,0.8464052081108093,0.21257483959197998
1783153022162307000,1.46730712890625,0.5570927262306213,0.8812234997749329,0.18081079423427582
1783153022172017700,1.477017578125,0.5558710098266602,0.9209285974502563,0.12583453953266144
1783153022181728000,1.48672802734375,0.5369347333908081,0.9197068810462952,0.08735115826129913
1783153022191438600,1.4964384765625,0.5100574493408203,0.8928295969963074,0.05070032179355621
1783153022201149200,1.506149169921875,0.4868452548980713,0.8531245589256287,0.0036650835536420345
1783153022210859800,1.51585986328125,0.47951510548591614,0.7963157296180725,-0.0525328628718853
1783153022220570000,1.525570068359375,0.47890424728393555,0.7584432363510132,-0.1172826737165451
1783153022230280700,1.53528076171875,0.4831801950931549,0.7431720495223999,-0.1692046970129013
1783153022239991300,1.5449912109375,0.4831801950931549,0.7175164818763733,-0.22051586210727692
1783153022249701600,1.55470166015625,0.4734066128730774,0.6906391978263855,-0.28160059452056885
1783153022259412200,1.564412109375,0.4569137394428253,0.7211815714836121,-0.3255815804004669
1783153022269122800,1.574122802734375,0.444085955619812,0.8097543716430664,-0.3396310806274414
1783153022278833400,1.58383349609375,0.4355340898036957,0.8977164030075073,-0.31092125177383423
1783153022288543700,1.593543701171875,0.4367557764053345,0.9471950531005859,-0.2651077210903168
1783153022298254300,1.60325439453125,0.45141613483428955,0.9471950531005859,-0.19974705576896667
1783153022307965000,1.61296484375,0.4691306948661804,0.91482013463974,-0.12033691257238388
1783153022317675300,1.62267529296875,0.497229665517807,0.8512920141220093,-0.028098974376916885
1783153022327385900,1.6323857421875,0.5192201733589172,0.7559998631477356,0.05131116881966591
1783153022337096400,1.642096435546875,0.5381564497947693,0.6521558165550232,0.10811996459960938
1783153022346807000,1.65180712890625,0.5589252710342407,0.5550310611724854,0.1178935244679451
1783153022356517400,1.661517333984375,0.5723638534545898,0.48967042565345764,0.08002099394798279
1783153022366228000,1.67122802734375,0.5723638534545898,0.4957789182662964,-0.0012216945178806782
1783153022375938600,1.6809384765625,0.5632011890411377,0.5696914196014404,-0.10873081535100937
1783153022385649200,1.690649169921875,0.5577035546302795,0.6759788393974304,-0.21562908589839935
1783153022395359500,1.700359375,0.5583143830299377,0.7822662591934204,-0.3005368411540985
1783153022405070000,1.710070068359375,0.5699204802513123,0.8525137305259705,-0.3426853120326996
1783153022414780700,1.71978076171875,0.5833591222763062,0.8842777609825134,-0.34512871503829956
1783153022424491000,1.729490966796875,0.5961869359016418,0.8732824921607971,-0.3029802441596985
1783153022434201600,1.73920166015625,0.6053496599197388,0.8262472748756409,-0.21623992919921875
1783153022443912200,1.748912109375,0.6096255779266357,0.7663842439651489,-0.10934165865182877
1783153022453622800,1.758622802734375,0.6126797795295715,0.7004127502441406,0.006719320081174374
1783153022463333400,1.76833349609375,0.6200099587440491,0.6497124433517456,0.10628741979598999
1783153022473043700,1.778043701171875,0.6218425035476685,0.6210026144981384,0.18814095854759216
1783153022482754300,1.78775439453125,0.6145123243331909,0.6069530844688416,0.2345653474330902
1783153022492465000,1.79746484375,0.6126797795295715,0.5965687036514282,0.24006296694278717
1783153022502175200,1.80717529296875,0.6053496599197388,0.5941253304481506,0.20768806338310242
1783153022511885800,1.8168857421875,0.5992411375045776,0.5965687036514282,0.15332266688346863
1783153022521596400,1.826596435546875,0.5796940326690674,0.5898494124412537,0.08674030750989914
1783153022531307000,1.83630712890625,0.5583143830299377,0.5709131360054016,0.011606098152697086
1783153022541017300,1.846017333984375,0.5351021885871887,0.5379273891448975,-0.07207997888326645
1783153022550728000,1.85572802734375,0.5051707029342651,0.5018873810768127,-0.1692046970129013
1783153022560438500,1.8654384765625,0.48012593388557434,0.4676799178123474,-0.2644968628883362
1783153022570148900,1.87514892578125,0.46241137385368347,0.45057621598243713,-0.3384093940258026
1783153022579859500,1.884859375,0.44042086601257324,0.4463002681732178,-0.3903313875198364
1783153022589570000,1.894570068359375,0.42331716418266296,0.46034976840019226,-0.4220954477787018
1783153022599280600,1.90428076171875,0.40254834294319153,0.4713450074195862,-0.4282039403915405
1783153022608991000,1.913990966796875,0.3836120665073395,0.4664582312107086,-0.41537612676620483
1783153022618701600,1.92370166015625,0.3640649616718292,0.46096062660217285,-0.3836120665073395
1783153022628412200,1.933412109375,0.3555130958557129,0.46096062660217285,-0.3408527672290802
1783153022638122800,1.943122802734375,0.36101073026657104,0.46034976840019226,-0.28037887811660767
1783153022647833000,1.9528330078125,0.37689274549484253,0.45912808179855347,-0.22540263831615448
1783153022657543700,1.962543701171875,0.40254834294319153,0.44813281297683716,-0.1698155403137207
1783153022667254300,1.972254150390625,0.4337015450000763,0.4285857081413269,-0.12888877093791962
1783153022676964600,1.981964599609375,0.46607646346092224,0.42064470052719116,-0.09895725548267365
1783153022686675200,1.99167529296875,0.499673068523407,0.4322507977485657,-0.07696675509214401
1783153022696385800,2.0013857421875,0.53143709897995,0.445078581571579,-0.06169557198882103
1783153022706096400,2.011096435546875,0.5668662786483765,0.4517979025840759,-0.06413896381855011
1783153022715806700,2.020806640625,0.6053496599197388,0.45118704438209534,-0.09468132257461548
1783153022725517300,2.030517333984375,0.6474980711936951,0.46279314160346985,-0.13682979345321655
1783153022735228000,2.040227783203125,0.7043069005012512,0.44874367117881775,-0.17653486132621765
1783153022744938500,2.0499384765625,0.762948215007782,0.4463002681732178,-0.21196399629116058
1783153022754648800,2.05964892578125,0.8215895891189575,0.470734179019928,-0.24128466844558716
1783153022764359400,2.069359375,0.8637380003929138,0.5312080383300781,-0.27060532569885254
1783153022774070000,2.079070068359375,0.897334635257721,0.5751890540122986,-0.32313820719718933
1783153022783780600,2.088780517578125,0.9303203821182251,0.6216134428977966,-0.3799470067024231
1783153022793491000,2.098490966796875,0.9345963001251221,0.6631510257720947,-0.43736663460731506
1783153022803201500,2.108201416015625,0.916270911693573,0.6765896677970886,-0.47768256068229675
1783153022812912000,2.117912109375,0.8906152844429016,0.6881957650184631,-0.49417543411254883
1783153022822622500,2.12762255859375,0.8557969927787781,0.7077429294586182,-0.4868452548980713
1783153022832333000,2.1373330078125,0.8289197087287903,0.6936933994293213,-0.47646087408065796
1783153022842043600,2.147043701171875,0.8069292306900024,0.6283327341079712,-0.4709632396697998
1783153022851754200,2.156754150390625,0.7971556782722473,0.3803287744522095,-0.4349232614040375
1783153022861464600,2.166464599609375,0.6310052275657654,0.445078581571579,-0.4330907166004181
1783153022871175200,2.176175048828125,0.5570927262306213,0.5800758004188538,-0.45508119463920593
1783153022880885800,2.1858857421875,0.660936713218689,0.43469417095184326,-0.42392799258232117
1783153022890596000,2.19559619140625,0.7036960124969482,0.42614230513572693,-0.4037700295448303
1783153022900306700,2.205306640625,0.6994200944900513,0.6564317345619202,-0.390942245721817
1783153022910017300,2.215017333984375,0.7660024762153625,0.6943042874336243,-0.33291175961494446
1783153022919727900,2.224727783203125,0.7947123050689697,0.7181273102760315,-0.2510582208633423
1783153022929438200,2.234438232421875,0.8154810667037964,0.7101863026618958,-0.14904673397541046
1783153022939148800,2.244148681640625,0.8356390595436096,0.7028561234474182,-0.04703523963689804
1783153022948859400,2.253859375,0.8435800671577454,0.7169055938720703,0.03420744836330414
1783153022958570000,2.263570068359375,0.8509102463722229,0.7242357730865479,0.0922379344701767
1783153022968280300,2.2732802734375,0.8600729703903198,0.70224529504776,0.13744063675403595
1783153022977991000,2.282990966796875,0.8704573512077332,0.6228351593017578,0.1850867122411728
1783153022987701500,2.292701416015625,0.8863393664360046,0.5379273891448975,0.24006296694278717
1783153022997412000,2.302412109375,0.9174925684928894,0.4572955369949341,0.29565006494522095
1783153023007122400,2.312122314453125,0.9578084945678711,0.3375694751739502,0.3249707520008087
1783153023016833000,2.3218330078125,0.975523054599762,0.28137150406837463,0.3268032968044281
1783153023026543600,2.331543701171875,1.0317209959030151,0.2184542566537857,0.32252734899520874
1783153023036254200,2.341254150390625,1.0628741979599,0.14080029726028442,0.3054236173629761
1783153023045964500,2.350964599609375,1.0738694667816162,0.08765657991170883,0.25655585527420044
1783153023055675100,2.360675048828125,1.0274450778961182,0.154926136136055,0.12705622613430023
1783153023065385700,2.3703857421875,0.9822424054145813,0.24227729439735413,-0.0397050715982914
1783153023075096000,2.380095947265625,0.9462023973464966,0.35406234860420227,-0.21257483959197998
1783153023084806700,2.389806640625,0.9211576581001282,0.48844873905181885,-0.36162158846855164
1783153023094517200,2.399517333984375,0.9016105532646179,0.6081748008728027,-0.46485477685928345
1783153023104227800,2.409227783203125,0.888171911239624,0.7187381386756897,-0.5118899941444397
1783153023113938400,2.4189384765625,0.8826742768287659,0.827468991279602,-0.497229665517807
1783153023123648800,2.428648681640625,0.8710681796073914,0.9215394258499146,-0.4446968138217926
1783153023133359400,2.438359375,0.8527427911758423,0.988732635974884,-0.37078428268432617
1783153023143070000,2.448070068359375,0.837471604347229,1.025383472442627,-0.29748260974884033
1783153023152780300,2.4577802734375,0.8405258059501648,1.0284377336502075,-0.22784602642059326
1783153023162491000,2.467490966796875,0.8472451567649841,1.0027821063995361,-0.1575985997915268
1783153023172201500,2.477201416015625,0.869846522808075,0.9581902623176575,-0.08857285231351852
1783153023181912000,2.486912109375,0.888171911239624,0.8928295969963074,-0.023823043331503868
1783153023191622400,2.496622314453125,0.8948912620544434,0.8140303492546082,0.02870982140302658
1783153023201333000,2.5063330078125,0.888171911239624,0.7364526987075806,0.05986303091049194
1783153023211043600,2.516043701171875,0.8655705451965332,0.6930825710296631,0.06413896381855011
1783153023220754000,2.52575390625,0.8313631415367126,0.7010235786437988,0.056808795779943466
1783153023230464500,2.535464599609375,0.7971556782722473,0.734009325504303,0.03298575058579445
1783153023240175000,2.545175048828125,0.7653915882110596,0.7706601619720459,0.006108472589403391
1783153023249885700,2.5548857421875,0.7372926473617554,0.804256796836853,-0.021990500390529633
1783153023259596000,2.564595947265625,0.7098045349121094,0.8305231928825378,-0.04886778071522713
1783153023269306600,2.574306640625,0.6762079000473022,0.8653414845466614,-0.07635590434074402
1783153023279017200,2.584017333984375,0.6426113247871399,0.886721134185791,-0.08979454636573792
1783153023288727800,2.593727783203125,0.6187883019447327,0.9050465822219849,-0.0910162404179573
1783153023298438100,2.603438232421875,0.5955760478973389,0.9184852242469788,-0.08368607610464096
1783153023308148700,2.613148681640625,0.5760289430618286,0.9215394258499146,-0.05925218388438225
1783153023317859300,2.622859375,0.5601469278335571,0.8940513134002686,-0.03237490355968475
1783153023327570000,2.63256982421875,0.5424323678016663,0.8445726633071899,-0.015271181240677834
1783153023337280300,2.6422802734375,0.5289937257766724,0.7950940728187561,-0.013438640162348747
1783153023346990800,2.651990966796875,0.5112791657447815,0.7773795127868652,-0.017714571207761765
1783153023356701400,2.661701416015625,0.5002838969230652,0.7834879755973816,-0.02076880633831024
1783153023366411800,2.671411865234375,0.49295374751091003,0.7755469679832458,-0.034818295389413834
1783153023376122400,2.681122314453125,0.4953971207141876,0.7437828779220581,-0.0647498071193695
1783153023385833000,2.6908330078125,0.4978405237197876,0.7046886682510376,-0.10323318839073181
1783153023395543600,2.70054345703125,0.5100574493408203,0.6698703765869141,-0.14904673397541046
1783153023405254000,2.71025390625,0.5173876285552979,0.6368846297264099,-0.19241689145565033
1783153023414964500,2.719964599609375,0.518609344959259,0.6112290620803833,-0.22540263831615448
1783153023424675000,2.729675048828125,0.5051707029342651,0.5843517780303955,-0.24250635504722595
1783153023434385700,2.7393857421875,0.47829338908195496,0.553809404373169,-0.25533416867256165
1783153023444096000,2.749095947265625,0.4477510452270508,0.5043307542800903,-0.2626643180847168
1783153023453806600,2.758806640625,0.42392799258232117,0.4658474028110504,-0.2583884000778198
1783153023463517200,2.76851708984375,0.40193748474121094,0.4426352083683014,-0.24250635504722595
1783153023473227800,2.778227783203125,0.3787252902984619,0.42308807373046875,-0.21990501880645752
1783153023482938000,2.787938232421875,0.3573456406593323,0.4017084240913391,-0.18630841374397278
1783153023492648700,2.797648681640625,0.3439069986343384,0.3766636848449707,-0.1582094430923462
1783153023502359300,2.807359375,0.33718767762184143,0.34245625138282776,-0.13560809195041656
1783153023512070000,2.81706982421875,0.3274141252040863,0.32046574354171753,-0.11178504675626755
1783153023521780200,2.8267802734375,0.32191649079322815,0.30580541491508484,-0.09590301662683487
1783153023531490800,2.83649072265625,0.3158080279827118,0.29297763109207153,-0.07757759839296341
1783153023541201400,2.846201416015625,0.30908870697021484,0.283204048871994,-0.05619794875383377
1783153023550911700,2.855911865234375,0.30908870697021484,0.26732203364372253,-0.03298575058579445
1783153023560622300,2.865622314453125,0.3005368411540985,0.24288813769817352,-0.004275931045413017
1783153023570333000,2.8753330078125,0.2858765125274658,0.25143998861312866,0.03237490355968475
1783153023580043500,2.88504345703125,0.253425270318985,0.285647451877594,0.07391251623630524
1783153023589753900,2.89475390625,0.20639002323150635,0.3222982883453369,0.11422843486070633
1783153023599464400,2.90446435546875,0.1593547761440277,0.34612134099006653,0.14782503247261047
1783153023609175000,2.914175048828125,0.11048699915409088,0.3516189455986023,0.17348061501979828
1783153023618885600,2.9238857421875,0.05856497958302498,0.338791161775589,0.1973036676645279
1783153023628596000,2.933595947265625,0.018249060958623886,0.30214032530784607,0.2089097648859024
1783153023638306600,2.943306640625,-0.015958385542035103,0.2606027126312256,0.22601348161697388
1783153023648017200,2.95301708984375,-0.045889899134635925,0.23433628678321838,0.24311721324920654
1783153023657727700,2.962727783203125,-0.06726955622434616,0.22944949567317963,0.2626643180847168
1783153023667438000,2.97243798828125,-0.08376242965459824,0.23494713008403778,0.2730487287044525
1783153023677148700,2.982148681640625,-0.09536852687597275,0.23677967488765717,0.2736595869064331
1783153023686859300,2.991859375,-0.09353598952293396,0.24838577210903168,0.27976804971694946
1783153023696569900,3.00156982421875,-0.09109259396791458,0.3216874301433563,0.29442837834358215
1783153023706280200,3.0112802734375,-0.10941801220178604,0.45118704438209534,0.32374903559684753
1783153023715990800,3.02099072265625,-0.14606885612010956,0.5568636059761047,0.3640649616718292
1783153023725701400,3.030701416015625,-0.1668376624584198,0.5812975168228149,0.39643988013267517
1783153023735412000,3.040411865234375,-0.17661121487617493,0.4817294180393219,0.4037700295448303
1783153023745122300,3.050122314453125,-0.1680593490600586,0.2746522128582001,0.3781144618988037
1783153023754833000,3.0598330078125,-0.15156647562980652,-0.010689826682209969,0.32008397579193115
1783153023764543500,3.06954345703125,-0.13263021409511566,-0.2898470163345337,0.24311721324920654
1783153023774253800,3.07925390625,-0.13568444550037384,-0.48043137788772583,0.16004198789596558
1783153023783964400,3.08896435546875,-0.14362546801567078,-0.5268557667732239,0.06352811306715012
1783153023793675000,3.098675048828125,-0.14484715461730957,-0.45294323563575745,-0.029320668429136276
1783153023803385600,3.108385498046875,-0.14912308752536774,-0.28190600872039795,-0.11117420345544815
1783153023813096200,3.11809619140625,-0.16439427435398102,-0.09987352788448334,-0.17470231652259827
1783153023822806500,3.127806640625,-0.19921256601810455,0.059557609260082245,-0.22051586210727692
1783153023832517000,3.13751708984375,-0.2450261116027832,0.1805817186832428,-0.24617144465446472
1783153023842227700,3.147227783203125,-0.2828986346721649,0.22334103286266327,-0.2473931461572647
1783153023851938000,3.15693798828125,-0.30244573950767517,0.17752748727798462,-0.24556060135364532
1783153023861648600,3.166648681640625,-0.3122192919254303,0.08948912471532822,-0.237008735537529
1783153023871359200,3.176359130859375,-0.299391508102417,0.011300674639642239,-0.22051586210727692
1783153023881069800,3.18606982421875,-0.2688491642475128,-0.018630841746926308,-0.1979145109653473
1783153023890780200,3.1957802734375,-0.23525254428386688,-0.01435491070151329,-0.16065283119678497
1783153023900490800,3.20549072265625,-0.20104511082172394,0.018019994720816612,-0.1056765764951706
1783153023910201300,3.215201416015625,-0.16011834144592285,0.03695625811815262,-0.05070032179355621
1783153023919912000,3.224911865234375,-0.10269869863986969,-0.003970507066696882,-0.01710372418165207
1783153023929622300,3.234622314453125,-0.03245126083493233,-0.11270131915807724,-0.010995250195264816
1783153023939332900,3.244332763671875,0.04023956134915352,-0.2623589038848877,-0.04459185153245926
1783153023949043500,3.25404345703125,0.10682191699743271,-0.4059080183506012,-0.10078980028629303
1783153023958754000,3.263754150390625,0.14958122372627258,-0.4999784827232361,-0.16737215220928192
1783153023968464400,3.27346435546875,0.1740151196718216,-0.5567872524261475,-0.23028941452503204
1783153023978175000,3.283175048828125,0.1868429034948349,-0.587329626083374,-0.2858765125274658
1783153023987885600,3.292885498046875,0.1990598440170288,-0.5946598052978516,-0.3292466700077057
1783153023997596000,3.302595947265625,0.20333577692508698,-0.5971031785011292,-0.35795649886131287
1783153024007306500,3.312306396484375,0.2015032321214676,-0.5812211632728577,-0.37200596928596497
1783153024017017000,3.32201708984375,0.19356222450733185,-0.5500679612159729,-0.37200596928596497
1783153024026727700,3.331727783203125,0.17890189588069916,-0.5335750579833984,-0.36223241686820984
1783153024036438300,3.341438232421875,0.14469444751739502,-0.5586197972297668,-0.3542914092540741
1783153024046148600,3.351148681640625,0.08483141660690308,-0.6209262609481812,-0.3555130958557129
1783153024055859200,3.360859130859375,0.015805672854185104,-0.697892963886261,-0.3640649616718292
1783153024065569800,3.37056982421875,-0.10758547484874725,-0.9935430884361267,-0.48073679208755493
1783153024075280100,3.380280029296875,-0.42156097292900085,-1.4315205812454224,-0.7488987445831299
1783153024084990700,3.38999072265625,-0.3470376133918762,-1.4254120588302612,-0.8631271719932556
1783153024094701300,3.399701416015625,-0.17661121487617493,-1.391815423965454,-0.9658258557319641
1783153024104412000,3.409411865234375,-0.03978142887353897,-1.3850961923599243,-1.0727241039276123
1783153024114122200,3.419122314453125,-0.05444176122546196,-1.3704358339309692,-1.132587194442749
1783153024123832800,3.428832763671875,-0.15767495334148407,-1.258039951324463,-1.1020448207855225
1783153024133543400,3.43854345703125,-0.3000023663043976,-1.0466867685317993,-0.9701017737388611
1783153024143254000,3.44825390625,-0.4576009511947632,-0.9141329526901245,-0.837471604347229
1783153024152964400,3.45796435546875,-0.581602931022644,-0.8335011005401611,-0.7171346545219421
1783153024162675000,3.467675048828125,-0.6750625967979431,-0.7223268747329712,-0.5766398310661316
1783153024172385500,3.477385498046875,-0.8118923902511597,-0.8102889060974121,-0.5021164417266846
1783153024182096100,3.48709619140625,-0.9713234901428223,-0.9446752667427063,-0.45324867963790894
1783153024191806500,3.496806396484375,-1.081886887550354,-0.9947647452354431,-0.3958290219306946
1783153024201517000,3.50651708984375,-1.1313655376434326,-1.0363023281097412,-0.35978904366493225
1783153024211227600,3.5162275390625,-1.117926836013794,-1.1114366054534912,-0.37689274549484253
1783153024220938000,3.52593798828125,-1.058674693107605,-1.18046236038208,-0.43858832120895386
1783153024230648600,3.535648681640625,-0.9847621321678162,-1.1627477407455444,-0.5198310017585754
1783153024240359200,3.545359130859375,-0.9450570940971375,-1.0851701498031616,-0.5888567566871643
1783153024250069800,3.55506982421875,-0.9701017737388611,-0.9868237376213074,-0.6536065936088562
1783153024259780400,3.5647802734375,-1.0427926778793335,-0.8616000413894653,-0.7214106321334839
1783153024269490700,3.57449072265625,-1.1228135824203491,-0.7284353375434875,-0.7995990514755249
1783153024279201300,3.584201171875,-1.1716814041137695,-0.6270347237586975,-0.8686248064041138
1783153024288912000,3.593911865234375,-1.151523470878601,-0.5763344168663025,-0.8900044560432434
1783153024298622200,3.603622314453125,-1.0733349323272705,-0.6166502833366394,-0.8472451567649841
1783153024308332800,3.613332763671875,-0.9737668633460999,-0.7571451663970947,-0.7262973785400391
1783153024318043400,3.62304345703125,-0.8913025259971619,-0.9043593406677246,-0.5442649126052856
1783153024327754000,3.63275390625,-0.8534299731254578,-1.00392746925354,-0.31947311758995056
1783153024337464600,3.642464599609375,-0.8693119883537292,-1.1126582622528076,-0.11056335270404816
1783153024347175000,3.6521748046875,-0.9157363772392273,-1.2226108312606812,0.047646086663007736
1783153024356885500,3.661885498046875,-0.9933140277862549,-1.2794195413589478,0.13560809195041656
1783153024366596000,3.67159619140625,-1.1002122163772583,-1.300188422203064,0.1557660549879074
1783153024376306400,3.681306396484375,-1.2071105241775513,-1.2745327949523926,0.11056335270404816
1783153024386017000,3.69101708984375,-1.3048460483551025,-1.1719105243682861,0.02870982140302658
1783153024395727600,3.7007275390625,-1.3799803256988525,-0.9568922519683838,-0.0659715011715889
1783153024405438200,3.710438232421875,-1.419074535369873,-0.6520794630050659,-0.15515519678592682
1783153024415148500,3.7201484375,-1.3921972513198853,-0.31855684518814087,-0.21318569779396057
1783153024424859100,3.729859130859375,-1.3402752876281738,-0.08460234850645065,-0.2596100866794586
1783153024434569700,3.73956982421875,-1.2718603610992432,-0.04062134400010109,-0.2767138183116913
1783153024444280300,3.7492802734375,-1.1985586881637573,-0.14141114056110382,-0.26877278089523315
1783153024453990700,3.75899072265625,-1.1215919256210327,-0.3264978528022766,-0.23028941452503204
1783153024463701200,3.768701171875,-1.062950611114502,-0.5036435723304749,-0.1569877415895462
1783153024473411800,3.778411865234375,-1.0085852146148682,-0.6673506498336792,-0.0781884491443634
1783153024483122400,3.788122314453125,-0.9444462060928345,-0.7797465324401855,-0.0390942245721817
1783153024492832800,3.797832763671875,-0.8711445331573486,-0.8353336453437805,-0.04153761267662048
1783153024502543400,3.80754345703125,-0.8045622110366821,-0.7656970620155334,-0.10262233763933182
1783153024512254000,3.81725390625,-0.7593594789505005,-0.5244123935699463,-0.20096874237060547
1783153024521964500,3.826964599609375,-0.7526401877403259,-0.0784938707947731,-0.3127537965774536
1783153024531675000,3.8366748046875,-0.7795174717903137,0.5189911127090454,-0.4178195297718048
1783153024541385500,3.846385498046875,-0.8045622110366821,1.1133455038070679,-0.503948986530304
1783153024551096000,3.856095947265625,-0.8045622110366821,1.5354409217834473,-0.5748072862625122
1783153024560806700,3.865806640625,-0.7642462849617004,1.6954829692840576,-0.6047387719154358
1783153024570517000,3.87551708984375,-0.6842252612113953,1.6429500579833984,-0.5515950918197632
1783153024580227600,3.8852275390625,-0.5773270130157471,1.4309860467910767,-0.38666632771492004
1783153024589938200,3.894938232421875,-0.4685961902141571,1.0779163837432861,-0.11300674080848694
1783153024599648800,3.904648681640625,-0.35925453901290894,0.6161158084869385,0.23945212364196777
1783153024609359000,3.914359130859375,-0.2602972984313965,0.12430741637945175,0.6548282504081726
1783153024619069700,3.924069580078125,-0.20898611843585968,-0.34787750244140625,1.0628741979599
1783153024628780300,3.9337802734375,-0.21692712604999542,-0.7516475319862366,1.3908991813659668
1783153024638491000,3.943490966796875,-0.26762744784355164,-1.0234745740890503,1.6077499389648438
1783153024648201200,3.953201171875,-0.35497862100601196,-1.138313889503479,1.6908252239227295
1783153024657911800,3.962911865234375,-0.45210331678390503,-1.1419789791107178,1.647455096244812
1783153024667622400,3.972622314453125,-0.5461738109588623,-1.0613471269607544,1.5203988552093506
1783153024677333000,3.9823330078125,-0.6011500358581543,-0.8927532434463501,1.336533784866333
1783153024687043600,3.992043701171875,-0.6005392074584961,-0.6948387622833252,1.1184613704681396
1783153024696754000,4.00175390625,-0.5687751770019531,-0.5274665951728821,0.9003888368606567
1783153024706464500,4.011464599609375,-0.5009710788726807,-0.43645036220550537,0.6872031688690186
1783153024716175000,4.021175048828125,-0.428891122341156,-0.4156815707683563,0.4727957844734192
1783153024725885400,4.030885498046875,-0.3867426812648773,-0.4614951014518738,0.25777754187583923
1783153024735596000,4.040595947265625,-0.378190815448761,-0.5219689607620239,0.04031591862440109
1783153024745306600,4.050306640625,-0.4026246964931488,-0.5360184907913208,-0.16370706260204315
1783153024755017200,4.060017333984375,-0.45943349599838257,-0.49203747510910034,-0.34940463304519653
1783153024764727800,4.069727783203125,-0.5321243405342102,-0.38575005531311035,-0.4960079789161682
1783153024774438100,4.079438232421875,-0.5950415730476379,-0.24036839604377747,-0.577861487865448
1783153024784148700,4.089148681640625,-0.6268056631088257,-0.07482878863811493,-0.5913001298904419
1783153024793859300,4.098859375,-0.6426876783370972,0.0791047215461731,-0.5583143830299377
1783153024803569700,4.108569580078125,-0.6378008723258972,0.20135052502155304,-0.4831801950931549
1783153024813280300,4.1182802734375,-0.590765655040741,0.27831727266311646,-0.3671191930770874
1783153024822990800,4.127990966796875,-0.5058578848838806,0.2593810260295868,-0.23090025782585144
1783153024832701400,4.137701416015625,-0.3891860544681549,0.14942851662635803,-0.09345962852239609
1783153024842411800,4.147411865234375,-0.2596864402294159,-0.005803049076348543,0.038483377546072006
1783153024852122400,4.157122314453125,-0.14912308752536774,-0.16095824539661407,0.16798299551010132
1783153024861833000,4.1668330078125,-0.08192989230155945,-0.26724568009376526,0.26816195249557495
1783153024871543600,4.17654345703125,-0.04100312292575836,-0.32038938999176025,0.3304683566093445
1783153024881254000,4.18625390625,-0.004352286923676729,-0.29839888215065,0.367730051279068
1783153024890964500,4.195964599609375,0.012751436792314053,-0.2110477238893509,0.38727715611457825
1783153024900675000,4.205675048828125,0.006642963737249374,-0.09987352788448334,0.3903313875198364
1783153024910385700,4.2153857421875,-0.0067956759594380856,0.016798298805952072,0.3799470067024231
1783153024920096000,4.225095947265625,-0.011682453565299511,0.12736165523529053,0.37078428268432617
1783153024929806600,4.234806640625,-0.018401773646473885,0.231282040476799,0.36101073026657104
1783153024939517200,4.24451708984375,-0.030007870867848396,0.2960318624973297,0.3506263196468353
1783153024949227800,4.254227783203125,-0.04527905210852623,0.3003077805042267,0.33291175961494446
1783153024958938400,4.2639384765625,-0.056274302303791046,0.2825932204723358,0.3170297145843506
1783153024968648700,4.273648681640625,-0.05993938818573952,0.2850365936756134,0.3005368411540985
1783153024978359300,4.283359375,-0.06360447406768799,0.30641624331474304,0.27854636311531067
1783153024988070000,4.29306982421875,-0.05138752609491348,0.33146098256111145,0.2516690790653229
1783153024997780200,4.3027802734375,-0.031229566782712936,0.3772745430469513,0.22723518311977386
1783153025007490800,4.31249072265625,-0.0037414394319057465,0.44996535778045654,0.22967857122421265
1783153025017201400,4.322201416015625,0.031076854094862938,0.5397599339485168,0.2596100866794586
1783153025026912000,4.331912109375,0.06711684167385101,0.6173375248908997,0.32374903559684753
1783153025036622600,4.34162255859375,0.08666395395994186,0.6808656454086304,0.4300364851951599
1783153025046333000,4.3513330078125,0.06284090876579285,0.7327876687049866,0.5680879354476929
1783153025056043500,4.36104345703125,0.006642963737249374,0.6692595481872559,0.7036960124969482
1783153025065754000,4.370754150390625,-0.03855973482131958,0.4536304473876953,0.7831062078475952
1783153025075464700,4.380464599609375,-0.06665870547294617,0.12675081193447113,0.7800519466400146
1783153025085175000,4.390175048828125,-0.09231429547071457,-0.2348707765340805,0.6670452356338501
1783153025094885600,4.3998857421875,-0.09048175066709518,-0.4859289824962616,0.4703523814678192
1783153025104596200,4.40959619140625,-0.07154548168182373,-0.5464028716087341,0.24433889985084534
1783153025114306800,4.419306884765625,-0.04527905210852623,-0.42362257838249207,0.05803048983216286
1783153025124017200,4.42901708984375,-0.0025197449140250683,-0.168899267911911,-0.05131116881966591
1783153025133727700,4.438727783203125,0.05306735634803772,0.13347013294696808,-0.07391251623630524
1783153025143438300,4.448438232421875,0.1080436110496521,0.3760528564453125,-0.020157959312200546
1783153025153149000,4.45814892578125,0.17645850777626038,0.4835619628429413,0.07635590434074402
1783153025162859500,4.467859619140625,0.255257785320282,0.445078581571579,0.21807247400283813
1783153025172569900,4.47756982421875,0.3023693859577179,0.36017081141471863,0.4159869849681854
1783153025182280400,4.487280517578125,0.29259583353996277,0.2978644073009491,0.6597150564193726
1783153025191991000,4.496990966796875,0.24426254630088806,0.26304611563682556,0.9174925684928894
1783153025201701400,4.506701416015625,0.19050799310207367,0.24105559289455414,1.1270132064819336
1783153025211412000,4.516411865234375,0.1471378356218338,0.18852274119853973,1.2516260147094727
1783153025221122600,4.52612255859375,0.11842801421880722,0.11636640131473541,1.2748382091522217
1783153025230833200,4.535833251953125,0.1086544543504715,0.06810946762561798,1.2082558870315552
1783153025240543700,4.545543701171875,0.09643751382827759,0.030847785994410515,1.0695935487747192
1783153025250254000,4.555254150390625,0.07933378964662552,0.008857285603880882,0.8783983588218689
1783153025259964700,4.564964599609375,0.06772769242525101,0.016187451779842377,0.6688777208328247
1783153025269675300,4.57467529296875,0.06039752438664436,0.05405998229980469,0.4593571424484253
1783153025279385900,4.5843857421875,0.06100837141275406,0.11331216990947723,0.2754921019077301
1783153025289096200,4.59409619140625,0.07017108052968979,0.17080816626548767,0.11178504675626755
1783153025298806800,4.603806884765625,0.09704835712909698,0.2196759432554245,-0.01954711228609085
1783153025308517400,4.613517333984375,0.13919681310653687,0.24899661540985107,-0.11483928561210632
1783153025318228000,4.62322802734375,0.16668494045734406,0.25327253341674805,-0.17958909273147583
1783153025327938300,4.632938232421875,0.17706935107707977,0.25082916021347046,-0.20585553348064423
1783153025337649000,4.64264892578125,0.16607409715652466,0.24227729439735413,-0.19119518995285034
1783153025347359500,4.652359375,0.14102935791015625,0.23922306299209595,-0.14110571146011353
1783153025357070000,4.662070068359375,0.11231953650712967,0.24166645109653473,-0.08307522535324097
1783153025366780400,4.671780517578125,0.09277242422103882,0.25205084681510925,-0.024433890357613564
1783153025376491000,4.681490966796875,0.09643751382827759,0.25082916021347046,0.021379653364419937
1783153025386201600,4.69120166015625,0.11842801421880722,0.2563267946243286,0.05864133685827255
1783153025395912200,4.700912109375,0.1624090075492859,0.26243525743484497,0.08857285231351852
1783153025405622500,4.71062255859375,0.21738526225090027,0.259991854429245,0.10628741979598999
1783153025415333000,4.7203330078125,0.28221142292022705,0.22883865237236023,0.11911521852016449
1783153025425043700,4.730043701171875,0.3555130958557129,0.17202985286712646,0.13316470384597778
1783153025434754300,4.73975439453125,0.4172086715698242,0.10109522193670273,0.16370706260204315
1783153025444464600,4.749464599609375,0.4306473135948181,0.03390202298760414,0.20646637678146362
1783153025454175200,4.75917529296875,0.41232189536094666,-0.003970507066696882,0.25533416867256165
1783153025463885800,4.7688857421875,0.3787252902984619,-0.008857285603880882,0.29442837834358215
1783153025473596400,4.778596435546875,0.33718767762184143,0.016798298805952072,0.314586341381073
1783153025483307000,4.78830712890625,0.3023693859577179,0.04184303805232048,0.30969956517219543
1783153025493017300,4.798017333984375,0.2790808379650116,0.04856235533952713,0.28037887811660767
1783153025502728000,4.80772802734375,0.27419406175613403,0.046729814261198044,0.2339545041322708
1783153025512438500,4.8174384765625,0.2852656841278076,0.049173206090927124,0.18997350335121155
1783153025522149000,4.827149169921875,0.2999260127544403,0.046729814261198044,0.15026842057704926
1783153025531859500,4.836859375,0.30603447556495667,0.04062134400010109,0.12216944992542267
1783153025541570000,4.846570068359375,0.29687178134918213,0.05772506445646286,0.10811996459960938
1783153025551280600,4.85628076171875,0.27113983035087585,0.08765657991170883,0.1050657257437706
1783153025560991200,4.8659912109375,0.23448899388313293,0.12125317752361298,0.11178504675626755
1783153025570701600,4.87570166015625,0.19234053790569305,0.16286714375019073,0.13621893525123596
1783153025580412200,4.885412109375,0.15752223134040833,0.20379391312599182,0.18630841374397278
1783153025590122800,4.895122802734375,0.13919681310653687,0.2453315258026123,0.25472331047058105
1783153025599833300,4.904833251953125,0.12697987258434296,0.2563267946243286,0.32374903559684753
1783153025609544000,4.9145439453125,0.11659546941518784,0.22211933135986328,0.37078428268432617
1783153025619254300,4.924254150390625,0.11964970827102661,0.16103461384773254,0.3958290219306946
1783153025628964900,4.93396484375,0.12942326068878174,0.07727217674255371,0.40254834294319153
1783153025638675500,4.943675537109375,0.1343100368976593,-0.010689826682209969,0.38544461131095886
1783153025648386000,4.953385986328125,0.13736428320407867,-0.08460234850645065,0.34696123003959656
1783153025658096400,4.963096435546875,0.12026055157184601,-0.1310267299413681,0.27976804971694946
1783153025667807000,4.972806884765625,0.10437852889299393,-0.13835690915584564,0.1966928243637085
1783153025677517600,4.982517578125,0.10560022294521332,-0.11270131915807724,0.130721315741539
1783153025687228200,4.992228271484375,0.09949174523353577,-0.06688777357339859,0.07330167293548584
1783153025696938500,5.0019384765625,0.07872293889522552,0.015576604753732681,0.03237490355968475
1783153025706649000,5.011649169921875,0.06711684167385101,0.1041494607925415,0.025655584409832954
1783153025716359700,5.021359619140625,0.05062396824359894,0.1316375881433487,0.01588202826678753
1783153025726070300,5.0310703125,0.030466007068753242,0.05650337040424347,-0.007330167107284069
1783153025735780900,5.04078076171875,-0.0165692325681448,-0.12491826713085175,-0.08979454636573792
1783153025745491200,5.0504912109375,-0.08681666851043701,-0.34421244263648987,-0.22906772792339325
1783153025755201800,5.060201904296875,-0.16256172955036163,-0.531742513179779,-0.4190412163734436
1783153025764912400,5.069912353515625,-0.3244362473487854,-0.434617817401886,-0.6132906675338745
1783153025774623000,5.079623046875,-0.269459992647171,-0.610541820526123,-0.781884491443634
1783153025784333300,5.089333251953125,-0.15828579664230347,-0.7760814428329468,-0.9957574009895325
1783153025794044000,5.0990439453125,-0.38185590505599976,-1.231162667274475,-1.2309335470199585
1783153025803754500,5.10875439453125,-0.48631078004837036,-1.2378820180892944,-1.2761362791061401
1783153025813465000,5.118465087890625,-0.3360423445701599,-0.8756495714187622,-1.1509126424789429
1783153025823175400,5.128175537109375,-0.16500511765480042,-0.34482327103614807,-0.9865946769714355
1783153025832886000,5.137885986328125,-0.062993623316288,0.22883865237236023,-0.8637380003929138
1783153025842596600,5.1475966796875,-0.028786176815629005,0.6796439290046692,-0.7696675658226013
1783153025852307200,5.15730712890625,-0.06421531736850739,0.9966736435890198,-0.70308518409729
1783153025862017800,5.167017822265625,-0.11369394510984421,1.173208475112915,-0.6273401379585266
1783153025871728000,5.17672802734375,-0.15645325183868408,1.3527976274490356,-0.5497625470161438
1783153025881438700,5.186438720703125,-0.15217731893062592,1.473745346069336,-0.47646087408065796
1783153025891149300,5.1961494140625,-0.15156647562980652,1.5733134746551514,-0.4312581717967987
1783153025900860000,5.20585986328125,-0.17233528196811676,1.677768349647522,-0.4453076422214508
1783153025910570500,5.215570556640625,-0.19799086451530457,1.7504591941833496,-0.4953971207141876
1783153025920280800,5.22528076171875,-0.23036576807498932,1.5843087434768677,-0.5564818382263184
1783153025929991400,5.234991455078125,-0.271903395652771,1.151218056678772,-0.6065713167190552
1783153025939702000,5.244701904296875,-0.3134410083293915,0.6778113842010498,-0.6120689511299133
1783153025949412600,5.25441259765625,-0.3342097997665405,0.3650575876235962,-0.5522059202194214
1783153025959123000,5.264123046875,-0.3335989713668823,0.20929154753684998,-0.4593571424484253
1783153025968833500,5.27383349609375,-0.3342097997665405,0.12003148347139359,-0.37078428268432617
1783153025978544000,5.283544189453125,-0.35803285241127014,-0.002748812548816204,-0.3011476993560791
1783153025988254700,5.293254638671875,-0.405678927898407,-0.14202198386192322,-0.24617144465446472
1783153025997965000,5.302965087890625,-0.4655419588088989,-0.2764083743095398,-0.20768806338310242
1783153026007675600,5.312675537109375,-0.4960843324661255,-0.3393256664276123,-0.20707722008228302
1783153026017386200,5.32238623046875,-0.48508909344673157,-0.37047886848449707,-0.26755109429359436
1783153026027096800,5.332096923828125,-0.4258368909358978,-0.38941511511802673,-0.3665083646774292
1783153026036807400,5.341807373046875,-0.31710609793663025,-0.34543412923812866,-0.45447036623954773
1783153026046518000,5.35151806640625,-0.20043425261974335,-0.2476985603570938,-0.5051707029342651
1783153026056228400,5.361228271484375,-0.11125055700540543,-0.14141114056110382,-0.5100574493408203
1783153026065939000,5.37093896484375,-0.052609220147132874,-0.03695625811815262,-0.46851983666419983
1783153026075649500,5.3806494140625,-0.040392275899648666,0.09315420687198639,-0.40071579813957214
1783153026085360000,5.390360107421875,-0.05993938818573952,0.21051323413848877,-0.33718767762184143
1783153026095070500,5.400070556640625,-0.0752105712890625,0.25327253341674805,-0.29748260974884033
1783153026104781000,5.409781005859375,-0.0623827762901783,0.23006035387516022,-0.2864873707294464
1783153026114491600,5.41949169921875,-0.0361163429915905,0.17019732296466827,-0.29687178134918213
1783153026124202200,5.4292021484375,-0.006184828467667103,0.091321662068367,-0.31947311758995056
1783153026133912600,5.43891259765625,0.021303297951817513,0.03512371703982353,-0.3549022674560547
1783153026143623200,5.448623046875,0.052456509321928024,0.009468132629990578,-0.38788801431655884
1783153026153333800,5.458333740234375,0.09216158092021942,0.018019994720816612,-0.4159869849681854
1783153026163044400,5.46804443359375,0.14041851460933685,0.057114217430353165,-0.45508119463920593
1783153026172755000,5.4777548828125,0.1880646049976349,0.1181989461183548,-0.4966188073158264
1783153026182465300,5.48746533203125,0.22166119515895844,0.17386239767074585,-0.5247178077697754
1783153026192175900,5.49717578125,0.21860696375370026,0.19096612930297852,-0.5277720093727112
1783153026201886500,5.506886474609375,0.17706935107707977,0.21295662224292755,-0.5051707029342651
1783153026211597000,5.51659716796875,0.1343100368976593,0.23494713008403778,-0.4691306948661804
1783153026221307600,5.5263076171875,0.11720632016658783,0.26610034704208374,-0.42637139558792114
1783153026231018000,5.53601806640625,0.11720632016658783,0.31313556432724,-0.4062134325504303
1783153026240728600,5.545728515625,0.14164020121097565,0.34612134099006653,-0.39827242493629456
1783153026250439200,5.555439208984375,0.1862320601940155,0.38399386405944824,-0.3817795515060425
1783153026260149800,5.565149658203125,0.24120831489562988,0.46218231320381165,-0.34573954343795776
1783153026269860400,5.5748603515625,0.30664533376693726,0.5525876879692078,-0.3151971995830536
1783153026279570700,5.58457080078125,0.37139514088630676,0.6063422560691833,-0.312142938375473
1783153026289281300,5.59428125,0.4434750974178314,0.6399388313293457,-0.3127537965774536
1783153026298991900,5.603991943359375,0.4978405237197876,0.6900283098220825,-0.28160059452056885
1783153026308702500,5.613702392578125,0.5100574493408203,0.6985802054405212,-0.2376195788383484
1783153026318413000,5.6234130859375,0.4563029110431671,0.5709131360054016,-0.21807247400283813
1783153026328123400,5.633123291015625,0.37444937229156494,0.2697654068470001,-0.2779355049133301
1783153026337834000,5.642833984375,0.2803025245666504,0.007635590620338917,-0.38422292470932007
1783153026347544600,5.652544677734375,0.19172967970371246,-0.03573456406593323,-0.4984513521194458
1783153026357255200,5.662255126953125,0.1080436110496521,0.09498675167560577,-0.5961869359016418
1783153026366965500,5.671965576171875,0.0426829531788826,0.2728196680545807,-0.6688777208328247
1783153026376676000,5.681676025390625,0.02680092304944992,0.4542413055896759,-0.6786513328552246
1783153026386386700,5.69138671875,0.020692450925707817,0.5806866884231567,-0.624896764755249
1783153026396097300,5.70109716796875,0.006032116711139679,0.6112290620803833,-0.5619794726371765
1783153026405807900,5.710807861328125,0.006642963737249374,0.5202127695083618,-0.4874561131000519
1783153026415518200,5.720518310546875,0.022524992004036903,0.4133145213127136,-0.3836120665073395
1783153026425228800,5.730228759765625,0.043293800204992294,0.3351260721683502,-0.2736595869064331
1783153026434939400,5.739939453125,0.08055548369884491,0.3100813329219818,-0.16737215220928192
1783153026444650000,5.74964990234375,0.11109784245491028,0.3491755723953247,-0.08612946420907974
1783153026454360300,5.7593603515625,0.12881241738796234,0.42492061853408813,-0.05741964280605316
1783153026464071000,5.76907080078125,0.17584764957427979,0.5373165011405945,-0.0787992998957634
1783153026473781500,5.778781494140625,0.24548424780368805,0.6289436221122742,-0.13377554714679718
1783153026483492000,5.7884921875,0.30786702036857605,0.63199782371521,-0.2107423096895218
1783153026493202700,5.79820263671875,0.3561239540576935,0.5397599339485168,-0.2852656841278076
1783153026502913000,5.8079130859375,0.46363306045532227,0.3528406620025635,-0.3946073353290558
1783153026512623600,5.81762353515625,0.5210527181625366,0.25143998861312866,-0.4862344264984131
1783153026522334200,5.827334228515625,0.6542174220085144,0.1310267299413681,-0.5198310017585754
1783153026532044800,5.837044921875,0.6859814524650574,-0.0662769302725792,-0.5332696437835693
1783153026541755400,5.84675537109375,0.6872031688690186,-0.2360924631357193,-0.5094466209411621
1783153026551466000,5.856466064453125,0.7018635272979736,-0.24525517225265503,-0.4489727318286896
1783153026561176300,5.86617626953125,0.7128587365150452,-0.18050536513328552,-0.3658975064754486
1783153026570887000,5.875886962890625,0.7116370797157288,-0.11147962510585785,-0.26755109429359436
1783153026580597500,5.885597412109375,0.6981984376907349,-0.017409147694706917,-0.16492876410484314
1783153026590308000,5.89530810546875,0.6945333480834961,0.04306473210453987,-0.08185353130102158
1783153026600018700,5.905018798828125,0.7085828185081482,0.03512371703982353,-0.016492875292897224
1783153026609729000,5.91472900390625,0.7287407517433167,-0.033291175961494446,0.038483377546072006
1783153026619439600,5.924439697265625,0.7391251921653748,-0.12675081193447113,0.07391251623630524
1783153026629150200,5.934150146484375,0.7409577369689941,-0.22021043300628662,0.08674030750989914
1783153026638860800,5.94386083984375,0.7452336549758911,-0.23914669454097748,0.07696675509214401
1783153026648571400,5.9535712890625,0.7464553713798523,-0.23425991833209991,0.056808795779943466
1783153026658281700,5.96328173828125,0.7427902817726135,-0.24159009754657745,0.02504473738372326
1783153026667992300,5.972992431640625,0.7385143637657166,-0.18722468614578247,-0.018936265259981155
1783153026677703000,5.982702880859375,0.7403468489646912,-0.07971556484699249,-0.05803048983216286
1783153026687413500,5.99241357421875,0.7531746625900269,0.005803049076348543,-0.07452336698770523
1783153026697124000,6.0021240234375,0.7824953198432922,0.09804098308086395,-0.05375456064939499
1783153026706834400,6.01183447265625,0.8130376935005188,0.18363595008850098,0.0030542362947016954
1783153026716545000,6.021544921875,0.8344173431396484,0.21540001034736633,0.06719319522380829
1783153026726255600,6.031255615234375,0.8496885299682617,0.19951798021793365,0.12583453953266144
1783153026735966200,6.04096630859375,0.8741224408149719,0.17569494247436523,0.19302773475646973
1783153026745676800,6.0506767578125,0.8863393664360046,0.15065020322799683,0.2480039894580841
1783153026755387400,6.060387451171875,0.8845068216323853,0.09865183383226395,0.2901524603366852
1783153026765097700,6.07009765625,0.8741224408149719,0.038788799196481705,0.314586341381073
1783153026774808300,6.079808349609375,0.8625163435935974,-0.015576604753732681,0.3286358118057251
1783153026784519000,6.089518798828125,0.8448017835617065,-0.049173206090927124,0.3255815804004669
1783153026794229500,6.0992294921875,0.8087617754936218,-0.06139015033841133,0.3127537965774536
1783153026803940000,6.108940185546875,0.7837170362472534,-0.030847785994410515,0.30725616216659546
1783153026813650400,6.118650390625,0.7605048418045044,0.020463382825255394,0.3042019307613373
1783153026823361000,6.128361083984375,0.7470661997795105,0.04978405311703682,0.3017585575580597
1783153026833071600,6.138071533203125,0.739736020565033,0.07116370648145676,0.3029802441596985
1783153026842782200,6.1477822265625,0.7250757217407227,0.09071081876754761,0.3115321099758148
1783153026852492800,6.157492919921875,0.6957550048828125,0.10109522193670273,0.32008397579193115
1783153026862203100,6.167203125,0.6493306159973145,0.08399149775505066,0.3158080279827118
1783153026871913700,6.176913818359375,0.5937435626983643,0.038788799196481705,0.29259583353996277
1783153026881624300,6.186624267578125,0.5412106513977051,-0.009468132629990578,0.25289076566696167
1783153026891335000,6.1963349609375,0.48928865790367126,-0.0528382882475853,0.20707722008228302
1783153026901045500,6.20604541015625,0.4453076422214508,-0.0656660795211792,0.1563768982887268
1783153026910755800,6.215755859375,0.420873761177063,-0.04367557913064957,0.10017894953489304
1783153026920466400,6.225466552734375,0.39827242493629456,0.0021379655227065086,0.0397050715982914
1783153026930177000,6.235177001953125,0.38849884271621704,0.07971556484699249,-0.012216945178806782
1783153026939887600,6.2448876953125,0.3970507085323334,0.20196136832237244,-0.025655584409832954
1783153026949598200,6.25459814453125,0.42453885078430176,0.3125247359275818,0.0036650835536420345
1783153026959308500,6.26430859375,0.4416425824165344,0.36811181902885437,0.031153209507465363
1783153026969019100,6.27401904296875,0.4453076422214508,0.36994436383247375,0.029320668429136276
1783153026978729700,6.283729736328125,0.4318690001964569,0.30397287011146545,-0.020157959312200546
1783153026988440300,6.2934404296875,0.39766156673431396,0.1555369794368744,-0.13560809195041656
1783153026998151000,6.30315087890625,0.3439069986343384,-0.02473931387066841,-0.2895416021347046
1783153027007861500,6.312861572265625,0.2919849753379822,-0.18722468614578247,-0.44958359003067017
1783153027017571800,6.32257177734375,0.23693238198757172,-0.28190600872039795,-0.5864133834838867
1783153027027282400,6.332282470703125,0.17584764957427979,-0.2996205687522888,-0.6988092660903931
1783153027036993000,6.341992919921875,0.14469444751739502,-0.24097923934459686,-0.758672297000885
1783153027046703600,6.35170361328125,0.16668494045734406,-0.10170606523752213,-0.7409577369689941
1783153027056414200,6.361414306640625,0.23448899388313293,0.07299624383449554,-0.6517740488052368
1783153027066124500,6.37112451171875,0.31947311758995056,0.24227729439735413,-0.5253286361694336
1783153027075835100,6.380835205078125,0.38788801431655884,0.3913240134716034,-0.38849884271621704
1783153027085545700,6.390545654296875,0.4446968138217926,0.4817294180393219,-0.27976804971694946
1783153027095256300,6.40025634765625,0.4850127100944519,0.46462568640708923,-0.20280128717422485
1783153027104967000,6.409966796875,0.5137225389480591,0.35833826661109924,-0.1557660549879074
1783153027114677200,6.41967724609375,0.527161180973053,0.16958646476268768,-0.11911521852016449
1783153027124387800,6.429387939453125,0.5234960913658142,-0.03451287001371384,-0.08674030750989914
1783153027134098400,6.439098388671875,0.5167768001556396,-0.17317520081996918,-0.03665083646774292
1783153027143809000,6.44880908203125,0.48806697130203247,-0.2586938142776489,0.007941014133393764
1783153027153519600,6.45851953125,0.4349232614040375,-0.28373855352401733,0.046424392610788345
1783153027163230000,6.46822998046875,0.367730051279068,-0.22021043300628662,0.0659715011715889
1783153027172940500,6.4779404296875,0.288930743932724,-0.1047603040933609,0.06047387793660164
1783153027182651100,6.487651123046875,0.22410458326339722,0.019241688773036003,0.0390942245721817
1783153027192361700,6.49736181640625,0.1862320601940155,0.1291942000389099,0.004275931045413017
1783153027202072300,6.507072265625,0.17951273918151855,0.21173493564128876,-0.014049487188458443
1783153027211783000,6.516782958984375,0.16790664196014404,0.2679328918457031,-0.023823043331503868
1783153027221493200,6.5264931640625,0.13675342500209808,0.29053422808647156,-0.030542362481355667
1783153027231203800,6.536203857421875,0.0946049690246582,0.2960318624973297,-0.053143709897994995
1783153027240914400,6.54591455078125,0.05673243850469589,0.30214032530784607,-0.09040539711713791
1783153027250625000,6.555625,0.028633465990424156,0.2880908250808716,-0.14660334587097168
1783153027260335600,6.565335693359375,0.006032116711139679,0.27648472785949707,-0.2235700935125351
1783153027270046200,6.575046142578125,-0.012904148548841476,0.28076067566871643,-0.30664533376693726
1783153027279756500,6.584756591796875,-0.025731941685080528,0.30336201190948486,-0.38910970091819763
1783153027289467100,6.594467041015625,-0.03061871975660324,0.3125247359275818,-0.4569137394428253
1783153027299177700,6.604177734375,-0.023899398744106293,0.31557896733283997,-0.518609344959259
1783153027308888300,6.613888427734375,-0.005573981441557407,0.31741151213645935,-0.5515950918197632
1783153027318599000,6.623598876953125,0.017027366906404495,0.29358845949172974,-0.5619794726371765
1783153027328309500,6.6333095703125,0.03168770298361778,0.23433628678321838,-0.5338805317878723
1783153027338019800,6.643019775390625,0.036574479192495346,0.17080816626548767,-0.46546560525894165
1783153027347730400,6.65273046875,0.023746687918901443,0.13896775245666504,-0.34512871503829956
1783153027357441000,6.66244091796875,-0.03061871975660324,0.1169772520661354,-0.21562908589839935
1783153027367151600,6.672151611328125,-0.11552648991346359,0.07299624383449554,-0.10140064358711243
1783153027376862200,6.6818623046875,-0.22731153666973114,0.018019994720816612,-0.02993151545524597
1783153027386572800,6.69157275390625,-0.35558944940567017,-0.06322269141674042,0.0030542362947016954
1783153027396283100,6.701283203125,-0.4930301010608673,-0.15057384967803955,-0.004275931045413017
1783153027405993700,6.71099365234375,-0.632914125919342,-0.20738264918327332,-0.05008947476744652
1783153027415704300,6.720704345703125,-0.7416449189186096,-0.19333316385746002,-0.12155860662460327
1783153027425415000,6.730414794921875,-0.8021187782287598,-0.12308572232723236,-0.20402298867702484
1783153027435125500,6.74012548828125,-0.822276771068573,-0.028404397889971733,-0.28037887811660767
1783153027444835800,6.7498359375,-0.8112815022468567,0.04062134400010109,-0.3414636254310608
1783153027454546400,6.75954638671875,-0.7599703669548035,0.11025793105363846,-0.3781144618988037
1783153027464257000,6.769257080078125,-0.6982747912406921,0.15187190473079681,-0.3836120665073395
1783153027473967600,6.778967529296875,-0.6542937755584717,0.13347013294696808,-0.342074453830719
1783153027483678200,6.78867822265625,-0.6561263203620911,0.03451287001371384,-0.25655585527420044
1783153027493388500,6.798388427734375,-0.6872795224189758,-0.11331216990947723,-0.13805148005485535
1783153027503099100,6.80809912109375,-0.7318713665008545,-0.2648022770881653,0.01832541823387146
1783153027512809700,6.817809814453125,-0.7673004865646362,-0.40468630194664,0.16859383881092072
1783153027522520300,6.827520263671875,-0.7092700004577637,-0.5494571328163147,0.28343313932418823
1783153027532231000,6.83723095703125,-0.7465317249298096,-0.3521534502506256,0.2999260127544403
1783153027541941500,6.84694140625,-0.6463527679443359,-0.1829487532377243,0.3390202224254608
1783153027551651800,6.85665185546875,-0.5651100873947144,-0.03268032893538475,0.3787252902984619
1783153027561362400,6.866362548828125,-0.5144097208976746,0.06810946762561798,0.38849884271621704
1783153027571073000,6.876072998046875,-0.45027077198028564,0.13591352105140686,0.37200596928596497
1783153027580783600,6.88578369140625,-0.39773792028427124,0.25143998861312866,0.37444937229156494
1783153027590494200,6.895494140625,-0.36963894963264465,0.4053735136985779,0.4092676639556885
1783153027600204800,6.905204833984375,-0.36780640482902527,0.48722705245018005,0.4618005156517029
1783153027609915400,6.914915283203125,-0.3873535096645355,0.43652671575546265,0.49417543411254883
1783153027619625700,6.924625732421875,-0.4007921516895294,0.2984752357006073,0.48073679208755493
1783153027629336300,6.93433642578125,-0.3598653972148895,0.1450762301683426,0.3946073353290558
1783153027639047000,6.944046875,-0.28106608986854553,-0.011911521665751934,0.23151111602783203
1783153027648757500,6.953757568359375,-0.21692712604999542,-0.13835690915584564,0.018936265259981155
1783153027658468000,6.963468017578125,-0.20409934222698212,-0.20677179098129272,-0.1954711228609085
1783153027668178700,6.9731787109375,-0.21570543944835663,-0.1835595965385437,-0.3500154912471771
1783153027677889000,6.982888916015625,-0.23769593238830566,-0.09071081876754761,-0.40193748474121094
1783153027687599600,6.992599609375,-0.26396235823631287,0.025350160896778107,-0.3365768492221832
1783153027697310200,7.002310302734375,-0.29511559009552,0.1328592747449875,-0.17348061501979828
1783153027707020800,7.012020751953125,-0.34153997898101807,0.231282040476799,0.07330167293548584
1783153027716731400,7.0217314453125,-0.3867426812648773,0.3106921911239624,0.3646758198738098
1783153027726441700,7.031441650390625,-0.4032355546951294,0.3369586169719696,0.633448600769043
1783153027736152300,7.04115234375,-0.3751365840435028,0.2752630412578583,0.8313631415367126
1783153027745863000,7.05086279296875,-0.30183491110801697,0.16347800195217133,0.9681929349899292
1783153027755573500,7.060573486328125,-0.20409934222698212,0.03817795217037201,1.0494356155395508
1783153027765284000,7.0702841796875,-0.1143047958612442,-0.09926267713308334,1.0671501159667969
1783153027774994700,7.07999462890625,-0.045889899134635925,-0.2348707765340805,1.0201148986816406
1783153027784705000,7.089705078125,-0.019623467698693275,-0.3374931216239929,0.9168817400932312
1783153027794415600,7.09941552734375,-0.037948887795209885,-0.38575005531311035,0.7733326554298401
1783153027804126200,7.109126220703125,-0.09414683282375336,-0.39857783913612366,0.6065713167190552
1783153027813836800,7.1188369140625,-0.1790546029806137,-0.4095730781555176,0.43919917941093445
1783153027823547400,7.12854736328125,-0.27984440326690674,-0.41079479455947876,0.27060532569885254
1783153027833258000,7.138258056640625,-0.37147149443626404,-0.40163207054138184,0.10995250940322876
1783153027842968300,7.14796826171875,-0.4319453537464142,-0.38819342851638794,-0.028098974376916885
1783153027852679000,7.157678955078125,-0.4655419588088989,-0.3686463236808777,-0.1325538605451584
1783153027862389500,7.167389404296875,-0.4789806008338928,-0.3564293682575226,-0.18936264514923096
1783153027872100000,7.17710009765625,-0.49058669805526733,-0.3411581814289093,-0.20463383197784424
1783153027881810700,7.186810791015625,-0.49058669805526733,-0.33627140522003174,-0.18630841374397278
1783153027891521300,7.196521240234375,-0.4795914590358734,-0.3289412558078766,-0.15087927877902985
1783153027901231600,7.206231689453125,-0.44660571217536926,-0.3295520842075348,-0.11117420345544815
1783153027910942200,7.215942138671875,-0.39773792028427124,-0.35887277126312256,-0.0794101431965828
1783153027920652800,7.22565283203125,-0.3348206579685211,-0.41079479455947876,-0.051922015845775604
1783153027930363400,7.23536328125,-0.2572430372238159,-0.41507071256637573,-0.017714571207761765
1783153027940074000,7.245073974609375,-0.17783290147781372,-0.3765873312950134,0.02076880633831024
1783153027949784600,7.25478466796875,-0.09903360903263092,-0.3381039500236511,0.062306419014930725
1783153027959495000,7.264494873046875,-0.023288551717996597,-0.30756160616874695,0.08918370306491852
1783153027969205500,7.27420556640625,0.03962871432304382,-0.3014531135559082,0.10323318839073181
1783153027978916000,7.283916015625,0.09338327497243881,-0.3045073449611664,0.09529217332601547
1783153027988626700,7.293626708984375,0.14102935791015625,-0.3014531135559082,0.08124268800020218
1783153027998337300,7.303337158203125,0.18012358248233795,-0.2910687327384949,0.056808795779943466
1783153028008047900,7.3130478515625,0.20394663512706757,-0.2874036431312561,0.028098974376916885
1783153028017758200,7.32275830078125,0.20333577692508698,-0.2855710983276367,-0.006108472589403391
1783153028027468800,7.33246875,0.19295138120651245,-0.25502872467041016,-0.0397050715982914
1783153028037179400,7.342179443359375,0.18012358248233795,-0.20005246996879578,-0.06169557198882103
1783153028046890000,7.351889892578125,0.16546325385570526,-0.11209046840667725,-0.06963659077882767
1783153028056600600,7.3616005859375,0.14530529081821442,0.021685076877474785,-0.06963659077882767
1783153028066311200,7.371311279296875,0.11537377536296844,0.14759597182273865,-0.06841489672660828
1783153028076021800,7.381021728515625,0.08544225990772247,0.22639526426792145,-0.08551861345767975
1783153028085732000,7.390732177734375,0.07078192383050919,0.2612135708332062,-0.1050657257437706
1783153028095442700,7.400442626953125,0.0817771777510643,0.2715979516506195,-0.11361759155988693
1783153028105153300,7.4101533203125,0.11048699915409088,0.25327253341674805,-0.1050657257437706
1783153028114863900,7.41986376953125,0.15019206702709198,0.22944949567317963,-0.07574506103992462
1783153028124574500,7.429574462890625,0.20455747842788696,0.1915769726037979,-0.03665083646774292
1783153028134284800,7.439284912109375,0.25831204652786255,0.1555369794368744,0.013438640162348747
1783153028143995400,7.448995361328125,0.30664533376693726,0.17386239767074585,0.08429691940546036
1783153028153706000,7.4587060546875,0.32008397579193115,0.2056264579296112,0.16553960740566254
1783153028163416600,7.46841650390625,0.3035911023616791,0.2056264579296112,0.22723518311977386
1783153028173127200,7.478127197265625,0.2668638825416565,0.2202867865562439,0.258999228477478
1783153028182837800,7.487837646484375,0.21555273234844208,0.2190650999546051,0.2516690790653229
1783153028192548000,7.497548095703125,0.1727934181690216,0.18913358449935913,0.20768806338310242
1783153028202258700,7.5072587890625,0.1471378356218338,0.17508409917354584,0.1319430023431778
1783153028211969300,7.51696923828125,0.14164020121097565,0.16408884525299072,0.03237490355968475
1783153028221679900,7.526679931640625,0.1611873209476471,0.14576342701911926,-0.05497625470161438
1783153028231390500,7.536390380859375,0.20700086653232574,0.14637427031993866,-0.1056765764951706
1783153028241101000,7.54610107421875,0.2674747407436371,0.1175880953669548,-0.10934165865182877
1783153028250811600,7.555811767578125,0.3506263196468353,0.091321662068367,-0.0647498071193695
1783153028260522000,7.56552197265625,0.44958359003067017,0.05344913527369499,0.02076880633831024
1783153028270232600,7.575232666015625,0.5216635465621948,-0.08521319180727005,0.1301104724407196
1783153028279943200,7.584943115234375,0.53143709897995,-0.28190600872039795,0.24250635504722595
1783153028289653800,7.59465380859375,0.5008947253227234,-0.4706578254699707,0.34512871503829956
1783153028299364400,7.6043642578125,0.4282039403915405,-0.6484143733978271,0.3970507085323334
1783153028309075000,7.614074951171875,0.29687178134918213,-0.7803573608398438,0.3561239540576935
1783153028318785300,7.623785400390625,0.1471378356218338,-0.8298360109329224,0.208298921585083
1783153028328495900,7.633495849609375,0.021303297951817513,-0.7314895987510681,-0.02076880633831024
1783153028338206500,7.64320654296875,-0.049554985016584396,-0.5238015055656433,-0.288930743932724
1783153028347917000,7.6529169921875,-0.045889899134635925,-0.2855710983276367,-0.5589252710342407
1783153028357627600,7.662627685546875,0.027411770075559616,-0.058335911482572556,-0.7757760286331177
1783153028367338200,7.672338134765625,0.15813308954238892,0.16164545714855194,-0.8851176500320435
1783153028377048600,7.682048583984375,0.314586341381073,0.36811181902885437,-0.8490777015686035
1783153028386759200,7.69175927734375,0.4709632396697998,0.5250995755195618,-0.684148907661438
1783153028396469800,7.7014697265625,0.6151232123374939,0.5788541436195374,-0.4227063059806824
1783153028406180400,7.711180419921875,0.7556180357933044,0.5360948443412781,-0.11667182296514511
1783153028415891000,7.720890869140625,0.8857285380363464,0.36872267723083496,0.17958909273147583
1783153028425601500,7.7306015625,0.9962918758392334,0.08704573661088943,0.4306473135948181
1783153028435312000,7.74031201171875,1.0781453847885132,-0.222042977809906,0.6151232123374939
1783153028445022500,7.7500224609375,1.1270132064819336,-0.4847072958946228,0.7385143637657166
1783153028454733000,7.759733154296875,1.133732557296753,-0.5989357233047485,0.8063184022903442
1783153028464443600,7.769443603515625,1.090362310409546,-0.5500679612159729,0.813648521900177
1783153028474154200,7.779154296875,0.998735249042511,-0.4340069890022278,0.7702783942222595
1783153028483864800,7.78886474609375,0.888171911239624,-0.27091076970100403,0.675597071647644
1783153028493575200,7.7985751953125,0.7702783942222595,-0.09987352788448334,0.5564818382263184
1783153028503285800,7.80828564453125,0.6652126908302307,0.055892523378133774,0.4214846193790436
1783153028512996400,7.817996337890625,0.5711421966552734,0.17752748727798462,0.2883199155330658
1783153028522707000,7.82770703125,0.48989951610565186,0.2593810260295868,0.16859383881092072
1783153028532417500,7.83741748046875,0.4068242609500885,0.30397287011146545,0.06169557198882103
1783153028542128000,7.847128173828125,0.3127537965774536,0.31741151213645935,-0.042759306728839874
1783153028551838500,7.85683837890625,0.2124984860420227,0.3235199749469757,-0.12766708433628082
1783153028561549000,7.866549072265625,0.10193513333797455,0.3479538559913635,-0.20585553348064423
1783153028571259600,7.876259765625,-0.01046075951308012,0.38155046105384827,-0.26999449729919434
1783153028580970200,7.88597021484375,-0.10941801220178604,0.42186638712882996,-0.3280249834060669
1783153028590680800,7.895680908203125,-0.18699561059474945,0.4652365446090698,-0.3793361485004425
1783153028600391400,7.905391357421875,-0.22853323817253113,0.49944397807121277,-0.42881476879119873
1783153028610102000,7.91510205078125,-0.22486814856529236,0.5061632990837097,-0.4727957844734192
1783153028619812400,7.924812255859375,-0.18638476729393005,0.49944397807121277,-0.5118899941444397
1783153028629523000,7.93452294921875,-0.12468919903039932,0.48905959725379944,-0.5289937257766724
1783153028639233500,7.944233642578125,-0.06726955622434616,0.47501009702682495,-0.5076140761375427
1783153028648944000,7.953944091796875,-0.00129805039614439,0.43591588735580444,-0.4587462842464447
1783153028658654700,7.96365478515625,0.07627955079078674,0.37177690863609314,-0.3958290219306946
1783153028668365000,7.973364990234375,0.15324631333351135,0.2960318624973297,-0.3286358118057251
1783153028678075600,7.98307568359375,0.20944425463676453,0.20868068933486938,-0.28343313932418823
1783153028687786200,7.9927861328125,0.24426254630088806,0.14820681512355804,-0.2498365342617035
1783153028697496800,8.002496826171875,0.25892287492752075,0.1304158866405487,-0.23028941452503204
1783153028707207400,8.01220751953125,0.25770118832588196,0.14018943905830383,-0.22784602642059326
1783153028716918000,8.02191796875,0.2522035539150238,0.14881765842437744,-0.24006296694278717
1783153028726628600,8.031628662109375,0.24670593440532684,0.15675868093967438,-0.261442631483078
1783153028736339200,8.041339111328124,0.24609509110450745,0.1683647781610489,-0.284654825925827
1783153028746049500,8.051049560546875,0.25892287492752075,0.18546849489212036,-0.3127537965774536
1783153028755760000,8.060760009765625,0.28404396772384644,0.20257222652435303,-0.34696123003959656
1783153028765470700,8.070470703125,0.3249707520008087,0.22700610756874084,-0.37322768568992615
1783153028775181300,8.080181396484376,0.3830012381076813,0.2984752357006073,-0.38544461131095886
1783153028784892000,8.089891845703125,0.42881476879119873,0.4255314767360687,-0.40132665634155273
1783153028794602500,8.0996025390625,0.469741553068161,0.5507551431655884,-0.4220954477787018
1783153028804312800,8.109312744140626,0.4984513521194458,0.6655944585800171,-0.4471401870250702
1783153028814023400,8.1190234375,0.5021164417266846,0.7505022287368774,-0.4856235682964325
1783153028823734000,8.128734130859375,0.45324867963790894,0.7975374460220337,-0.5387672781944275
1783153028833444600,8.138444580078126,0.390942245721817,0.8121978044509888,-0.5833591222763062
1783153028843155200,8.1481552734375,0.3133646547794342,0.7926506996154785,-0.610236406326294
1783153028852865500,8.157865478515625,0.2375432252883911,0.7401177883148193,-0.6077930331230164
1783153028862576000,8.167576171875,0.16363070905208588,0.6460473537445068,-0.582748293876648
1783153028872286700,8.17728662109375,0.10437852889299393,0.5238778591156006,-0.5363239049911499
1783153028881997300,8.186997314453125,0.07505785673856735,0.4041518270969391,-0.4709632396697998
1783153028891708000,8.1967080078125,0.07566870748996735,0.27831727266311646,-0.395218163728714
1783153028901418500,8.20641845703125,0.10437852889299393,0.18852274119853973,-0.3170297145843506
1783153028911129000,8.216129150390625,0.1459161341190338,0.17264071106910706,-0.22723518311977386
1783153028920839700,8.225839599609374,0.1752368062734604,0.17630578577518463,-0.12522368133068085
1783153028930550000,8.235550048828125,0.17157171666622162,0.057114217430353165,-0.07391251623630524
1783153028940260600,8.245260498046875,0.11415208131074905,-0.14018943905830383,-0.13866232335567474
1783153028949971200,8.25497119140625,0.013362283818423748,-0.28373855352401733,-0.2779355049133301
1783153028959681800,8.264681884765626,-0.0886492058634758,-0.3393256664276123,-0.41293275356292725
1783153028969392400,8.274392333984375,-0.1802763044834137,-0.34604495763778687,-0.5002838969230652
1783153028979102700,8.284102783203124,-0.2706816792488098,-0.2739650011062622,-0.5412106513977051
1783153028988813300,8.293813232421876,-0.33176642656326294,-0.1188097894191742,-0.527161180973053
1783153028998524000,8.30352392578125,-0.35864371061325073,0.08582404255867004,-0.46241137385368347
1783153029008234500,8.313234375,-0.3665847182273865,0.25449424982070923,-0.3683409094810486
1783153029017945000,8.322945068359376,-0.3513135313987732,0.31985488533973694,-0.2510582208633423
1783153029027655700,8.33265576171875,-0.3122192919254303,0.3369586169719696,-0.09651386737823486
1783153029037366300,8.3423662109375,-0.269459992647171,0.3510081171989441,0.11056335270404816
1783153029047076600,8.35207666015625,-0.2328091561794281,0.3381803035736084,0.3762819170951843
1783153029056787200,8.361787109375,-0.1784437596797943,0.2746522128582001,0.6700994372367859
1783153029066497800,8.371497802734375,-0.11919157207012177,0.14576342701911926,0.9400939345359802
1783153029076208400,8.38120849609375,-0.06482616811990738,0.011911521665751934,1.151447057723999
1783153029085919000,8.3909189453125,-0.0293970238417387,-0.10292776674032211,1.2662863731384277
1783153029095629600,8.400629638671875,0.0005344913806766272,-0.20555010437965393,1.273005723953247
1783153029105340000,8.41033984375,0.052456509321928024,-0.24281178414821625,1.2009257078170776
1783153029115050500,8.420050537109375,0.12026055157184601,-0.17500774562358856,1.0995250940322876
1783153029124761000,8.429760986328125,0.18867544829845428,-0.08093725889921188,0.9736905097961426
1783153029134471700,8.4394716796875,0.25892287492752075,0.027182703837752342,0.8405258059501648
1783153029144182300,8.449182373046876,0.3292466700077057,0.153704434633255,0.70308518409729
1783153029153892900,8.458892822265625,0.3817795515060425,0.2691545784473419,0.573585569858551
1783153029163603200,8.468603271484374,0.4190412163734436,0.3510081171989441,0.46302223205566406
1783153029173313800,8.478313720703126,0.446529358625412,0.4047626554965973,0.37506023049354553
1783153029183024400,8.4880244140625,0.4691306948661804,0.4414134919643402,0.3139754831790924
1783153029192735000,8.49773486328125,0.5002838969230652,0.44752198457717896,0.28037887811660767
1783153029202445600,8.507445556640626,0.5436540842056274,0.4273640215396881,0.26938363909721375
1783153029212156200,8.51715625,0.6004628539085388,0.4004867374897003,0.2754921019077301
1783153029221866800,8.52686669921875,0.6670452356338501,0.38277217745780945,0.29259583353996277
1783153029231577000,8.5365771484375,0.7464553713798523,0.3742203116416931,0.314586341381073
1783153029241287700,8.54628759765625,0.8246437907218933,0.3791070878505707,0.33352261781692505
1783153029250998300,8.555998291015625,0.9028322696685791,0.37177690863609314,0.34696123003959656
1783153029260708900,8.565708984375,0.9797990322113037,0.35711658000946045,0.3567348122596741
1783153029270419500,8.57541943359375,1.0549331903457642,0.334515243768692,0.3524588644504547
1783153029280130000,8.585130126953125,1.1318999528884888,0.2941993176937103,0.3249707520008087
1783153029289840400,8.59484033203125,1.1880979537963867,0.24838577210903168,0.30786702036857605
1783153029299551000,8.604551025390625,1.2271921634674072,0.21051323413848877,0.30786702036857605
1783153029309261600,8.614261474609375,1.2522368431091309,0.19951798021793365,0.3414636254310608
1783153029318972200,8.62397216796875,1.2675080299377441,0.22456271946430206,0.4092676639556885
1783153029328682800,8.633682861328126,1.2601778507232666,0.26243525743484497,0.47707170248031616
1783153029338393300,8.643393310546875,1.2491827011108398,0.30275118350982666,0.53143709897995
1783153029348104000,8.65310400390625,1.2320789098739624,0.32962843775749207,0.5656445622444153
1783153029357814300,8.662814208984376,1.2106993198394775,0.31313556432724,0.5815265774726868
1783153029367524900,8.67252490234375,1.1624423265457153,0.24899661540985107,0.5754181146621704
1783153029377235500,8.6822353515625,1.0799779891967773,0.17508409917354584,0.5528167486190796
1783153029386946000,8.691946044921876,0.9663603901863098,0.1169772520661354,0.5253286361694336
1783153029396656600,8.70165673828125,0.8350282311439514,0.07971556484699249,0.4984513521194458
1783153029406367200,8.7113671875,0.7177455425262451,0.0778830274939537,0.47585001587867737
1783153029416077600,8.72107763671875,0.6206207871437073,0.10903623700141907,0.46668729186058044
1783153029425788200,8.7307880859375,0.5430431962013245,0.14141114056110382,0.46607646346092224
1783153029435498800,8.740498779296875,0.4727957844734192,0.13652436435222626,0.4721849262714386
1783153029445209300,8.750209228515626,0.4062134325504303,0.09315420687198639,0.4831801950931549
1783153029454920000,8.759919921875,0.3396310806274414,0.026571854948997498,0.4978405237197876
1783153029464630500,8.769630615234375,0.276637464761734,-0.04550812020897865,0.503948986530304
1783153029474341000,8.779341064453124,0.21860696375370026,-0.09865183383226395,0.5021164417266846
1783153029484051700,8.7890517578125,0.16790664196014404,-0.1450762301683426,0.497229665517807
1783153029493762000,8.798761962890625,0.12697987258434296,-0.15973655879497528,0.4825693368911743
1783153029503472600,8.80847265625,0.09216158092021942,-0.15057384967803955,0.4459185004234314
1783153029513183200,8.818183349609376,0.0683385357260704,-0.13957859575748444,0.3897205591201782
1783153029522893800,8.827893798828125,0.050013117492198944,-0.1310267299413681,0.3151971995830536
1783153029532604400,8.8376044921875,0.035352785140275955,-0.10292776674032211,0.2241809368133545
1783153029542314800,8.847314697265626,0.03290939703583717,-0.04428642615675926,0.12827792763710022
1783153029552025300,8.857025390625,0.045737188309431076,-0.030847785994410515,0.03665083646774292
1783153029561736000,8.86673583984375,0.0695602297782898,-0.12064233422279358,-0.05619794875383377
1783153029571446500,8.876446533203126,0.09155073016881943,-0.23364907503128052,-0.17531315982341766
1783153029581157000,8.8861572265625,0.0683385357260704,-0.29290124773979187,-0.30481278896331787
1783153029590867700,8.89586767578125,-0.01901262067258358,-0.26724568009376526,-0.41171106696128845
1783153029600578300,8.905578369140626,-0.16072918474674225,-0.19027891755104065,-0.49051034450531006
1783153029610288600,8.91528857421875,-0.32871219515800476,-0.07971556484699249,-0.5632011890411377
1783153029619999200,8.924999267578125,-0.47531551122665405,0.02351761981844902,-0.6499415040016174
1783153029629709800,8.934709716796876,-0.5565581917762756,0.12125317752361298,-0.7605048418045044
1783153029639420400,8.94442041015625,-0.535178542137146,0.20012883841991425,-0.8790091872215271
1783153029649131000,8.954131103515625,-0.4185067415237427,0.22700610756874084,-0.9853729605674744
1783153029658841600,8.963841552734374,-0.23647424578666687,0.2056264579296112,-1.0464577674865723
1783153029668552000,8.973552001953125,-0.06055023521184921,0.13469181954860687,-1.0427926778793335
1783153029678262500,8.983262451171875,0.061619218438863754,0.017409147694706917,-0.9920923113822937
1783153029687973000,8.99297314453125,0.13980767130851746,-0.13652436435222626,-0.8955020904541016
1783153029697683700,9.00268359375,0.16973918676376343,-0.3179459869861603,-0.7537854909896851
1783153029707394300,9.012394287109375,0.14347274601459503,-0.50853031873703,-0.6041279435157776
1783153029717105000,9.02210498046875,0.09032903611660004,-0.6685723066329956,-0.4734066128730774
1783153029726815500,9.0318154296875,0.03290939703583717,-0.7516475319862366,-0.40071579813957214
1783153029736525800,9.04152587890625,-0.030007870867848396,-0.753480076789856,-0.40132665634155273
1783153029746236400,9.051236328125,-0.09597937762737274,-0.6771242022514343,-0.4752391576766968
1783153029755947000,9.060947021484376,-0.17172443866729736,-0.5250232219696045,-0.5925218462944031
1783153029765657600,9.07065771484375,-0.24746949970722198,-0.3387148082256317,-0.7366818189620972
1783153029775368200,9.0803681640625,-0.30366745591163635,-0.15546062588691711,-0.8496885299682617
1783153029785078800,9.090078857421876,-0.33176642656326294,0.016798298805952072,-0.8826742768287659
1783153029794789000,9.0997890625,-0.3366532027721405,0.1291942000389099,-0.8148702383041382
1783153029804499700,9.109499755859375,-0.3342097997665405,0.15981291234493256,-0.6438329815864563
1783153029814210300,9.119210205078126,-0.32932302355766296,0.07727217674255371,-0.41110020875930786
1783153029823921000,9.1289208984375,-0.3201603293418884,-0.10720369219779968,-0.1704263836145401
1783153029833631500,9.138631591796875,-0.29389387369155884,-0.32344362139701843,0.037261683493852615
1783153029843342000,9.148342041015624,-0.26518407464027405,-0.48959407210350037,0.1960819661617279
1783153029853052700,9.158052734375,-0.24808034300804138,-0.5659499764442444,0.29748260974884033
1783153029862763000,9.167762939453125,-0.25235626101493835,-0.5494571328163147,0.33352261781692505
1783153029872473600,9.1774736328125,-0.2590755820274353,-0.49203747510910034,0.33230090141296387
1783153029882184200,9.18718408203125,-0.26518407464027405,-0.4095730781555176,0.30969956517219543
1783153029891894800,9.196894775390625,-0.2743467688560486,-0.3277195692062378,0.2767138183116913
1783153029901605400,9.20660546875,-0.2865637242794037,-0.2599155008792877,0.24311721324920654
1783153029911316000,9.21631591796875,-0.27801185846328735,-0.21165858209133148,0.20280128717422485
1783153029921026600,9.226026611328125,-0.24991288781166077,-0.19027891755104065,0.1716480851173401
1783153029930737000,9.23573681640625,-0.21020781993865967,-0.16340164840221405,0.16737215220928192
1783153029940447500,9.245447509765626,-0.18455222249031067,-0.12308572232723236,0.18875180184841156
1783153029950158000,9.255157958984375,-0.18455222249031067,-0.09071081876754761,0.22479179501533508
1783153029959868700,9.26486865234375,-0.20226679742336273,-0.04550812020897865,0.24678228795528412
1783153029969579300,9.274579345703126,-0.23891763389110565,-0.003970507066696882,0.237008735537529
1783153029979289900,9.284289794921875,-0.28045526146888733,0.029626091942191124,0.18569757044315338
1783153029989000400,9.29400048828125,-0.3140518367290497,0.040010496973991394,0.10384403169155121
1783153029998710800,9.303710693359376,-0.34215080738067627,0.017409147694706917,0.004886778071522713
1783153030008421400,9.31342138671875,-0.3629196286201477,-0.009468132629990578,-0.09590301662683487
1783153030018132000,9.323132080078125,-0.3751365840435028,-0.016187451779842377,-0.1844758689403534
1783153030027842600,9.332842529296874,-0.38307759165763855,-0.003970507066696882,-0.2651077210903168
1783153030037553200,9.34255322265625,-0.38246673345565796,0.05405998229980469,-0.3298575282096863
1783153030047263700,9.352263671875,-0.38429927825927734,0.1543152928352356,-0.37383851408958435
1783153030056974000,9.36197412109375,-0.375747412443161,0.2612135708332062,-0.39949411153793335
1783153030066684700,9.3716845703125,-0.3531460762023926,0.3742203116416931,-0.38910970091819763
1783153030076395300,9.381395263671875,-0.32077115774154663,0.470734179019928,-0.32069480419158936
1783153030086105900,9.39110595703125,-0.30611082911491394,0.5177693963050842,-0.21623992919921875
1783153030095816400,9.40081640625,-0.29450473189353943,0.5318188667297363,-0.10811996459960938
1783153030105527000,9.410527099609375,-0.2725142240524292,0.512882649898529,-0.036039989441633224
1783153030115237600,9.420237548828124,-0.2328091561794281,0.4713450074195862,0.014660334214568138
1783153030124948200,9.4299482421875,-0.1784437596797943,0.4572955369949341,0.05986303091049194
1783153030134658600,9.439658447265625,-0.14545799791812897,0.498222291469574,0.10078980028629303
1783153030144369200,9.449369140625,-0.13018682599067688,0.5910710692405701,0.15026842057704926
1783153030154079700,9.459079833984376,-0.1014770045876503,0.6863632798194885,0.19241689145565033
1783153030163790300,9.468790283203125,-0.043446511030197144,0.7926506996154785,0.2351761907339096
1783153030173501000,9.4785009765625,0.017027366906404495,0.938032329082489,0.258999228477478
1783153030183211500,9.48821142578125,0.04390464723110199,0.9722397923469543,0.27976804971694946
1783153030192921900,9.497921875,0.03840702027082443,0.8384642004966736,0.314586341381073
1783153030202632400,9.507632568359375,0.015194825828075409,0.655820906162262,0.40010493993759155
1783153030212343000,9.517343017578124,-0.02695363573729992,0.48844873905181885,0.5149442553520203
1783153030222053600,9.5270537109375,-0.09414683282375336,0.3253525197505951,0.6022953987121582
1783153030231764200,9.53676416015625,-0.16500511765480042,0.25449424982070923,0.6432221531867981
1783153030241474800,9.546474853515624,-0.21326205134391785,0.4304182529449463,0.6517740488052368
1783153030251185400,9.556185302734375,-0.22486814856529236,0.6778113842010498,0.6053496599197388
1783153030260895700,9.565895751953125,-0.22303560376167297,0.6955259442329407,0.4721849262714386
1783153030270606300,9.5756064453125,-0.2077644169330597,0.42308807373046875,0.21440738439559937
1783153030280317000,9.58531689453125,-0.15645325183868408,0.04856235533952713,-0.11911521852016449
1783153030290027500,9.595027587890625,-0.08987089991569519,-0.30939415097236633,-0.46485477685928345
1783153030299738000,9.604738037109374,-0.06055023521184921,-0.6087092757225037,-0.7776085734367371
1783153030309448700,9.61444873046875,-0.03978142887353897,-0.7070556879043579,-0.9957574009895325
1783153030319159300,9.6241591796875,0.0017561858985573053,-0.5146388411521912,-1.061728835105896
1783153030328870000,9.633869873046875,0.06528430432081223,-0.07971556484699249,-0.9481112957000732
1783153030338580200,9.643580322265626,0.13003410398960114,0.41942301392555237,-0.6835380792617798
1783153030348290800,9.653290771484375,0.20761170983314514,0.8091435432434082,-0.3396310806274414
1783153030358001400,9.66300146484375,0.2993151545524597,0.9533035159111023,-0.013438640162348747
1783153030367712000,9.6727119140625,0.37689274549484253,0.8115869164466858,0.2357870489358902
1783153030377422600,9.682422607421875,0.4428642690181732,0.5183802843093872,0.41171106696128845
1783153030387133200,9.69213330078125,0.5143333673477173,0.17630578577518463,0.5137225389480591
1783153030396843800,9.70184375,0.5900784730911255,-0.15912571549415588,0.5387672781944275
1783153030406554000,9.71155419921875,0.6462764143943787,-0.4059080183506012,0.4984513521194458
1783153030416264700,9.7212646484375,0.6872031688690186,-0.4822639226913452,0.38788801431655884
1783153030425975300,9.730975341796874,0.7116370797157288,-0.4089622497558594,0.22845686972141266
1783153030435686000,9.740685791015625,0.7195780873298645,-0.2782409191131592,0.05375456064939499
1783153030445396500,9.750396484375,0.7055285573005676,-0.14080029726028442,-0.09345962852239609
1783153030455107000,9.760107177734374,0.6401679515838623,-0.0198525357991457,-0.1692046970129013
1783153030464817400,9.7698173828125,0.518609344959259,0.08948912471532822,-0.17958909273147583
1783153030474528000,9.779528076171875,0.367730051279068,0.17264071106910706,-0.14721418917179108
1783153030484238600,9.789238525390624,0.20944425463676453,0.19951798021793365,-0.12155860662460327
1783153030493949200,9.79894921875,0.06039752438664436,0.1543152928352356,-0.11606097966432571
1783153030503659800,9.80865966796875,-0.05993938818573952,0.06383354216814041,-0.15026842057704926
1783153030513370400,9.818370361328125,-0.1393495351076126,-0.018630841746926308,-0.2241809368133545
1783153030523081000,9.8280810546875,-0.141182079911232,-0.06994201242923737,-0.3127537965774536
1783153030532791600,9.83779150390625,-0.08131904155015945,-0.08338065445423126,-0.37444937229156494
1783153030542502000,9.847501953125,-0.012293301522731781,-0.038788799196481705,-0.3805578351020813
1783153030552212500,9.85721240234375,0.05062396824359894,0.0662769302725792,-0.3536805510520935
1783153030561923000,9.866923095703125,0.0952158197760582,0.17691664397716522,-0.3151971995830536
1783153030571633700,9.876633544921875,0.11476293206214905,0.24960745871067047,-0.28282228112220764
1783153030581344300,9.88634423828125,0.11537377536296844,0.21540001034736633,-0.2620534598827362
1783153030591054800,9.896054931640625,0.09949174523353577,0.11575555801391602,-0.2651077210903168
1783153030600765400,9.905765380859375,0.07383616268634796,0.002748812548816204,-0.2626643180847168
1783153030610476000,9.91547607421875,0.054899897426366806,-0.09559759497642517,-0.24250635504722595
1783153030620186400,9.925186279296875,0.0561215914785862,-0.16462333500385284,-0.22540263831615448
1783153030629897000,9.93489697265625,0.0823880210518837,-0.1841704547405243,-0.21807247400283813
1783153030639607600,9.944607666015624,0.14041851460933685,-0.14018943905830383,-0.20035789906978607
1783153030649318100,9.954318115234376,0.20822255313396454,-0.017409147694706917,-0.16737215220928192
1783153030659028700,9.96402880859375,0.27052897214889526,0.10964708030223846,-0.1313321590423584
1783153030668739300,9.9737392578125,0.3029802441596985,0.2068481594324112,-0.09284878522157669
1783153030678450000,9.983449951171876,0.288930743932724,0.19890713691711426,-0.04825693368911743
1783153030688160300,9.99316015625,0.21555273234844208,0.06933116167783737,0.011606098152697086
1783153030697870800,10.002870849609375,0.08910734206438065,-0.12125317752361298,0.10934165865182877
1783153030707581400,10.01258154296875,-0.07093463838100433,-0.275186687707901,0.2516690790653229
1783153030717292000,10.0222919921875,-0.22242476046085358,-0.30084228515625,0.4080459773540497
1783153030727002600,10.032002685546875,-0.30305659770965576,-0.20555010437965393,0.5302154421806335
1783153030736713200,10.041713134765626,-0.26335152983665466,-0.0791047215461731,0.5858024954795837
1783153030746423800,10.051423828125,-0.11674818396568298,0.07971556484699249,0.5595360994338989
1783153030756134100,10.061134033203125,0.12270393967628479,0.26304611563682556,0.4489727318286896
1783153030765844700,10.0708447265625,0.4312581717967987,0.28137150406837463,0.28160059452056885
1783153030775555300,10.080555419921875,0.5711421966552734,-0.019241688773036003,0.09529217332601547
1783153030785266000,10.090265869140625,0.4031592011451721,-0.3643703758716583,0.02626643143594265
1783153030794976500,10.0999765625,0.14530529081821442,-0.5732801556587219,0.1313321590423584
1783153030804687000,10.10968701171875,-0.08742751181125641,-0.6062659025192261,0.30969956517219543
1783153030814397700,10.119397705078125,-0.1814979910850525,-0.3503209054470062,0.5241069197654724
1783153030824108300,10.1291083984375,-0.31649523973464966,-0.5360184907913208,0.5919110178947449
1783153030833818600,10.138818603515626,-0.44965994358062744,-0.799904465675354,0.5491516590118408
1783153030843529200,10.148529296875,-0.554114818572998,-1.0460759401321411,0.34573954343795776
1783153030853239800,10.15823974609375,-0.6726191639900208,-1.3099619150161743,-0.07452336698770523
1783153030862950400,10.167950439453126,-0.6781167984008789,-1.2372710704803467,-0.555260181427002
1783153030872661000,10.177660888671875,-0.5797703862190247,-1.0576820373535156,-1.0293539762496948
1783153030882371600,10.18737158203125,-0.4698179066181183,-0.749204158782959,-1.4154094457626343
1783153030892082200,10.197082275390626,-0.35681116580963135,-0.377198189496994,-1.6261518001556396
1783153030901792500,10.20679248046875,-0.2193705290555954,-0.15118469297885895,-1.6121022701263428
1783153030911503000,10.216503173828125,-0.0745997205376625,-0.09865183383226395,-1.3714284896850586
1783153030921213700,10.226213623046876,0.08666395395994186,-0.1328592747449875,-0.9719343185424805
1783153030930924300,10.23592431640625,0.23387815058231354,-0.21410197019577026,-0.5094466209411621
1783153030940635000,10.245634765625,0.2993151545524597,-0.28496024012565613,-0.04886778071522713
1783153030950345500,10.255345458984374,0.2852656841278076,-0.3148917555809021,0.3671191930770874
1783153030960056000,10.26505615234375,0.2375432252883911,-0.3252761662006378,0.6994200944900513
1783153030969766700,10.2747666015625,0.20577916502952576,-0.33504971861839294,0.9107732772827148
1783153030979477000,10.28447705078125,0.22043950855731964,-0.34543412923812866,0.9510892033576965
1783153030989187600,10.2941875,0.253425270318985,-0.3374931216239929,0.8643488883972168
1783153030998898200,10.303898193359375,0.25953373312950134,-0.29229041934013367,0.712247908115387
1783153031008608800,10.31360888671875,0.15446799993515015,-0.0021379655227065086,0.555260181427002
1783153031018319400,10.3233193359375,0.2650313675403595,-0.040010496973991394,0.5015056133270264
1783153031028030000,10.333030029296875,0.20822255313396454,0.018630841746926308,0.3035911023616791
1783153031037740500,10.342740478515625,0.10376767814159393,0.057114217430353165,0.11483928561210632
1783153031047451100,10.352451171875,-0.013514995574951172,0.11942064017057419,-0.021990500390529633
1783153031057161500,10.362161376953125,-0.09597937762737274,0.16103461384773254,-0.09529217332601547
1783153031066872000,10.3718720703125,-0.1533990204334259,0.18607935309410095,-0.11361759155988693
1783153031076582700,10.381582763671876,-0.1949366331100464,0.20012883841991425,-0.09712471067905426
1783153031086293200,10.391293212890625,-0.22547899186611176,0.2062373012304306,-0.07452336698770523
1783153031096003800,10.40100390625,-0.26212984323501587,0.21295662224292755,-0.042759306728839874
1783153031105714400,10.41071435546875,-0.2975589632987976,0.19585290551185608,-0.02076880633831024
1783153031115425000,10.420425048828125,-0.3403182923793793,0.13774605095386505,-0.01832541823387146
1783153031125135600,10.430135498046875,-0.39773792028427124,0.04062134400010109,-0.04825693368911743
1783153031134846200,10.43984619140625,-0.44721654057502747,-0.0009162708884105086,-0.12094775587320328
1783153031144556500,10.449556640625,-0.47531551122665405,0.050394900143146515,-0.20707722008228302
1783153031154267100,10.45926708984375,-0.48936501145362854,0.1677539348602295,-0.28160059452056885
1783153031163977700,10.468977783203124,-0.48936501145362854,0.2966426908969879,-0.3542914092540741
1783153031173688300,10.478688232421876,-0.4838673770427704,0.39376741647720337,-0.4190412163734436
1783153031183399000,10.48839892578125,-0.46309858560562134,0.4444677233695984,-0.4691306948661804
1783153031193109500,10.498109619140624,-0.4050680994987488,0.42614230513572693,-0.4947862923145294
1783153031202820000,10.507820068359376,-0.3274904787540436,0.3656684458255768,-0.5015056133270264
1783153031212530700,10.51753076171875,-0.2578538954257965,0.29175591468811035,-0.47951510548591614
1783153031222241300,10.5272412109375,-0.23708508908748627,0.1934095174074173,-0.4422534108161926
1783153031231951600,10.53695166015625,-0.25418880581855774,0.07605048269033432,-0.42881476879119873
1783153031241662200,10.546662109375,-0.26212984323501587,-0.019241688773036003,-0.4575245976448059
1783153031251372800,10.556372802734375,-0.24075017869472504,-0.04184303805232048,-0.53143709897995
1783153031261083400,10.56608349609375,-0.18760646879673004,0.037567105144262314,-0.629172682762146
1783153031270794000,10.5757939453125,-0.12041326612234116,0.18241426348686218,-0.7134696245193481
1783153031280504600,10.585504638671875,-0.05199837312102318,0.31863319873809814,-0.7702783942222595
1783153031290215200,10.595215087890624,0.013973130844533443,0.4395809471607208,-0.8179244995117188
1783153031299925800,10.60492578125,0.06039752438664436,0.498222291469574,-0.860683798789978
1783153031309636000,10.614635986328125,0.07566870748996735,0.48905959725379944,-0.8747332692146301
1783153031319346700,10.6243466796875,0.08299887180328369,0.4517979025840759,-0.8246437907218933
1783153031329057300,10.634057373046875,0.0823880210518837,0.43591588735580444,-0.7018635272979736
1783153031338768000,10.643767822265625,0.0823880210518837,0.42125552892684937,-0.5381564497947693
1783153031348478500,10.653478515625,0.0946049690246582,0.37177690863609314,-0.35795649886131287
1783153031358189000,10.66318896484375,0.11842801421880722,0.2838149070739746,-0.18997350335121155
1783153031367899600,10.672899658203125,0.15324631333351135,0.18852274119853973,-0.061084724962711334
1783153031377610200,10.6826103515625,0.19356222450733185,0.12125317752361298,0.028098974376916885
1783153031387320600,10.692320556640626,0.23509983718395233,0.1450762301683426,0.08185353130102158
1783153031397031200,10.70203125,0.28160059452056885,0.2459423840045929,0.09773556143045425
1783153031406741800,10.71174169921875,0.3298575282096863,0.4169796109199524,0.11667182296514511
1783153031416452400,10.721452392578126,0.3658975064754486,0.6649835705757141,0.17836740612983704
1783153031426163000,10.731162841796875,0.35978904366493225,0.8476269245147705,0.26816195249557495
1783153031435873500,10.74087353515625,0.33352261781692505,0.8305231928825378,0.3414636254310608
1783153031445584100,10.750584228515624,0.3274141252040863,0.553809404373169,0.3836120665073395
1783153031455294700,10.760294677734375,0.3274141252040863,0.02229592576622963,0.33413344621658325
1783153031465005000,10.770005126953125,0.32130566239356995,-0.6868977546691895,0.11361759155988693
1783153031474715600,10.779715576171874,0.34940463304519653,-1.2598724365234375,-0.23823043704032898
1783153031484426200,10.78942626953125,0.45508119463920593,-1.3215680122375488,-0.5473191738128662
1783153031494136800,10.79913671875,0.6193991303443909,-0.8243383765220642,-0.6365028619766235
1783153031503847400,10.808847412109374,0.7776085734367371,-0.027793550863862038,-0.49112120270729065
1783153031513558000,10.81855810546875,0.8777875304222107,0.8067001700401306,-0.16798299551010132
1783153031523268600,10.8282685546875,0.8600729703903198,1.2996538877487183,0.2089097648859024
1783153031532979200,10.837979248046874,0.7519529461860657,1.2287956476211548,0.5485408306121826
1783153031542689800,10.847689697265626,0.5680879354476929,0.8164737224578857,0.8258655071258545
1783153031552400400,10.857400390625,0.3658975064754486,0.32046574354171753,1.0219475030899048
1783153031562111000,10.867111083984375,0.2515927255153656,-0.091321662068367,1.1019684076309204
1783153031571821300,10.8768212890625,0.2625879645347595,-0.34421244263648987,1.0537115335464478
1783153031581532000,10.886531982421875,0.24792763590812683,-0.532353401184082,0.9101623892784119
1783153031591242500,10.896242431640625,0.34635040163993835,-0.3032856583595276,0.7195780873298645
1783153031600953000,10.905953125,0.5644228458404541,-0.006413896102458239,0.53143709897995
1783153031610663700,10.91566357421875,0.8002098798751831,0.39498910307884216,0.3512371778488159
1783153031620374300,10.925374267578125,0.939483106136322,0.6136724352836609,0.24311721324920654
1783153031630084900,10.9350849609375,0.971247136592865,0.6991910338401794,0.21379654109477997
1783153031639795500,10.94479541015625,0.911384105682373,0.7101863026618958,0.2608317732810974
1783153031649505800,10.954505859375,0.813648521900177,0.6313869953155518,0.34635040163993835
1783153031659216400,10.96421630859375,0.7085828185081482,0.5049416422843933,0.4477510452270508
1783153031668927000,10.973927001953125,0.6041279435157776,0.31863319873809814,0.5289937257766724
1783153031678637600,10.983637451171875,0.49234288930892944,0.13408097624778748,0.5705313682556152
1783153031688348200,10.99334814453125,0.4202629029750824,-0.013744063675403595,0.5760289430618286
1783153031698058800,11.003058837890626,0.3970507085323334,-0.1181989461183548,0.5473191738128662
1783153031707769300,11.012769287109375,0.40254834294319153,-0.14080029726028442,0.4734066128730774
1783153031717480000,11.02247998046875,0.4471401870250702,-0.04489727318286896,0.3793361485004425
1783153031727190500,11.0321904296875,0.5198310017585754,0.1304158866405487,0.25777754187583923
1783153031736901000,11.041901123046875,0.5845808386802673,0.2996969223022461,0.12461283802986145
1783153031746611700,11.05161181640625,0.6591041684150696,0.5208236575126648,0.011606098152697086
1783153031756322000,11.061322021484376,0.7440119385719299,0.674146294593811,-0.09468132257461548
1783153031766032600,11.07103271484375,0.8069292306900024,0.6625401973724365,-0.17409147322177887
1783153031775743200,11.0807431640625,0.818535327911377,0.5641937851905823,-0.20280128717422485
1783153031785453800,11.090453857421876,0.8124268651008606,0.4267531633377075,-0.19241689145565033
1783153031795164400,11.100164306640625,0.8002098798751831,0.26548948884010315,-0.19058434665203094
1783153031804875000,11.109875,0.7983773946762085,0.12491826713085175,-0.2101314514875412
1783153031814585600,11.119585693359374,0.7983773946762085,0.03023693896830082,-0.23334364593029022
1783153031824296200,11.129296142578125,0.7831062078475952,0.013133215717971325,-0.25289076566696167
1783153031834006500,11.139006591796875,0.7507312893867493,0.05100574716925621,-0.2779355049133301
1783153031843717000,11.148717041015624,0.7098045349121094,0.09681928902864456,-0.2901524603366852
1783153031853427700,11.158427734375,0.6633801460266113,0.14202198386192322,-0.2852656841278076
1783153031863138300,11.16813818359375,0.5937435626983643,0.17325155436992645,-0.265718549489975
1783153031872849000,11.177848876953124,0.49051034450531006,0.1805817186832428,-0.22540263831615448
1783153031882559500,11.1875595703125,0.3671191930770874,0.15675868093967438,-0.18691925704479218
1783153031892270000,11.19727001953125,0.25647950172424316,0.12552911043167114,-0.1453816443681717
1783153031901980700,11.206980712890624,0.1740151196718216,0.08826743066310883,-0.1050657257437706
1783153031911691300,11.216691162109376,0.12759071588516235,0.05100574716925621,-0.08551861345767975
1783153031921401900,11.22640185546875,0.14958122372627258,0.003970507066696882,-0.08368607610464096
1783153031931112200,11.2361123046875,0.21677441895008087,-0.04978405311703682,-0.11545012891292572
1783153031940822800,11.24582275390625,0.25892287492752075,-0.15301723778247833,-0.1973036676645279
1783153031950533400,11.255533447265625,0.24609509110450745,-0.31855684518814087,-0.25655585527420044
1783153031960244000,11.265243896484375,0.20883341133594513,-0.3545968234539032,-0.26694026589393616
1783153031969954600,11.27495458984375,0.1587439328432083,-0.2898470163345337,-0.29687178134918213
1783153031979665200,11.2846650390625,0.11720632016658783,-0.23120568692684174,-0.34757208824157715
1783153031989375700,11.294375732421875,0.10682191699743271,-0.15546062588691711,-0.34696123003959656
1783153031999086300,11.30408642578125,0.1343100368976593,-0.07177454978227615,-0.26755109429359436
1783153032008797000,11.313796875,0.18317782878875732,0.027793550863862038,-0.1185043677687645
1783153032018507500,11.323507568359375,0.24304085969924927,0.07116370648145676,0.10628741979598999
1783153032028218000,11.333218017578124,0.26991814374923706,-0.08032641559839249,0.33291175961494446
1783153032037928400,11.342928466796875,0.24731677770614624,-0.33077380061149597,0.4978405237197876
1783153032047639000,11.35263916015625,0.1874537467956543,-0.5158604979515076,0.5888567566871643
1783153032057349600,11.362349609375,0.11720632016658783,-0.5989357233047485,0.5723638534545898
1783153032067060200,11.372060302734376,0.01885990984737873,-0.6490252017974854,0.41171106696128845
1783153032076770800,11.381770751953125,-0.09475768357515335,-0.6398624777793884,0.10140064358711243
1783153032086481400,11.3914814453125,-0.18394137918949127,-0.4456130862236023,-0.29320669174194336
1783153032096192000,11.40119189453125,-0.22181391716003418,-0.12064233422279358,-0.6395570635795593
1783153032105902600,11.410902587890625,-0.2205922156572342,0.20196136832237244,-0.8515210747718811
1783153032115613200,11.42061328125,-0.1808871477842331,0.40903860330581665,-0.8753440976142883
1783153032125323800,11.43032373046875,-0.1283542811870575,0.4664582312107086,-0.7446228265762329
1783153032135034400,11.440034423828125,-0.05932854115962982,0.4401918053627014,-0.4746283292770386
1783153032144744700,11.44974462890625,0.027411770075559616,0.36872267723083496,-0.11545012891292572
1783153032154455300,11.459455322265624,0.1074327602982521,0.25021830201148987,0.26755109429359436
1783153032164166000,11.469165771484375,0.1605764776468277,0.09559759497642517,0.6029062271118164
1783153032173876500,11.47887646484375,0.18073442578315735,-0.03390202298760414,0.8448017835617065
1783153032183587000,11.488587158203124,0.173404261469841,-0.12430741637945175,0.9602518677711487
1783153032193297700,11.498297607421875,0.15141376852989197,-0.17745113372802734,0.948034942150116
1783153032203008300,11.50800830078125,0.12575818598270416,-0.19333316385746002,0.8411366939544678
1783153032212718800,11.51771875,0.10315682739019394,-0.12430741637945175,0.6591041684150696
1783153032222429400,11.527429443359376,0.09704835712909698,0.0198525357991457,0.4575245976448059
1783153032232140000,11.53714013671875,0.11170869320631027,0.18852274119853973,0.2907632887363434
1783153032241850400,11.546850341796874,0.1355317384004593,0.3137464225292206,0.20035789906978607
1783153032251561000,11.55656103515625,0.15446799993515015,0.36933353543281555,0.18875180184841156
1783153032261271600,11.566271484375,0.16973918676376343,0.3479538559913635,0.23823043704032898
1783153032270982100,11.575982177734375,0.16668494045734406,0.2954210042953491,0.32069480419158936
1783153032280692700,11.585692626953126,0.1361425817012787,0.25388339161872864,0.4037700295448303
1783153032290403300,11.5954033203125,0.08299887180328369,0.21784339845180511,0.4715740978717804
1783153032300114000,11.605114013671875,0.01763821393251419,0.1787491738796234,0.503948986530304
1783153032309824500,11.614824462890626,-0.0293970238417387,0.1653105467557907,0.48928865790367126
1783153032319535000,11.62453515625,-0.0361163429915905,0.17264071106910706,0.4330907166004181
1783153032329245700,11.63424560546875,-0.004352286923676729,0.16286714375019073,0.3530697226524353
1783153032338956300,11.643956298828124,0.05123481526970863,0.144465371966362,0.25472331047058105
1783153032348666600,11.65366650390625,0.11415208131074905,0.1438545286655426,0.16187451779842377
1783153032358377200,11.663377197265625,0.1599656194448471,0.1316375881433487,0.08979454636573792
1783153032368087800,11.673087890625,0.18989713490009308,0.11942064017057419,0.024433890357613564
1783153032377798400,11.68279833984375,0.2008923888206482,0.10964708030223846,-0.028098974376916885
1783153032387509000,11.692509033203125,0.20761170983314514,0.11514470726251602,-0.0653606578707695
1783153032397219600,11.702219482421874,0.22105035185813904,0.12064233422279358,-0.08185353130102158
1783153032406930200,11.71193017578125,0.2558686435222626,0.1291942000389099,-0.09345962852239609
1783153032416640800,11.721640869140625,0.2919849753379822,0.12003148347139359,-0.10384403169155121
1783153032426351400,11.731351318359375,0.32008397579193115,0.10353861004114151,-0.11422843486070633
1783153032436062000,11.74106201171875,0.3365768492221832,0.1175880953669548,-0.12400199472904205
1783153032445772500,11.7507724609375,0.3518480062484741,0.15859122574329376,-0.14049486815929413
1783153032455483000,11.76048291015625,0.37078428268432617,0.21417832374572754,-0.15332266688346863
1783153032465193500,11.770193359375,0.390942245721817,0.29297763109207153,-0.1588202863931656
1783153032474904000,11.779904052734375,0.4227063059806824,0.38155046105384827,-0.1569877415895462
1783153032484614700,11.78961474609375,0.46546560525894165,0.4786751866340637,-0.13499724864959717
1783153032494325200,11.7993251953125,0.5063923597335815,0.5776324272155762,-0.10262233763933182
1783153032504035800,11.809035888671875,0.550373375415802,0.7095754742622375,-0.11606097966432571
1783153032513746400,11.818746337890625,0.5845808386802673,0.9062682390213013,-0.17958909273147583
1783153032523457000,11.82845703125,0.6383354067802429,1.220854640007019,-0.22845686972141266
1783153032533167600,11.838167724609375,0.7061394453048706,1.5122287273406982,-0.17775654792785645
1783153032542878200,11.847878173828125,0.735460102558136,1.4108281135559082,0.01710372418165207
1783153032552588800,11.8575888671875,0.652384877204895,0.9319238662719727,0.25289076566696167
1783153032562299400,11.86729931640625,0.38544461131095886,0.5800758004188538,0.6181774139404297
1783153032572010000,11.877010009765625,-0.0019088976550847292,-0.18722468614578247,0.8240329623222351
1783153032591431000,11.896430908203126,-0.05138752609491348,-0.6087092757225037,0.7623373866081238
1783153032601141500,11.9061416015625,0.1605764776468277,-0.26663482189178467,0.4056025743484497
1783153032610852000,11.91585205078125,0.41232189536094666,0.3271850645542145,0.030542362481355667
1783153032620562700,11.925562744140626,0.5961869359016418,0.8580113053321838,-0.2736595869064331
1783153032630273300,11.935273193359375,0.6517740488052368,1.297210454940796,-0.43797749280929565
1783153032639983900,11.94498388671875,0.5998520255088806,1.548879623413086,-0.4227063059806824
