time,seconds_elapsed,z,y,x
1783169618024877800,0.0908779296875,-0.6500396728515625,-0.4290924072265625,0.106353759765625
1783169618034856700,0.100856689453125,-0.6619873046875,-0.4398651123046875,0.1118621826171875
1783169618044806000,0.110805908203125,-0.6689910888671875,-0.45758056640625,0.1141357421875
1783169618054754800,0.1207548828125,-0.673797607421875,-0.473297119140625,0.111236572265625
1783169618064733700,0.130733642578125,-0.6833953857421875,-0.4831085205078125,0.0990142822265625
1783169618074682600,0.1406826171875,-0.6985931396484375,-0.4906005859375,0.0862884521484375
1783169618084630800,0.150630859375,-0.712493896484375,-0.4996795654296875,0.0811309814453125
1783169618094579700,0.160579833984375,-0.712677001953125,-0.5068359375,0.076629638671875
1783169618104558600,0.17055859375,-0.71832275390625,-0.50628662109375,0.07440185546875
1783169618114507800,0.1805078125,-0.7267303466796875,-0.5114898681640625,0.078887939453125
1783169618124456700,0.190456787109375,-0.729827880859375,-0.5247802734375,0.090667724609375
1783169618134435600,0.200435546875,-0.7343902587890625,-0.5327911376953125,0.1016387939453125
1783169618144384500,0.210384521484375,-0.7462615966796875,-0.5355987548828125,0.1089324951171875
1783169618154332700,0.220332763671875,-0.7621002197265625,-0.5401153564453125,0.1103973388671875
1783169618164281900,0.23028173828125,-0.7819061279296875,-0.546234130859375,0.10980224609375
1783169618174260700,0.2402607421875,-0.7896881103515625,-0.548919677734375,0.1075592041015625
1783169618184210000,0.2502099609375,-0.7955322265625,-0.54498291015625,0.103851318359375
1783169618194158800,0.260158935546875,-0.807525634765625,-0.5467681884765625,0.09942626953125
1783169618204137700,0.2701376953125,-0.8174285888671875,-0.5551605224609375,0.09967041015625
1783169618214086700,0.280086669921875,-0.8200225830078125,-0.5658111572265625,0.0996551513671875
1783169618224035800,0.290035888671875,-0.834075927734375,-0.5697174072265625,0.1001434326171875
1783169618233983700,0.299983642578125,-0.853424072265625,-0.575408935546875,0.0989837646484375
1783169618243963600,0.309963623046875,-0.86962890625,-0.5814971923828125,0.0967864990234375
1783169618253911800,0.319911865234375,-0.8927154541015625,-0.582733154296875,0.092987060546875
1783169618263860700,0.32986083984375,-0.91387939453125,-0.577880859375,0.080078125
1783169618273839600,0.339839599609375,-0.934295654296875,-0.5709381103515625,0.062164306640625
1783169618283802600,0.349802734375,-0.968994140625,-0.56817626953125,0.0445404052734375
1783169618293751800,0.359751708984375,-1.00628662109375,-0.567474365234375,0.0299530029296875
1783169618303699500,0.369699462890625,-1.02313232421875,-0.5605316162109375,0.0167999267578125
1783169618313679600,0.3796796875,-1.02655029296875,-0.5545654296875,0.01129150390625
1783169618323627800,0.389627685546875,-1.007476806640625,-0.5693511962890625,0.0232086181640625
1783169618333576700,0.39957666015625,-0.9804840087890625,-0.591522216796875,0.0402679443359375
1783169618343555600,0.4095556640625,-0.988677978515625,-0.594207763671875,0.0438690185546875
1783169618353504800,0.4195048828125,-1.0217132568359375,-0.5860748291015625,0.0329742431640625
1783169618363453700,0.42945361328125,-1.05218505859375,-0.5870819091796875,0.0238037109375
1783169618373402600,0.439402587890625,-1.0830230712890625,-0.581573486328125,0.024139404296875
1783169618383381500,0.449381591796875,-1.1133575439453125,-0.5496673583984375,0.018524169921875
1783169618393330700,0.45933056640625,-1.1250152587890625,-0.5031585693359375,-0.00384521484375
1783169618403278600,0.469278564453125,-1.112152099609375,-0.4597320556640625,-0.0358123779296875
1783169618413258500,0.479258544921875,-1.087249755859375,-0.4268798828125,-0.0671844482421875
1783169618423206700,0.48920654296875,-1.05035400390625,-0.40203857421875,-0.0986785888671875
1783169618433155600,0.499155517578125,-0.98870849609375,-0.3909759521484375,-0.113189697265625
1783169618443104500,0.5091044921875,-0.9509735107421875,-0.402130126953125,-0.1048736572265625
1783169618453083400,0.51908349609375,-0.9364166259765625,-0.4271087646484375,-0.0847015380859375
1783169618463032800,0.52903271484375,-0.9221649169921875,-0.440673828125,-0.06170654296875
1783169618472980500,0.53898046875,-0.9198150634765625,-0.4404754638671875,-0.0490570068359375
1783169618482960600,0.548960693359375,-0.917327880859375,-0.4365692138671875,-0.0586395263671875
1783169618492908800,0.55890869140625,-0.911773681640625,-0.429107666015625,-0.0817413330078125
1783169618502857700,0.568857666015625,-0.9065704345703125,-0.4203033447265625,-0.1038818359375
1783169618512806700,0.578806640625,-0.9089813232421875,-0.4179534912109375,-0.1156005859375
1783169618522785500,0.58878564453125,-0.9012603759765625,-0.42230224609375,-0.1204376220703125
1783169618532734700,0.598734619140625,-0.87689208984375,-0.428955078125,-0.1129150390625
1783169618542683600,0.60868359375,-0.8468017578125,-0.4315185546875,-0.0954742431640625
1783169618552662500,0.61866259765625,-0.816864013671875,-0.430206298828125,-0.0807647705078125
1783169618562611500,0.628611572265625,-0.7808074951171875,-0.42767333984375,-0.0655364990234375
1783169618572559600,0.6385595703125,-0.74456787109375,-0.426727294921875,-0.045013427734375
1783169618582508500,0.648508544921875,-0.7149810791015625,-0.4323272705078125,-0.03143310546875
1783169618592487700,0.65848779296875,-0.7040863037109375,-0.439910888671875,-0.021484375
1783169618602436600,0.6684365234375,-0.7048492431640625,-0.44732666015625,-0.0119781494140625
1783169618612385500,0.678385498046875,-0.704345703125,-0.4497833251953125,-0.0037689208984375
1783169618622334700,0.688334716796875,-0.7014007568359375,-0.4481201171875,-0.002044677734375
1783169618632313600,0.698313720703125,-0.71160888671875,-0.45025634765625,-0.0062255859375
1783169618642261500,0.708261474609375,-0.7314605712890625,-0.4581451416015625,-0.0123443603515625
1783169618652210700,0.718210693359375,-0.7355499267578125,-0.4698028564453125,-0.0127105712890625
1783169618662189800,0.72818994140625,-0.7516326904296875,-0.48284912109375,-0.0103759765625
1783169618672138800,0.738138671875,-0.75921630859375,-0.4976348876953125,-0.0198822021484375
1783169618682087700,0.748087646484375,-0.7533416748046875,-0.5070953369140625,-0.0357818603515625
1783169618692036600,0.75803662109375,-0.7562103271484375,-0.510498046875,-0.0410614013671875
1783169618702015700,0.768015625,-0.753509521484375,-0.52276611328125,0.013153076171875
1783169618711964700,0.777964599609375,-0.75030517578125,-0.5523529052734375,0.00347900390625
1783169618721912600,0.78791259765625,-0.7540740966796875,-0.5646820068359375,-0.0245819091796875
1783169618731892500,0.797892578125,-0.7521209716796875,-0.5642242431640625,-0.027923583984375
1783169618741840600,0.807840576171875,-0.7431640625,-0.5671539306640625,-0.03924560546875
1783169618751789600,0.81778955078125,-0.7507781982421875,-0.5609893798828125,-0.0324249267578125
1783169618761738500,0.827738525390625,-0.769683837890625,-0.56573486328125,-0.036956787109375
1783169618771717600,0.837717529296875,-0.7732086181640625,-0.56884765625,-0.0373382568359375
1783169618781666600,0.84766650390625,-0.77044677734375,-0.573028564453125,-0.0247344970703125
1783169618791615700,0.85761572265625,-0.7892913818359375,-0.5922393798828125,-0.021636962890625
1783169618801594400,0.867594482421875,-0.80596923828125,-0.6123809814453125,-0.0248870849609375
1783169618811542500,0.87754248046875,-0.7978057861328125,-0.6068267822265625,-0.0171661376953125
1783169618821491700,0.88749169921875,-0.7956695556640625,-0.5745849609375,-0.0100555419921875
1783169618831440600,0.897440673828125,-0.798095703125,-0.5407562255859375,-0.006072998046875
1783169618841419800,0.907419677734375,-0.7949981689453125,-0.6120147705078125,0.0192413330078125
1783169618851368700,0.91736865234375,-0.817108154296875,-0.64569091796875,0.021209716796875
1783169618861317600,0.927317626953125,-0.8519744873046875,-0.60302734375,0.0430908203125
1783169618871296800,0.937296875,-0.86968994140625,-0.5733642578125,0.0492706298828125
1783169618881245700,0.94724560546875,-0.883697509765625,-0.5894012451171875,0.03631591796875
1783169618891193600,0.957193603515625,-0.9071197509765625,-0.6069793701171875,0.028076171875
1783169618901142500,0.967142578125,-0.927337646484375,-0.6085052490234375,0.0406341552734375
1783169618911121700,0.97712158203125,-0.93096923828125,-0.61224365234375,0.0536651611328125
1783169618921070600,0.987070556640625,-0.924896240234375,-0.6090545654296875,0.0481719970703125
1783169618931019500,0.99701953125,-0.89263916015625,-0.597686767578125,0.0460357666015625
1783169618940998700,1.00699853515625,-0.809661865234375,-0.6153717041015625,0.0543212890625
1783169618950947600,1.016947509765625,-0.793182373046875,-0.6626434326171875,0.1057891845703125
1783169618960896500,1.026896484375,-0.791961669921875,-0.721343994140625,0.1511077880859375
1783169618970844400,1.036844482421875,-0.8170166015625,-0.743194580078125,0.1730804443359375
1783169618980823600,1.046823486328125,-0.857940673828125,-0.7403717041015625,0.1744384765625
1783169618990772700,1.056772705078125,-0.911346435546875,-0.7327117919921875,0.165771484375
1783169619000721700,1.0667216796875,-0.9463958740234375,-0.6824188232421875,0.138702392578125
1783169619010700800,1.07670068359375,-0.9529571533203125,-0.610687255859375,0.083831787109375
1783169619020649700,1.086649658203125,-0.931243896484375,-0.5609893798828125,0.0257720947265625
1783169619030598700,1.0965986328125,-0.909454345703125,-0.49420166015625,-0.031829833984375
1783169619040546600,1.106546630859375,-0.869903564453125,-0.4289703369140625,-0.0570526123046875
1783169619050526700,1.116526611328125,-0.81451416015625,-0.4157867431640625,-0.03173828125
1783169619060474600,1.126474609375,-0.770355224609375,-0.446380615234375,0.02825927734375
1783169619070423600,1.136423583984375,-0.7431488037109375,-0.4874114990234375,0.10736083984375
1783169619080402700,1.146402587890625,-0.734130859375,-0.5370025634765625,0.188079833984375
1783169619090351600,1.1563515625,-0.7406005859375,-0.5594329833984375,0.2371978759765625
1783169619100300500,1.166300537109375,-0.77984619140625,-0.52899169921875,0.240386962890625
1783169619110249500,1.17624951171875,-0.83880615234375,-0.5117340087890625,0.202606201171875
1783169619120228600,1.186228515625,-0.8628692626953125,-0.521331787109375,0.158050537109375
1783169619130177500,1.196177490234375,-0.855621337890625,-0.51776123046875,0.1167755126953125
1783169619140125400,1.20612548828125,-0.8524169921875,-0.49603271484375,0.0830535888671875
1783169619150105600,1.216105712890625,-0.8629913330078125,-0.465484619140625,0.0428619384765625
1783169619160053500,1.226053466796875,-0.86541748046875,-0.4404449462890625,0.015869140625
1783169619170002700,1.236002685546875,-0.7840118408203125,-0.4625244140625,0.0248870849609375
1783169619179951600,1.24595166015625,-0.738739013671875,-0.469757080078125,0.011505126953125
1783169619189930800,1.2559306640625,-0.7254638671875,-0.4611358642578125,-0.006134033203125
1783169619199879700,1.265879638671875,-0.7206268310546875,-0.4713287353515625,-0.0078125
1783169619209827600,1.27582763671875,-0.7443695068359375,-0.4967498779296875,-0.007171630859375
1783169619219807700,1.285807861328125,-0.7492828369140625,-0.516265869140625,0.005279541015625
1783169619229755600,1.295755615234375,-0.7318267822265625,-0.5038909912109375,0.0104217529296875
1783169619239704600,1.30570458984375,-0.7102203369140625,-0.4695892333984375,0.000457763671875
1783169619249653500,1.315653564453125,-0.67633056640625,-0.4087371826171875,-0.0087432861328125
1783169619259632600,1.325632568359375,-0.648956298828125,-0.379730224609375,-0.000518798828125
1783169619269581600,1.33558154296875,-0.646148681640625,-0.390289306640625,0.02227783203125
1783169619279574000,1.345573974609375,-0.6551513671875,-0.457244873046875,0.028839111328125
1783169619289553000,1.355552978515625,-0.6731109619140625,-0.5645599365234375,0.029632568359375
1783169619299501800,1.365501708984375,-0.7100067138671875,-0.6318206787109375,0.03057861328125
1783169619309450000,1.375449951171875,-0.761444091796875,-0.6537628173828125,0.025115966796875
1783169619319399000,1.38539892578125,-0.781158447265625,-0.635040283203125,0.022796630859375
1783169619329377800,1.395377685546875,-0.764190673828125,-0.58502197265625,0.0286865234375
1783169619339327000,1.405326904296875,-0.733489990234375,-0.5430145263671875,0.032806396484375
1783169619349276200,1.415276123046875,-0.7136383056640625,-0.5369720458984375,0.0322265625
1783169619359255000,1.425255126953125,-0.7296295166015625,-0.5603179931640625,0.037628173828125
1783169619369204000,1.435203857421875,-0.801910400390625,-0.6004486083984375,0.0429840087890625
1783169619379152100,1.445152099609375,-0.845703125,-0.6199798583984375,0.03692626953125
1783169619389101000,1.45510107421875,-0.8338775634765625,-0.5846405029296875,0.0243988037109375
1783169619399080000,1.465079833984375,-0.81292724609375,-0.53228759765625,-0.006103515625
1783169619409029000,1.475029052734375,-0.8055419921875,-0.5022735595703125,-0.0267181396484375
1783169619418978000,1.48497802734375,-0.813507080078125,-0.492401123046875,-0.02392578125
1783169619428957000,1.49495703125,-0.828369140625,-0.4973297119140625,-0.01287841796875
1783169619438905900,1.50490576171875,-0.8444671630859375,-0.5059356689453125,0.0051422119140625
1783169619448855000,1.51485498046875,-0.855987548828125,-0.5320587158203125,0.01995849609375
1783169619458803000,1.524802978515625,-0.87200927734375,-0.54876708984375,0.005645751953125
1783169619468782800,1.534782958984375,-0.863739013671875,-0.5382537841796875,0.0350341796875
1783169619478731000,1.54473095703125,-0.8443450927734375,-0.544525146484375,0.0667877197265625
1783169619488680000,1.554679931640625,-0.91259765625,-0.5471038818359375,0.04351806640625
1783169619498658800,1.564658935546875,-0.9646148681640625,-0.531402587890625,0.0380401611328125
1783169619508607700,1.574607666015625,-0.99114990234375,-0.523101806640625,0.037139892578125
1783169619518557200,1.58455712890625,-0.995635986328125,-0.509185791015625,0.0197296142578125
1783169619528505000,1.594505126953125,-0.9983367919921875,-0.5027008056640625,-0.0244598388671875
1783169619538485000,1.604485107421875,-1.0286407470703125,-0.4832000732421875,-0.0471954345703125
1783169619548433200,1.61443310546875,-0.9970703125,-0.4851531982421875,-0.0432281494140625
1783169619558382000,1.624382080078125,-0.9551544189453125,-0.500701904296875,-0.033294677734375
1783169619568361000,1.63436083984375,-0.9605560302734375,-0.499847412109375,-0.02099609375
1783169619578310000,1.644309814453125,-0.9923248291015625,-0.50299072265625,-0.0111541748046875
1783169619588259000,1.654259033203125,-1.0232696533203125,-0.516448974609375,-0.0025787353515625
1783169619598208000,1.6642080078125,-1.0393524169921875,-0.5179595947265625,0.001068115234375
1783169619608187000,1.674186767578125,-1.055206298828125,-0.4940643310546875,-0.0110931396484375
1783169619618135800,1.6841357421875,-1.0584259033203125,-0.4635467529296875,-0.0415191650390625
1783169619628084000,1.694083984375,-1.050567626953125,-0.43115234375,-0.0789794921875
1783169619638063900,1.70406396484375,-1.0372161865234375,-0.3983612060546875,-0.119171142578125
1783169619648012000,1.714011962890625,-1.0172576904296875,-0.384124755859375,-0.1366729736328125
1783169619657961000,1.7239609375,-0.993621826171875,-0.390625,-0.11688232421875
1783169619667910100,1.73391015625,-0.958892822265625,-0.3956451416015625,-0.0771026611328125
1783169619677888800,1.743888671875,-0.92144775390625,-0.39678955078125,-0.041534423828125
1783169619687838000,1.753837890625,-0.902435302734375,-0.40087890625,-0.0207672119140625
1783169619697786000,1.7637861328125,-0.89215087890625,-0.4095001220703125,-0.010986328125
1783169619707735000,1.773735107421875,-0.875885009765625,-0.4232940673828125,-0.017333984375
1783169619717714200,1.783714111328125,-0.8550872802734375,-0.427398681640625,-0.0306396484375
1783169619727663000,1.7936630859375,-0.8501129150390625,-0.4242401123046875,-0.04388427734375
1783169619737612000,1.803612060546875,-0.852569580078125,-0.4226531982421875,-0.06243896484375
1783169619747591000,1.8135908203125,-0.8499755859375,-0.42169189453125,-0.0814666748046875
1783169619757540000,1.8235400390625,-0.84564208984375,-0.420257568359375,-0.099090576171875
1783169619767489000,1.833489013671875,-0.831878662109375,-0.4215545654296875,-0.1075286865234375
1783169619777437000,1.84343701171875,-0.8071136474609375,-0.4271087646484375,-0.1035003662109375
1783169619787416800,1.853416748046875,-0.78485107421875,-0.4294586181640625,-0.0936126708984375
1783169619797365000,1.863364990234375,-0.7693939208984375,-0.4318695068359375,-0.08477783203125
1783169619807314000,1.87331396484375,-0.75518798828125,-0.435333251953125,-0.0738067626953125
1783169619817293000,1.88329296875,-0.739776611328125,-0.4359130859375,-0.06414794921875
1783169619827242000,1.893241943359375,-0.7288818359375,-0.4348602294921875,-0.05389404296875
1783169619837191000,1.90319091796875,-0.7282562255859375,-0.43402099609375,-0.0404052734375
1783169619847138800,1.913138916015625,-0.7274932861328125,-0.426025390625,-0.027313232421875
1783169619857119000,1.923118896484375,-0.7294769287109375,-0.41253662109375,-0.0177459716796875
1783169619867067100,1.933067138671875,-0.7433013916015625,-0.4078826904296875,-0.013214111328125
1783169619877016000,1.94301611328125,-0.76824951171875,-0.4132537841796875,-0.0118408203125
1783169619886995200,1.9529951171875,-0.784271240234375,-0.4191436767578125,-0.0139007568359375
1783169619896944000,1.962944091796875,-0.7867279052734375,-0.4226837158203125,-0.0132598876953125
1783169619906893000,1.97289306640625,-0.7920074462890625,-0.4292449951171875,-0.0108642578125
1783169619916842000,1.982842041015625,-0.800994873046875,-0.43890380859375,-0.0125732421875
1783169619926821000,1.992821044921875,-0.8114013671875,-0.447998046875,-0.018402099609375
1783169619936770000,2.00277001953125,-0.810211181640625,-0.451568603515625,-0.02288818359375
1783169619946718000,2.012718017578125,-0.807769775390625,-0.453857421875,-0.03009033203125
1783169619956697900,2.02269775390625,-0.8107757568359375,-0.4605255126953125,-0.0347900390625
1783169619966646000,2.03264599609375,-0.8289642333984375,-0.4744873046875,-0.0344390869140625
1783169619976595000,2.042594970703125,-0.8442840576171875,-0.4884185791015625,-0.033172607421875
1783169619986543900,2.0525439453125,-0.848175048828125,-0.4915618896484375,-0.0341033935546875
1783169619996523000,2.06252294921875,-0.8523406982421875,-0.486236572265625,-0.0332183837890625
1783169620006472000,2.072471923828125,-0.8639678955078125,-0.48126220703125,-0.02984619140625
1783169620016419800,2.082419921875,-0.869384765625,-0.484710693359375,-0.02410888671875
1783169620026400000,2.09239990234375,-0.8704071044921875,-0.490570068359375,-0.0164794921875
1783169620036348000,2.102347900390625,-0.87872314453125,-0.498260498046875,-0.0096588134765625
1783169620046297000,2.112297119140625,-0.878326416015625,-0.506011962890625,0.000732421875
1783169620056246000,2.12224609375,-0.863006591796875,-0.513458251953125,0.014923095703125
1783169620066225200,2.13222509765625,-0.8630523681640625,-0.5214691162109375,0.028594970703125
1783169620076174000,2.142174072265625,-0.8781280517578125,-0.5294647216796875,0.04351806640625
1783169620086123000,2.152123046875,-0.8929595947265625,-0.53765869140625,0.056884765625
1783169620096102000,2.162101806640625,-0.9098968505859375,-0.5429840087890625,0.06146240234375
1783169620106051000,2.172051025390625,-0.928192138671875,-0.540191650390625,0.05548095703125
1783169620115999000,2.1819990234375,-0.951690673828125,-0.538238525390625,0.0532684326171875
1783169620125948000,2.191947998046875,-0.9751739501953125,-0.537322998046875,0.0571746826171875
1783169620135927000,2.201927001953125,-0.9925994873046875,-0.5425262451171875,0.057769775390625
1783169620145876000,2.2118759765625,-0.9787445068359375,-0.5574798583984375,0.071868896484375
1783169620155825000,2.221824951171875,-0.941192626953125,-0.5831451416015625,0.1105194091796875
1783169620165804000,2.231803955078125,-0.925506591796875,-0.6089019775390625,0.1544647216796875
1783169620175753000,2.2417529296875,-0.9440460205078125,-0.623382568359375,0.17547607421875
1783169620185700900,2.251700927734375,-0.9752044677734375,-0.6112518310546875,0.1650848388671875
1783169620195650000,2.261650146484375,-1.0326995849609375,-0.5876007080078125,0.1545867919921875
1783169620205629000,2.27162890625,-1.103485107421875,-0.5652618408203125,0.1497650146484375
1783169620215578000,2.281578125,-1.129974365234375,-0.524322509765625,0.13006591796875
1783169620225527000,2.291527099609375,-1.1277008056640625,-0.467193603515625,0.09637451171875
1783169620235506200,2.301506103515625,-1.1034393310546875,-0.4015350341796875,0.0560455322265625
1783169620245455000,2.311455078125,-1.046173095703125,-0.341033935546875,0.0196990966796875
1783169620255404000,2.321404052734375,-0.991912841796875,-0.3017730712890625,0.002471923828125
1783169620265352000,2.33135205078125,-0.957550048828125,-0.3016204833984375,0.0204010009765625
1783169620275332000,2.34133203125,-0.9239654541015625,-0.3269500732421875,0.0686798095703125
1783169620285290500,2.35129052734375,-0.8890838623046875,-0.3367919921875,0.1104736328125
1783169620295239400,2.361239501953125,-0.8761749267578125,-0.3349609375,0.141082763671875
1783169620305218600,2.371218505859375,-0.8819427490234375,-0.338958740234375,0.1613616943359375
1783169620315167500,2.38116748046875,-0.8938446044921875,-0.347503662109375,0.16375732421875
1783169620325116400,2.391116455078125,-0.9006195068359375,-0.350250244140625,0.153045654296875
1783169620335065300,2.4010654296875,-0.905853271484375,-0.34259033203125,0.1297149658203125
1783169620345044500,2.41104443359375,-0.9160919189453125,-0.3316650390625,0.10577392578125
1783169620354992400,2.420992431640625,-0.92425537109375,-0.3280792236328125,0.0805206298828125
1783169620364941600,2.430941650390625,-0.9196319580078125,-0.3285675048828125,0.0570831298828125
1783169620374920400,2.44092041015625,-0.9066009521484375,-0.3304901123046875,0.0470733642578125
1783169620384869600,2.45086962890625,-0.89239501953125,-0.3380279541015625,0.04364013671875
1783169620394818600,2.460818603515625,-0.8714141845703125,-0.3499603271484375,0.0422821044921875
1783169620404767500,2.470767578125,-0.8434906005859375,-0.3593292236328125,0.042266845703125
1783169620414746600,2.48074658203125,-0.8190460205078125,-0.3631591796875,0.04632568359375
1783169620424695600,2.490695556640625,-0.79949951171875,-0.3670501708984375,0.0546417236328125
1783169620434643500,2.5006435546875,-0.7747344970703125,-0.3699798583984375,0.0647125244140625
1783169620444623400,2.510623291015625,-0.7583160400390625,-0.3721923828125,0.06982421875
1783169620454571500,2.520571533203125,-0.7477874755859375,-0.3812255859375,0.0764312744140625
1783169620464520400,2.5305205078125,-0.740570068359375,-0.3915252685546875,0.0828704833984375
1783169620474469400,2.540469482421875,-0.7513580322265625,-0.399627685546875,0.085235595703125
1783169620484448500,2.550448486328125,-0.7581329345703125,-0.4073944091796875,0.081085205078125
1783169620494397400,2.5603974609375,-0.751007080078125,-0.41387939453125,0.077789306640625
1783169620504346400,2.570346435546875,-0.74798583984375,-0.4170379638671875,0.078704833984375
1783169620514325500,2.580325439453125,-0.7606964111328125,-0.4250030517578125,0.077789306640625
1783169620524273400,2.5902734375,-0.7708740234375,-0.43658447265625,0.0793914794921875
1783169620534222300,2.600222412109375,-0.7777252197265625,-0.440887451171875,0.083038330078125
1783169620544171500,2.610171630859375,-0.792327880859375,-0.444427490234375,0.0831756591796875
1783169620554150700,2.620150634765625,-0.8124237060546875,-0.445068359375,0.0817108154296875
1783169620564099600,2.630099609375,-0.833984375,-0.4436798095703125,0.071990966796875
1783169620574048500,2.640048583984375,-0.8512725830078125,-0.4433746337890625,0.05853271484375
1783169620584027600,2.650027587890625,-0.858123779296875,-0.4411468505859375,0.04681396484375
1783169620593976600,2.6599765625,-0.8686981201171875,-0.4386138916015625,0.0355987548828125
1783169620603924500,2.669924560546875,-0.8811798095703125,-0.438507080078125,0.02459716796875
1783169620613873400,2.679873291015625,-0.8802490234375,-0.4381561279296875,0.0225830078125
1783169620623852500,2.6898525390625,-0.872222900390625,-0.4405364990234375,0.0286102294921875
1783169620633801500,2.699801513671875,-0.8699493408203125,-0.445831298828125,0.04180908203125
1783169620643750400,2.70975048828125,-0.8663177490234375,-0.4556427001953125,0.0589752197265625
1783169620653729500,2.7197294921875,-0.87640380859375,-0.4645233154296875,0.0697174072265625
1783169620663678500,2.729678466796875,-0.90106201171875,-0.474884033203125,0.0736846923828125
1783169620673627400,2.73962744140625,-0.9219207763671875,-0.4780426025390625,0.071014404296875
1783169620683575300,2.7495751953125,-0.9403839111328125,-0.4718780517578125,0.06048583984375
1783169620693554400,2.759554443359375,-0.958404541015625,-0.4669189453125,0.045013427734375
1783169620703503400,2.76950341796875,-0.9780426025390625,-0.46380615234375,0.02734375
1783169620713452500,2.77945263671875,-1.0035858154296875,-0.4583282470703125,0.0098876953125
1783169620723401500,2.7894013671875,-1.025360107421875,-0.4509124755859375,-0.00823974609375
1783169620733380600,2.799380615234375,-1.04150390625,-0.443206787109375,-0.0233612060546875
1783169620743329500,2.80932958984375,-1.050323486328125,-0.4376068115234375,-0.03973388671875
1783169620753277400,2.81927734375,-1.0445098876953125,-0.43475341796875,-0.05181884765625
1783169620763257600,2.829257568359375,-1.0222015380859375,-0.43890380859375,-0.0538330078125
1783169620773205500,2.83920556640625,-0.9852447509765625,-0.4581146240234375,-0.0441131591796875
1783169620783154400,2.849154541015625,-0.9499359130859375,-0.475067138671875,-0.0283660888671875
1783169620793103400,2.859103271484375,-0.9347686767578125,-0.4845733642578125,-0.0108795166015625
1783169620803082500,2.86908251953125,-0.932861328125,-0.5001373291015625,0.001678466796875
1783169620813031400,2.879031494140625,-0.93280029296875,-0.5043182373046875,0.007537841796875
1783169620822980400,2.88898046875,-0.9476165771484375,-0.4929046630859375,0.0001220703125
1783169620832959500,2.89895947265625,-0.9792633056640625,-0.4717559814453125,-0.01629638671875
1783169620842908400,2.908908447265625,-1.0075225830078125,-0.4376373291015625,-0.041778564453125
1783169620852856300,2.918856201171875,-1.0101318359375,-0.41015625,-0.078857421875
1783169620862805200,2.92880517578125,-0.985870361328125,-0.392486572265625,-0.124542236328125
1783169620872784400,2.938784423828125,-0.9474334716796875,-0.3654327392578125,-0.165435791015625
1783169620882733600,2.948733642578125,-0.9271392822265625,-0.34027099609375,-0.1912841796875
1783169620892682500,2.9586826171875,-0.9092254638671875,-0.32989501953125,-0.19775390625
1783169620902661600,2.96866162109375,-0.8883819580078125,-0.3304443359375,-0.174468994140625
1783169620912610600,2.978610595703125,-0.8867340087890625,-0.3443145751953125,-0.140472412109375
1783169620922558500,2.988558349609375,-0.88165283203125,-0.3618316650390625,-0.1125946044921875
1783169620932507400,2.99850732421875,-0.872772216796875,-0.3728179931640625,-0.0966339111328125
1783169620942486500,3.008486572265625,-0.865631103515625,-0.373382568359375,-0.0991363525390625
1783169620952435500,3.018435546875,-0.8731536865234375,-0.3708648681640625,-0.1149444580078125
1783169620962384400,3.02838427734375,-0.8832550048828125,-0.3802490234375,-0.1310577392578125
1783169620972363500,3.038363525390625,-0.8854827880859375,-0.3898773193359375,-0.14251708984375
1783169620982312400,3.0483125,-0.8817138671875,-0.3954315185546875,-0.1490936279296875
1783169620992261400,3.058261474609375,-0.8753662109375,-0.40435791015625,-0.1525421142578125
1783169621002209500,3.06820947265625,-0.8683929443359375,-0.413543701171875,-0.1531524658203125
1783169621012189400,3.078189453125,-0.8675079345703125,-0.42303466796875,-0.1538543701171875
1783169621022137300,3.088137451171875,-0.859283447265625,-0.4359283447265625,-0.1513671875
1783169621032086300,3.098086181640625,-0.8457183837890625,-0.443115234375,-0.1452178955078125
1783169621042065400,3.1080654296875,-0.8350677490234375,-0.444610595703125,-0.138031005859375
1783169621052014600,3.1180146484375,-0.8227691650390625,-0.44244384765625,-0.12640380859375
1783169621061963500,3.127963623046875,-0.8166961669921875,-0.442108154296875,-0.1105499267578125
1783169621071911700,3.13791162109375,-0.8052825927734375,-0.4460906982421875,-0.0951995849609375
1783169621081891600,3.1478916015625,-0.7926788330078125,-0.449798583984375,-0.077911376953125
1783169621091839500,3.157839599609375,-0.7852325439453125,-0.4557647705078125,-0.05877685546875
1783169621101788400,3.167788330078125,-0.776153564453125,-0.462432861328125,-0.0473480224609375
1783169621111767600,3.177767578125,-0.7737884521484375,-0.4711151123046875,-0.037933349609375
1783169621121716500,3.187716552734375,-0.772735595703125,-0.479583740234375,-0.026702880859375
1783169621131665400,3.19766552734375,-0.7658843994140625,-0.4871978759765625,-0.0135345458984375
1783169621141614300,3.2076142578125,-0.7591094970703125,-0.4974517822265625,-0.0064697265625
1783169621151593500,3.217593505859375,-0.7574462890625,-0.5074462890625,-0.00311279296875
1783169621161542400,3.22754248046875,-0.757781982421875,-0.512786865234375,0.0015411376953125
1783169621171490300,3.237490234375,-0.7576141357421875,-0.5169830322265625,0.0078582763671875
1783169621181470500,3.247470458984375,-0.76983642578125,-0.5189971923828125,0.0110626220703125
1783169621191418400,3.25741845703125,-0.78448486328125,-0.518829345703125,0.0095367431640625
1783169621201367300,3.2673671875,-0.792999267578125,-0.519805908203125,0.009124755859375
1783169621211316500,3.27731640625,-0.80670166015625,-0.5229034423828125,0.0146026611328125
1783169621221295600,3.287295654296875,-0.8160552978515625,-0.523681640625,0.0249481201171875
1783169621231244500,3.29724462890625,-0.820098876953125,-0.525177001953125,0.0394287109375
1783169621241192700,3.307192626953125,-0.8365631103515625,-0.5288848876953125,0.0520477294921875
1783169621251172600,3.317172607421875,-0.84765625,-0.5298309326171875,0.06121826171875
1783169621261120500,3.32712060546875,-0.8500518798828125,-0.5287322998046875,0.0667572021484375
1783169621271069400,3.3370693359375,-0.8635101318359375,-0.5297088623046875,0.069122314453125
1783169621281042200,3.347042236328125,-0.8799896240234375,-0.5342254638671875,0.067230224609375
1783169621291020800,3.357020751953125,-0.89605712890625,-0.5355224609375,0.062225341796875
1783169621300970000,3.366969970703125,-0.9089202880859375,-0.5303497314453125,0.0615997314453125
1783169621310919200,3.376919189453125,-0.9242401123046875,-0.5218353271484375,0.069244384765625
1783169621320898000,3.38689794921875,-0.9386749267578125,-0.5141754150390625,0.0777740478515625
1783169621330847000,3.396846923828125,-0.9563751220703125,-0.511474609375,0.080810546875
1783169621340795100,3.406795166015625,-0.9581146240234375,-0.51470947265625,0.0775909423828125
1783169621350744000,3.416744140625,-0.9190826416015625,-0.5321502685546875,0.0926055908203125
1783169621360723000,3.426722900390625,-0.862945556640625,-0.5726165771484375,0.139495849609375
1783169621370671900,3.436671875,-0.8343658447265625,-0.6109161376953125,0.1968536376953125
1783169621380621000,3.44662109375,-0.8396453857421875,-0.6195068359375,0.224456787109375
1783169621390600000,3.456599853515625,-0.8945770263671875,-0.59735107421875,0.2120819091796875
1783169621400548900,3.466548828125,-1.029205322265625,-0.576019287109375,0.1628875732421875
1783169621410497000,3.4764970703125,-1.1402130126953125,-0.56744384765625,0.0949859619140625
1783169621420446000,3.486446044921875,-1.142486572265625,-0.5410308837890625,0.025726318359375
1783169621430424800,3.4964248046875,-1.100311279296875,-0.4764251708984375,-0.0606231689453125
1783169621440374000,3.5063740234375,-1.03253173828125,-0.4066009521484375,-0.1472625732421875
1783169621450323000,3.516322998046875,-0.954925537109375,-0.356903076171875,-0.2093963623046875
1783169621460301800,3.5263017578125,-0.90313720703125,-0.351287841796875,-0.21343994140625
1783169621470251000,3.5362509765625,-0.90557861328125,-0.3989715576171875,-0.1591796875
1783169621480200000,3.546199951171875,-0.9196929931640625,-0.4604339599609375,-0.0885467529296875
1783169621490148000,3.556148193359375,-0.9019622802734375,-0.509796142578125,-0.011871337890625
1783169621500128000,3.5661279296875,-0.8918304443359375,-0.5312957763671875,0.0564117431640625
1783169621510076200,3.576076171875,-0.9005584716796875,-0.5269622802734375,0.0884552001953125
1783169621520025000,3.586025146484375,-0.911712646484375,-0.5052032470703125,0.0720062255859375
1783169621530004000,3.59600390625,-0.9242706298828125,-0.477294921875,0.0175018310546875
1783169621539953000,3.605952880859375,-0.924530029296875,-0.4553680419921875,-0.029052734375
1783169621549902000,3.615902099609375,-0.9175872802734375,-0.444671630859375,-0.0603179931640625
1783169621559850000,3.62585009765625,-0.8970184326171875,-0.4324798583984375,-0.078125
1783169621569830000,3.635829833984375,-0.8703765869140625,-0.4184722900390625,-0.07763671875
1783169621579778000,3.645778076171875,-0.851470947265625,-0.418304443359375,-0.0600738525390625
1783169621589727000,3.65572705078125,-0.83892822265625,-0.422882080078125,-0.0296630859375
1783169621599705900,3.665705810546875,-0.8382568359375,-0.421142578125,-0.0037384033203125
1783169621609654800,3.67565478515625,-0.850830078125,-0.4163055419921875,0.021881103515625
1783169621619604000,3.68560400390625,-0.84954833984375,-0.4224700927734375,0.0445556640625
1783169621629553200,3.69555322265625,-0.832794189453125,-0.4262542724609375,0.0493316650390625
1783169621639532000,3.705531982421875,-0.8226470947265625,-0.4227447509765625,0.0363311767578125
1783169621649481000,3.71548095703125,-0.8156280517578125,-0.4256134033203125,0.0164337158203125
1783169621659429000,3.72542919921875,-0.80499267578125,-0.433319091796875,-0.007598876953125
1783169621669409000,3.735408935546875,-0.805511474609375,-0.4466094970703125,-0.0325164794921875
1783169621679357000,3.74535693359375,-0.811676025390625,-0.4737091064453125,-0.04425048828125
1783169621689306000,3.75530615234375,-0.7985687255859375,-0.501129150390625,-0.0462188720703125
1783169621699255000,3.765255126953125,-0.7854461669921875,-0.5249481201171875,-0.0501708984375
1783169621709234000,3.77523388671875,-0.7745208740234375,-0.551422119140625,-0.052978515625
1783169621719182800,3.785182861328125,-0.7485504150390625,-0.5668182373046875,-0.0453338623046875
1783169621729131000,3.795131103515625,-0.7239532470703125,-0.5695953369140625,-0.0343017578125
1783169621739111000,3.80511083984375,-0.70904541015625,-0.57147216796875,-0.0270538330078125
1783169621749059000,3.81505908203125,-0.7027435302734375,-0.5761871337890625,-0.0226287841796875
1783169621759008000,3.825008056640625,-0.7052764892578125,-0.5767974853515625,-0.0148162841796875
1783169621768957000,3.83495703125,-0.71221923828125,-0.573974609375,-0.008453369140625
1783169621778935800,3.844935791015625,-0.71868896484375,-0.564422607421875,-0.00836181640625
1783169621788885000,3.854885009765625,-0.7258453369140625,-0.5499267578125,-0.0112457275390625
1783169621798834200,3.864834228515625,-0.7254486083984375,-0.548309326171875,-0.01513671875
1783169621808782000,3.874781982421875,-0.7218475341796875,-0.548919677734375,-0.01202392578125
1783169621818762000,3.884761962890625,-0.7135009765625,-0.5489044189453125,-0.0034942626953125
1783169621828710100,3.894710205078125,-0.707427978515625,-0.5522003173828125,0.0118560791015625
1783169621838659000,3.9046591796875,-0.7065277099609375,-0.55902099609375,0.02618408203125
1783169621848638000,3.914637939453125,-0.7210235595703125,-0.5660858154296875,0.03338623046875
1783169621858587100,3.924587158203125,-0.753021240234375,-0.573577880859375,0.0371551513671875
1783169621868536000,3.9345361328125,-0.757232666015625,-0.571563720703125,0.03375244140625
1783169621878485000,3.944485107421875,-0.74774169921875,-0.56341552734375,0.02703857421875
1783169621888464000,3.9544638671875,-0.754302978515625,-0.5644989013671875,0.0196533203125
1783169621898412000,3.964412109375,-0.7630157470703125,-0.5685882568359375,0.0120086669921875
1783169621908361000,3.97436083984375,-0.77410888671875,-0.571868896484375,-0.0017852783203125
1783169621918339800,3.98433984375,-0.7813720703125,-0.5743408203125,-0.024810791015625
1783169621928289000,3.9942890625,-0.773834228515625,-0.5720367431640625,-0.050567626953125
1783169621938238000,4.004238037109375,-0.758636474609375,-0.582183837890625,-0.060272216796875
1783169621948187000,4.014186767578125,-0.740020751953125,-0.615692138671875,-0.0533447265625
1783169621958165800,4.024165771484375,-0.7549285888671875,-0.64093017578125,-0.0527191162109375
1783169621968115200,4.034115234375,-0.819183349609375,-0.6442108154296875,-0.0673370361328125
1783169621978062800,4.044062744140625,-0.872222900390625,-0.651580810546875,-0.087799072265625
1783169621988043000,4.05404296875,-0.88934326171875,-0.648590087890625,-0.1123046875
1783169621997991200,4.0639912109375,-0.908203125,-0.6218414306640625,-0.153076171875
1783169622007940000,4.073940185546875,-0.9326019287109375,-0.583770751953125,-0.1898040771484375
1783169622017889000,4.083888916015625,-0.94830322265625,-0.553802490234375,-0.21734619140625
1783169622027868200,4.0938681640625,-0.9537353515625,-0.528167724609375,-0.2440643310546875
1783169622037817000,4.103817138671875,-0.9516754150390625,-0.5067138671875,-0.265472412109375
1783169622047766000,4.11376611328125,-0.94061279296875,-0.495574951171875,-0.264007568359375
1783169622057745000,4.123744873046875,-0.927947998046875,-0.5017242431640625,-0.2335968017578125
1783169622067693000,4.133693115234375,-0.90972900390625,-0.5123138427734375,-0.1977996826171875
1783169622077642000,4.14364208984375,-0.89990234375,-0.518035888671875,-0.1726531982421875
1783169622087591000,4.1535908203125,-0.8996734619140625,-0.524505615234375,-0.1566314697265625
1783169622097570000,4.163570068359375,-0.895477294921875,-0.5261993408203125,-0.1491241455078125
1783169622107519000,4.17351904296875,-0.8987884521484375,-0.5230865478515625,-0.15106201171875
1783169622117468000,4.183468017578125,-0.8981475830078125,-0.517578125,-0.1689605712890625
1783169622127446800,4.19344677734375,-0.88763427734375,-0.5093994140625,-0.1963653564453125
1783169622137396200,4.203396240234375,-0.873779296875,-0.497039794921875,-0.2161407470703125
1783169622147344000,4.21334375,-0.868865966796875,-0.4895172119140625,-0.2256622314453125
1783169622157293000,4.22329296875,-0.8686981201171875,-0.498321533203125,-0.2320556640625
1783169622167272200,4.233272216796875,-0.842987060546875,-0.5101165771484375,-0.23260498046875
1783169622177221000,4.24322119140625,-0.8102264404296875,-0.50970458984375,-0.2295379638671875
1783169622187170000,4.253170166015625,-0.793914794921875,-0.5061492919921875,-0.2205810546875
1783169622197149000,4.26314892578125,-0.7768707275390625,-0.509307861328125,-0.210357666015625
1783169622207098000,4.27309814453125,-0.7550811767578125,-0.5070648193359375,-0.200775146484375
1783169622217047000,4.283047119140625,-0.7323150634765625,-0.49945068359375,-0.185089111328125
1783169622226995000,4.292994873046875,-0.701141357421875,-0.493316650390625,-0.1644134521484375
1783169622236974000,4.30297412109375,-0.6815948486328125,-0.4939422607421875,-0.1414337158203125
1783169622246923000,4.312923095703125,-0.674713134765625,-0.49517822265625,-0.12115478515625
1783169622256872000,4.322871826171875,-0.6685333251953125,-0.49505615234375,-0.10491943359375
1783169622266851000,4.33285107421875,-0.6590576171875,-0.49658203125,-0.0914154052734375
1783169622276800000,4.342800048828125,-0.65679931640625,-0.500518798828125,-0.0834197998046875
1783169622286788600,4.35278857421875,-0.6588897705078125,-0.507598876953125,-0.0748291015625
1783169622296736800,4.36273681640625,-0.6615142822265625,-0.516265869140625,-0.0710296630859375
1783169622306716700,4.372716552734375,-0.6648406982421875,-0.5252685546875,-0.073760986328125
1783169622316664600,4.38266455078125,-0.6689453125,-0.5335845947265625,-0.0747222900390625
1783169622326613800,4.39261376953125,-0.6717376708984375,-0.5416412353515625,-0.0695343017578125
1783169622336592600,4.402592529296875,-0.6766204833984375,-0.548309326171875,-0.064971923828125
1783169622346541600,4.41254150390625,-0.691864013671875,-0.5572967529296875,-0.0641632080078125
1783169622356490500,4.422490478515625,-0.7031097412109375,-0.563018798828125,-0.061309814453125
1783169622366439700,4.432439697265625,-0.7167816162109375,-0.565948486328125,-0.0568084716796875
1783169622376418600,4.44241845703125,-0.738189697265625,-0.5670928955078125,-0.052093505859375
1783169622386367500,4.452367431640625,-0.77099609375,-0.5686187744140625,-0.04901123046875
1783169622396315600,4.462315673828125,-0.80596923828125,-0.570831298828125,-0.0511322021484375
1783169622406294500,4.47229443359375,-0.8235015869140625,-0.56915283203125,-0.0582733154296875
1783169622416243500,4.482243408203125,-0.831390380859375,-0.56793212890625,-0.0645599365234375
1783169622426192600,4.492192626953125,-0.847137451171875,-0.5732574462890625,-0.0655517578125
1783169622436141600,4.5021416015625,-0.8536529541015625,-0.5792388916015625,-0.0625457763671875
1783169622446120400,4.512120361328125,-0.8612518310546875,-0.5817718505859375,-0.058502197265625
1783169622456069600,4.522069580078125,-0.8750152587890625,-0.5872039794921875,-0.0552978515625
1783169622466017800,4.532017822265625,-0.880828857421875,-0.5916595458984375,-0.048309326171875
1783169622475997700,4.541997802734375,-0.8953399658203125,-0.5921783447265625,-0.0424957275390625
1783169622485945600,4.551945556640625,-0.91119384765625,-0.59527587890625,-0.0420684814453125
1783169622495894800,4.561894775390625,-0.9164886474609375,-0.596588134765625,-0.046630859375
1783169622505843700,4.57184375,-0.91998291015625,-0.5977325439453125,-0.0524139404296875
1783169622515822600,4.581822509765625,-0.912567138671875,-0.601715087890625,-0.0574798583984375
1783169622525771500,4.591771484375,-0.8819122314453125,-0.61761474609375,-0.0467681884765625
1783169622535720700,4.601720703125,-0.845428466796875,-0.6632843017578125,-0.0005035400390625
1783169622545699600,4.611699462890625,-0.851776123046875,-0.713134765625,0.0483551025390625
1783169622555648500,4.6216484375,-0.8834075927734375,-0.7086944580078125,0.0573883056640625
1783169622565596700,4.6315966796875,-0.966339111328125,-0.677337646484375,0.0507049560546875
1783169622575545600,4.641545654296875,-1.0772705078125,-0.67877197265625,0.0466461181640625
1783169622585524500,4.6515244140625,-1.1252593994140625,-0.659088134765625,0.0190887451171875
1783169622595473400,4.661473388671875,-1.125885009765625,-0.573150634765625,-0.040283203125
1783169622605422600,4.671422607421875,-1.1046600341796875,-0.481201171875,-0.0995330810546875
1783169622615401500,4.6814013671875,-1.065948486328125,-0.42529296875,-0.13720703125
1783169622625350700,4.6913505859375,-1.0086517333984375,-0.398101806640625,-0.1390228271484375
1783169622635298600,4.701298583984375,-0.9609375,-0.3957061767578125,-0.101165771484375
1783169622645247700,4.711247802734375,-0.940216064453125,-0.4119415283203125,-0.0525360107421875
1783169622655226600,4.7212265625,-0.9354705810546875,-0.434539794921875,0.002777099609375
1783169622665175600,4.731175537109375,-0.945159912109375,-0.4515838623046875,0.05401611328125
1783169622675124700,4.741124755859375,-0.9746551513671875,-0.4656219482421875,0.081878662109375
1783169622685103600,4.751103515625,-0.9825897216796875,-0.4720916748046875,0.0728912353515625
1783169622695052500,4.761052490234375,-0.95965576171875,-0.4573822021484375,0.0348052978515625
1783169622705001500,4.77100146484375,-0.9375152587890625,-0.438323974609375,0.002838134765625
1783169622714949600,4.78094970703125,-0.9181671142578125,-0.4310302734375,-0.015228271484375
1783169622724929500,4.790929443359375,-0.90692138671875,-0.4373931884765625,-0.0277862548828125
1783169622734877700,4.800877685546875,-0.8810882568359375,-0.4484710693359375,-0.0306549072265625
1783169622744826600,4.81082666015625,-0.8458709716796875,-0.4579620361328125,-0.0253448486328125
1783169622754805500,4.820805419921875,-0.8245391845703125,-0.4666595458984375,-0.0120086669921875
1783169622764754400,4.83075439453125,-0.806976318359375,-0.4761199951171875,0.00372314453125
1783169622774703600,4.84070361328125,-0.7835540771484375,-0.4832916259765625,0.013580322265625
1783169622784651500,4.850651611328125,-0.7722015380859375,-0.4873809814453125,0.0167083740234375
1783169622794631700,4.860631591796875,-0.768035888671875,-0.49456787109375,0.0208587646484375
1783169622804579600,4.87057958984375,-0.7642059326171875,-0.4967498779296875,0.026214599609375
1783169622814528800,4.88052880859375,-0.763153076171875,-0.4969635009765625,0.0312042236328125
1783169622824507600,4.890507568359375,-0.76300048828125,-0.5016632080078125,0.0345611572265625
1783169622834456600,4.90045654296875,-0.768310546875,-0.5064544677734375,0.034149169921875
1783169622844405800,4.91040576171875,-0.7686614990234375,-0.5100555419921875,0.0362701416015625
1783169622854354700,4.920354736328125,-0.7634124755859375,-0.5153961181640625,0.0364227294921875
1783169622864333600,4.93033349609375,-0.7554168701171875,-0.5214996337890625,0.036224365234375
1783169622874282500,4.940282470703125,-0.7487945556640625,-0.5311431884765625,0.039794921875
1783169622884230700,4.950230712890625,-0.738739013671875,-0.5399932861328125,0.0435333251953125
1783169622894179600,4.9601796875,-0.733856201171875,-0.547607421875,0.044158935546875
1783169622904158700,4.97015869140625,-0.736083984375,-0.5576019287109375,0.043487548828125
1783169622914107600,4.980107666015625,-0.7337188720703125,-0.5655517578125,0.0480499267578125
1783169622924056600,4.990056640625,-0.730621337890625,-0.5688934326171875,0.04681396484375
1783169622934035500,5.000035400390625,-0.7376556396484375,-0.5699920654296875,0.0372467041015625
1783169622943984400,5.009984375,-0.7516326904296875,-0.5689544677734375,0.02301025390625
1783169622953932500,5.0199326171875,-0.752777099609375,-0.5583038330078125,0.011016845703125
1783169622963881500,5.029881591796875,-0.753143310546875,-0.5447540283203125,0.0008544921875
1783169622973860600,5.039860595703125,-0.756988525390625,-0.5413055419921875,-0.0050506591796875
1783169622983809800,5.049809814453125,-0.7555999755859375,-0.53167724609375,-0.0098876953125
1783169622993758700,5.0597587890625,-0.7474822998046875,-0.5152587890625,-0.0111541748046875
1783169623003737600,5.069737548828125,-0.735504150390625,-0.5148468017578125,-0.0073394775390625
1783169623013686800,5.079686767578125,-0.7177734375,-0.5251312255859375,0.007781982421875
1783169623023635700,5.0896357421875,-0.716583251953125,-0.5261688232421875,0.0279693603515625
1783169623033583600,5.09958349609375,-0.7285003662109375,-0.528839111328125,0.0406951904296875
1783169623043563500,5.1095634765625,-0.7447662353515625,-0.5361785888671875,0.0430450439453125
1783169623053511700,5.11951171875,-0.7621612548828125,-0.5422821044921875,0.041839599609375
1783169623063460600,5.129460693359375,-0.769927978515625,-0.541534423828125,0.03814697265625
1783169623073439500,5.139439453125,-0.7820892333984375,-0.536712646484375,0.0308074951171875
1783169623083388700,5.149388671875,-0.8106231689453125,-0.534423828125,0.0128936767578125
1783169623093337600,5.159337646484375,-0.850250244140625,-0.5305633544921875,-0.0115509033203125
1783169623103285500,5.169285400390625,-0.882598876953125,-0.5292510986328125,-0.03118896484375
1783169623113265400,5.179265380859375,-0.90704345703125,-0.52581787109375,-0.04547119140625
1783169623123213600,5.189213623046875,-0.9194488525390625,-0.519195556640625,-0.0578460693359375
1783169623133162500,5.19916259765625,-0.9154052734375,-0.5152587890625,-0.0647735595703125
1783169623143141600,5.2091416015625,-0.8955535888671875,-0.541961669921875,-0.05828857421875
1783169623153090800,5.2190908203125,-0.865936279296875,-0.58740234375,-0.035003662109375
1783169623163039700,5.229039794921875,-0.8650360107421875,-0.6044921875,-0.02508544921875
1783169623172988700,5.23898876953125,-0.8645172119140625,-0.6119537353515625,-0.0285797119140625
1783169623182967600,5.248967529296875,-0.873809814453125,-0.630462646484375,-0.0275421142578125
1783169623192916700,5.258916748046875,-0.923431396484375,-0.6404876708984375,-0.0178985595703125
1783169623202864600,5.26886474609375,-0.9827728271484375,-0.6151580810546875,-0.026824951171875
1783169623212844500,5.278844482421875,-0.999053955078125,-0.562469482421875,-0.0729217529296875
1783169623222792700,5.288792724609375,-0.984405517578125,-0.517578125,-0.1326141357421875
1783169623232741600,5.29874169921875,-0.9731903076171875,-0.48583984375,-0.1709136962890625
1783169623242690600,5.308690673828125,-0.958740234375,-0.464996337890625,-0.1816864013671875
1783169623252669700,5.318669677734375,-0.94415283203125,-0.4610443115234375,-0.161376953125
1783169623262618600,5.32861865234375,-0.9577484130859375,-0.4630889892578125,-0.132080078125
1783169623272566500,5.33856640625,-1.001190185546875,-0.46661376953125,-0.1095123291015625
1783169623282568200,5.348568115234375,-1.02996826171875,-0.4602203369140625,-0.0970001220703125
1783169623292516400,5.358516357421875,-1.032745361328125,-0.4384307861328125,-0.1064605712890625
1783169623302465300,5.36846533203125,-1.0344696044921875,-0.4161376953125,-0.1179351806640625
1783169623312414200,5.378414306640625,-1.0308074951171875,-0.4093170166015625,-0.12139892578125
1783169623322393000,5.38839306640625,-1.0064697265625,-0.4093475341796875,-0.1280517578125
1783169623332342300,5.39834228515625,-0.9845428466796875,-0.408294677734375,-0.1385955810546875
1783169623342291500,5.40829150390625,-0.9684600830078125,-0.4122314453125,-0.139923095703125
1783169623352270300,5.418270263671875,-0.9390869140625,-0.42364501953125,-0.1351165771484375
1783169623362219300,5.42821923828125,-0.9127044677734375,-0.4367523193359375,-0.1286773681640625
1783169623372167400,5.43816748046875,-0.891326904296875,-0.4528961181640625,-0.12005615234375
1783169623382116400,5.448116455078125,-0.85589599609375,-0.463714599609375,-0.11297607421875
1783169623392095200,5.45809521484375,-0.8189544677734375,-0.4660491943359375,-0.1014404296875
1783169623402044400,5.46804443359375,-0.796173095703125,-0.46697998046875,-0.0841827392578125
1783169623411993300,5.477993408203125,-0.7648468017578125,-0.4688873291015625,-0.0716705322265625
1783169623421972200,5.48797216796875,-0.72943115234375,-0.46734619140625,-0.0628814697265625
1783169623431921200,5.497921142578125,-0.7073822021484375,-0.4646759033203125,-0.0499725341796875
1783169623441869300,5.507869384765625,-0.705108642578125,-0.4649810791015625,-0.0355072021484375
1783169623451818200,5.517818359375,-0.710205078125,-0.4655914306640625,-0.0256500244140625
1783169623461797000,5.527797119140625,-0.7105865478515625,-0.462310791015625,-0.0204925537109375
1783169623471746300,5.537746337890625,-0.7088165283203125,-0.456024169921875,-0.0148162841796875
1783169623481695200,5.5476953125,-0.7122802734375,-0.4527435302734375,-0.01007080078125
1783169623491674000,5.557674072265625,-0.7220306396484375,-0.452850341796875,-0.00262451171875
1783169623501623300,5.567623291015625,-0.740203857421875,-0.454620361328125,-0.0002288818359375
1783169623511572500,5.577572509765625,-0.7545013427734375,-0.455841064453125,-0.00640869140625
1783169623521520400,5.587520263671875,-0.7575531005859375,-0.45367431640625,-0.0193939208984375
1783169623531500300,5.597500244140625,-0.758270263671875,-0.45098876953125,-0.018341064453125
1783169623541448400,5.607448486328125,-0.7686614990234375,-0.4555206298828125,-0.011199951171875
1783169623551397400,5.6173974609375,-0.7841644287109375,-0.466766357421875,-0.0086822509765625
1783169623561376300,5.627376220703125,-0.8012847900390625,-0.4726715087890625,-0.010284423828125
1783169623571325200,5.6373251953125,-0.8114166259765625,-0.47344970703125,-0.0166473388671875
1783169623581274400,5.6472744140625,-0.8104400634765625,-0.4780731201171875,-0.02020263671875
1783169623591223300,5.657223388671875,-0.81689453125,-0.4873809814453125,-0.0147857666015625
1783169623601202200,5.6672021484375,-0.8287353515625,-0.498443603515625,-0.0084381103515625
1783169623611150300,5.677150390625,-0.835540771484375,-0.5030364990234375,-0.001678466796875
1783169623621099300,5.687099365234375,-0.84576416015625,-0.503326416015625,0.0025482177734375
1783169623631078100,5.697078125,-0.8574066162109375,-0.508514404296875,0.0028533935546875
1783169623641027300,5.70702734375,-0.862823486328125,-0.5092620849609375,0.0075225830078125
1783169623650976300,5.716976318359375,-0.8663330078125,-0.5089111328125,0.0182647705078125
1783169623660925400,5.726925537109375,-0.8786773681640625,-0.514434814453125,0.02911376953125
1783169623670904000,5.736904052734375,-0.901763916015625,-0.519561767578125,0.036041259765625
1783169623680853200,5.746853271484375,-0.9254608154296875,-0.5200042724609375,0.033782958984375
1783169623690801400,5.756801513671875,-0.9481353759765625,-0.5169677734375,0.0247344970703125
1783169623700781300,5.76678125,-0.9699554443359375,-0.5167388916015625,0.01055908203125
1783169623710729500,5.7767294921875,-0.9799346923828125,-0.514190673828125,-0.0084991455078125
1783169623720678400,5.786678466796875,-0.982513427734375,-0.5102996826171875,-0.024383544921875
1783169623730627300,5.79662744140625,-0.9556121826171875,-0.5211181640625,-0.020050048828125
1783169623740606200,5.806606201171875,-0.8939361572265625,-0.55694580078125,0.01416015625
1783169623750555400,5.816555419921875,-0.8710479736328125,-0.574859619140625,0.05584716796875
1783169623760504300,5.82650439453125,-0.8829193115234375,-0.5650634765625,0.0777130126953125
1783169623770483200,5.836483154296875,-0.9045562744140625,-0.5624847412109375,0.0909271240234375
1783169623780431400,5.846431396484375,-0.9813385009765625,-0.5605010986328125,0.0982513427734375
1783169623790380300,5.85638037109375,-1.0738677978515625,-0.535675048828125,0.086029052734375
1783169623800329200,5.8663291015625,-1.099761962890625,-0.48577880859375,0.04681396484375
1783169623810308000,5.87630810546875,-1.0621185302734375,-0.4294891357421875,-0.0006256103515625
1783169623820257300,5.88625732421875,-1.0173797607421875,-0.3792724609375,-0.0224151611328125
1783169623830206200,5.896206298828125,-0.9862060546875,-0.348876953125,-0.0102691650390625
1783169623840185000,5.90618505859375,-0.9955596923828125,-0.3520050048828125,0.033416748046875
1783169623850134300,5.91613427734375,-1.0024566650390625,-0.3789215087890625,0.0860748291015625
1783169623860082400,5.92608251953125,-1.021209716796875,-0.397430419921875,0.1403045654296875
1783169623870031400,5.93603125,-1.0773162841796875,-0.4096221923828125,0.186370849609375
1783169623880010200,5.94601025390625,-1.1048736572265625,-0.4199066162109375,0.2057647705078125
1783169623889959400,5.95595947265625,-1.1049957275390625,-0.40777587890625,0.19842529296875
1783169623899908400,5.965908447265625,-1.1196746826171875,-0.3863372802734375,0.1755828857421875
1783169623909887200,5.97588720703125,-1.1318817138671875,-0.37701416015625,0.153350830078125
1783169623919836200,5.985836181640625,-1.139373779296875,-0.3755950927734375,0.1267547607421875
1783169623929785300,5.995785400390625,-1.1259613037109375,-0.36700439453125,0.0926055908203125
1783169623939733200,6.005733154296875,-1.098907470703125,-0.3592376708984375,0.0649871826171875
1783169623949712400,6.01571240234375,-1.058929443359375,-0.3697967529296875,0.0551300048828125
1783169623959661300,6.025661376953125,-1.0118255615234375,-0.3895721435546875,0.0644378662109375
1783169623969610200,6.0356103515625,-0.963470458984375,-0.405120849609375,0.0787353515625
1783169623979589000,6.045589111328125,-0.912261962890625,-0.416961669921875,0.0905609130859375
1783169623989538300,6.055538330078125,-0.85809326171875,-0.423797607421875,0.1010589599609375
1783169623999487200,6.0654873046875,-0.8162078857421875,-0.4254150390625,0.113037109375
1783169624009435100,6.07543505859375,-0.7822723388671875,-0.424713134765625,0.123626708984375
1783169624019415300,6.085415283203125,-0.7447052001953125,-0.42169189453125,0.1299591064453125
1783169624029363200,6.09536328125,-0.7136383056640625,-0.41571044921875,0.1285400390625
1783169624039312400,6.1053125,-0.6951446533203125,-0.4128875732421875,0.1239471435546875
1783169624049291300,6.115291259765625,-0.68255615234375,-0.4149322509765625,0.1180877685546875
1783169624059240400,6.125240478515625,-0.676361083984375,-0.419647216796875,0.1157073974609375
1783169624069189400,6.135189453125,-0.6761627197265625,-0.42413330078125,0.115234375
1783169624079138300,6.14513818359375,-0.6828765869140625,-0.431549072265625,0.1124114990234375
1783169624089117200,6.1551171875,-0.692138671875,-0.4379119873046875,0.1118927001953125
1783169624099066400,6.16506640625,-0.7009124755859375,-0.4414825439453125,0.1199951171875
1783169624109014300,6.17501416015625,-0.713531494140625,-0.4405364990234375,0.125091552734375
1783169624118963200,6.184963134765625,-0.729461669921875,-0.4391632080078125,0.1180572509765625
1783169624128942300,6.1949423828125,-0.74609375,-0.443634033203125,0.107421875
1783169624138891300,6.204891357421875,-0.7621612548828125,-0.4471282958984375,0.109832763671875
1783169624148840200,6.214840087890625,-0.770965576171875,-0.4547882080078125,0.11669921875
1783169624158819000,6.224819091796875,-0.7659149169921875,-0.4589691162109375,0.1204986572265625
1783169624168768300,6.234768310546875,-0.7712860107421875,-0.4660491943359375,0.119598388671875
1783169624178716200,6.244716064453125,-0.7748565673828125,-0.4803009033203125,0.120208740234375
1783169624188665300,6.254665283203125,-0.771209716796875,-0.483917236328125,0.1130218505859375
1783169624198644200,6.264644287109375,-0.762237548828125,-0.4853668212890625,0.1017913818359375
1783169624208593400,6.274593505859375,-0.7466583251953125,-0.49249267578125,0.0968780517578125
1783169624218542300,6.284542236328125,-0.7303314208984375,-0.5003814697265625,0.1022796630859375
1783169624228521500,6.294521484375,-0.7168426513671875,-0.50482177734375,0.1094970703125
1783169624238470400,6.304470458984375,-0.7089996337890625,-0.512481689453125,0.1100006103515625
1783169624248419300,6.31441943359375,-0.71343994140625,-0.519683837890625,0.1030426025390625
1783169624258367200,6.3243671875,-0.7242584228515625,-0.524169921875,0.0917510986328125
1783169624268347100,6.33434716796875,-0.7316131591796875,-0.5304107666015625,0.0791778564453125
1783169624278309600,6.3443095703125,-0.7350311279296875,-0.5295867919921875,0.0653228759765625
1783169624288258600,6.354258544921875,-0.7551422119140625,-0.5254058837890625,0.049224853515625
1783169624298237400,6.364237548828125,-0.7945709228515625,-0.5288543701171875,0.0237274169921875
1783169624308186600,6.3741865234375,-0.8364410400390625,-0.528411865234375,-0.0068206787109375
1783169624318135600,6.384135498046875,-0.8706817626953125,-0.5241851806640625,-0.0326385498046875
1783169624328083500,6.39408349609375,-0.8933868408203125,-0.5243072509765625,-0.0507354736328125
1783169624338063400,6.4040634765625,-0.914459228515625,-0.5248260498046875,-0.0641937255859375
1783169624348011500,6.414011474609375,-0.9307861328125,-0.5343780517578125,-0.0709228515625
1783169624357960400,6.42396044921875,-0.9088897705078125,-0.571533203125,-0.0580596923828125
1783169624367939600,6.433939697265625,-0.87396240234375,-0.60595703125,-0.0318756103515625
1783169624377888500,6.443888427734375,-0.8802947998046875,-0.599639892578125,-0.0205230712890625
1783169624387837400,6.45383740234375,-0.927734375,-0.5892791748046875,-0.026824951171875
1783169624397786400,6.463786376953125,-0.978546142578125,-0.598907470703125,-0.019989013671875
1783169624407765500,6.473765625,-1.023529052734375,-0.598602294921875,-0.01806640625
1783169624417714700,6.483714599609375,-1.0576019287109375,-0.573699951171875,-0.0440521240234375
1783169624427662300,6.493662353515625,-1.0624542236328125,-0.546417236328125,-0.09088134765625
1783169624437642500,6.503642578125,-1.0576171875,-0.5179443359375,-0.1347808837890625
1783169624447590700,6.513590576171875,-1.0493927001953125,-0.4972686767578125,-0.171539306640625
1783169624457539600,6.52353955078125,-1.0158233642578125,-0.4852752685546875,-0.1862030029296875
1783169624467488500,6.533488525390625,-0.957244873046875,-0.46759033203125,-0.18548583984375
1783169624477467600,6.543467529296875,-0.9152374267578125,-0.4591522216796875,-0.1633758544921875
1783169624487416600,6.55341650390625,-0.8982696533203125,-0.4659576416015625,-0.12890625
1783169624497364500,6.563364501953125,-0.8903350830078125,-0.4706878662109375,-0.0988006591796875
1783169624507344400,6.573344482421875,-0.8944244384765625,-0.4650421142578125,-0.083282470703125
1783169624517292500,6.58329248046875,-0.8886566162109375,-0.4569091796875,-0.089569091796875
1783169624527241500,6.593241455078125,-0.8707275390625,-0.4477386474609375,-0.1196441650390625
1783169624537190400,6.6031904296875,-0.8608245849609375,-0.438018798828125,-0.14404296875
1783169624547169500,6.61316943359375,-0.8510284423828125,-0.43878173828125,-0.150054931640625
1783169624557118500,6.623118408203125,-0.8270721435546875,-0.4475250244140625,-0.14471435546875
1783169624567067400,6.6330673828125,-0.7988739013671875,-0.4595794677734375,-0.134246826171875
1783169624577046300,6.64304638671875,-0.7692718505859375,-0.467803955078125,-0.1240692138671875
1783169624586995500,6.652995361328125,-0.73394775390625,-0.4669647216796875,-0.1161956787109375
1783169624596943400,6.662943359375,-0.7093658447265625,-0.46685791015625,-0.1048431396484375
1783169624606892500,6.672892578125,-0.69915771484375,-0.4725341796875,-0.0867156982421875
1783169624616871700,6.68287158203125,-0.695098876953125,-0.4836273193359375,-0.0701446533203125
1783169624626820600,6.692820556640625,-0.6964263916015625,-0.4892730712890625,-0.05645751953125
1783169624636769500,6.70276953125,-0.6981658935546875,-0.486724853515625,-0.0474395751953125
1783169624646748400,6.71274853515625,-0.7022552490234375,-0.4871063232421875,-0.041900634765625
1783169624656697600,6.722697509765625,-0.7189788818359375,-0.4922943115234375,-0.0403594970703125
1783169624666645500,6.7326455078125,-0.738922119140625,-0.5007171630859375,-0.0383453369140625
1783169624676594400,6.742594482421875,-0.7510223388671875,-0.5080718994140625,-0.0455474853515625
1783169624686573600,6.752573486328125,-0.7653350830078125,-0.515533447265625,-0.053863525390625
1783169624696522500,6.7625224609375,-0.769287109375,-0.519287109375,-0.060333251953125
1783169624706471400,6.772471435546875,-0.762298583984375,-0.516265869140625,-0.062652587890625
1783169624716450600,6.782450439453125,-0.76123046875,-0.516845703125,-0.0617523193359375
1783169624726399500,6.7923994140625,-0.76568603515625,-0.5288543701171875,-0.055084228515625
1783169624736348400,6.802348388671875,-0.7686920166015625,-0.541839599609375,-0.044677734375
1783169624746296300,6.81229638671875,-0.7678985595703125,-0.54949951171875,-0.036407470703125
1783169624756276500,6.8222763671875,-0.7717132568359375,-0.5555419921875,-0.0298919677734375
1783169624766224400,6.832224365234375,-0.776336669921875,-0.5624542236328125,-0.026153564453125
1783169624776173600,6.842173583984375,-0.78448486328125,-0.5679168701171875,-0.0230865478515625
1783169624786152400,6.85215234375,-0.7950286865234375,-0.5692901611328125,-0.0180816650390625
1783169624796101600,6.8621015625,-0.8109283447265625,-0.5722503662109375,-0.013031005859375
1783169624806050600,6.872050537109375,-0.8227691650390625,-0.5799713134765625,-0.0092926025390625
1783169624815998500,6.88199853515625,-0.8310089111328125,-0.5854644775390625,-0.00274658203125
1783169624825978600,6.891978515625,-0.8592987060546875,-0.5932464599609375,0.0042266845703125
1783169624835926500,6.901926513671875,-0.8859405517578125,-0.602569580078125,0.005279541015625
1783169624845875500,6.91187548828125,-0.8989105224609375,-0.6007232666015625,0.007904052734375
1783169624855854600,6.9218544921875,-0.9203338623046875,-0.5970458984375,0.008056640625
1783169624865803500,6.931803466796875,-0.9418792724609375,-0.59747314453125,0.0076446533203125
1783169624875752400,6.94175244140625,-0.953765869140625,-0.5962677001953125,0.00555419921875
1783169624885701400,6.951701416015625,-0.9621124267578125,-0.59222412109375,0.001556396484375
1783169624895680500,6.961680419921875,-0.967376708984375,-0.5871429443359375,0.000823974609375
1783169624905629400,6.97162939453125,-0.9627227783203125,-0.5783843994140625,0.0047454833984375
1783169624915577300,6.981577392578125,-0.9495086669921875,-0.572357177734375,0.010009765625
1783169624925557200,6.99155712890625,-0.91259765625,-0.5859527587890625,0.0293121337890625
1783169624935505400,7.00150537109375,-0.8501434326171875,-0.6181488037109375,0.0740966796875
1783169624945454600,7.01145458984375,-0.8010711669921875,-0.635528564453125,0.123138427734375
1783169624955403500,7.021403564453125,-0.793121337890625,-0.622314453125,0.1512908935546875
1783169624965382700,7.031382568359375,-0.8448944091796875,-0.6054534912109375,0.168609619140625
1783169624975331600,7.04133154296875,-0.9383392333984375,-0.6066436767578125,0.1728668212890625
1783169624985279500,7.051279541015625,-0.9969482421875,-0.5816802978515625,0.160614013671875
1783169624995259600,7.061259765625,-1.0341339111328125,-0.515594482421875,0.109619140625
1783169625005207600,7.07120751953125,-1.1053314208984375,-0.458953857421875,0.0535430908203125
1783169625015156500,7.081156494140625,-1.1421051025390625,-0.4215240478515625,0.0104217529296875
1783169625025105400,7.09110546875,-1.134002685546875,-0.3739013671875,-0.032806396484375
1783169625035084500,7.10108447265625,-1.1197357177734375,-0.33551025390625,-0.0644683837890625
1783169625045033500,7.111033447265625,-1.078399658203125,-0.3153228759765625,-0.066070556640625
1783169625054982400,7.120982421875,-1.0263671875,-0.323760986328125,-0.0309295654296875
1783169625064961500,7.13096142578125,-0.9882965087890625,-0.3553009033203125,0.0263519287109375
1783169625074910500,7.140910400390625,-0.97271728515625,-0.3804931640625,0.075225830078125
1783169625084858400,7.1508583984375,-0.95880126953125,-0.3979034423828125,0.108795166015625
1783169625094807300,7.160807373046875,-0.9387664794921875,-0.4124603271484375,0.1263885498046875
1783169625104786400,7.170786376953125,-0.930084228515625,-0.4163055419921875,0.1120758056640625
1783169625114735400,7.1807353515625,-0.927276611328125,-0.404327392578125,0.0798797607421875
1783169625124684500,7.1906845703125,-0.9096527099609375,-0.3946990966796875,0.0582122802734375
1783169625134663700,7.20066357421875,-0.88287353515625,-0.396881103515625,0.0482940673828125
1783169625144612600,7.210612548828125,-0.85400390625,-0.3981781005859375,0.048065185546875
1783169625154560500,7.220560546875,-0.824310302734375,-0.3984527587890625,0.050140380859375
1783169625164509400,7.230509521484375,-0.793182373046875,-0.4084625244140625,0.0504302978515625
1783169625174488600,7.240488525390625,-0.7674102783203125,-0.4207000732421875,0.055023193359375
1783169625184437500,7.2504375,-0.7539520263671875,-0.4345855712890625,0.0667266845703125
1783169625194386400,7.260386474609375,-0.7334442138671875,-0.4469757080078125,0.0838165283203125
1783169625204365600,7.270365478515625,-0.72320556640625,-0.4560699462890625,0.105987548828125
1783169625214314500,7.280314453125,-0.7274932861328125,-0.461761474609375,0.126312255859375
1783169625224263400,7.290263427734375,-0.7296905517578125,-0.46722412109375,0.131195068359375
1783169625234211300,7.30021142578125,-0.740234375,-0.468719482421875,0.118316650390625
1783169625244191500,7.31019140625,-0.759185791015625,-0.4681243896484375,0.09161376953125
1783169625254139400,7.320139404296875,-0.785247802734375,-0.4684295654296875,0.0614013671875
1783169625264088300,7.33008837890625,-0.823028564453125,-0.5053558349609375,0.0349578857421875
1783169625274067500,7.3400673828125,-0.833221435546875,-0.515777587890625,0.040740966796875
1783169625284023800,7.35002392578125,-0.8043060302734375,-0.4561920166015625,0.044647216796875
1783169625293972700,7.35997265625,-0.78302001953125,-0.448455810546875,0.05511474609375
1783169625303921700,7.369921630859375,-0.781280517578125,-0.469329833984375,0.0687103271484375
1783169625313900800,7.37990087890625,-0.8028564453125,-0.495147705078125,0.0720062255859375
1783169625323848700,7.3898486328125,-0.818756103515625,-0.5370941162109375,0.0634918212890625
1783169625333797600,7.399797607421875,-0.788726806640625,-0.54266357421875,0.0610198974609375
1783169625343776800,7.40977685546875,-0.784576416015625,-0.4818878173828125,0.0407867431640625
1783169625353725700,7.4197255859375,-0.784088134765625,-0.4275054931640625,0.0217132568359375
1783169625363674600,7.429674560546875,-0.771728515625,-0.397125244140625,0.010772705078125
1783169625373623600,7.43962353515625,-0.7553253173828125,-0.3880157470703125,0.000579833984375
1783169625383602700,7.449602783203125,-0.7426300048828125,-0.3944854736328125,-0.002532958984375
1783169625393551600,7.459551513671875,-0.73870849609375,-0.40545654296875,-0.0042572021484375
1783169625403499500,7.46949951171875,-0.748870849609375,-0.4263458251953125,0.0046234130859375
1783169625413448400,7.479448486328125,-0.7722930908203125,-0.4561920166015625,0.018768310546875
1783169625423427600,7.489427490234375,-0.7958221435546875,-0.4832000732421875,0.024444580078125
1783169625433376500,7.49937646484375,-0.8197174072265625,-0.50677490234375,0.02886962890625
1783169625443325700,7.50932568359375,-0.842498779296875,-0.5357208251953125,0.0328216552734375
1783169625453304800,7.519304931640625,-0.856658935546875,-0.563018798828125,0.03582763671875
1783169625463253800,7.529253662109375,-0.86175537109375,-0.5789947509765625,0.037689208984375
1783169625473202700,7.53920263671875,-0.8679962158203125,-0.5847930908203125,0.0294952392578125
1783169625483150800,7.54915087890625,-0.8846282958984375,-0.5760345458984375,0.007904052734375
1783169625493129700,7.559129638671875,-0.8959808349609375,-0.5657196044921875,-0.02935791015625
1783169625503078700,7.56907861328125,-0.908721923828125,-0.572174072265625,-0.0590057373046875
1783169625513027600,7.579027587890625,-0.9290313720703125,-0.58013916015625,-0.077423095703125
1783169625523006700,7.5890068359375,-0.955322265625,-0.5796356201171875,-0.08905029296875
1783169625532955600,7.59895556640625,-0.97674560546875,-0.580352783203125,-0.0935211181640625
1783169625542904600,7.608904541015625,-0.96588134765625,-0.59796142578125,-0.091827392578125
1783169625552852700,7.618852783203125,-0.925811767578125,-0.6322021484375,-0.0833282470703125
1783169625562832600,7.62883251953125,-0.895294189453125,-0.6493072509765625,-0.070709228515625
1783169625572780500,7.638780517578125,-0.9065399169921875,-0.649566650390625,-0.0629730224609375
1783169625582729500,7.6487294921875,-0.9664459228515625,-0.65057373046875,-0.0546722412109375
1783169625592708600,7.65870849609375,-1.057037353515625,-0.668914794921875,-0.0370330810546875
1783169625602657500,7.668657470703125,-1.124176025390625,-0.6751251220703125,-0.0303955078125
1783169625612606700,7.678606689453125,-1.143310546875,-0.6388397216796875,-0.061004638671875
1783169625622555600,7.6885556640625,-1.106109619140625,-0.5761871337890625,-0.1150665283203125
1783169625632534800,7.69853466796875,-1.035247802734375,-0.52606201171875,-0.156463623046875
1783169625642483700,7.708483642578125,-0.978729248046875,-0.4923248291015625,-0.178192138671875
1783169625652431600,7.718431640625,-0.924957275390625,-0.464752197265625,-0.16571044921875
1783169625662410800,7.72841064453125,-0.8825836181640625,-0.4561920166015625,-0.1288909912109375
1783169625672359700,7.738359619140625,-0.853668212890625,-0.460601806640625,-0.0896759033203125
1783169625682308600,7.74830859375,-0.8320465087890625,-0.4669342041015625,-0.0550689697265625
1783169625692257500,7.758257568359375,-0.8246307373046875,-0.473724365234375,-0.0278778076171875
1783169625702236700,7.768236572265625,-0.81939697265625,-0.4757232666015625,-0.012237548828125
1783169625712185600,7.778185546875,-0.8167877197265625,-0.473358154296875,-0.0103912353515625
1783169625722133800,7.7881337890625,-0.8323974609375,-0.475738525390625,-0.0202178955078125
1783169625732113700,7.79811376953125,-0.846832275390625,-0.477081298828125,-0.0316314697265625
1783169625742061600,7.8080615234375,-0.84716796875,-0.4761962890625,-0.04351806640625
1783169625752010500,7.818010498046875,-0.839111328125,-0.4824676513671875,-0.05535888671875
1783169625761959700,7.827959716796875,-0.82574462890625,-0.497589111328125,-0.0630035400390625
1783169625771938600,7.8379384765625,-0.8071136474609375,-0.5077972412109375,-0.061553955078125
1783169625781887500,7.847887451171875,-0.783233642578125,-0.5099029541015625,-0.060699462890625
1783169625791836700,7.857836669921875,-0.75592041015625,-0.49993896484375,-0.0608062744140625
1783169625801815800,7.86781591796875,-0.730224609375,-0.48699951171875,-0.060882568359375
1783169625811764700,7.8777646484375,-0.7047271728515625,-0.483001708984375,-0.0576934814453125
1783169625821712600,7.887712646484375,-0.679290771484375,-0.4888916015625,-0.0492706298828125
1783169625831661800,7.897661865234375,-0.6591644287109375,-0.499053955078125,-0.03045654296875
1783169625841640700,7.907640625,-0.649261474609375,-0.52099609375,-0.0090179443359375
1783169625851589600,7.917589599609375,-0.6487884521484375,-0.5454864501953125,0.007110595703125
1783169625861538600,7.92753857421875,-0.6451416015625,-0.559844970703125,0.0154571533203125
1783169625871517700,7.937517578125,-0.6384429931640625,-0.5643463134765625,0.0221710205078125
1783169625881466600,7.947466552734375,-0.6312713623046875,-0.558258056640625,0.0160980224609375
1783169625891414500,7.95741455078125,-0.6255645751953125,-0.549102783203125,0.00714111328125
1783169625901363700,7.96736376953125,-0.6259307861328125,-0.5396270751953125,0.0036773681640625
1783169625911342600,7.977342529296875,-0.623931884765625,-0.541656494140625,-0.001251220703125
1783169625921291500,7.98729150390625,-0.6244964599609375,-0.5476531982421875,-0.006256103515625
1783169625931240400,7.997240478515625,-0.63861083984375,-0.5496978759765625,-0.00677490234375
1783169625941219600,8.007219482421876,-0.656463623046875,-0.551116943359375,0.0020751953125
1783169625951168500,8.01716845703125,-0.6645050048828125,-0.556671142578125,0.0203704833984375
1783169625961117700,8.02711767578125,-0.67694091796875,-0.5676116943359375,0.0284423828125
1783169625971065900,8.03706591796875,-0.69012451171875,-0.5793304443359375,0.0294952392578125
1783169625981045800,8.047045654296875,-0.7071380615234375,-0.5880889892578125,0.0289459228515625
1783169625990993700,8.05699365234375,-0.7269287109375,-0.5915069580078125,0.0294189453125
1783169626000942600,8.066942626953125,-0.7448883056640625,-0.5887603759765625,0.02447509765625
1783169626010921700,8.076921630859376,-0.759521484375,-0.584716796875,0.0164337158203125
1783169626020870700,8.08687060546875,-0.7790374755859375,-0.5908966064453125,0.0117340087890625
1783169626030819600,8.096819580078124,-0.80706787109375,-0.6095123291015625,0.015106201171875
1783169626040767700,8.106767822265626,-0.82855224609375,-0.6253662109375,0.0339202880859375
1783169626050747600,8.11674755859375,-0.844207763671875,-0.6357574462890625,0.049835205078125
1783169626060695600,8.126695556640625,-0.8529510498046875,-0.6431732177734375,0.053314208984375
1783169626070644700,8.136644775390625,-0.8527984619140625,-0.6534271240234375,0.0512542724609375
1783169626080623600,8.14662353515625,-0.8538055419921875,-0.663177490234375,0.055816650390625
1783169626090572500,8.156572509765626,-0.8581695556640625,-0.6632843017578125,0.070068359375
1783169626100521500,8.166521484375,-0.8652191162109375,-0.66021728515625,0.0773162841796875
1783169626110470700,8.176470703125,-0.8454437255859375,-0.6716461181640625,0.0877838134765625
1783169626120449500,8.186449462890625,-0.7997283935546875,-0.702178955078125,0.127532958984375
1783169626130398700,8.196398681640625,-0.8118438720703125,-0.7344970703125,0.1686859130859375
1783169626140347000,8.206346923828125,-0.912567138671875,-0.7372283935546875,0.1692352294921875
1783169626150326800,8.216326904296874,-1.058349609375,-0.7126617431640625,0.14227294921875
1783169626160274700,8.226274658203126,-1.1600494384765625,-0.6792144775390625,0.1085205078125
1783169626170223600,8.2362236328125,-1.1855621337890625,-0.6371917724609375,0.0741119384765625
1783169626180172800,8.2461728515625,-1.1663818359375,-0.5711822509765625,0.0219268798828125
1783169626190151700,8.256151611328125,-1.1150665283203125,-0.4854888916015625,-0.036285400390625
1783169626200100600,8.2661005859375,-1.04852294921875,-0.407623291015625,-0.0695037841796875
1783169626210048800,8.276048828125,-0.969696044921875,-0.3675537109375,-0.065673828125
1783169626220028700,8.286028564453124,-0.8875885009765625,-0.36737060546875,-0.024810791015625
1783169626229976600,8.2959765625,-0.8400726318359375,-0.387054443359375,0.0383148193359375
1783169626239925500,8.305925537109376,-0.842803955078125,-0.4270172119140625,0.0876922607421875
1783169626249874700,8.315874755859374,-0.8543548583984375,-0.444793701171875,0.167694091796875
1783169626259853600,8.325853515625,-0.8494110107421875,-0.4526519775390625,0.214080810546875
1783169626269802500,8.335802490234375,-0.9000701904296875,-0.485107421875,0.1811676025390625
1783169626279776500,8.345776611328125,-0.90460205078125,-0.473541259765625,0.1579742431640625
1783169626289755600,8.355755615234376,-0.9095001220703125,-0.449066162109375,0.1229705810546875
1783169626299704600,8.36570458984375,-0.9180755615234375,-0.4462890625,0.0755462646484375
1783169626309652500,8.375652587890626,-0.91351318359375,-0.442962646484375,0.0431365966796875
1783169626319601400,8.385601318359376,-0.9273834228515625,-0.4332122802734375,0.0179901123046875
1783169626329580500,8.39558056640625,-0.9142303466796875,-0.4340362548828125,0.000213623046875
1783169626339529500,8.405529541015625,-0.878997802734375,-0.437896728515625,-0.0032958984375
1783169626349478700,8.415478759765625,-0.8470916748046875,-0.4413909912109375,0.0045318603515625
1783169626359457500,8.42545751953125,-0.82196044921875,-0.4477386474609375,0.0214080810546875
1783169626369406700,8.43540673828125,-0.7947235107421875,-0.460845947265625,0.044158935546875
1783169626379354600,8.445354736328126,-0.7824554443359375,-0.4676666259765625,0.06549072265625
1783169626389303800,8.4553037109375,-0.7778167724609375,-0.46978759765625,0.0870819091796875
1783169626399282700,8.46528271484375,-0.7647857666015625,-0.474212646484375,0.1118316650390625
1783169626409231600,8.475231689453125,-0.760345458984375,-0.482666015625,0.1137847900390625
1783169626419180500,8.4851806640625,-0.770294189453125,-0.4851531982421875,0.0957794189453125
1783169626429159700,8.49515966796875,-0.772491455078125,-0.479583740234375,0.079986572265625
1783169626439108600,8.505108642578126,-0.7691650390625,-0.4758148193359375,0.0655364990234375
1783169626449057500,8.5150576171875,-0.76739501953125,-0.478118896484375,0.05035400390625
1783169626459005700,8.525005615234376,-0.761505126953125,-0.4817352294921875,0.040985107421875
1783169626468985600,8.534985595703125,-0.757080078125,-0.486846923828125,0.041717529296875
1783169626478933500,8.54493359375,-0.7600250244140625,-0.4938812255859375,0.04425048828125
1783169626488882400,8.55488232421875,-0.7585906982421875,-0.502197265625,0.0499725341796875
1783169626498861600,8.564861572265626,-0.758148193359375,-0.51043701171875,0.0542449951171875
1783169626508810500,8.574810546875,-0.761199951171875,-0.5144500732421875,0.0568389892578125
1783169626518759400,8.584759521484376,-0.7641448974609375,-0.5161590576171875,0.056304931640625
1783169626528707600,8.59470751953125,-0.7635650634765625,-0.520416259765625,0.055328369140625
1783169626538687700,8.604687744140625,-0.7666168212890625,-0.52398681640625,0.0535888671875
1783169626548635600,8.6146357421875,-0.7677001953125,-0.5272979736328125,0.0494537353515625
1783169626558584600,8.62458447265625,-0.769256591796875,-0.526824951171875,0.0428924560546875
1783169626568563700,8.634563720703126,-0.7695770263671875,-0.5256805419921875,0.0336761474609375
1783169626578512600,8.6445126953125,-0.7684326171875,-0.5259246826171875,0.026824951171875
1783169626588461600,8.654461669921876,-0.7661285400390625,-0.5272369384765625,0.023773193359375
1783169626598410500,8.664410400390626,-0.76806640625,-0.5346221923828125,0.0247650146484375
1783169626608389600,8.6743896484375,-0.7653656005859375,-0.5465240478515625,0.0261688232421875
1783169626618338600,8.684338623046875,-0.7647247314453125,-0.5597381591796875,0.0304412841796875
1783169626628286700,8.69428662109375,-0.771636962890625,-0.57086181640625,0.0343780517578125
1783169626638266600,8.7042666015625,-0.7742919921875,-0.5789794921875,0.038116455078125
1783169626648214500,8.714214599609376,-0.770599365234375,-0.5842437744140625,0.0354766845703125
1783169626658163500,8.72416357421875,-0.77239990234375,-0.5897674560546875,0.0289764404296875
1783169626668112600,8.734112548828126,-0.7784576416015625,-0.591064453125,0.0190887451171875
1783169626678091500,8.744091552734375,-0.7858734130859375,-0.5889739990234375,0.0028076171875
1783169626688040400,8.75404052734375,-0.798126220703125,-0.5873565673828125,-0.0153045654296875
1783169626697988600,8.763988525390625,-0.813629150390625,-0.5878448486328125,-0.034820556640625
1783169626707968800,8.77396875,-0.8313140869140625,-0.58245849609375,-0.0492706298828125
1783169626717916400,8.78391650390625,-0.84930419921875,-0.57403564453125,-0.0652313232421875
1783169626727865600,8.793865478515626,-0.842041015625,-0.565887451171875,-0.07525634765625
1783169626737814800,8.803814697265626,-0.807708740234375,-0.573974609375,-0.069061279296875
1783169626747793700,8.813793701171875,-0.7667388916015625,-0.6005096435546875,-0.054840087890625
1783169626757742600,8.82374267578125,-0.757568359375,-0.6228485107421875,-0.04327392578125
1783169626767691500,8.83369140625,-0.79949951171875,-0.6346588134765625,-0.03790283203125
1783169626777639700,8.8436396484375,-0.8441925048828125,-0.64483642578125,-0.031463623046875
1783169626787619600,8.85361962890625,-0.87896728515625,-0.6542816162109375,-0.02630615234375
1783169626797567500,8.8635673828125,-0.9358367919921875,-0.6443023681640625,-0.0423126220703125
1783169626807516700,8.8735166015625,-1.00811767578125,-0.6060333251953125,-0.07733154296875
1783169626817495600,8.88349560546875,-1.079193115234375,-0.5791015625,-0.125946044921875
1783169626827444500,8.893444580078125,-1.106903076171875,-0.5618133544921875,-0.177581787109375
1783169626837393400,8.903393310546875,-1.1031036376953125,-0.525421142578125,-0.2178955078125
1783169626847342600,8.913342529296875,-1.0966949462890625,-0.489898681640625,-0.2440032958984375
1783169626857321500,8.923321533203126,-1.07666015625,-0.4749908447265625,-0.244354248046875
1783169626867269600,8.93326953125,-1.0322723388671875,-0.479339599609375,-0.220001220703125
1783169626877218800,8.94321875,-0.9794921875,-0.4872894287109375,-0.186126708984375
1783169626887197400,8.953197509765625,-0.9559478759765625,-0.49163818359375,-0.1496734619140625
1783169626897146600,8.963146728515625,-0.9357757568359375,-0.4993438720703125,-0.118988037109375
1783169626907095600,8.973095458984375,-0.9000091552734375,-0.5095062255859375,-0.1076202392578125
1783169626917044700,8.983044677734375,-0.8766326904296875,-0.51556396484375,-0.1135711669921875
1783169626927023600,8.993023681640626,-0.8656463623046875,-0.518035888671875,-0.1306304931640625
1783169626936972500,9.00297265625,-0.850799560546875,-0.518218994140625,-0.150604248046875
1783169626946920700,9.012920654296876,-0.8395233154296875,-0.5206451416015625,-0.1666412353515625
1783169626956900600,9.022900634765625,-0.82928466796875,-0.5225982666015625,-0.1761016845703125
1783169626966848500,9.0328486328125,-0.8209381103515625,-0.5242156982421875,-0.1810150146484375
1783169626976797700,9.042797607421875,-0.823455810546875,-0.52685546875,-0.1824951171875
1783169626986746600,9.05274658203125,-0.8215179443359375,-0.53204345703125,-0.1772613525390625
1783169626996725500,9.0627255859375,-0.803497314453125,-0.5334320068359375,-0.1687164306640625
1783169627006674400,9.07267431640625,-0.7822723388671875,-0.5281219482421875,-0.1572723388671875
1783169627016623600,9.08262353515625,-0.7693023681640625,-0.527069091796875,-0.14434814453125
1783169627026602500,9.0926025390625,-0.759429931640625,-0.5305633544921875,-0.1247711181640625
1783169627036550400,9.10255029296875,-0.7535247802734375,-0.5273895263671875,-0.1063385009765625
1783169627046499600,9.11249951171875,-0.7494659423828125,-0.5233154296875,-0.09814453125
1783169627056448800,9.12244873046875,-0.7436370849609375,-0.5226898193359375,-0.0937652587890625
1783169627066427600,9.132427734375,-0.7524871826171875,-0.52532958984375,-0.095306396484375
1783169627076376600,9.14237646484375,-0.7681884765625,-0.5301361083984375,-0.101593017578125
1783169627086325800,9.15232568359375,-0.7691192626953125,-0.5336456298828125,-0.1107330322265625
1783169627096304600,9.1623046875,-0.7604522705078125,-0.5338897705078125,-0.1196441650390625
1783169627106253600,9.172253662109375,-0.746246337890625,-0.5340728759765625,-0.12579345703125
1783169627116201700,9.18220166015625,-0.7313995361328125,-0.536895751953125,-0.12493896484375
1783169627126150700,9.192150634765625,-0.7212371826171875,-0.54571533203125,-0.119049072265625
1783169627136129500,9.202129638671876,-0.698974609375,-0.560211181640625,-0.1078643798828125
1783169627146078500,9.212078369140626,-0.6790618896484375,-0.570770263671875,-0.093170166015625
1783169627156027600,9.222027587890626,-0.68023681640625,-0.5821380615234375,-0.0815582275390625
1783169627166006500,9.232006591796875,-0.6799468994140625,-0.59307861328125,-0.0701904296875
1783169627175955500,9.24195556640625,-0.6702728271484375,-0.597991943359375,-0.0599365234375
1783169627185904400,9.251904296875,-0.6709136962890625,-0.6077880859375,-0.0550689697265625
1783169627195852500,9.2618525390625,-0.68511962890625,-0.620391845703125,-0.0535888671875
1783169627205831400,9.27183154296875,-0.694305419921875,-0.6298828125,-0.0506134033203125
1783169627215780600,9.281780517578126,-0.7031097412109375,-0.635498046875,-0.046661376953125
1783169627225729800,9.291729736328126,-0.7174530029296875,-0.6422271728515625,-0.0467681884765625
1783169627235708700,9.301708740234375,-0.725738525390625,-0.6459197998046875,-0.044036865234375
1783169627245657600,9.31165771484375,-0.73736572265625,-0.6465301513671875,-0.03717041015625
1783169627255606500,9.3216064453125,-0.756072998046875,-0.648040771484375,-0.032196044921875
1783169627265554700,9.3315546875,-0.7713470458984375,-0.6479949951171875,-0.025054931640625
1783169627275534600,9.34153466796875,-0.790863037109375,-0.6470489501953125,-0.015350341796875
1783169627285522200,9.351522216796875,-0.8154449462890625,-0.6461639404296875,-0.00787353515625
1783169627295471000,9.36147119140625,-0.846405029296875,-0.6429443359375,-0.0055389404296875
1783169627305450200,9.3714501953125,-0.870880126953125,-0.6375732421875,-0.0073699951171875
1783169627315399200,9.381399169921876,-0.873260498046875,-0.6305694580078125,-0.0153961181640625
1783169627325348000,9.39134814453125,-0.883575439453125,-0.6236419677734375,-0.017242431640625
1783169627335297300,9.40129736328125,-0.9006805419921875,-0.6198577880859375,-0.0115966796875
1783169627345276200,9.411276123046875,-0.8981781005859375,-0.619110107421875,-0.0030670166015625
1783169627355225300,9.421225341796875,-0.866851806640625,-0.6246795654296875,0.019927978515625
1783169627365173200,9.43117333984375,-0.819427490234375,-0.656768798828125,0.06146240234375
1783169627375152400,9.44115234375,-0.786865234375,-0.70574951171875,0.106719970703125
1783169627385101300,9.451101318359376,-0.8059234619140625,-0.733154296875,0.141265869140625
1783169627395050200,9.46105029296875,-0.852203369140625,-0.7371978759765625,0.1546478271484375
1783169627404999200,9.470999267578126,-0.9140777587890625,-0.7369842529296875,0.1438446044921875
1783169627414978300,9.480978271484375,-1.0185546875,-0.7317047119140625,0.1207275390625
1783169627424927200,9.49092724609375,-1.10101318359375,-0.700958251953125,0.0846405029296875
1783169627434875100,9.500875244140625,-1.098785400390625,-0.643035888671875,0.0352935791015625
1783169627444855300,9.510855224609376,-1.0511016845703125,-0.5650787353515625,-0.0153350830078125
1783169627454803200,9.52080322265625,-1.0037689208984375,-0.48114013671875,-0.05126953125
1783169627464752000,9.530752197265626,-0.959014892578125,-0.4239044189453125,-0.0603179931640625
1783169627474701000,9.540701171875,-0.91265869140625,-0.4117279052734375,-0.0253143310546875
1783169627484680200,9.55068017578125,-0.8709869384765625,-0.4357757568359375,0.038360595703125
1783169627494629000,9.560629150390625,-0.8409576416015625,-0.45556640625,0.1007232666015625
1783169627504578000,9.570578125,-0.8365325927734375,-0.476226806640625,0.1562957763671875
1783169627514557200,9.58055712890625,-0.84283447265625,-0.503662109375,0.19140625
1783169627524506400,9.59050634765625,-0.8605194091796875,-0.514739990234375,0.1963043212890625
1783169627534454300,9.600454345703126,-0.8700408935546875,-0.4958953857421875,0.1663055419921875
1783169627544403200,9.6104033203125,-0.863616943359375,-0.4634246826171875,0.1201324462890625
1783169627554382300,9.62038232421875,-0.862823486328125,-0.4501495361328125,0.0814666748046875
1783169627564331300,9.630331298828125,-0.859893798828125,-0.4502410888671875,0.0493927001953125
1783169627574280200,9.6402802734375,-0.8425750732421875,-0.4494781494140625,0.025604248046875
1783169627584259300,9.65025927734375,-0.8204803466796875,-0.4516143798828125,0.0129241943359375
1783169627594208300,9.660208251953126,-0.79718017578125,-0.4632568359375,0.0147247314453125
1783169627604156200,9.67015625,-0.7690277099609375,-0.4800262451171875,0.0319366455078125
1783169627614105300,9.680105224609376,-0.7371368408203125,-0.49395751953125,0.0516204833984375
1783169627624084200,9.690084228515625,-0.709259033203125,-0.4994964599609375,0.0641021728515625
1783169627634033200,9.700033203125,-0.683135986328125,-0.502960205078125,0.070343017578125
1783169627643982000,9.709982177734375,-0.671356201171875,-0.5120849609375,0.07666015625
1783169627653961200,9.719961181640626,-0.6826934814453125,-0.5230560302734375,0.0717010498046875
1783169627663910100,9.72991015625,-0.680389404296875,-0.523284912109375,0.06591796875
1783169627673859000,9.739859130859376,-0.6753997802734375,-0.514251708984375,0.06085205078125
1783169627683807200,9.74980712890625,-0.6845550537109375,-0.51507568359375,0.0509796142578125
1783169627693787400,9.759787353515625,-0.6939239501953125,-0.5192108154296875,0.047210693359375
1783169627703735000,9.769735107421875,-0.7083282470703125,-0.5269775390625,0.0506744384765625
1783169627713684200,9.779684326171875,-0.7256011962890625,-0.5407562255859375,0.05804443359375
1783169627723663400,9.789663330078126,-0.7377166748046875,-0.55572509765625,0.062255859375
1783169627733612300,9.7996123046875,-0.74102783203125,-0.564849853515625,0.060821533203125
1783169627743561200,9.809561279296876,-0.7430572509765625,-0.567352294921875,0.0577850341796875
1783169627753509400,9.81950927734375,-0.749114990234375,-0.5721588134765625,0.0541839599609375
1783169627763489300,9.8294892578125,-0.7505950927734375,-0.5770721435546875,0.046661376953125
1783169627773437200,9.839437255859375,-0.74774169921875,-0.577484130859375,0.03997802734375
1783169627783386000,9.84938623046875,-0.74322509765625,-0.5734710693359375,0.0355682373046875
1783169627793365200,9.859365234375,-0.7415924072265625,-0.571624755859375,0.03936767578125
1783169627803314200,9.869314208984376,-0.735443115234375,-0.5756683349609375,0.0460968017578125
1783169627813263000,9.87926318359375,-0.734222412109375,-0.5848846435546875,0.053863525390625
1783169627823212000,9.8892119140625,-0.733428955078125,-0.5937957763671875,0.0596466064453125
1783169627833191200,9.899191162109375,-0.72503662109375,-0.596832275390625,0.0677947998046875
1783169627843140000,9.90914013671875,-0.72406005859375,-0.6012115478515625,0.077728271484375
1783169627853088300,9.919088134765625,-0.729217529296875,-0.60693359375,0.081298828125
1783169627863068400,9.929068359375,-0.7343902587890625,-0.6112060546875,0.07861328125
1783169627873016000,9.93901611328125,-0.740875244140625,-0.6137237548828125,0.07720947265625
1783169627882965200,9.94896533203125,-0.7484130859375,-0.618011474609375,0.073272705078125
1783169627892914200,9.9589140625,-0.7568817138671875,-0.623779296875,0.06854248046875
1783169627902893300,9.968893310546875,-0.767730712890625,-0.623931884765625,0.07305908203125
1783169627912842200,9.97884228515625,-0.783416748046875,-0.6237945556640625,0.078125
1783169627922790400,9.988790283203125,-0.802001953125,-0.6288909912109375,0.080902099609375
1783169627932770300,9.998770263671876,-0.822723388671875,-0.632598876953125,0.0829620361328125
1783169627942718200,10.00871826171875,-0.8513031005859375,-0.632568359375,0.078125
1783169627952667100,10.018667236328126,-0.8788909912109375,-0.627166748046875,0.07073974609375
1783169627962616300,10.0286162109375,-0.8995819091796875,-0.620849609375,0.0571136474609375
1783169627972595200,10.03859521484375,-0.9207763671875,-0.61676025390625,0.0385589599609375
1783169627982544100,10.048544189453125,-0.945526123046875,-0.6128387451171875,0.019134521484375
1783169627992493000,10.0584931640625,-0.95111083984375,-0.6073150634765625,-0.0000457763671875
1783169628002472200,10.06847216796875,-0.94512939453125,-0.602386474609375,-0.0164642333984375
1783169628012421000,10.078421142578126,-0.9207916259765625,-0.6029052734375,-0.0147552490234375
1783169628022369000,10.088369140625,-0.8773651123046875,-0.6239013671875,0.016845703125
1783169628032318200,10.098318115234376,-0.8731689453125,-0.6452178955078125,0.05230712890625
1783169628042297000,10.108297119140625,-0.91351318359375,-0.6457061767578125,0.0726776123046875
1783169628052246300,10.118246337890625,-0.9450531005859375,-0.6464080810546875,0.0796661376953125
1783169628062195200,10.1281953125,-0.94805908203125,-0.6533355712890625,0.077484130859375
1783169628072174300,10.13817431640625,-0.961669921875,-0.639373779296875,0.065643310546875
1783169628082123300,10.148123291015626,-1.013458251953125,-0.6114501953125,0.032958984375
1783169628092071200,10.1580712890625,-1.03594970703125,-0.5896759033203125,-0.0064239501953125
1783169628102020400,10.168020263671876,-1.015411376953125,-0.567413330078125,-0.038330078125
1783169628111999200,10.177999267578125,-0.99456787109375,-0.5396270751953125,-0.0695648193359375
1783169628121948200,10.1879482421875,-0.97210693359375,-0.5035247802734375,-0.085968017578125
1783169628131897000,10.19789697265625,-0.9416656494140625,-0.47344970703125,-0.080535888671875
1783169628141876200,10.207876220703126,-0.9129486083984375,-0.4621734619140625,-0.06207275390625
1783169628151825200,10.2178251953125,-0.8938751220703125,-0.4649658203125,-0.0394744873046875
1783169628161774000,10.227774169921876,-0.8830108642578125,-0.4732818603515625,-0.023651123046875
1783169628171722200,10.23772216796875,-0.8660736083984375,-0.476226806640625,-0.006195068359375
1783169628181702100,10.2477021484375,-0.8450775146484375,-0.476837158203125,0.0095977783203125
1783169628191650000,10.257650146484375,-0.8298187255859375,-0.4782257080078125,0.019073486328125
1783169628201599200,10.26759912109375,-0.8204193115234375,-0.4840850830078125,0.0151824951171875
1783169628211578000,10.277578125,-0.8071441650390625,-0.4841156005859375,-0.00506591796875
1783169628221527300,10.28752734375,-0.7853240966796875,-0.48236083984375,-0.0272216796875
1783169628231476200,10.297476318359376,-0.771484375,-0.483367919921875,-0.0382080078125
1783169628241424400,10.30742431640625,-0.755218505859375,-0.4836578369140625,-0.0456085205078125
1783169628251404300,10.317404296875,-0.729400634765625,-0.479583740234375,-0.0481414794921875
1783169628261352200,10.327352294921875,-0.7128753662109375,-0.4802398681640625,-0.04827880859375
1783169628271301400,10.33730126953125,-0.6956787109375,-0.49029541015625,-0.0452117919921875
1783169628281257500,10.347257568359375,-0.678314208984375,-0.4987335205078125,-0.03509521484375
1783169628291236400,10.357236328125,-0.6729583740234375,-0.507232666015625,-0.017730712890625
1783169628301185300,10.367185302734375,-0.6727447509765625,-0.5162200927734375,0.004180908203125
1783169628311134500,10.377134521484376,-0.6677093505859375,-0.523468017578125,0.0213470458984375
1783169628321113300,10.38711328125,-0.671875,-0.5275115966796875,0.032379150390625
1783169628331062300,10.397062255859375,-0.6893768310546875,-0.5261077880859375,0.038116455078125
1783169628341010400,10.407010498046875,-0.7092742919921875,-0.517242431640625,0.037200927734375
1783169628350959400,10.41695947265625,-0.72216796875,-0.5104217529296875,0.0314483642578125
1783169628360938200,10.426938232421875,-0.734375,-0.505950927734375,0.0220947265625
1783169628370887200,10.43688720703125,-0.741455078125,-0.50140380859375,0.01300048828125
1783169628380836600,10.446836669921876,-0.737457275390625,-0.4907989501953125,0.014984130859375
1783169628390815500,10.4568154296875,-0.7276763916015625,-0.4825439453125,0.02325439453125
1783169628400764400,10.466764404296875,-0.7094879150390625,-0.48321533203125,0.036346435546875
1783169628410712600,10.476712646484375,-0.688446044921875,-0.4906005859375,0.0505828857421875
1783169628420661500,10.48666162109375,-0.6802215576171875,-0.50274658203125,0.062652587890625
1783169628430640400,10.496640380859375,-0.678466796875,-0.518280029296875,0.0666656494140625
1783169628440589300,10.50658935546875,-0.676483154296875,-0.533905029296875,0.0632171630859375
1783169628450538500,10.51653857421875,-0.6881866455078125,-0.5433502197265625,0.057891845703125
1783169628460517400,10.526517333984375,-0.7156829833984375,-0.554290771484375,0.0457763671875
1783169628470466300,10.53646630859375,-0.73590087890625,-0.5639801025390625,0.02935791015625
1783169628480415200,10.546415283203125,-0.747650146484375,-0.563201904296875,0.017425537109375
1783169628490363400,10.55636328125,-0.7689208984375,-0.56195068359375,0.00244140625
1783169628500343300,10.56634326171875,-0.788238525390625,-0.5673828125,-0.0077056884765625
1783169628510291500,10.57629150390625,-0.7963714599609375,-0.5674591064453125,-0.0062103271484375
1783169628520240400,10.586240478515625,-0.8008575439453125,-0.567413330078125,0.000640869140625
1783169628530219300,10.59621923828125,-0.795501708984375,-0.5758056640625,0.00628662109375
1783169628540168200,10.606168212890625,-0.7975921630859375,-0.5896453857421875,0.00946044921875
1783169628550117400,10.616117431640625,-0.81585693359375,-0.60552978515625,0.0120086669921875
1783169628560066600,10.626066650390625,-0.8381500244140625,-0.6212310791015625,0.016021728515625
1783169628570045400,10.63604541015625,-0.8616943359375,-0.6302947998046875,0.020294189453125
1783169628579993600,10.64599365234375,-0.88677978515625,-0.63970947265625,0.0186004638671875
1783169628589942500,10.655942626953125,-0.89739990234375,-0.6461639404296875,0.0168609619140625
1783169628599921400,10.66592138671875,-0.9164581298828125,-0.64129638671875,0.0191192626953125
1783169628609870300,10.675870361328125,-0.9373016357421875,-0.63922119140625,0.02386474609375
1783169628619819500,10.685819580078125,-0.9378814697265625,-0.6452178955078125,0.026153564453125
1783169628629768400,10.6957685546875,-0.9282684326171875,-0.6511688232421875,0.040740966796875
1783169628639747300,10.705747314453125,-0.9038543701171875,-0.6745452880859375,0.0866546630859375
1783169628649696300,10.7156962890625,-0.9065093994140625,-0.709075927734375,0.147796630859375
1783169628659644400,10.72564453125,-0.975555419921875,-0.7097320556640625,0.169097900390625
1783169628669624300,10.735624267578125,-1.087890625,-0.6950531005859375,0.1570892333984375
1783169628679572200,10.745572265625,-1.15960693359375,-0.68310546875,0.11627197265625
1783169628689521400,10.755521484375,-1.1480560302734375,-0.6357574462890625,0.0670013427734375
1783169628699470300,10.76547021484375,-1.1190032958984375,-0.553436279296875,0.010498046875
1783169628709449200,10.77544921875,-1.098846435546875,-0.465118408203125,-0.0341339111328125
1783169628719398400,10.7853984375,-1.0792999267578125,-0.4062042236328125,-0.0544891357421875
1783169628729347600,10.79534765625,-1.038360595703125,-0.3946990966796875,-0.0601043701171875
1783169628739326500,10.805326416015625,-0.9468841552734375,-0.3907318115234375,-0.06134033203125
1783169628749274400,10.8152744140625,-0.8838348388671875,-0.37799072265625,-0.028167724609375
1783169628759223600,10.8252236328125,-0.874847412109375,-0.385498046875,0.0260467529296875
1783169628769172500,10.83517236328125,-0.847930908203125,-0.4124298095703125,0.0945281982421875
1783169628779151400,10.8451513671875,-0.8132171630859375,-0.4393768310546875,0.161102294921875
1783169628789100300,10.855100341796875,-0.80474853515625,-0.45440673828125,0.2003021240234375
1783169628799049500,10.865049560546876,-0.824432373046875,-0.4627532958984375,0.210845947265625
1783169628809028400,10.8750283203125,-0.8426971435546875,-0.463836669921875,0.195281982421875
1783169628818977300,10.884977294921875,-0.8585662841796875,-0.454437255859375,0.164459228515625
1783169628828925400,10.894925537109375,-0.8782958984375,-0.442901611328125,0.134735107421875
1783169628838874400,10.904874267578125,-0.880706787109375,-0.4365997314453125,0.1086273193359375
1783169628848853200,10.914853271484375,-0.874267578125,-0.4278411865234375,0.09051513671875
1783169628858802400,10.924802490234375,-0.875457763671875,-0.419647216796875,0.0830841064453125
1783169628868751400,10.93475146484375,-0.8758087158203125,-0.415069580078125,0.0843658447265625
1783169628878730200,10.944730224609375,-0.8542633056640625,-0.410491943359375,0.0944061279296875
1783169628888679400,10.954679443359375,-0.825653076171875,-0.402496337890625,0.106781005859375
1783169628898628400,10.96462841796875,-0.798980712890625,-0.3931427001953125,0.1194610595703125
1783169628908576500,10.974576416015625,-0.777069091796875,-0.3858489990234375,0.129669189453125
1783169628918555400,10.984555419921875,-0.7634429931640625,-0.37969970703125,0.14068603515625
1783169628928504600,10.994504638671875,-0.761016845703125,-0.3733673095703125,0.152618408203125
1783169628938453500,11.00445361328125,-0.7611083984375,-0.3697662353515625,0.157562255859375
1783169628948432400,11.014432373046875,-0.74969482421875,-0.3742218017578125,0.146697998046875
1783169628958381300,11.02438134765625,-0.7420501708984375,-0.380523681640625,0.1349334716796875
1783169628968330500,11.03433056640625,-0.7414703369140625,-0.391143798828125,0.131134033203125
1783169628978278400,11.0442783203125,-0.7354736328125,-0.4038543701171875,0.1319580078125
1783169628988258300,11.05425830078125,-0.726531982421875,-0.4154815673828125,0.13018798828125
1783169628998206500,11.06420654296875,-0.72369384765625,-0.4292755126953125,0.1280670166015625
1783169629008155400,11.0741552734375,-0.7279052734375,-0.447845458984375,0.123199462890625
1783169629018134300,11.08413427734375,-0.7337646484375,-0.46478271484375,0.11614990234375
1783169629028083200,11.094083251953125,-0.7394256591796875,-0.4739532470703125,0.107635498046875
1783169629038032400,11.104032470703125,-0.7523040771484375,-0.4743499755859375,0.0989990234375
1783169629047981600,11.113981689453125,-0.7680816650390625,-0.4733734130859375,0.0905914306640625
1783169629057960400,11.12396044921875,-0.78607177734375,-0.47314453125,0.088104248046875
1783169629067909400,11.133909423828126,-0.8052978515625,-0.4751434326171875,0.089447021484375
1783169629077857500,11.143857421875,-0.8102874755859375,-0.4759521484375,0.090667724609375
1783169629087837400,11.15383740234375,-0.8100128173828125,-0.475067138671875,0.089874267578125
1783169629097785600,11.16378564453125,-0.81561279296875,-0.480926513671875,0.0845794677734375
1783169629107734500,11.173734619140625,-0.817962646484375,-0.4879302978515625,0.0807037353515625
1783169629117683500,11.183683349609375,-0.820465087890625,-0.4945526123046875,0.086822509765625
1783169629127662300,11.193662353515625,-0.823394775390625,-0.5030670166015625,0.0970001220703125
1783169629137611300,11.203611328125,-0.8310089111328125,-0.5186920166015625,0.1002655029296875
1783169629147559400,11.213559326171875,-0.84906005859375,-0.538116455078125,0.1009368896484375
1783169629157539300,11.223539306640625,-0.872344970703125,-0.541778564453125,0.1020965576171875
1783169629167487500,11.233487548828125,-0.9011993408203125,-0.5344390869140625,0.0925140380859375
1783169629177436400,11.2434365234375,-0.9188079833984375,-0.5325927734375,0.0838623046875
1783169629187385300,11.25338525390625,-0.944488525390625,-0.5399169921875,0.0764923095703125
1783169629197364200,11.2633642578125,-0.9677886962890625,-0.544158935546875,0.06549072265625
1783169629207313400,11.2733134765625,-0.98687744140625,-0.5434722900390625,0.054840087890625
1783169629217262600,11.2832626953125,-0.9982757568359375,-0.5413970947265625,0.0402984619140625
1783169629227241500,11.293241455078125,-1.010589599609375,-0.5376434326171875,0.0245361328125
1783169629237190400,11.3031904296875,-1.026275634765625,-0.5301971435546875,0.0076904296875
1783169629247138600,11.313138671875,-1.0286407470703125,-0.5237579345703125,-0.009521484375
1783169629257087500,11.32308740234375,-1.0171661376953125,-0.52618408203125,-0.024627685546875
1783169629267066400,11.33306640625,-0.98907470703125,-0.5441741943359375,-0.0271148681640625
1783169629277015600,11.343015625,-0.9611358642578125,-0.5727996826171875,-0.0139923095703125
1783169629286994200,11.352994140625,-0.9798583984375,-0.592987060546875,0.002777099609375
1783169629296973300,11.362973388671875,-1.0205535888671875,-0.603057861328125,0.0068817138671875
1783169629306922200,11.372922119140625,-1.037933349609375,-0.6125946044921875,-0.00244140625
1783169629316870100,11.3828701171875,-1.0451202392578125,-0.6092987060546875,-0.0163421630859375
1783169629326819000,11.392819091796875,-1.07110595703125,-0.5828094482421875,-0.039764404296875
1783169629336798200,11.402798095703124,-1.0965728759765625,-0.54296875,-0.073455810546875
1783169629346747100,11.4127470703125,-1.1053619384765625,-0.4993133544921875,-0.116302490234375
1783169629356696300,11.4226962890625,-1.1059722900390625,-0.463134765625,-0.1577301025390625
1783169629366675500,11.432675537109375,-1.0934295654296875,-0.437530517578125,-0.1843109130859375
1783169629376624400,11.442624267578125,-1.0568389892578125,-0.4107513427734375,-0.1858978271484375
1783169629386573300,11.4525732421875,-1.018310546875,-0.3964385986328125,-0.1590728759765625
1783169629396521200,11.462521240234375,-0.9967803955078125,-0.400299072265625,-0.11260986328125
1783169629406501400,11.47250146484375,-0.982147216796875,-0.407928466796875,-0.0755157470703125
1783169629416449300,11.48244921875,-0.9566802978515625,-0.4178619384765625,-0.053497314453125
1783169629426398200,11.492398193359374,-0.928680419921875,-0.425262451171875,-0.0435943603515625
1783169629436377300,11.50237744140625,-0.904449462890625,-0.42181396484375,-0.04815673828125
1783169629446326300,11.512326171875,-0.8834228515625,-0.4168853759765625,-0.0681915283203125
1783169629456275200,11.522275146484375,-0.8568572998046875,-0.4159393310546875,-0.089599609375
1783169629466223400,11.532223388671875,-0.8253326416015625,-0.41162109375,-0.100067138671875
1783169629476203300,11.542203369140625,-0.8014068603515625,-0.4079437255859375,-0.1034393310546875
1783169629486151200,11.552151123046874,-0.77398681640625,-0.405670166015625,-0.10064697265625
1783169629496100000,11.56210009765625,-0.74102783203125,-0.4079742431640625,-0.0959014892578125
1783169629506079200,11.572079345703125,-0.7151336669921875,-0.4196929931640625,-0.0859832763671875
1783169629516028200,11.582028076171875,-0.698699951171875,-0.4310760498046875,-0.07501220703125
1783169629525977300,11.591977294921875,-0.6911163330078125,-0.44189453125,-0.064208984375
1783169629535926300,11.60192626953125,-0.67724609375,-0.4477081298828125,-0.055694580078125
1783169629545905400,11.611905517578125,-0.66827392578125,-0.4534912109375,-0.0516510009765625
1783169629555854300,11.621854248046875,-0.6762237548828125,-0.4552154541015625,-0.0472869873046875
1783169629565802200,11.63180224609375,-0.681243896484375,-0.452789306640625,-0.0426483154296875
1783169629575782400,11.641782470703125,-0.6912689208984375,-0.4523773193359375,-0.039031982421875
1783169629585730300,11.651730224609375,-0.7019500732421875,-0.4522857666015625,-0.0415191650390625
1783169629595679200,11.66167919921875,-0.7087554931640625,-0.4541778564453125,-0.0474853515625
1783169629605628200,11.671628173828125,-0.7172088623046875,-0.4550628662109375,-0.052337646484375
1783169629615607300,11.681607177734374,-0.729339599609375,-0.45574951171875,-0.0553436279296875
1783169629625556200,11.69155615234375,-0.7437744140625,-0.461883544921875,-0.065277099609375
1783169629635504000,11.701504150390624,-0.764251708984375,-0.47784423828125,-0.0784149169921875
1783169629645484300,11.711484375,-0.7806396484375,-0.4998626708984375,-0.084747314453125
1783169629655432200,11.72143212890625,-0.791595458984375,-0.5175323486328125,-0.0900726318359375
1783169629665381000,11.731381103515625,-0.8110504150390625,-0.526214599609375,-0.099639892578125
1783169629675330000,11.741330078125,-0.8301849365234375,-0.5354766845703125,-0.1139373779296875
1783169629685309200,11.75130908203125,-0.824951171875,-0.5353546142578125,-0.1167449951171875
1783169629695258400,11.76125830078125,-0.818267822265625,-0.5305328369140625,-0.10015869140625
1783169629705207300,11.771207275390625,-0.815704345703125,-0.52276611328125,-0.06787109375
1783169629715186400,11.7811865234375,-0.818756103515625,-0.5229644775390625,-0.026214599609375
1783169629725135400,11.79113525390625,-0.8175048828125,-0.5362548828125,0.0067901611328125
1783169629735083300,11.801083251953125,-0.8122711181640625,-0.5556488037109375,0.0349273681640625
1783169629745032200,11.8110322265625,-0.80938720703125,-0.569671630859375,0.05609130859375
1783169629755011300,11.82101123046875,-0.8043365478515625,-0.5803070068359375,0.0728912353515625
1783169629764960300,11.830960205078124,-0.79754638671875,-0.5899810791015625,0.0810699462890625
1783169629774909200,11.8409091796875,-0.80181884765625,-0.6020965576171875,0.079864501953125
1783169629784888300,11.850888427734375,-0.805084228515625,-0.6150665283203125,0.0677947998046875
1783169629794837200,11.860837158203125,-0.80584716796875,-0.6175994873046875,0.054290771484375
1783169629804785200,11.87078515625,-0.822784423828125,-0.6142120361328125,0.0426177978515625
1783169629814734300,11.880734375,-0.8465423583984375,-0.6107025146484375,0.046112060546875
1783169629824713200,11.890713134765624,-0.860260009765625,-0.605438232421875,0.0521087646484375
1783169629834662100,11.900662109375,-0.848785400390625,-0.594879150390625,0.0628509521484375
1783169629844611000,11.910611083984374,-0.8094024658203125,-0.60308837890625,0.12371826171875
1783169629854590200,11.920590087890625,-0.606475830078125,-0.668426513671875,0.2799224853515625
1783169629864539400,11.930539306640625,-0.696533203125,-0.7761383056640625,0.430938720703125
1783169629874488300,11.94048828125,-0.836029052734375,-0.7790679931640625,0.3835601806640625
1783169629884436500,11.9504365234375,-0.9326324462890625,-0.71002197265625,0.254974365234375
1783169629894416400,11.96041650390625,-1.014434814453125,-0.714141845703125,0.172821044921875
1783169629904364300,11.9703642578125,-1.043426513671875,-0.7116851806640625,0.1438140869140625
1783169629914313200,11.980313232421874,-1.0784149169921875,-0.6490936279296875,0.0989227294921875
