time,seconds_elapsed,z,y,x
1783169618046788600,0.11278857421875,1.7483698539823294,0.6304121187239885,0.4325223791010678
1783169618056768800,0.122768798828125,1.6992781985551118,0.4836965398907661,0.4271211045794189
1783169618066716700,0.132716552734375,1.604563440594077,0.38286943652927874,0.33001890349257734
1783169618076665600,0.14266552734375,1.462030115881562,0.2864297544717789,0.25816969200801104
1783169618086614800,0.15261474609375,1.3710165505260228,0.16638357137739657,0.23962350656799972
1783169618096593700,0.16259375,1.396074419414997,0.07902034522294998,0.2116037921987474
1783169618106542800,0.17254296875,1.3375421509474514,0.06379413451850414,0.200675570949167
1783169618116491800,0.18249169921875,1.280337916213274,-0.03312602453231811,0.2573302455091849
1783169618126471000,0.192470947265625,1.2581301760584116,-0.17178922981321812,0.3731678709978237
1783169618136419800,0.202419921875,1.2019231356680393,-0.23636603914201257,0.47237888093218205
1783169618146367700,0.21236767578125,1.073710012730956,-0.2646335177272558,0.5385769347872584
1783169618156316700,0.222316650390625,0.9082055622756481,-0.30667993081808087,0.5545849800517783
1783169618166295800,0.2322958984375,0.7202472879499197,-0.36096973941028115,0.5614764565985649
1783169618176244700,0.24224462890625,0.6615326486527919,-0.3590717968344688,0.5490441874615848
1783169618186193700,0.252193603515625,0.5812491516262293,-0.3123334265351295,0.5138288624998182
1783169618196172800,0.2621728515625,0.4541109644442796,-0.3330915524035692,0.49084392742738125
1783169618206121700,0.272121826171875,0.3639928866237402,-0.4094049767553806,0.5000820766981691
1783169618216070700,0.282070556640625,0.3210837192237377,-0.4866209029048681,0.5136795171570032
1783169618226018600,0.2920185546875,0.14857318939864633,-0.4957961430072784,0.5257950119623914
1783169618235997700,0.301997802734375,-0.048176878669857974,-0.5402238982766866,0.5282810931570827
1783169618245946600,0.311946533203125,-0.22847207102179526,-0.5651140093833208,0.5185956385102123
1783169618255895600,0.3218955078125,-0.47582186099290846,-0.5414677608579397,0.48782070714868603
1783169618265874700,0.331874755859375,-0.6832219178915023,-0.4665910913109779,0.36229156259857115
1783169618275837700,0.341837646484375,-0.9082482323735952,-0.3904132760375738,0.20790121135376394
1783169618285786600,0.35178662109375,-1.277514090964198,-0.37043314880430694,0.06823350520543754
1783169618295734500,0.361734619140625,-1.6015689349532127,-0.36529812400341033,-0.03876519946306944
1783169618305714700,0.371714599609375,-1.7275971150666474,-0.29812077678740023,-0.13340340332286432
1783169618315662600,0.38166259765625,-1.7178583958625793,-0.28668752862513064,-0.13155154664479196
1783169618325611500,0.391611572265625,-1.4722849679142236,-0.4896043026298284,0.015479308682680128
1783169618335560400,0.401560546875,-1.2409446479797364,-0.6960691245049238,0.1631170438621193
1783169618345539600,0.41153955078125,-1.390729551255703,-0.6973322763085364,0.15483546466380357
1783169618355488500,0.421488525390625,-1.7087094592452048,-0.64943246101439,0.03832688111104071
1783169618365437400,0.4314375,-1.9774930823892354,-0.6989432186365128,-0.01612834717594087
1783169618375416600,0.44141650390625,-2.265241518244147,-0.6437234357178211,0.020507347711455074
1783169618385365800,0.45136572265625,-2.5052584811091423,-0.3418424296140671,-0.030153949918970465
1783169618395313400,0.4613134765625,-2.5317706404596567,0.05982493862658739,-0.24443083378449082
1783169618405262600,0.4712626953125,-2.3332143997520207,0.39854719039350744,-0.5380518879998475
1783169618415241700,0.48124169921875,-2.046506412860751,0.6495178012102842,-0.8465147567119449
1783169618425190700,0.491190673828125,-1.6038690285891293,0.8257920674830674,-1.1480032563667744
1783169618435139600,0.5011396484375,-0.9848165082693099,0.8681511997848749,-1.267892276138067
1783169618445118700,0.51111865234375,-0.6863298207789659,0.7054469014421105,-1.167844048194587
1783169618455067600,0.521067626953125,-0.5449474196672439,0.4691816923260689,-0.9784244691446423
1783169618465015600,0.531015625,-0.43711014528274533,0.3965466642260551,-0.7475090966239571
1783169618474964700,0.54096484375,-0.4456307208687067,0.44320437050461764,-0.6491431226789951
1783169618484943600,0.550943603515625,-0.4390063342928886,0.5300391888707876,-0.756164331440255
1783169618494892500,0.560892578125,-0.4034235642582178,0.6571373363032936,-0.9710430536564439
1783169618504841500,0.570841552734375,-0.3909048589468002,0.7777814852908254,-1.1543002376191318
1783169618514820600,0.580820556640625,-0.4341612323492765,0.823448719227314,-1.2495607928946613
1783169618524769500,0.59076953125,-0.3376321184426546,0.7990063518881797,-1.2831754777267574
1783169618534718500,0.600718505859375,-0.09320961409509182,0.7600970677793025,-1.1974554887346922
1783169618544666600,0.61066650390625,0.19497604413330555,0.7597358332514762,-1.045385104870051
1783169618554646500,0.620646484375,0.48582946026623247,0.7886427787840365,-0.9322804114766419
1783169618564594400,0.630594482421875,0.8373235153228044,0.8331973753035068,-0.7982636437620967
1783169618574543600,0.640543701171875,1.1735130337417126,0.8465601302236319,-0.6317758813578636
1783169618584522800,0.650522705078125,1.4220079020947216,0.8114823871016502,-0.5388091361079365
1783169618594471700,0.6604716796875,1.4724597399592398,0.7645937946766614,-0.46536140338554977
1783169618604420600,0.670420654296875,1.4451573070138692,0.7249784081250429,-0.3838547943048179
1783169618614368800,0.68036865234375,1.4398375732958315,0.7411720025569201,-0.32061507879868145
1783169618624348700,0.6903486328125,1.4461059860408305,0.778110278853774,-0.32841822683028876
1783169618634296600,0.700296630859375,1.289438922035694,0.7643342669576406,-0.3884574657946825
1783169618644245500,0.71024560546875,1.1154700100958346,0.6939063935130834,-0.46019967324081806
1783169618654224600,0.720224609375,1.0618360350638627,0.5892699609965085,-0.4566819109108299
1783169618664173600,0.730173583984375,0.8813234005689621,0.4685486551195383,-0.46828773916102945
1783169618674122500,0.74012255859375,0.8398872283309697,0.34336277104914187,-0.5830183532558382
1783169618684071400,0.750071533203125,0.881674113702774,0.28134207594394683,-0.753269779042527
1783169618694050600,0.760050537109375,0.8348428044229745,0.26624329101145267,-0.6775343737743794
1783169618703999500,0.76999951171875,0.8714508258521556,0.12102233465015888,-0.1553217868760228
1783169618713947600,0.77994775390625,0.8710030820846557,-0.1502004983395338,-0.3913130013562739
1783169618723927600,0.789927490234375,0.8264315344303846,-0.2019710175871849,-0.5775192443829029
1783169618733875500,0.79987548828125,0.8546984284937381,-0.1976098997682333,-0.6266856455467641
1783169618743824600,0.80982470703125,0.9231669845640659,-0.194089324426651,-0.7127741755902767
1783169618753773600,0.819773681640625,0.7970026108503341,-0.12997779452204702,-0.6522770367905497
1783169618763752700,0.829752685546875,0.6238795020848512,-0.18555062866210936,-0.73175842365399
1783169618773701600,0.83970166015625,0.6187438927620649,-0.19906769736111163,-0.7148899987004697
1783169618783649800,0.84964990234375,0.6160515849381685,-0.26657763753235336,-0.6110229431211948
1783169618793629700,0.859629638671875,0.40222704795002934,-0.4805734394341707,-0.6190870071113109
1783169618803577600,0.86957763671875,0.29500878224670884,-0.6442851612538099,-0.6363933850906789
1783169618813526500,0.879526611328125,0.39054888511598107,-0.5467120912522078,-0.536252656558156
1783169618823475700,0.889475830078125,0.3804273040741682,-0.147124744156003,-0.5037271186696365
1783169618833454600,0.89945458984375,0.3946533978253603,-0.02353285127878189,-0.3940218219235539
1783169618843403500,0.909403564453125,0.377820336446166,-0.7813140433311462,-0.22778350423574445
1783169618853352400,0.9193525390625,0.12419862659871578,-0.9272329188287257,-0.2037573164820671
1783169618863331600,0.92933154296875,-0.21493162144720554,-0.4531529330670833,-0.0028321181533858177
1783169618873280500,0.939280517578125,-0.356484702950716,-0.2520820791900158,-0.0052629620295017955
1783169618883228400,0.949228515625,-0.5300082092106342,-0.44000235959291456,-0.152321582146734
1783169618893177600,0.959177490234375,-0.7732488102972507,-0.5520780021995305,-0.1939340973323211
1783169618903156500,0.969156494140625,-0.970084803083539,-0.5383756400614976,-0.03961304846405983
1783169618913105400,0.97910546875,-0.9841595056653022,-0.5480903938680887,0.05503507400155067
1783169618923054600,0.9890546875,-0.9677268417805432,-0.4372340639233589,-0.018634996234625577
1783169618933033700,0.99903369140625,-0.4993775086253881,-0.3200976307958364,-0.06495806373134255
1783169618942982700,1.008982666015625,0.14397943186759948,-0.4941618198037147,0.01502659647911787
1783169618952930800,1.018930908203125,0.21241642375588415,-0.942618704009056,0.46790882284604013
1783169618962879700,1.028879638671875,0.10248480744063854,-1.3988655114382504,0.7916752052824944
1783169618972858600,1.038858642578125,-0.23363456835150717,-1.4537193836539983,0.9180769679486751
1783169618982807600,1.0488076171875,-0.7249673022091389,-1.3515075479358434,0.922492957760021
1783169618992756500,1.058756591796875,-1.2739946846663952,-1.18045540022552,0.8586773420620709
1783169619002735600,1.068735595703125,-1.5808955647587775,-0.5457827014476061,0.6053377370916306
1783169619012684500,1.0786845703125,-1.5845611015290022,0.11579963156580925,0.1083855559170246
1783169619022633500,1.088633544921875,-1.346827281165123,0.6095183837771415,-0.42746100405827164
1783169619032581600,1.09858154296875,-1.1129805313676595,1.2790928845882414,-0.9497494326718151
1783169619042561500,1.1085615234375,-0.6545008503198624,1.8251093947917223,-1.128321308362484
1783169619052509400,1.118509521484375,-0.10699790095090865,1.8159329856455324,-0.840060246810317
1783169619062458600,1.128458740234375,0.3040606882303953,1.4654589212864637,-0.2689099529374391
1783169619072437500,1.1384375,0.5288900188356638,1.0400310304909943,0.4821742256943136
1783169619082386400,1.148386474609375,0.5893535476267338,0.5630506471127271,1.2109778181307016
1783169619092335600,1.158335693359375,0.4626309555083513,0.47354690179824827,1.6066481379136441
1783169619102283800,1.16828369140625,0.008453355568647384,0.8122270679891109,1.5768034731395542
1783169619112263700,1.178263671875,-0.5413198768198489,0.9152712628781795,1.2369764750011265
1783169619122211600,1.188211669921875,-0.6858826615333556,0.8288006016492843,0.8999956600740552
1783169619132160800,1.198160888671875,-0.5867781441807747,0.8986334318101405,0.6114284551821648
1783169619142139600,1.2081396484375,-0.5701636939883232,1.1270300995081663,0.3770215872839093
1783169619152088600,1.218088623046875,-0.6865753199726343,1.4154466438829898,0.07957637167051435
1783169619162037500,1.22803759765625,-0.5375894581198692,1.558773749321699,-0.013245412150770425
1783169619171986700,1.237986572265625,0.3392828082591295,1.2629641720861196,0.15286606428697705
1783169619181965600,1.247965576171875,0.6752741737574338,1.2263017901211977,0.02383037063734373
1783169619191914500,1.25791455078125,0.853881851413846,1.2328835065990686,-0.0669154814094305
1783169619201862700,1.267862548828125,0.8717676367163658,1.0519114378988743,-0.057778381360322234
1783169619211842600,1.277842529296875,0.6722679776787758,0.726184861305356,-0.001026854263129644
1783169619221790500,1.28779052734375,0.7323720255076884,0.5377426028549671,0.15108341865390537
1783169619231739600,1.29773974609375,0.9485843344151973,0.6462871487259865,0.20090821066126227
1783169619241688600,1.3076884765625,1.2164853295058011,0.9952934786200522,0.11700974714108742
1783169619251667500,1.31766748046875,1.5920131711006165,1.5296651437371969,0.06534151009097695
1783169619261616600,1.32761669921875,1.8353379433393477,1.6922750417947767,0.1855690411016345
1783169619271564800,1.337564697265625,1.8490829755753277,1.481111248448491,0.35736221643760796
1783169619281588000,1.347587890625,1.7578221574604511,0.6741548143386841,0.33055224318429827
1783169619291536100,1.3575361328125,1.5684130998045205,-0.36738895880281924,0.2734764571353793
1783169619301485000,1.367485107421875,1.1645271787315605,-0.9343769453644752,0.1978226657360792
1783169619311434000,1.37743408203125,0.6976689609169959,-1.0943307759553194,0.08651843676022253
1783169619321413000,1.3874130859375,0.6077981358557939,-0.852816852530837,0.04743393308175727
1783169619331362000,1.397362060546875,0.8371768003284931,-0.37769641780555246,0.09844970670565963
1783169619341311000,1.40731103515625,1.1615882026702165,-0.059519525939226145,0.11503098528087138
1783169619351290000,1.4172900390625,1.3381126443117857,-0.12071838326752185,0.10677402906715869
1783169619361239000,1.427239013671875,1.0936685126543044,-0.4417559252619743,0.17555384304374455
1783169619371187000,1.43718701171875,0.39234395183920856,-0.8947446076780557,0.21610592592358588
1783169619381136000,1.447135986328125,0.12336451386213301,-1.037627476480603,0.1753008911959827
1783169619391115000,1.457114990234375,0.3195540254384279,-0.6517097582966089,0.047866935937851664
1783169619401064000,1.46706396484375,0.5218541288495063,-0.1955611505448818,-0.2491976097948849
1783169619411012900,1.477012939453125,0.5679354965448379,0.04186111965179443,-0.38490561853200195
1783169619420992000,1.486991943359375,0.4673240817606449,0.10957388891875743,-0.33737653624638914
1783169619430941000,1.49694091796875,0.3081704616367817,0.06344166781902313,-0.21599223641604184
1783169619440888800,1.506888916015625,0.14287410097420214,-0.029193361258506773,-0.0399767672099173
1783169619450838000,1.516838134765625,0.03499181840419769,-0.2861696422308683,0.07423280955231748
1783169619460817200,1.526817138671875,-0.15044716657698154,-0.3847305542260408,-0.10982581785321235
1783169619470766000,1.53676611328125,0.06250760183930397,-0.2826625108927488,0.3128153648331761
1783169619480715000,1.546715087890625,0.08223580013811588,-0.3911684783190489,0.4489738938167691
1783169619490664000,1.556663818359375,-0.6253752936005592,-0.3870318169057369,0.2198635248914361
1783169619500643000,1.56664306640625,-1.0301917735219002,-0.27564883273839946,0.21831585705801843
1783169619510592000,1.576592041015625,-1.2452502362191675,-0.24496289483457803,0.2230757649362087
1783169619520540000,1.586539794921875,-1.191843055680394,-0.16596768405288456,0.032560061212629075
1783169619530520000,1.59652001953125,-1.2838847950398922,-0.14747282694131136,-0.37974779737740755
1783169619540468000,1.606468017578125,-1.4770634343624114,0.000334054259955883,-0.5017851542890072
1783169619550417000,1.6164169921875,-1.059924063962698,-0.11034721137881279,-0.44209304826185103
1783169619560365800,1.62636572265625,-0.7209159809917212,-0.23818068734854458,-0.34338439835906026
1783169619570345000,1.636344970703125,-0.8625625859975814,-0.2067532834276557,-0.23438100280463695
1783169619580294000,1.6462939453125,-1.200528466439247,-0.23930180033296344,-0.1403515967592597
1783169619590241800,1.65624169921875,-1.4923545269966125,-0.3429594509452581,-0.03323182299435139
1783169619600222000,1.666221923828125,-1.651180814862251,-0.287783507168293,0.008868658371269702
1783169619610169900,1.676169921875,-1.798359919553995,-0.018391396737098692,-0.11612360282316803
1783169619620119000,1.686119140625,-1.790754705247283,0.2644830033406615,-0.41728082469701766
1783169619630068000,1.69606787109375,-1.686808593082428,0.5633537217125296,-0.8007705850817263
1783169619640047000,1.706047119140625,-1.5128817667186258,0.8119014892965555,-1.206851970372349
1783169619649996000,1.71599609375,-1.2800924170196055,0.8435787763252854,-1.362865246643871
1783169619659945000,1.725945068359375,-1.0026572853863238,0.7041530622392892,-1.1770930841855705
1783169619669924000,1.735924072265625,-0.6112807172745466,0.6193038647323846,-0.8403257658787071
1783169619679873000,1.745873046875,-0.25081951190829277,0.5637155407622456,-0.5776718776613473
1783169619689821000,1.755821044921875,-0.08804887033104895,0.4972682613864541,-0.42330008498653765
1783169619699769900,1.765769775390625,0.017523381730914115,0.3946753173962235,-0.36334187536910173
1783169619709749000,1.7757490234375,0.19238193598687647,0.27768413795828817,-0.43053544306755065
1783169619719698000,1.785697998046875,0.3631944297224283,0.28662206217348574,-0.5288073089882731
1783169619729646800,1.795646728515625,0.36320202850699423,0.3504547751367092,-0.6215406838737427
1783169619739626000,1.8056259765625,0.33062779263854025,0.4020063909366727,-0.7592150242477655
1783169619749575000,1.815574951171875,0.3408808911055326,0.4454112328991294,-0.8948607814036309
1783169619759523800,1.82552392578125,0.37823242437839505,0.49091187809705733,-1.0149608866423367
1783169619769472000,1.835471923828125,0.5282224948376417,0.4881108492016792,-1.0436882378242909
1783169619779451000,1.845450927734375,0.7718611553311348,0.4501847309112549,-0.9695449971184134
1783169619789400000,1.855400146484375,0.9695464584231376,0.4354425043314695,-0.877766877131164
1783169619799349000,1.865348876953125,1.1192600500285625,0.40499359005391594,-0.8010064396642148
1783169619809328000,1.875328125,1.2667132954865694,0.3596984043002128,-0.7139459958486258
1783169619819277000,1.885277099609375,1.4266338083297014,0.346271936494112,-0.6461638146072626
1783169619829226000,1.89522607421875,1.5230004251509903,0.3278182881757617,-0.5681336494654416
1783169619839174100,1.905174072265625,1.5364578726172446,0.3202545749232173,-0.45636853411272166
1783169619849154000,1.915154052734375,1.5565765315383673,0.3920557825475931,-0.3590503156550228
1783169619859102000,1.92510205078125,1.5315964040607213,0.49551206536889075,-0.3075343556903303
1783169619869051000,1.93505078125,1.3801578883588312,0.49146775841414925,-0.3013252719171345
1783169619879030000,1.945030029296875,1.14505792362988,0.40600013674795626,-0.32442908412888644
1783169619888979000,1.95497900390625,1.0370341867625712,0.3287663826808333,-0.36783071122094985
1783169619898927900,1.964927978515625,1.029112161591649,0.26454876205325123,-0.3708841074422002
1783169619908876800,1.974876708984375,0.9832108266383409,0.16563187622725964,-0.3638742286801338
1783169619918856000,1.98485595703125,0.8946610210478305,0.04787117372155189,-0.3987241543956101
1783169619928804900,1.994804931640625,0.8206950366050004,-0.04853986676335335,-0.458702822279185
1783169619938752800,2.004752685546875,0.8434685939490795,-0.08069441591501235,-0.5086256678335368
1783169619948732000,2.01473193359375,0.8637117560327052,-0.10576163715422153,-0.5893189147047698
1783169619958680800,2.024680908203125,0.8027192349314689,-0.17523177148252725,-0.6374993005059659
1783169619968630000,2.034630126953125,0.6033896717637777,-0.31334903331846,-0.6352483067087829
1783169619978579000,2.044578857421875,0.47178339925706386,-0.422765101327002,-0.6328804085336626
1783169619988558000,2.05455810546875,0.44288639059662815,-0.42496757980734107,-0.6478486989542842
1783169619998507000,2.064507080078125,0.3856102596700191,-0.36053602416813374,-0.643295711825043
1783169620008455000,2.074454833984375,0.26705928356945513,-0.3293956204950809,-0.6204992119967937
1783169620018435000,2.08443505859375,0.23778934994339943,-0.3764505093976855,-0.5787788159899413
1783169620028383000,2.094383056640625,0.21938041754961013,-0.44363311731070276,-0.5294533883394673
1783169620038332000,2.104331787109375,0.13532383172512052,-0.527839632999897,-0.49182154028788205
1783169620048280800,2.11428076171875,0.18160802851617336,-0.6074751875117421,-0.4076134171634912
1783169620058260000,2.124260009765625,0.3231429898411035,-0.6832675105988979,-0.30980829197168347
1783169620068209000,2.134208984375,0.2754752297371626,-0.7640469744488596,-0.2100871040254831
1783169620078157800,2.14415771484375,0.12048749712109565,-0.8348796293020248,-0.09639018035996705
1783169620088137000,2.154136962890625,-0.034765023910999296,-0.9134393712759017,0.002288110937178135
1783169620098086000,2.1640859375,-0.20247955163121223,-0.934664530134201,0.009148205965012311
1783169620108033800,2.17403369140625,-0.402080332955718,-0.8916703147992491,-0.0664990095630288
1783169620117983000,2.18398291015625,-0.6411936249792576,-0.8611921744272112,-0.07540248351935297
1783169620127961900,2.1939619140625,-0.881959360384941,-0.842262725290656,-0.04748027470782399
1783169620137911000,2.2039111328125,-1.0173679477840663,-0.8950310234040021,-0.048037324068695306
1783169620147860000,2.21385986328125,-0.825492792275548,-1.045309847676754,0.1137787932626903
1783169620157839000,2.223839111328125,-0.4787357026129961,-1.2828060598924755,0.4820265608519315
1783169620167788000,2.2337880859375,-0.41897126200199125,-1.4977809359595178,0.8560515236031263
1783169620177736000,2.24373583984375,-0.651526802945137,-1.5745271987706422,0.9668816231280565
1783169620187685000,2.25368505859375,-0.993298505410552,-1.3908409026756883,0.8503442518722265
1783169620197664000,2.2636640625,-1.6214210518926382,-1.1648635710790753,0.807556007438153
1783169620207613000,2.273613037109375,-2.246798683580756,-0.9385463400036096,0.8109633316636085
1783169620217561900,2.283561767578125,-2.3985475804060696,-0.52688277066648,0.6569567190393805
1783169620227541000,2.293541015625,-2.3211276561170817,0.008802315136790275,0.38060558325052257
1783169620237490000,2.303489990234375,-1.9819114833533762,0.6084592301130295,0.021251279680244622
1783169620247438800,2.31343896484375,-1.3693296203523873,1.1225187595635653,-0.29008740019649265
1783169620257387000,2.323386962890625,-0.8563783444046974,1.4035095378518103,-0.4063138788722455
1783169620267367000,2.333366943359375,-0.529630023548007,1.298094522178173,-0.17231515338346362
1783169620277325300,2.3433251953125,-0.17775193760991095,1.0428954800114034,0.2871633294433355
1783169620287274500,2.3532744140625,0.1310463005363941,0.9904919235572218,0.6387102837309241
1783169620297253400,2.36325341796875,0.19874387223422527,1.0221440761446952,0.9060391780219972
1783169620307202600,2.37320263671875,0.10776888532340526,0.9945622417360543,1.0610013378053902
1783169620317151500,2.3831513671875,-0.020509119543433187,0.9498433945655822,1.068848690304905
1783169620327099600,2.393099609375,-0.09104279145002364,0.9754588973373174,0.951337724776566
1783169620337079600,2.40307958984375,-0.16371405990719795,1.0938768947079778,0.7520945247180759
1783169620347027500,2.41302734375,-0.2754980260908603,1.2101248545631766,0.5524158558517694
1783169620356976400,2.422976318359375,-0.33972412228584287,1.2380386974051594,0.33745646961480374
1783169620366955500,2.43295556640625,-0.26563714181184767,1.2260972074598073,0.16315847185105084
1783169620376904400,2.442904541015625,-0.12453648025095462,1.1840452414110303,0.1067133483884856
1783169620386853400,2.452853271484375,0.03344634252786636,1.0757985094428062,0.09125289053674787
1783169620396802300,2.46280224609375,0.26941958296000956,0.9325321942806243,0.08036898335292934
1783169620406781400,2.472781494140625,0.5606009158730506,0.8267804939985275,0.08582297444250434
1783169620416730400,2.48273046875,0.7926870857387781,0.7701371080175041,0.12231456641778349
1783169620426678500,2.492678466796875,1.0022253237098455,0.7112304532796144,0.19914178551062942
1783169620436658400,2.502658447265625,1.2503040124773979,0.6807336082071066,0.2723684958934784
1783169620446606300,2.5126064453125,1.3876643184661865,0.6374164445281029,0.3067259253842756
1783169620456555300,2.52255517578125,1.4980191286295652,0.5363444264948368,0.3708708095692098
1783169620466504400,2.53250439453125,1.5383675056308508,0.43157501524835823,0.42448049041014163
1783169620476483600,2.542483642578125,1.4208108012646437,0.34794834527373314,0.4410441237308085
1783169620486432500,2.5524326171875,1.3896376643657684,0.262799872559309,0.4025898899130523
1783169620496380700,2.562380615234375,1.4733283394873142,0.1970125183969736,0.38954891429319977
1783169620506329600,2.57232958984375,1.4793436542540788,0.16021394283175466,0.4003047015853226
1783169620516308500,2.58230859375,1.340383511853218,0.05581424168050289,0.3964782751649618
1783169620526257400,2.59225732421875,1.265277709725499,-0.048474108050763604,0.4263838763460517
1783169620536206600,2.60220654296875,1.1852531558960675,-0.08888473663330078,0.46665144319608803
1783169620546185500,2.612185546875,1.0294885936886071,-0.12137860074192285,0.479672106680274
1783169620556134400,2.622134521484375,0.8288099539995193,-0.1207490706667304,0.46887160346359014
1783169620566083300,2.632083251953125,0.6145107852369547,-0.10715630638301372,0.38273441197276115
1783169620576031500,2.642031494140625,0.46773558517098424,-0.10153642067462205,0.26555163721917197
1783169620586011400,2.652011474609375,0.4028840505540371,-0.06627309185266494,0.1639924384571612
1783169620595959600,2.66195947265625,0.28189503365159035,-0.04172346474677324,0.0492139666326344
1783169620605908500,2.671908447265625,0.17025719794034957,-0.03133066554814577,-0.05161357512027025
1783169620615887400,2.681887451171875,0.2036263835787773,-0.015526654955744743,-0.06692410310730337
1783169620625836300,2.691836181640625,0.2601286075234413,-0.024976912607252596,-0.012491415445692837
1783169620635785500,2.701785400390625,0.2687204947799444,-0.061223699508607385,0.1050181253105402
1783169620645733600,2.711733642578125,0.28653087675869465,-0.14020195915549993,0.24485431989356873
1783169620655713500,2.721713623046875,0.1304325525522232,-0.19772534284144638,0.319931480448693
1783169620665661700,2.73166162109375,-0.12634382193386554,-0.27598259473741055,0.34272359636276956
1783169620675610600,2.741610595703125,-0.32853695783913134,-0.2645136907398701,0.3027113194480538
1783169620685589500,2.751589599609375,-0.5202917018383741,-0.18287527197301387,0.20201792546883224
1783169620695538400,2.761538330078125,-0.6986363446444273,-0.1246051615729928,0.05926847378760576
1783169620705487600,2.771487548828125,-0.9129647395014763,-0.07674363246262073,-0.10451956467125564
1783169620715436500,2.7814365234375,-1.1697861221730708,-0.006324234585464,-0.2678299756810069
1783169620725415400,2.79141552734375,-1.375848208466172,0.0767401253312826,-0.43100116088315843
1783169620735364400,2.8013642578125,-1.527809286737442,0.16207506052851675,-0.5746110287860036
1783169620745312500,2.8113125,-1.5959329748928546,0.21772534381896255,-0.7273537589542567
1783169620755292400,2.82129248046875,-1.5136264476060866,0.2551785839006305,-0.8193198027290404
1783169620765240300,2.831240234375,-1.2709464030116795,0.20481471658051012,-0.8089791721090674
1783169620775189500,2.841189453125,-0.9085130207896233,0.031580548655986786,-0.6849382202900945
1783169620785138400,2.851138427734375,-0.615002368146181,-0.0724661012738943,-0.5105136735372245
1783169620795117300,2.861117431640625,-0.5276052397221327,-0.13387655552625655,-0.31315716400817034
1783169620805066500,2.87106640625,-0.5303939936578274,-0.24465748214721678,-0.16067483834177254
1783169620815014700,2.8810146484375,-0.5593383485913276,-0.22198037091493605,-0.06344956799768843
1783169620824994600,2.89099462890625,-0.7495768428087234,-0.08114186742156744,-0.08844415325894951
1783169620834942500,2.9009423828125,-1.0700684413582087,0.1420595697209239,-0.18615078651234507
1783169620844891600,2.9108916015625,-1.2880652955949305,0.45214375602453943,-0.37011078498214484
1783169620854840600,2.920840576171875,-1.2298211964190005,0.6356447586804628,-0.689046970783174
1783169620864819500,2.9308193359375,-0.9189800542682409,0.7520169294372201,-1.0876580201931296
1783169620874768400,2.940768310546875,-0.5094172566026449,0.9652160280033946,-1.4504574592486024
1783169620884717600,2.950717529296875,-0.3254594500899315,1.1155267087191343,-1.684673480749875
1783169620894696400,2.960696533203125,-0.08237550086975097,1.1390309184253216,-1.7331031651370226
1783169620904645400,2.970645263671875,0.10060673860907554,1.0631024017378687,-1.5088323451973498
1783169620914593500,2.980593505859375,0.12979367012679577,0.8747720792293548,-1.2266108560703695
1783169620924542500,2.99054248046875,0.19747312164604663,0.691005411374569,-1.0014438179433345
1783169620934521300,3.000521240234375,0.29378070175647736,0.5949754791617393,-0.8963678249657153
1783169620944470500,3.010470458984375,0.3390735494226217,0.609338351035118,-0.9584168693825602
1783169620954419500,3.02041943359375,0.24482816253900527,0.6186413091704249,-1.1111644218564032
1783169620964398300,3.0303984375,0.15320026467740536,0.518693618991971,-1.2419134930118918
1783169620974347500,3.040347412109375,0.1453904677093029,0.4427016816794872,-1.3167422317638993
1783169620984295400,3.05029541015625,0.18776947375535963,0.3866118379279971,-1.3487635099247097
1783169620994244600,3.06024462890625,0.2528659230440855,0.29570407103449103,-1.3584103130616247
1783169621004223500,3.070223388671875,0.3128238404005766,0.21095891842395065,-1.3483246801160276
1783169621014172700,3.080172607421875,0.317394217056036,0.10957798057198524,-1.3467811039358377
1783169621024121600,3.09012158203125,0.42352527204453944,-0.012087912678718567,-1.3024404424279927
1783169621034100500,3.1001005859375,0.5414595775514841,-0.062090253210067746,-1.236350744318217
1783169621044049400,3.11004931640625,0.6487246050059795,-0.05430149902999401,-1.1619644886367022
1783169621053998600,3.11999853515625,0.7495558000206947,-0.013961597596108913,-1.049273636741191
1783169621063946500,3.129946533203125,0.797368521553278,-0.00116027595102787,-0.910894216837734
1783169621073926400,3.139926513671875,0.9160188663750887,-0.01946253309994936,-0.788350079447776
1783169621083874600,3.14987451171875,1.0119137740314006,-0.0358519423648715,-0.6371497564159333
1783169621093823500,3.159823486328125,1.0819997021704912,-0.07976590289324521,-0.49543067069575186
1783169621103802400,3.16980224609375,1.156251517817378,-0.1336541449472308,-0.4282071462504565
1783169621113751300,3.179751220703125,1.1623925047904253,-0.21272417453080414,-0.36737902193069455
1783169621123700500,3.189700439453125,1.1841378881305455,-0.29340076252818104,-0.27677330672368405
1783169621133648400,3.1996484375,1.255246145054698,-0.36700551244318486,-0.18615005585998295
1783169621143628500,3.209628662109375,1.3132149344205855,-0.4749243276312947,-0.15414266009405253
1783169621153576400,3.219576416015625,1.3210323301732538,-0.5633174813553691,-0.1460588684901595
1783169621163525600,3.229525634765625,1.3216016544938087,-0.607145224905014,-0.11893442246019839
1783169621173504500,3.23950439453125,1.3049369354188443,-0.6433417429238557,-0.08479483697116375
1783169621183453400,3.249453369140625,1.157206626585126,-0.6522469339132309,-0.09124110876740887
1783169621193402600,3.259402587890625,1.0272481212854385,-0.6442617803782225,-0.13778861440345644
1783169621203351600,3.2693515625,0.9385527697443962,-0.6589008388444781,-0.16343860396668314
1783169621213330400,3.279330322265625,0.7967214558213949,-0.6853034003406763,-0.1287650577314198
1783169621223279400,3.289279296875,0.7255173373073339,-0.6908090120196342,-0.051375528580695384
1783169621233227500,3.2992275390625,0.6675193218469619,-0.7067553536921739,0.05875453291609883
1783169621243207400,3.30920751953125,0.48841246249675746,-0.7340376206323505,0.1442407131522894
1783169621253155600,3.319155517578125,0.4028688529849052,-0.7270990535408258,0.19711086420491336
1783169621263104500,3.3291044921875,0.35543548615872855,-0.6985477895781398,0.21483923045601694
1783169621273053400,3.339053466796875,0.19406769711673258,-0.6940063467562199,0.20285276885777712
1783169621283056000,3.34905615234375,0.016043372306227682,-0.7089058097243308,0.15809618349280208
1783169621293005000,3.359005126953125,-0.149707746386528,-0.6783651255100965,0.09679375619217753
1783169621302953000,3.368952880859375,-0.30011458095312116,-0.580673397564888,0.10164090396240354
1783169621312932900,3.378932861328125,-0.4686205513119697,-0.45892917838096614,0.17867387476041913
1783169621322881000,3.388881103515625,-0.6387006391197443,-0.3439253733679652,0.2538578566908836
1783169621332830000,3.398829833984375,-0.833653886899352,-0.2835805025205016,0.2671979248551652
1783169621342779000,3.40877880859375,-0.8097077786445617,-0.27726532802432774,0.2499544195115566
1783169621352758000,3.418758056640625,-0.3877209682136774,-0.4417334211692214,0.44705505458340045
1783169621362707000,3.42870703125,0.0936240401148796,-0.7963561296403407,0.942033305336535
1783169621372655900,3.43865576171875,0.26208207967877384,-1.0586205801486968,1.4526583302937448
1783169621382634800,3.448634765625,0.10279752665162085,-1.0034393756747244,1.6588045877389608
1783169621392584200,3.458584228515625,-0.6222586228847503,-0.6975187387913465,1.538820948486775
1783169621402532000,3.468531982421875,-2.0411720660954713,-0.4802648118764162,1.14281014470309
1783169621412481000,3.47848095703125,-2.9294419248014685,-0.3660439739346504,0.6849908272601664
1783169621422460200,3.488460205078125,-2.817937944602966,-0.01767477290034294,0.1846659547820687
1783169621432409000,3.4984091796875,-2.364350127249956,0.6705161655753851,-0.5196965124242008
1783169621442358000,3.50835791015625,-1.6741624619990587,1.3483949688732624,-1.2689252724476159
1783169621452337200,3.518337158203125,-0.9491045588970184,1.7979080841332673,-1.801951075913757
1783169621462286000,3.5282861328125,-0.5551742146492004,1.7715426397770642,-1.7840464397802949
1783169621472235000,3.538235107421875,-0.682625705564022,1.2780413297086954,-1.297300887582451
1783169621482183000,3.548182861328125,-0.7831915276408195,0.7155097380340099,-0.695952073996514
1783169621492162000,3.558162109375,-0.5984603986680508,0.3055693392276764,-0.022838877665251493
1783169621502111000,3.568111083984375,-0.5635188491463661,0.16837854458689688,0.5375288139738142
1783169621512060000,3.578059814453125,-0.6628162587225437,0.2586304779201746,0.7338717625461518
1783169621522039000,3.5880390625,-0.7770604775398969,0.4847060091942548,0.472849859444797
1783169621531988000,3.597988037109375,-0.8662444893807172,0.7336573891431093,-0.08053601048290729
1783169621541937000,3.60793701171875,-0.8256734095394611,0.8923854773312807,-0.4862915248200297
1783169621551884800,3.617884765625,-0.7135650337070226,0.9402022905170917,-0.7868959351167082
1783169621561865200,3.627865234375,-0.45630701318383216,1.03021047822237,-0.9507483805812895
1783169621571812900,3.637812744140625,-0.17828034539818763,1.1041811388403178,-0.9689198509573936
1783169621581762000,3.647761962890625,0.01416296538710594,1.0435609581828116,-0.82121818369627
1783169621591711000,3.6577109375,0.13947744427323341,0.9783715699136256,-0.5833306340754032
1783169621601690000,3.667690185546875,0.12183014390170574,0.9871598565250634,-0.37662824058476835
1783169621611639000,3.67763916015625,0.009589081600308417,1.0120891305983066,-0.13044690987113863
1783169621621588000,3.687587890625,0.0684147800564766,0.9323550841480494,0.09096446551680565
1783169621631567000,3.697567138671875,0.23582301830649374,0.9247884482860564,0.1424681505218148
1783169621641516000,3.70751611328125,0.3070651307433843,0.9680997667461633,0.05990558438105508
1783169621651464000,3.7174638671875,0.37830782770216465,0.9450503150701522,-0.07524769481644034
1783169621661412900,3.727412841796875,0.4566431132704019,0.8931845187544822,-0.2512399292774498
1783169621671392000,3.73739208984375,0.4037929820924997,0.765167210650444,-0.4163414980202913
1783169621681341000,3.7473408203125,0.35203707589209077,0.5147451736271381,-0.4518574864290654
1783169621691289900,3.757289794921875,0.4830401218086481,0.29323008213639257,-0.4259801178507507
1783169621701269000,3.76726904296875,0.5718541312932968,0.08488309977650642,-0.43770270434841513
1783169621711218000,3.777218017578125,0.6815922708630562,-0.12768939132392407,-0.42265915673449633
1783169621721165800,3.787165771484375,0.9262205269157886,-0.2096820303559303,-0.3158626235745847
1783169621731114800,3.79711474609375,1.118917520201206,-0.18341653924286364,-0.20838731437027452
1783169621741094000,3.807093994140625,1.2224299171239137,-0.17043664616048335,-0.15248860927671193
1783169621751043000,3.81704296875,1.2390958052426575,-0.1737286734431982,-0.11456569672352633
1783169621760992000,3.826991943359375,1.1798480819821358,-0.13601999729573727,-0.043619653756916524
1783169621770971100,3.83697119140625,1.092751982331276,-0.07859598233103751,-0.002006079125404358
1783169621780920000,3.846920166015625,1.0146475829094648,0.05945756661891937,-0.0162932554140687
1783169621790869000,3.856868896484375,0.9391998354762792,0.1976040545493364,-0.059768527697655366
1783169621800817000,3.86681689453125,0.9497656531542539,0.21207330940663813,-0.09607786300778388
1783169621810797000,3.876797119140625,0.9792296480476855,0.2233025594294071,-0.07302724228799343
1783169621820745000,3.886744873046875,1.058610643276572,0.2361819147467613,0.012237842543423175
1783169621830694000,3.89669384765625,1.089454694351554,0.2122925051152706,0.14486761287897823
1783169621840673000,3.906673095703125,1.0702291848778724,0.16806991702914237,0.25029899516552684
1783169621850622000,3.9166220703125,0.857621037942171,0.12190846983492373,0.29438363608568907
1783169621860571000,3.92657080078125,0.5460100804626942,0.0838771376043558,0.3069710227191448
1783169621870519000,3.93651904296875,0.544039072650671,0.15811843185722826,0.2555371880799532
1783169621880499000,3.9464990234375,0.590035684671998,0.25901392427980896,0.18679478350430725
1783169621890446800,3.95644677734375,0.47734746312499043,0.2690180164217949,0.12464403227865695
1783169621900395800,3.966395751953125,0.3710539110511541,0.2689402750104666,0.06382716000527143
1783169621910375000,3.976375,0.22622809148728845,0.27606033614873887,-0.05329641364067793
1783169621920324000,3.986323974609375,0.15773089384436606,0.291970437464118,-0.25503859090805053
1783169621930273000,3.99627294921875,0.22666122220754623,0.34362639042139054,-0.44939504183828827
1783169621940222000,4.006221923828125,0.3667518299430609,0.22491233271360395,-0.47220133240818973
1783169621950201000,4.016201171875,0.49893151842355726,-0.0931318726837635,-0.36900340826213357
1783169621960150000,4.02614990234375,0.21882921340763567,-0.2601642633587122,-0.35846360180824993
1783169621970098000,4.036097900390625,-0.4576677801430225,-0.27165596370995043,-0.47047640831172466
1783169621980078000,4.046078125,-0.9000573271334171,-0.34007951159477234,-0.5944730825975537
1783169621990026000,4.05602587890625,-1.0376847596257925,-0.2802852603673935,-0.7904664870798588
1783169621999975000,4.065974853515625,-1.2275672800123691,-0.004082300877571106,-1.1283052340105175
1783169622009923800,4.075923828125,-1.4317507129520177,0.3242641028255224,-1.4099360637679694
1783169622019903000,4.085903076171875,-1.5260270794957875,0.5532207424938679,-1.6398171248048543
1783169622029852000,4.095851806640625,-1.5201637404203414,0.7384113056719303,-1.8919287223502992
1783169622039799800,4.1057998046875,-1.4320032264083622,0.8704600612491369,-2.0910420124188063
1783169622049780000,4.115780029296875,-1.26583534360826,0.8814180931150912,-2.0461992466077206
1783169622059728000,4.125727783203125,-1.0885358259409665,0.7355997553825377,-1.7612237825974821
1783169622069676800,4.1356767578125,-0.8661188171744346,0.5877320839047432,-1.4694167190015315
1783169622079626000,4.1456259765625,-0.7702747629225254,0.4918576345145702,-1.2743562114551663
1783169622089605000,4.155605224609375,-0.7413257318139076,0.3972843308508396,-1.1545756935596465
1783169622099554000,4.165553955078125,-0.6875923880606889,0.3702256435334682,-1.0872478319570422
1783169622109503000,4.1755029296875,-0.722477238959074,0.3895966989576816,-1.1130661638244985
1783169622119482000,4.185482177734375,-0.6822995423495769,0.4394850577205419,-1.2869745777487753
1783169622129431000,4.19543115234375,-0.5654752439111471,0.5178782109558582,-1.523678178282082
1783169622139379000,4.20537890625,-0.430213956028223,0.6313011765182018,-1.662067242796719
1783169622149328000,4.215327880859375,-0.40266660841107366,0.663323039200902,-1.7254621488645672
1783169622159307000,4.22530712890625,-0.3570288928300142,0.5376227758675813,-1.7573039788052438
1783169622169256000,4.235255859375,-0.04906126028895378,0.41985739718675613,-1.7389590515583753
1783169622179204900,4.245204833984375,0.2590004802763462,0.4242974254608154,-1.69485249106735
1783169622189184000,4.25518408203125,0.41448914815187454,0.41931028469800946,-1.5913339566648006
1783169622199133000,4.2651328125,0.6158358963608741,0.3681482527375221,-1.5012063803635536
1783169622209080800,4.275080810546875,0.8380529986411333,0.38700609794259067,-1.412684193432331
1783169622219030000,4.285030029296875,1.0946645379543303,0.44987668787539004,-1.2643337068736553
1783169622229009000,4.2950087890625,1.4012673118829726,0.4802630583107471,-1.083305231811106
1783169622238957800,4.304957763671875,1.5714549517184495,0.4577385072916746,-0.8866689993806183
1783169622248907000,4.314906982421875,1.6362141318768262,0.43961482158005233,-0.7249078271068632
1783169622258886100,4.32488623046875,1.7178227400273083,0.4260878160089254,-0.593858713558875
1783169622268835000,4.3348349609375,1.8105863639205693,0.392220033198595,-0.4967777013905346
1783169622278823700,4.34482373046875,1.8265303675055502,0.3353402081131935,-0.43430590151697396
1783169622288771600,4.354771484375,1.8172165957152842,0.24658581986129283,-0.3640072074100375
1783169622298751500,4.36475146484375,1.7976093934476374,0.14201894544959068,-0.35360169486030935
1783169622308699600,4.37469970703125,1.778577945241332,0.03909399302601814,-0.3892022928126156
1783169622318648600,4.384648681640625,1.7481138333946464,-0.06151040749549865,-0.399221107599698
1783169622328627700,4.394627685546875,1.7377841625601052,-0.157768303245306,-0.3527633443400264
1783169622338576600,4.40457666015625,1.6785329321682452,-0.23979542906880377,-0.33544542205333705
1783169622348525600,4.414525634765625,1.5347779567062854,-0.3412216673672199,-0.33912586413174867
1783169622358473500,4.424473388671875,1.4408330140739678,-0.4023106345802545,-0.31719913287535306
1783169622368453400,4.434453369140625,1.2956570658981799,-0.44006548795700073,-0.27589550097584725
1783169622378401500,4.444401611328125,1.07745095282495,-0.45805765624344347,-0.23174771342528983
1783169622388350700,4.454350830078125,0.7392693838059902,-0.49062663141489027,-0.2012169843494892
1783169622398329600,4.46432958984375,0.42795127179324627,-0.5132265857577324,-0.22369302005171773
1783169622408278800,4.47427880859375,0.2976788782387972,-0.5065642052590846,-0.2897757038988173
1783169622418227700,4.484227783203125,0.21407646592259405,-0.5129226343750953,-0.3416011682040989
1783169622428176600,4.4941767578125,0.06818973912894725,-0.5860878238290548,-0.3436620462566614
1783169622438155800,4.50415576171875,0.030637130326032637,-0.6436708287477493,-0.3252693343453109
1783169622448104700,4.514104736328125,-0.0653296735227108,-0.6750783589243888,-0.30544293636903164
1783169622458052600,4.524052490234375,-0.17935995732843873,-0.7395002699524164,-0.2884646213002503
1783169622468032500,4.534032470703125,-0.23979601359069347,-0.7767027501434087,-0.24042055696351453
1783169622477980700,4.543980712890625,-0.4015665382146835,-0.7808978637456894,-0.21527911971062422
1783169622487929600,4.5539296875,-0.5379840103954077,-0.8107213396012782,-0.24349925202280281
1783169622497878500,4.56387841796875,-0.5875567273378371,-0.8088239815473556,-0.319673267903924
1783169622507857700,4.573857666015625,-0.6138350779324769,-0.8124047626435756,-0.4015685840412974
1783169622517806600,4.583806640625,-0.5239502243459224,-0.8419804012179374,-0.4768751694381237
1783169622527754500,4.59375439453125,-0.18176818751394747,-1.0221510904073714,-0.3566188507243991
1783169622537734400,4.603734375,0.0905611454129219,-1.49441087500453,0.07950403708666562
1783169622547682600,4.6136826171875,-0.059442369049787516,-1.880459526091814,0.4213979046270251
1783169622557631500,4.623631591796875,-0.4487643427193165,-1.6935715113461016,0.39816286725103855
1783169622567580700,4.63358056640625,-1.3957757287293673,-1.4191063354343174,0.32434009067118164
1783169622577559800,4.643559814453125,-2.40281751281023,-1.464578046798706,0.287925253726542
1783169622587508700,4.6535087890625,-2.730328050211072,-1.1645528976947068,-0.0064919923678040505
1783169622597457700,4.663457763671875,-2.6622014394462106,-0.2807423564851284,-0.5776902901008725
1783169622607436500,4.6734365234375,-2.394651157489419,0.5151917483508587,-1.1092524507552384
1783169622617385700,4.6833857421875,-1.9557325014799831,0.9643933134436606,-1.443874573726952
1783169622627333600,4.693333740234375,-1.3622633352279663,1.1579378634691238,-1.4258020336806774
1783169622637282600,4.703282470703125,-0.9473656062752008,1.128248243126273,-1.0809216976754368
1783169622647261700,4.71326171875,-0.792129451856017,0.9580027356237173,-0.663011489033699
1783169622657210600,4.723210693359375,-0.7816928135156631,0.7595791813850402,-0.149201404299587
1783169622667159600,4.73315966796875,-0.9391004667550324,0.6328080739498138,0.31826223206222054
1783169622677107500,4.743107421875,-1.244568683695793,0.5292167665719986,0.566829581129551
1783169622687087600,4.753087646484375,-1.2523358105659483,0.5248258381366729,0.4656093867972493
1783169622697035500,4.763035400390625,-1.028631100076437,0.7215992870807647,0.1444406196385622
1783169622706984400,4.772984375,-0.8232119878619909,0.9037842387020587,-0.07860211981087922
1783169622716963600,4.782963623046875,-0.6574608691692352,0.955365957379341,-0.2020344382122159
1783169622726912500,4.79291259765625,-0.5367454085111618,0.8768021237522363,-0.28470833750665187
1783169622736861700,4.80286181640625,-0.24350889663398265,0.7656804208695888,-0.2834016388222575
1783169622746810600,4.812810546875,0.08766776205897331,0.6684931353151797,-0.21708909174203872
1783169622756789800,4.822789794921875,0.27434301083683965,0.5774830770909786,-0.07176146013587713
1783169622766738700,4.83273876953125,0.46462008349895473,0.4822977790087461,0.07797083617001771
1783169622776686600,4.8426865234375,0.6842658739864825,0.42104514566659923,0.16446575505733488
1783169622786666800,4.852666748046875,0.7686766800761222,0.37522155212461944,0.19766922874003648
1783169622796614700,4.86261474609375,0.8118897988587618,0.307494754332304,0.25016192478239535
1783169622806563600,4.8725634765625,0.8486685006797313,0.29002982479035855,0.29992139646857974
1783169622816512500,4.882512451171875,0.864293939834833,0.2704565247923136,0.35186551871746774
1783169622826491600,4.89249169921875,0.8645873698234557,0.20497429105639456,0.3664017013311386
1783169622836440600,4.902440673828125,0.8209972344219684,0.14571779996752737,0.36682606422305103
1783169622846388500,4.912388427734375,0.843260504156351,0.09184592452645302,0.3825324596598744
1783169622856368600,4.92236865234375,0.9113140496850013,0.024535890841484068,0.37795360743701456
1783169622866316500,4.932316650390625,0.9892425080180167,-0.047160395103693006,0.38410453128218647
1783169622876265500,4.942265380859375,1.0602537343084812,-0.14221885193586348,0.4192693681657314
1783169622886214400,4.95221435546875,1.1524082863926888,-0.22126491612195967,0.4579609178707003
1783169622896193500,4.962193603515625,1.175975624462962,-0.2835001307606697,0.45139176861345764
1783169622906142700,4.972142822265625,1.144737021112442,-0.3719990829467773,0.4587155356302857
1783169622916091600,4.982091552734375,1.1717495312005282,-0.42460780658423897,0.5008052033409476
1783169622926070800,4.99207080078125,1.1803425875008104,-0.44069092637896534,0.46976562969386576
1783169622936019700,5.002019775390625,1.079478659260273,-0.43401568639874455,0.361508960853517
1783169622945967600,5.011967529296875,0.9527437921822071,-0.4100900364100933,0.21727146257162092
1783169622955916500,5.02191650390625,0.9601695582687855,-0.27603461718559263,0.0991854736343026
1783169622965895700,5.031895751953125,0.9363526293516159,-0.15916004986464977,-0.004691957208514213
1783169622975844600,5.0418447265625,0.900111687669158,-0.11769231344461441,-0.07172171264737844
1783169622985793500,5.05179345703125,0.921115312731266,0.013134206861257552,-0.13324936353862285
1783169622995772700,5.061772705078125,0.9935901818335056,0.17997838148772716,-0.16559359004348514
1783169623005721600,5.0717216796875,1.1110229675590992,0.16895020699501037,-0.1407999250486493
1783169623015669500,5.08166943359375,1.2537047608315943,0.10823474926948547,-0.008972703267633914
1783169623025618400,5.091618408203125,1.2021078445851803,0.139895961946249,0.142180565752089
1783169623035597600,5.10159765625,1.0616314524024724,0.12660802582800387,0.21076454662932081
1783169623045546500,5.11154638671875,0.8730430634796619,0.07707213376462459,0.19299654248757286
1783169623055495400,5.121495361328125,0.7075754379034042,0.045914194434881206,0.1572451561540365
1783169623065474600,5.131474609375,0.6284802738785743,0.07935001556873321,0.09967793332636356
1783169623075423700,5.141423828125,0.48048050045371055,0.12524199817180634,-0.0026540216401219367
1783169623085372700,5.15137255859375,0.16816168696582318,0.14855740730762482,-0.22005612485408782
1783169623095320600,5.161320556640625,-0.21390987718403337,0.17513795571923255,-0.469539419722557
1783169623105300700,5.17130078125,-0.5043582196474075,0.17950550327897072,-0.6674304745197296
1783169623115248600,5.18124853515625,-0.727417617970705,0.2100222220957279,-0.8246721235424279
1783169623125197600,5.191197509765625,-0.8089806334137916,0.27708909467458726,-0.9667460140496492
1783169623135176700,5.2011767578125,-0.7509171515017747,0.2809510307997465,-1.0497460765585303
1783169623145125600,5.211125732421875,-0.5173240842044353,-0.04774491699337959,-0.9886205767273902
1783169623155074600,5.221074462890625,-0.2832230673849582,-0.4407143072545528,-0.810574332346022
1783169623165023500,5.2310234375,-0.3181704621255398,-0.5444949997246266,-0.7895565326280891
1783169623175002600,5.241002685546875,-0.31374446237683296,-0.6201870773077011,-0.8627354583464563
1783169623184951600,5.25095166015625,-0.47616731342971325,-0.8092156112134457,-0.8419974984832107
1783169623194899500,5.2608994140625,-1.0135469281911849,-0.8751578636765479,-0.7642794680304825
1783169623204878600,5.270878662109375,-1.5082114368200301,-0.5975806932240724,-0.9100016519121825
1783169623214827500,5.28082763671875,-1.5317653308868406,-0.14115794470608234,-1.4228050438217819
1783169623224776400,5.2907763671875,-1.327410633033514,0.1783329523682594,-1.9989039730779825
1783169623234725600,5.3007255859375,-1.1595546510159969,0.377016618847847,-2.3561413940921425
1783169623244704800,5.310704833984375,-0.9549731586694716,0.4500046981692314,-2.449688423448056
1783169623254653700,5.32065380859375,-0.7874076840311288,0.3716729197323322,-2.2616389637075365
1783169623264601600,5.3306015625,-0.9508464341282844,0.24958207906782626,-2.0380232466757295
1783169623274581800,5.340581787109375,-1.334279349759221,0.13182605273723602,-1.8534195434749126
1783169623284551400,5.350551513671875,-1.5076467886745928,0.13731062162816524,-1.7823614093028008
1783169623294500400,5.360500244140625,-1.4714701444000005,0.2895224597901106,-1.89189014390558
1783169623304449300,5.37044921875,-1.4539245508372782,0.4127817597121,-1.9638139549963176
1783169623314428400,5.380428466796875,-1.3544389252126217,0.40093233196437356,-1.9634534511208532
1783169623324377300,5.39037744140625,-1.0733101997584105,0.36634821757823227,-2.0072103213913737
1783169623334326300,5.400326171875,-0.8726128553688526,0.3539578148216009,-2.0647271292060614
1783169623344305200,5.41030517578125,-0.6874211231470108,0.29699411084502936,-2.023434457091987
1783169623354254300,5.42025439453125,-0.38689386973977086,0.18250410057306288,-1.9397177707463502
1783169623364202200,5.4302021484375,-0.15696750825643538,0.06542465832978486,-1.8415310988910496
1783169623374151200,5.440151123046875,0.06324176133275032,-0.07297755792737007,-1.7320000262007116
1783169623384130300,5.45013037109375,0.4246604135543108,-0.13813655105829237,-1.6377221983522177
1783169623394079200,5.460079345703125,0.7495844415932893,-0.1309995387852192,-1.489350961266458
1783169623404028200,5.470028076171875,0.9590040216207504,-0.12418284450769423,-1.3061013030231
1783169623414007300,5.48000732421875,1.2853998757779597,-0.12328589566797017,-1.1917260051719845
1783169623423956200,5.489956298828125,1.6094500435918568,-0.09142039259076118,-1.0969178698390722
1783169623433904000,5.499904052734375,1.7878677516341208,-0.06789747818410397,-0.966985083502531
1783169623443853300,5.509853271484375,1.7818512678235767,-0.08062193520069122,-0.8342670503616333
1783169623453832400,5.51983251953125,1.7427257106155156,-0.09558101940155028,-0.7576658951096237
1783169623463781400,5.529781494140625,1.7609154473006725,-0.07187281155586242,-0.7063999643832445
1783169623473730300,5.539730224609375,1.7814648988544939,-0.03787526488602161,-0.6604954145595431
1783169623483709400,5.54970947265625,1.753116756248474,-0.038918636459112164,-0.6057789049878716
1783169623493658400,5.559658447265625,1.6496324163764715,-0.07352817754745483,-0.53491282278914
1783169623503607300,5.569607177734375,1.4829805494517088,-0.1181459024310112,-0.5162824661970138
1783169623513555200,5.57955517578125,1.3755571165651082,-0.14967413637787103,-0.5886170500457286
1783169623523535400,5.589535400390625,1.373783677151799,-0.14245499877929688,-0.6946025590837002
1783169623533483300,5.599483154296875,1.3563824604958294,-0.1351858845591545,-0.6414823787927627
1783169623543432200,5.60943212890625,1.24330611641407,-0.2029790255859494,-0.5734982452385127
1783169623553411300,5.619411376953125,1.0855687928289175,-0.31193069095313547,-0.5418753187455236
1783169623563360300,5.6293603515625,0.9210901782900095,-0.35173633937984705,-0.5554368476407602
1783169623573309200,5.63930908203125,0.8500649234741926,-0.35786505139321084,-0.608277480337955
1783169623583257000,5.649257080078125,0.8603577694296837,-0.41591713512837886,-0.6118205232396722
1783169623593237200,5.6592373046875,0.7772855184674262,-0.5201359267547726,-0.5433208413787186
1783169623603185200,5.66918505859375,0.6755892310559749,-0.6323416254818439,-0.47705987835526464
1783169623613134300,5.67913427734375,0.6141577340155839,-0.6751949710413813,-0.40476274044010785
1783169623623113200,5.68911328125,0.5156710563004017,-0.7063894429892301,-0.3725349433891475
1783169623633062400,5.6990625,0.4219494010299444,-0.7772869797721504,-0.3659115797266364
1783169623643011300,5.70901123046875,0.3874707928448915,-0.7909674223393202,-0.3077702102728188
1783169623652960300,5.718960205078125,0.34817747785449027,-0.8155565046727656,-0.20481164784058928
1783169623662939400,5.728939453125,0.20863398260772226,-0.8831517850399017,-0.11015256558954716
1783169623672888300,5.738888427734375,-0.025119828209280968,-0.9359431717678904,-0.06110727005470544
1783169623682836200,5.748836181640625,-0.24675474668741224,-0.9333750748455524,-0.10007423916757106
1783169623692816400,5.75881640625,-0.47244683160185813,-0.9118936031386256,-0.20100790817607192
1783169623702764300,5.768764404296875,-0.6630284401684999,-0.9186661660134792,-0.35553532980401065
1783169623712713200,5.778713134765625,-0.7456383343160152,-0.8827706767678261,-0.5621368932686746
1783169623722662100,5.788662109375,-0.7413461900800467,-0.8604863642454147,-0.7230110535748302
1783169623732641300,5.798641357421875,-0.39869010599553584,-1.0061679238557815,-0.6767930538877844
1783169623742590200,5.808590087890625,0.1854179421931505,-1.350758190873265,-0.3778409408427775
1783169623752538000,5.8185380859375,0.26746611080467697,-1.4188362863212822,-0.08188932478800416
1783169623762518300,5.828518310546875,0.1324760410785675,-1.2878262261420488,0.025077888763695953
1783169623772466200,5.838466064453125,-0.1777677197009325,-1.256497021898627,0.10050824667066335
1783169623782415400,5.848415283203125,-1.0286766927838324,-1.203378010651469,0.133740508056432
1783169623792364300,5.8583642578125,-1.856872898799181,-0.9095087538287043,-0.013987316559255123
1783169623802343400,5.868343505859375,-1.9293693952113389,-0.41202129673361776,-0.4093387796513736
1783169623812292400,5.878292236328125,-1.5067524701833723,0.11431319240033626,-0.8350491406500339
1783169623822241300,5.8882412109375,-1.0709691895902156,0.5674725552082062,-1.0143757802307605
1783169623832189400,5.898189453125,-0.8401181144773959,0.803614137944579,-0.899227598311007
1783169623842169300,5.90816943359375,-0.9831354233145714,0.6967749346867204,-0.5328488394640386
1783169623852117200,5.9181171875,-1.035296403184533,0.42832916519492864,-0.11507920833677053
1783169623862066200,5.928066162109375,-1.3121288927495478,0.26036855375915763,0.32903533581532535
1783169623872045300,5.93804541015625,-1.8595979398488998,0.11439560998678207,0.6870604731410741
1783169623881994200,5.947994140625,-2.024989577579498,0.014372224223613738,0.8015921305976808
1783169623891943200,5.957943115234375,-2.0341829378604888,0.15029548314660787,0.6921458135813474
1783169623901891300,5.967891357421875,-2.171340414753556,0.3220134012892842,0.48035307468175886
1783169623911871200,5.977871337890625,-2.274974976751208,0.37618689002543687,0.2943962763715535
1783169623921819100,5.987819091796875,-2.317715217325091,0.39346448030173775,0.04258505001217126
1783169623931768000,5.99776806640625,-2.1484972993046045,0.5093851078987122,-0.264581933670491
1783169623941747200,6.007747314453125,-1.8750737414002416,0.5819438558921217,-0.49132593879066405
1783169623951696100,6.017696044921875,-1.4756296021670101,0.48687224731743334,-0.5415149610005319
1783169623961645300,6.027645263671875,-1.0378992791593074,0.34865678580403325,-0.43551761539429423
1783169623971594200,6.03759423828125,-0.5858031616687774,0.2582189745098352,-0.3093536800719797
1783169623981573400,6.047573486328125,-0.10074059412181377,0.20086627121567724,-0.21891163099408148
1783169623991522300,6.057522216796875,0.3933592663615942,0.19399580092430113,-0.13392843184396624
1783169624001470200,6.06747021484375,0.7481903568863868,0.22729776654541492,-0.032792554794251916
1783169624011450400,6.077450439453125,1.0729887127190827,0.26881314149945973,0.055185734518617385
1783169624021398300,6.087398193359375,1.4227689495950937,0.33294951358437536,0.09417860525771975
1783169624031347200,6.09734716796875,1.6896493694663046,0.4112871372401714,0.05990779460445046
1783169624041296100,6.107296142578125,1.8470920940190552,0.44600072322487827,0.008462123396992684
1783169624051275300,6.117275146484375,1.9501251829922197,0.4294163759097457,-0.042917058445513245
1783169624061224200,6.12722412109375,1.9930296742171048,0.39680268481373787,-0.049959012846276164
1783169624071172400,6.13717236328125,1.9786451750338077,0.36210868031233545,-0.040127062400802965
1783169624081152300,6.14715234375,1.893236590078473,0.30678631380200383,-0.049599751079827545
1783169624091100200,6.15710009765625,1.8003198214501142,0.26886779429614543,-0.007136573881655931
1783169624101049000,6.167049072265625,1.6975485982835292,0.2679442497104406,0.10496025764346122
1783169624110998300,6.176998291015625,1.5536363864332436,0.3162704737231135,0.16839447280839084
1783169624120977200,6.18697705078125,1.3733259965121745,0.35668957787305117,0.09971541579253972
1783169624130926300,6.19692626953125,1.1948843230724333,0.35200843431949613,0.03497340596467256
1783169624140875300,6.206875244140625,1.0130442393660544,0.3584574643284082,0.09469503034725785
1783169624150854400,6.2168544921875,0.9408499407708645,0.3297533478915691,0.17856807629838584
1783169624160803300,6.22680322265625,0.9518202475965023,0.34925299813151356,0.2211050493851304
1783169624170751200,6.236751220703125,0.8571797239154577,0.31265842070579525,0.2382707037195563
1783169624180700400,6.246700439453125,0.8168740170121193,0.23747312360107897,0.25997626650594174
1783169624190679300,6.25667919921875,0.8236065401375293,0.27486966505944727,0.1979975839115679
1783169624200628200,6.266628173828125,0.902763663482666,0.30100188518166543,0.11303162815719842
1783169624210577200,6.2765771484375,1.0274883597820996,0.2741962958425283,0.09858538884930312
1783169624220556300,6.286556396484375,1.1604606599450111,0.2531225281536579,0.18226152398884296
1783169624230505200,6.296505126953125,1.2538058831185102,0.25294132636785505,0.2526635323397815
1783169624240453000,6.306453125,1.2867618117809294,0.21741408591270445,0.2566270291432738
1783169624250402300,6.31640234375,1.1972598200321196,0.18970482573211192,0.19486805371418595
1783169624260381200,6.326381103515625,1.0711550675511359,0.1809445961713791,0.10565627708360552
1783169624270330000,6.336330078125,0.9967612130850553,0.15497487313449382,0.007139715686812997
1783169624280293400,6.34629345703125,0.9309124841243028,0.20771102254390716,-0.10145385695770383
1783169624290272500,6.3562724609375,0.6770651488274335,0.26045710882544515,-0.2450909781936556
1783169624300221400,6.366221435546875,0.2592044784158468,0.24527239917516708,-0.47970294020995496
1783169624310170400,6.37617041015625,-0.15157529382407664,0.27902678473889825,-0.7433205588929355
1783169624320118500,6.386118408203125,-0.4719131631165743,0.3298608999192714,-0.9466158108212053
1783169624330098400,6.396098388671875,-0.6845037743955851,0.3325760040968656,-1.0850697572655976
1783169624340046300,6.40604638671875,-0.9074176267683506,0.33917467170953747,-1.1842176753684877
1783169624349995300,6.415995361328125,-1.0170330167412758,0.2086895121872425,-1.2033084525465965
1783169624359974400,6.425974365234375,-0.741446143323183,-0.17857085277736187,-1.0292328653618692
1783169624369923600,6.435923583984375,-0.4626829779565334,-0.42776247122287747,-0.779448395589739
1783169624379872500,6.44587255859375,-0.6334452028095722,-0.29816753853857514,-0.7154426641471684
1783169624389820700,6.455820556640625,-1.1361620849907397,-0.23496435565054416,-0.7508980084098875
1783169624399800600,6.465800537109375,-1.5982476815760134,-0.3622498423486948,-0.6280266848921775
1783169624409748500,6.47574853515625,-1.9978829594671725,-0.35407647276520726,-0.6139163264751434
1783169624419697400,6.485697509765625,-2.2304712336361407,-0.16333996589779853,-0.8897833320088684
1783169624429676500,6.495676513671875,-2.166183762642741,-0.0037280806124210357,-1.3306067987263202
1783169624439625500,6.50562548828125,-2.0475603058278558,0.15641279698312283,-1.760326833757758
1783169624449574400,6.515574462890625,-1.8635481387794017,0.21142682819664477,-2.1005787793099877
1783169624459523300,6.5255234375,-1.4026234026670454,0.22702187221348286,-2.250293539959192
1783169624469502500,6.53550244140625,-0.7756810058802366,0.30452362956702705,-2.2569925992064177
1783169624479451400,6.545451416015625,-0.3892623524367809,0.28619594571590423,-2.054000714138895
1783169624489399600,6.555399658203125,-0.22376725433170794,0.16494798561632631,-1.7532025348357856
1783169624499379500,6.56537939453125,-0.16212883654236793,0.11912585337907075,-1.4975352906353772
1783169624509327400,6.575327392578125,-0.20212883849740026,0.17980010231137275,-1.3782454788662493
1783169624519276300,6.5852763671875,-0.10938158121705055,0.26268852113932367,-1.4758885453641413
1783169624529225500,6.5952255859375,0.060276481786370274,0.36511283056437965,-1.7683511502593754
1783169624539204600,6.60520458984375,0.13827683631181717,0.45267800903171296,-1.9467562910810112
1783169624549153500,6.615153564453125,0.26107670202851296,0.42309126454144713,-1.9653347348228096
1783169624559101700,6.625101806640625,0.5212228452086448,0.3242036048099398,-1.8915145885914564
1783169624569081600,6.63508154296875,0.7962509157001971,0.19894903941750525,-1.784250291789323
1783169624579029500,6.645029541015625,1.1056348447799682,0.13056786936968565,-1.6920146372929215
1783169624588978400,6.654978515625,1.447947814515233,0.13599310928881167,-1.6286894354604184
1783169624598927600,6.664927734375,1.654122129011154,0.13025310433208942,-1.510853621891886
1783169624608906500,6.674906494140625,1.7426888857364653,0.05856207908391952,-1.3477891119346022
1783169624618855400,6.68485546875,1.769732375484705,-0.05025163911730051,-1.1979375731632114
1783169624628804400,6.694804443359375,1.7541858467847107,-0.09370002796053886,-1.082040180311352
1783169624638783500,6.704783447265625,1.7435101389914751,-0.07677168951332569,-0.9996054966002702
1783169624648732400,6.714732421875,1.6976953132778405,-0.11176380017846822,-0.9593836685881018
1783169624658680300,6.724680419921875,1.5229133313894272,-0.19710721094310282,-0.9395730527028441
1783169624668629500,6.73462939453125,1.3660001836687325,-0.31459552624821663,-0.9255382437400519
1783169624678608400,6.7446083984375,1.2686615069448948,-0.4240393590465188,-1.002247681672126
1783169624688557300,6.754557373046875,1.150138003373146,-0.53602118588984,-1.0719874267220497
1783169624698506500,6.764506591796875,1.1666238587498665,-0.5943696222230792,-1.131694145796448
1783169624708485400,6.7744853515625,1.2413783632218838,-0.5823053826808929,-1.1572862676925957
1783169624718434600,6.7844345703125,1.2442121253430842,-0.6252320857375859,-1.1551378574870526
1783169624728383500,6.794383544921875,1.200769289457798,-0.761366357062757,-1.0952464294955133
1783169624738331600,6.80433154296875,1.178952594447136,-0.8772788013532757,-1.0063568705566226
1783169624748310500,6.814310546875,1.1815829429507254,-0.944136999617517,-0.9380167631715536
1783169624758259500,6.824259521484375,1.133798862990737,-0.9960556951642036,-0.8836610497362911
1783169624768208400,6.83420849609375,1.0854255849659442,-1.065304587957263,-0.8503314654558897
1783169624778187500,6.8441875,1.0000625927180051,-1.1097779359340667,-0.8143029974803329
1783169624788136400,6.854136474609375,0.8898392999798059,-1.1269804151475429,-0.7597608215622603
1783169624798085400,6.86408544921875,0.731203566250205,-1.1715122153133153,-0.711229284235835
1783169624808033500,6.874033447265625,0.643475598436594,-1.2597452100396156,-0.6787218299932778
1783169624818013400,6.884013427734375,0.5377215600669384,-1.3173948504537343,-0.6154184016011655
1783169624827961300,6.89396142578125,0.23361995530426502,-1.4133385656878352,-0.5660769361313432
1783169624837910500,6.90391064453125,0.012078560328483581,-1.4876774750962853,-0.5642867647789418
1783169624847889400,6.913889404296875,-0.11950842295587062,-1.458304081095755,-0.5494004535533488
1783169624857838300,6.92383837890625,-0.3479267179638147,-1.4221888116195798,-0.5611172678973525
1783169624867787500,6.93378759765625,-0.5456050067931413,-1.422564951455593,-0.5743279740609228
1783169624877736400,6.943736328125,-0.6582113952755928,-1.3880109399467706,-0.6134048698216676
1783169624887715600,6.953715576171875,-0.7459644975304603,-1.3324836985141038,-0.665830491977185
1783169624897664500,6.96366455078125,-0.7899690589517354,-1.2633099167838693,-0.6828652864735573
1783169624907612700,6.97361279296875,-0.7415513572633265,-1.1542997992277144,-0.6763494017735123
1783169624917591600,6.983591552734375,-0.5948427926927805,-1.0997557236135005,-0.6563222205281257
1783169624927540500,6.99354052734375,-0.18668050947487352,-1.2580948124840854,-0.49297524036765095
1783169624937489400,7.003489501953125,0.40419279506504535,-1.539178237491846,-0.09424041844755411
1783169624947438600,7.0134384765625,0.7887450701147317,-1.6096645631253719,0.24778292069137095
1783169624957417500,7.02341748046875,0.7282879710644483,-1.3934618988290428,0.4211055706169456
1783169624967366400,7.033366455078125,0.07063537871539592,-1.2344696067467331,0.5076715819790959
1783169624977314600,7.043314453125,-0.8403402327954769,-1.2227023043245075,0.5299141011863947
1783169624987294500,7.05329443359375,-1.3140706744670867,-0.8858765338286757,0.37695568244084715
1783169624997242400,7.063242431640625,-1.7120915028989314,-0.2315919566079974,-0.11163827410265803
1783169625007191300,7.07319140625,-2.3875234975665807,0.2229325570732355,-0.5588467656821012
1783169625017140500,7.083140380859375,-2.587632228413224,0.5544456081137061,-0.9176483672730624
1783169625027119400,7.093119384765625,-2.459016369894147,0.9718959441587328,-1.300489746751636
1783169625037068300,7.103068359375,-2.2651813124895095,1.2785334971398115,-1.5574769875094294
1783169625047017500,7.113017578125,-1.805683978831768,1.4150684582203625,-1.5306905412621796
1783169625056996600,7.12299658203125,-1.3203881870508194,1.2841957606852055,-1.1569042826376854
1783169625066945500,7.132945556640625,-1.0152391190618275,1.00237525357455,-0.6370031875520944
1783169625076893700,7.142893798828125,-0.92332714356184,0.8396665713176131,-0.20848273756876587
1783169625086842600,7.152842529296875,-0.800052061548829,0.7382067230105399,0.10150544101446866
1783169625096821500,7.162821533203125,-0.652690586027503,0.6784393597900867,0.2505702133223414
1783169625106770400,7.1727705078125,-0.6251479145854711,0.7430562088683247,0.0964256535321474
1783169625116719400,7.18271923828125,-0.6031389118731022,0.925358064867556,-0.16763021043762563
1783169625126667500,7.19266748046875,-0.42184243352413175,1.0339847360640764,-0.313650208222121
1783169625136647400,7.2026474609375,-0.16495266179144383,1.0256342563480139,-0.3681090897709131
1783169625146595600,7.212595703125,0.11290507916808128,1.0365940417796373,-0.3512170647460967
1783169625156544500,7.22254443359375,0.4070388321459293,1.0169202040165661,-0.33482407528460023
1783169625166523400,7.2325234375,0.7163678161680698,0.9023311172842979,-0.3364439315713942
1783169625176472300,7.242472412109375,0.9468588257968426,0.7756266453444958,-0.2810799178764224
1783169625186421500,7.25242138671875,1.081809732556343,0.6253361306339502,-0.15185206493884323
1783169625196370400,7.262370361328125,1.295007662078738,0.5032236626595259,0.034145138446986675
1783169625206349300,7.272349365234375,1.357931443503499,0.4173264174044132,0.27059754069820047
1783169625216298500,7.282298583984375,1.3166957622736692,0.3609060265243053,0.4697219366826117
1783169625226246700,7.29224658203125,1.2929372855454682,0.3136979928866029,0.5069709594290703
1783169625236226600,7.3022265625,1.169504382622242,0.30782676276564597,0.3891786196760833
1783169625246174500,7.312174560546875,0.9749819274753332,0.3134755823075771,0.1491387143269181
1783169625256123600,7.32212353515625,0.7146808859944344,0.2849921228840947,-0.08664353357777
1783169625266072600,7.332072509765625,0.34379882437884807,-0.1925292355030775,-0.25856344056595115
1783169625276051500,7.342051513671875,0.3852548703610897,-0.0881754193201661,-0.09444982341453433
1783169625286007600,7.352007568359375,0.6945166343659163,0.40126813978999853,-0.009309826267510653
1783169625295955700,7.361955810546875,0.9014531654059886,0.3400517468050122,0.1598474110743031
1783169625305935600,7.371935546875,0.902118351316452,0.07040916874408722,0.32939576662555337
1783169625315883500,7.381883544921875,0.6816805336683989,-0.2613175250470638,0.36637583623751996
1783169625325832700,7.391832763671875,0.6651788962006568,-0.7224871758311987,0.3489832412794232
1783169625335781600,7.40178173828125,0.9714005618572235,-0.6602940467685461,0.34640170035362244
1783169625345760500,7.411760498046875,0.992067502310872,-0.06415799939483403,0.17343407441079617
1783169625355709400,7.42170947265625,1.0339525873601436,0.39309389342367645,0.05366071690842509
1783169625365659000,7.431658935546875,1.175992575597763,0.6422089395016432,-0.02049684458374977
1783169625375637500,7.441637451171875,1.3303671447515486,0.696949122209847,-0.09196677442714571
1783169625385586700,7.451586669921875,1.4296587091088293,0.6438350793987512,-0.11212475157850421
1783169625395534800,7.461534912109375,1.422788823339343,0.5657917625144123,-0.13208003663145937
1783169625405483800,7.47148388671875,1.2651537910848856,0.38634471142441035,-0.04672755664438009
1783169625415462700,7.481462646484375,0.9950433032512664,0.14815876337885855,0.04910656073540449
1783169625425411600,7.49141162109375,0.7363643100142478,-0.04210018910467624,0.06184212366789579
1783169625435360800,7.50136083984375,0.4610533309280872,-0.22298662534803151,0.089588354858011
1783169625445339600,7.511339599609375,0.22318682409524918,-0.45905601963102816,0.11303820402845739
1783169625455288600,7.52128857421875,0.07517886736392974,-0.6609145167544483,0.14873291000500322
1783169625465236700,7.53123681640625,0.011650105783343315,-0.7581582086712122,0.1774326242613606
1783169625475185700,7.541185546875,-0.08391103987395764,-0.7579419355720282,0.10738587735518812
1783169625485164500,7.55116455078125,-0.2718289821892977,-0.6244271990954876,-0.09742402605288661
1783169625495113700,7.56111376953125,-0.375843483415246,-0.531702153646946,-0.41974750707149505
1783169625505062700,7.571062744140625,-0.5296405449420213,-0.5996937398552894,-0.6449807423025369
1783169625515041500,7.58104150390625,-0.7449965292811394,-0.6507073032557964,-0.7740500436775386
1783169625524990500,7.590990478515625,-1.02004622708261,-0.6259148073047399,-0.8463082012891769
1783169625534939600,7.600939697265625,-1.1970189970135687,-0.6347089391350745,-0.8520202953256666
1783169625544887600,7.610887451171875,-1.0284615887284279,-0.8301198675543069,-0.8105762320421636
1783169625554867700,7.62086767578125,-0.6422860963910818,-1.121286587420106,-0.7201153321333229
1783169625564816000,7.63081591796875,-0.43429567238390443,-1.2017553778856993,-0.6175856626376509
1783169625574764800,7.640764892578125,-0.6730255180478095,-1.1352356177955865,-0.5716138927966355
1783169625584743700,7.65074365234375,-1.3767992255806922,-1.1353116056412458,-0.47746232167631386
1783169625594692600,7.660692626953125,-2.2766806116253138,-1.2997446274727582,-0.2804369437977671
1783169625604641800,7.670641845703125,-2.847806428644061,-1.2903916927158832,-0.23981954059675334
1783169625614589700,7.680589599609375,-2.9115777668088674,-0.8890560406476259,-0.5748747942887247
1783169625624569600,7.690569580078125,-2.4049317284852263,-0.3297282134503126,-1.0826499827727676
1783169625634517800,7.700517822265625,-1.669512590366602,0.040758711367845535,-1.4709011123403906
1783169625644466700,7.710466796875,-1.0892319915115833,0.28710078560113905,-1.6867516021981834
1783169625654445600,7.720445556640625,-0.5284487048089503,0.4613368240445852,-1.5790569511547683
1783169625664394500,7.73039453125,-0.12324702496230601,0.4656067564487457,-1.2942182652667165
1783169625674343700,7.74034375,0.16005787548720835,0.3934638957798481,-1.0011509724766015
1783169625684292600,7.750292724609375,0.33763036487698556,0.33649288527965543,-0.745476421752572
1783169625694271500,7.760271484375,0.3765805655181408,0.3017342911094427,-0.5523270450571551
1783169625704220400,7.770220458984375,0.4026221847474575,0.34350656343400476,-0.4614645420774817
1783169625714168600,7.78016845703125,0.3651689446657896,0.4141542171090841,-0.4982943895637989
1783169625724148700,7.790148681640625,0.15759996094107626,0.44297056174874305,-0.6175320327542722
1783169625734096600,7.8000966796875,0.014228431838750838,0.4865215341836214,-0.7341669461004435
1783169625744045800,7.8100458984375,0.006161445239186287,0.5302437715321779,-0.8567543381102383
1783169625753994800,7.819994873046875,0.07763210573494433,0.47693011449575423,-0.9702272802941501
1783169625763973600,7.8299736328125,0.2006365541130304,0.35118893463015555,-1.0322447605289518
1783169625773922600,7.839922607421875,0.3823533037006855,0.2861667196214199,-1.015866895571351
1783169625783870700,7.84987060546875,0.6145756671667099,0.3089595661878586,-1.0129496929503976
1783169625793850600,7.8598505859375,0.8652829508721828,0.44445057117342945,-1.021773489266634
1783169625803798800,7.869798828125,1.1002847159236668,0.5863263087600469,-1.022824313493818
1783169625813747700,7.879747802734375,1.3273328916221856,0.63703007555902,-1.0038276443399488
1783169625823696600,7.889696533203125,1.5453671552598476,0.6059224051117896,-0.9255679082259535
1783169625833675500,7.899675537109375,1.6950240482419727,0.5315577767401933,-0.7590716702543199
1783169625843624700,7.909624755859375,1.742812804377079,0.3361667220652103,-0.5890350197294727
1783169625853573600,7.91957373046875,1.7177274629592894,0.14492869541645048,-0.47328810473158955
1783169625863552500,7.929552490234375,1.7503431998819112,0.04355155695676803,-0.4120470522293821
1783169625873501400,7.93950146484375,1.8055062841773033,0.03386369115710258,-0.36703152366727587
1783169625883449600,7.94944970703125,1.8818857595026492,0.10208324090242385,-0.450122040938586
1783169625893398800,7.959398681640625,1.9288006554126738,0.18458850563168525,-0.5268787520784884
1783169625903377400,7.96937744140625,1.9433517433345318,0.2445873395204544,-0.565340073224157
1783169625913326800,7.979326904296875,1.9769477234661579,0.17625731513798235,-0.6405443672902882
1783169625923275800,7.98927587890625,1.9741689064025878,0.09829729262292385,-0.7061347375757991
1783169625933254700,7.999254638671875,1.8222528363168238,0.05141220732927322,-0.7442079361867159
1783169625943203600,8.00920361328125,1.684102256733179,0.01282324121594429,-0.6562586537726223
1783169625953151700,8.01915185546875,1.6113666908681392,-0.07446925778985022,-0.5198388435043394
1783169625963100700,8.0291005859375,1.4894500377267599,-0.1961024178147316,-0.47793125436231493
1783169625973079800,8.039079833984376,1.358781922852993,-0.3071218293666839,-0.4790539747819304
1783169625983028700,8.04902880859375,1.1769652200222014,-0.37855508046150205,-0.4780740238338709
1783169625992977700,8.058977783203124,0.9802584065735339,-0.38952188015580175,-0.46401137701608236
1783169626002956500,8.06895654296875,0.8020598942399024,-0.3407294999361038,-0.5131451910845936
1783169626012905500,8.078905517578125,0.651360798728466,-0.2995072627097368,-0.5827106024809181
1783169626022854700,8.088854736328125,0.4317120856314897,-0.3814607387751341,-0.623923779617995
1783169626032802600,8.098802490234375,0.15092939713597298,-0.5616624076247215,-0.5756215940680355
1783169626042782500,8.108782470703124,-0.0442804557532072,-0.7018500459939241,-0.39909824840500946
1783169626052730600,8.118730712890626,-0.19429916778504847,-0.8017226251095533,-0.30044512808173895
1783169626062679800,8.1286796875,-0.25400866333842276,-0.8768523926347493,-0.3106853670671582
1783169626072658400,8.138658447265625,-0.24760288794934748,-0.9927040466487407,-0.35234460747130214
1783169626082607900,8.14860791015625,-0.2600128721892834,-1.0837380702704191,-0.3049726154435426
1783169626092556800,8.158556884765625,-0.30337387501001356,-1.0806243221640586,-0.1810709259647876
1783169626102504700,8.168504638671875,-0.34616146185696123,-1.08004330740571,-0.1488476224258542
1783169626112484600,8.178484619140624,-0.059741059735417365,-1.2485159600168465,-0.026817060581222175
1783169626122432800,8.188432861328126,0.3471779454231262,-1.5863485694676636,0.36508966888450084
1783169626132381700,8.198381591796876,0.052446811074018475,-1.8749802178978918,0.6695933516420424
1783169626142360600,8.208360595703125,-1.066418102157116,-1.8515952506572007,0.5952280656833201
1783169626152309800,8.218309814453125,-2.4490765751600265,-1.6211685384362935,0.3459998415544629
1783169626162258700,8.2282587890625,-3.2435002754330635,-1.33672440482378,0.10241291124820709
1783169626172207600,8.23820751953125,-3.327759690353274,-0.9661147304087877,-0.16907646372318266
1783169626182186500,8.2481865234375,-3.010733722087741,-0.3478635895997286,-0.6500069729667156
1783169626192135700,8.2581357421875,-2.4133219556897876,0.42233284738957877,-1.1671757935442029
1783169626202083600,8.26808349609375,-1.7040461436092853,1.0634253500819206,-1.447257494163513
1783169626212063500,8.2780634765625,-0.8834148198902606,1.324169166894257,-1.39547659965232
1783169626222011600,8.28801171875,-0.1178624093145132,1.2523118451684712,-1.0142683743335306
1783169626231960600,8.297960693359375,0.24562954204976556,1.0360188722401857,-0.4635790500134229
1783169626241909800,8.30790966796875,0.1031225208222866,0.6536883648931979,-0.06084266430176794
1783169626251888600,8.317888671875,0.0579617751032114,0.6100076285988092,0.7703019431903958
1783169626261837800,8.327837890625,-0.05210369672477245,0.5057733471423387,1.0234506286986171
1783169626271785700,8.33778564453125,-0.5377823503434658,0.2818886039108038,0.7169805412389337
1783169626281790500,8.34779052734375,-0.5315437482148408,0.5123088863909244,0.573237037019059
1783169626291738600,8.357738525390625,-0.6401666200190782,0.7440233003348111,0.2413766338456422
1783169626301687800,8.367687744140625,-0.6708598644465208,0.7599392468690872,-0.13726700168214737
1783169626311636700,8.37763671875,-0.6663409257173538,0.8220826915711164,-0.3854104993142187
1783169626321615600,8.38761572265625,-0.7764473140776157,0.8963128799080848,-0.5921588143058121
1783169626331564500,8.397564453125,-0.5741051250904798,0.861237474873662,-0.725347899024561
1783169626341513700,8.407513671875,-0.2111117708981037,0.8127168973326683,-0.7338189363803714
1783169626351492600,8.41749267578125,0.08303308799564837,0.7711252422720194,-0.6530522589467466
1783169626361441500,8.427441650390625,0.33522564182281495,0.6894540902793407,-0.4893563192181289
1783169626371389700,8.4373896484375,0.5850245785117149,0.5672843391597271,-0.2856989559791982
1783169626381338600,8.447338623046875,0.6619342151910066,0.5267021534025669,-0.09301584508866072
1783169626391317500,8.4573173828125,0.7179197217851877,0.5145248088747263,0.12785787975862623
1783169626401266700,8.4672666015625,0.841293003475666,0.4708101703107357,0.3534273612067103
1783169626411215600,8.477215576171876,0.8459627488523721,0.39258185224831105,0.33047362499013544
1783169626421194500,8.487194580078125,0.7499667189091443,0.3923661636710167,0.16868841425366699
1783169626431143400,8.497143310546875,0.7554694079786539,0.442685315066576,0.05235971731245517
1783169626441092600,8.507092529296875,0.7955085729002952,0.45883565487861633,-0.0632052287146449
1783169626451040500,8.51704052734375,0.8233587028563022,0.42123511528074736,-0.18099311148822306
1783169626461019400,8.527019287109376,0.8946867400109767,0.37129239598214625,-0.23465916215889154
1783169626470968800,8.53696875,0.9245686680555343,0.31268121705949303,-0.2028730079282075
1783169626480917800,8.546917724609376,0.9006839345991611,0.23967618660330772,-0.16408128578439354
1783169626490866700,8.55686669921875,0.917465558052063,0.16253917090892792,-0.09224376473762094
1783169626500845600,8.566845458984375,0.9101572808653116,0.09499123681485652,-0.04568981109447777
1783169626510794800,8.576794677734375,0.8695604820609092,0.0775029263973236,-0.011981895020976662
1783169626520742700,8.58674267578125,0.8423159167826175,0.06742752258479595,-0.006906783713772893
1783169626530722600,8.59672265625,0.8355237724244594,0.03960311159193516,0.0025508535265922547
1783169626540670700,8.606670654296876,0.8040063521325588,0.015232055923342704,0.0009555471591651439
1783169626550619600,8.61661962890625,0.7846148384422064,-0.005782090532779693,-0.0197180056983605
1783169626560568600,8.626568603515626,0.7718751838564872,0.014930442628264427,-0.06752192286998034
1783169626570547500,8.63654736328125,0.7632382884144783,0.03013677958846092,-0.14172463867813348
1783169626580496600,8.64649658203125,0.7771826426148414,0.03795768247246742,-0.189116723645851
1783169626590445600,8.656445556640625,0.7795113778233528,0.03108838122487068,-0.20327961596772073
1783169626600424400,8.666424560546876,0.7548164970278739,-0.03677577921152115,-0.18960976785980163
1783169626610373400,8.676373291015626,0.7737304563343524,-0.14062602978646754,-0.1726444584030658
1783169626620321500,8.686321533203126,0.7523994990140199,-0.245250187343359,-0.13045264549218116
1783169626630270700,8.696270751953126,0.6636147156238555,-0.32180677280128,-0.08921521069668233
1783169626640249600,8.70624951171875,0.6397475178241729,-0.36496494652628897,-0.04950717742554843
1783169626650198800,8.71619873046875,0.6490992835372686,-0.39101708714962,-0.0810174373243004
1783169626660147700,8.726147705078125,0.6045411798864603,-0.4067909948647022,-0.13377280289083718
1783169626670126600,8.736126708984376,0.5183002357602119,-0.37923546394109725,-0.23482648154981434
1783169626680075500,8.746075439453126,0.42471009791493414,-0.3289531374245882,-0.382575641214475
1783169626690023700,8.756023681640626,0.2763321388274431,-0.2937725184500217,-0.543364315194264
1783169626699972600,8.76597265625,0.11073182678222655,-0.2689414440542459,-0.7043210392173379
1783169626709951700,8.77595166015625,-0.0894938084423542,-0.18632336660027504,-0.8230231142263859
1783169626719900700,8.785900634765625,-0.25225685123503205,-0.07376257082521916,-0.9609062019802629
1783169626729849600,8.795849609375,-0.1376174956202507,0.015848141995072364,-1.0242393679235129
1783169626739828500,8.805828369140626,0.20916180587410926,-0.07017711355388163,-0.9438823672693222
1783169626749777700,8.815777587890626,0.5486994656771421,-0.2939128037035465,-0.8211486255913972
1783169626759726600,8.8257265625,0.49759413233995436,-0.44110126074552536,-0.7423021025653929
1783169626769674500,8.835674560546876,-0.00032031799554824825,-0.5042576818823814,-0.6971420874986797
1783169626779654400,8.845654296875,-0.41824528581500053,-0.5755863035589456,-0.6143420045413076
1783169626789602600,8.8556025390625,-0.7917460054963826,-0.648154696163535,-0.5690688844889402
1783169626799551700,8.8655517578125,-1.3676198938250541,-0.5082388604730368,-0.7480118585143238
1783169626809530600,8.875530517578126,-2.055378870624304,-0.18184242179393767,-1.0886612058863043
1783169626819479800,8.885479736328126,-2.632127788221836,-0.0527595302850008,-1.5695624159701167
1783169626829428700,8.8954287109375,-2.7295716788858173,0.029037293913960455,-2.050773714916408
1783169626839376600,8.905376708984376,-2.5897031894683837,0.2762742711603641,-2.441904491573572
1783169626849356500,8.9153564453125,-2.4302421108305454,0.45547816114425654,-2.6928853315234185
1783169626859304700,8.9253046875,-2.108250629112124,0.424314961117506,-2.6985809128165243
1783169626869253600,8.935253662109375,-1.5657102705866097,0.2457844403505325,-2.503766781246662
1783169626879232800,8.945232666015626,-1.0396920077949763,0.08786211558729409,-2.2457192177809775
1783169626889181700,8.955181640625,-0.824368172159791,-0.011538462102413176,-1.9489988093107937
1783169626899130600,8.965130615234376,-0.5793167222589254,-0.12154869661182165,-1.7228325310133397
1783169626909079600,8.97507958984375,-0.23329028495848178,-0.21170389157235622,-1.6619091296255588
1783169626919058700,8.98505859375,-0.05543137984275818,-0.23721155005544423,-1.7339207651302218
1783169626929007600,8.995007568359375,0.03053893064856529,-0.21137422122657298,-1.877070760436356
1783169626938955500,9.00495556640625,0.15203648159503935,-0.16382687263190746,-2.0196726203404367
1783169626948935400,9.014935302734376,0.22492051602005958,-0.13820786272883415,-2.111804229940474
1783169626958883600,9.024883544921876,0.3023497926592827,-0.10666180086433887,-2.146828781570494
1783169626968832500,9.03483251953125,0.34258769502341746,-0.0826706844240427,-2.151489759118855
1783169626978781700,9.04478173828125,0.29645138227045537,-0.08589023099243641,-2.130183643978834
1783169626988760800,9.0547607421875,0.336010654720664,-0.12434008089601993,-2.0564064601063725
1783169626998709800,9.064709716796875,0.5359224016904831,-0.12158581375181675,-1.9673320461198687
1783169627008657700,9.07465771484375,0.7334376089125871,-0.0782353323251009,-1.8695596541538833
1783169627018637600,9.084637451171876,0.861043413606286,-0.10237842445671558,-1.7563417096443472
1783169627028585700,9.094585693359376,0.9675812958300113,-0.1514507906615734,-1.5866909531645477
1783169627038534700,9.10453466796875,1.0245125588417052,-0.13868833972215652,-1.455901257737726
1783169627048483600,9.114483642578126,1.085873913255334,-0.12629822922647,-1.4133023253306745
1783169627058462700,9.124462646484375,1.137754322618246,-0.15061609340310095,-1.3992474964931607
1783169627068411600,9.13441162109375,1.030603861454129,-0.19961948602497576,-1.4352677811622618
1783169627078360600,9.144360595703125,0.9026642947614193,-0.25828268739581106,-1.5078583855986594
1783169627088339500,9.15433935546875,0.926574162659049,-0.2928197477698326,-1.5958829982712863
1783169627098288600,9.16428857421875,1.0206377632349728,-0.2918769139617681,-1.681715069335699
1783169627108236500,9.174236572265626,1.1668564984619616,-0.2904740614265203,-1.738715305930376
1783169627118185500,9.184185546875,1.2903706499278544,-0.3151572517842054,-1.7266349920362234
1783169627128164600,9.19416455078125,1.3924948073625565,-0.40172026747167106,-1.6763738544382154
1783169627138113500,9.204113525390625,1.618673799011111,-0.5216822794139385,-1.5697360189713536
1783169627148062700,9.214062744140625,1.7587088771671056,-0.5958160216391086,-1.4444417060904204
1783169627158041600,9.22404150390625,1.7102227864176034,-0.691585257089138,-1.347012428473681
1783169627167990800,9.23399072265625,1.7252584429860114,-0.7590683092534541,-1.2410355411335825
1783169627177938700,9.243938720703126,1.7991314884483813,-0.7874275577753782,-1.1619859698161483
1783169627187887600,9.2538876953125,1.7447955026268958,-0.8691022168993949,-1.1274947213452309
1783169627197866800,9.26386669921875,1.5868109262824057,-0.9715899469494819,-1.1247262064799666
1783169627207815700,9.273815673828125,1.4993600218445062,-1.035330305454135,-1.0926225107327103
1783169627217764600,9.2837646484375,1.389216808605194,-1.0819611237257718,-1.0676906063109635
1783169627227743700,9.29374365234375,1.2529711858600376,-1.1348054096847773,-1.0726982053399086
1783169627237692700,9.303692626953126,1.1736375369042158,-1.1621049200206994,-1.044504449578002
1783169627247641600,9.3136416015625,1.0388561414927244,-1.167230592471361,-0.9898566213283687
1783169627257589500,9.323589599609376,0.8608622118204832,-1.1878490176081657,-0.9530860297486186
1783169627267569700,9.333569580078125,0.7098445518791675,-1.185702068707347,-0.8983652823932469
1783169627277517600,9.343517578125,0.5097942732214927,-1.1839677922606469,-0.816909307521209
1783169627287506400,9.35350634765625,0.260227976244688,-1.1787146940380333,-0.7814486294962465
1783169627297485000,9.363485107421875,-0.04965455000698566,-1.1472609866321086,-0.7802137539390475
1783169627307434200,9.373434326171875,-0.24656010089814662,-1.0925824709832668,-0.8368383621543646
1783169627317383200,9.383383056640625,-0.2578752756386995,-1.0206254882752894,-0.9330111369039863
1783169627327331300,9.393331298828125,-0.3973673329591751,-0.9472866958200931,-0.9497619268272072
1783169627337311200,9.403311279296876,-0.5591945562064647,-0.8991261837631463,-0.906491744095087
1783169627347259400,9.41325927734375,-0.4975830264240503,-0.8691267668187618,-0.8243622538756579
1783169627357208300,9.423208251953126,-0.17317688477933404,-0.9150450529068708,-0.5840401705842465
1783169627367187200,9.433187255859375,0.25656360851824284,-1.2327461439549923,-0.1881236209552735
1783169627377136000,9.44313623046875,0.44073476552069185,-1.6298580408483743,0.20211364092826842
1783169627387085300,9.453085205078125,0.12211655962765217,-1.7724264368742704,0.48491935968399047
1783169627397034200,9.4630341796875,-0.38533611890375613,-1.7340327010720966,0.5664763837777078
1783169627407013000,9.47301318359375,-1.0933078626483679,-1.6964894446194172,0.4615292778767645
1783169627416962000,9.482962158203126,-2.154870925989747,-1.5984037489205598,0.28072628213316203
1783169627426910200,9.49291015625,-2.788047833251953,-1.2556594020307064,-0.023694544646516442
1783169627436890000,9.50289013671875,-2.5945336783647535,-0.6910469124287366,-0.46037718523219223
1783169627446838000,9.512838134765625,-2.0651544147074223,0.048802901613712306,-0.9095022510226816
1783169627456787500,9.522787353515625,-1.574570453390479,0.7833779901236295,-1.2449119441755114
1783169627466736400,9.532736328125,-1.103372745066881,1.2132020700514317,-1.319589584019035
1783169627476715300,9.54271533203125,-0.6356137790203095,1.2039233695745468,-0.9814147370018065
1783169627486664200,9.552664306640626,-0.24474457590878007,0.9307733679145574,-0.44021249521225686
1783169627496612400,9.5626123046875,-0.002586509361863136,0.7571218513607978,0.08160977719426155
1783169627506592300,9.57259228515625,-0.013225392276048659,0.5473123952329159,0.5552325207076967
1783169627516540400,9.58254052734375,-0.10783376725316048,0.31345220143198965,0.8320159104339778
1783169627526489300,9.5924892578125,-0.30662498576045033,0.2947404866993427,0.8409684476964175
1783169627536438300,9.602438232421875,-0.37399230259060856,0.5637696090370417,0.542187015043199
1783169627546417200,9.612417236328126,-0.3264373552113771,0.8993751900881528,0.16326587774828075
1783169627556366000,9.622365966796876,-0.34587504613101483,1.021023547682166,-0.13490005335509778
1783169627566315300,9.632315185546876,-0.30306641649603844,1.0462041661679744,-0.38668936014361677
1783169627576294100,9.642294189453125,-0.13135960426926613,1.0797837796866894,-0.5578245830275118
1783169627586243000,9.6522431640625,0.07368716750144957,1.0688269168645144,-0.6443531849887222
1783169627596191200,9.662191162109375,0.29644787513911725,0.9527291791349649,-0.5870700397994368
1783169627606140200,9.67214013671875,0.5795446857959031,0.7991250098317861,-0.4051335830464959
1783169627616119000,9.682119140625,0.8834674268603324,0.6772866826236248,-0.22577084923908114
1783169627626068200,9.692068115234376,1.1573580177545546,0.6308592779695987,-0.1284383830603212
1783169627636017400,9.702017333984376,1.40895611281991,0.5760644424647092,-0.06524784045815467
1783169627645996300,9.711996337890625,1.4869173043787478,0.45647652453184123,-0.014787600091472267
1783169627655945200,9.7219453125,1.3909072459101677,0.3318903599202633,-0.07363258777000009
1783169627665893400,9.731893310546875,1.4760603947997093,0.324076471298933,-0.11515753426998852
1783169627675842300,9.74184228515625,1.5162223093181848,0.3628811259895563,-0.17401655047386883
1783169627685821200,9.7518212890625,1.4460720837712286,0.30242928763628,-0.2653750568095595
1783169627695770400,9.761770263671876,1.3743442336440086,0.22263094377815723,-0.28859080496318634
1783169627705719300,9.77171923828125,1.2393874816656112,0.10216741205453872,-0.24531821107827126
1783169627715698200,9.7816982421875,1.0957552558004855,-0.06733925977945328,-0.1631966119043529
1783169627725647000,9.791647216796875,1.001034652620554,-0.227310626026988,-0.11903072244152427
1783169627735596300,9.80159619140625,0.9992273109376429,-0.3163052527755499,-0.125238417975232
1783169627745544200,9.811544189453125,0.9733207162648438,-0.34986674611568447,-0.1335594524011016
1783169627755524000,9.821524169921876,0.9297983854025602,-0.4102501954078674,-0.15879304318316279
1783169627765472300,9.83147216796875,0.924244842928648,-0.46009763763844963,-0.2162047101229429
1783169627775421200,9.841421142578126,0.9693243401050567,-0.45990532993674277,-0.27021993955746293
1783169627785400000,9.851400146484375,1.0073895746052264,-0.4218547084838152,-0.29308804331719873
1783169627795349200,9.861349365234375,1.0331804339438677,-0.4172843318283558,-0.24203663212433457
1783169627805298400,9.87129833984375,1.0913649118870496,-0.46825756321847434,-0.1789113367781043
1783169627815246300,9.881246337890625,1.0871095925301313,-0.5615332282871007,-0.10444763194620608
1783169627825226200,9.891226318359376,1.1122604003995655,-0.6331342371642589,-0.047618733330443495
1783169627835174400,9.90117431640625,1.1898767240434884,-0.6571651010930538,0.04303279377967119
1783169627845123300,9.911123291015626,1.1734370458960532,-0.6968816099315881,0.14234803127348422
1783169627855102200,9.921102294921875,1.119947447770834,-0.7449532746613026,0.16766119009777902
1783169627865051400,9.931051513671875,1.0632879874378443,-0.7750789483338594,0.15386658309902995
1783169627875000300,9.941000244140625,0.9950491484701632,-0.7957038032114505,0.15175835877340285
1783169627884949200,9.95094921875,0.9195043704032897,-0.8383768237680196,0.11375369535405189
1783169627894928100,9.96092822265625,0.8275093927949666,-0.8829466178566217,0.08610003781821578
1783169627904877300,9.970877197265626,0.7104109535902738,-0.8704068697571754,0.14233553711809216
1783169627914825200,9.9808251953125,0.5450017802029847,-0.8770131361544131,0.17912921731248496
1783169627924774100,9.990774169921876,0.36009529466331003,-0.9251561125546693,0.20857655333206057
1783169627934753300,10.000753173828125,0.1413292096197605,-0.9511895484775305,0.2192033074170351
1783169627944702200,10.0107021484375,-0.15010522127151488,-0.9377186570078134,0.17806787169128654
1783169627954651100,10.020651123046875,-0.4051297836542129,-0.8767641298294067,0.12040840400289743
1783169627964630000,10.030630126953126,-0.5998918927758932,-0.8170634021043777,0.0027206936681643127
1783169627974579500,10.040579345703126,-0.8184645010739564,-0.7843933046460151,-0.15179901957735417
1783169627984527400,10.05052734375,-1.0350666860818862,-0.7449404151797294,-0.3094558983374387
1783169627994476300,10.060476318359376,-1.0488397753685712,-0.6948994962036609,-0.4683638731371611
1783169628004455400,10.070455322265625,-0.969760393434763,-0.6489309412330388,-0.5871178244639188
1783169628014404400,10.080404296875,-0.6835352216243743,-0.6771914055556059,-0.5005273362476378
1783169628024353300,10.090353271484375,-0.28799042791724205,-0.8950485590606927,-0.1604457057610154
1783169628034332200,10.100332275390626,-0.38013796573877334,-1.047271503138542,0.16136676612868905
1783169628044281300,10.11028125,-0.8076701353371143,-1.009184641328454,0.33630320792645213
1783169628054230300,10.120230224609376,-1.066039331972599,-1.0312713854521511,0.4105452328316867
1783169628064178200,10.13017822265625,-1.064896007156372,-1.0766653554052115,0.4063151940464973
1783169628074158000,10.140157958984375,-1.2774082925021648,-0.9036404463171959,0.29692864439338446
1783169628084106200,10.150106201171875,-1.7704992682039737,-0.662651423549652,-0.015097104432061314
1783169628094055200,10.16005517578125,-1.8549340396910905,-0.4979582894772291,-0.3415924734409898
1783169628104034300,10.170034423828126,-1.5917922218263147,-0.32036709538698194,-0.6224157862078398
1783169628113983200,10.179983154296876,-1.3682815726041793,-0.08799217170774937,-0.9031924833539873
1783169628123932200,10.18993212890625,-1.0955740540146828,0.2255997304558754,-1.02652017233707
1783169628133881300,10.19988134765625,-0.7676017443209886,0.4372352329671383,-0.9739718736499547
1783169628143860200,10.209860107421875,-0.47807928453087806,0.48284606054127216,-0.8289891099587082
1783169628153809400,10.219809326171875,-0.3065139266014099,0.4089133938461542,-0.6751597535975277
1783169628163757300,10.22975732421875,-0.18365151704251764,0.31500410704910753,-0.5891308447867631
1783169628173736400,10.239736328125,0.0026636662513017653,0.2753758610159159,-0.459860358283855
1783169628183685400,10.249685302734376,0.20760697764754293,0.2630225753992796,-0.35673085973151025
1783169628193634300,10.25963427734375,0.3473959720879793,0.23259938008487224,-0.2966565859863534
1783169628203583200,10.269583251953126,0.43297699100077147,0.17551438781619072,-0.36967027467302976
1783169628213562400,10.279562255859375,0.5858475853323936,0.1963537622272968,-0.5676178088977932
1783169628223511300,10.28951123046875,0.789714207407832,0.21805822903513908,-0.7381389184713363
1783169628233459200,10.299459228515625,0.9016776218116282,0.22194939125478266,-0.7953021636079997
1783169628243439000,10.309439208984376,1.078721703413129,0.24790859289765357,-0.8316554796237497
1783169628253387300,10.31938720703125,1.3105904311358927,0.31478958751559255,-0.8216605206362902
1783169628263336200,10.329336181640626,1.4468483288407326,0.3127244716793299,-0.808816528893262
1783169628273285000,10.33928515625,1.606641415911913,0.2389145545810461,-0.7602505778405815
1783169628283271400,10.349271484375,1.74728673492074,0.18312953899502754,-0.6554686724387109
1783169628293220400,10.359220458984375,1.7610855431705712,0.1211170271962881,-0.4764247222568839
1783169628303169500,10.36916943359375,1.7632815919101237,0.04598901323676109,-0.2779319021742791
1783169628313148400,10.3791484375,1.8031880703628063,-0.007381342422962189,-0.1317125093601644
1783169628323097300,10.389097412109376,1.735604480433464,-0.045423196047544474,-0.03968158365562558
1783169628333045500,10.39904541015625,1.5543810673207044,-0.02722761414349079,0.0018137714236974715
1783169628342994400,10.408994384765625,1.3865128103435038,0.03417991749942303,-0.02272336152680218
1783169628352973600,10.4189736328125,1.2869856836646794,0.06281915200650692,-0.0880754295444116
1783169628362922500,10.428922607421875,1.1927508181750774,0.06357435428798199,-0.20010200884491203
1783169628372871400,10.438871337890625,1.1680910086929797,0.07681728222072123,-0.28944325707405805
1783169628382850300,10.448850341796875,1.242327042248845,0.14857728105187415,-0.28177177259810265
1783169628392799500,10.458799560546876,1.3656611609727143,0.18431319582164288,-0.22946371240764854
1783169628402747400,10.468747314453125,1.5699673435091972,0.1449038532361388,-0.1335535341169685
1783169628412696300,10.4786962890625,1.7599883955836295,0.053340545043349265,-0.03331599414646625
1783169628422675500,10.488675537109375,1.8138468270212411,-0.07006254726350307,0.04415229932889342
1783169628432624400,10.498624267578125,1.8282400940328836,-0.22061463551968336,0.04430453074853867
1783169628442573300,10.5085732421875,1.8316425959527491,-0.35518384948521853,-0.008402063772827387
1783169628452552200,10.51855224609375,1.6742191606223582,-0.4463564047947526,-0.07523914618380367
1783169628462501400,10.52850146484375,1.4086609292656183,-0.5714198315292597,-0.21605931030288336
1783169628472450600,10.538450439453126,1.2516104189008475,-0.6703717886686325,-0.3758034436658025
1783169628482398500,10.5483984375,1.1447294223278761,-0.6853560073107481,-0.5042111393269151
1783169628492378400,10.55837841796875,0.9427718487441539,-0.7296899468168616,-0.6724103087589144
1783169628502326500,10.568326416015625,0.804431299546361,-0.824895995426178,-0.7767930587753653
1783169628512275500,10.578275390625,0.751502257913351,-0.8546721250087023,-0.7734528084367513
1783169628522254600,10.588254638671875,0.738833330476284,-0.9007204672172665,-0.7387060508348048
1783169628532203500,10.59820361328125,0.8073392959475517,-1.01849841311872,-0.7190022563248872
1783169628542152400,10.60815234375,0.751724376231432,-1.172430499202013,-0.7206199937198311
1783169628552100400,10.618100341796875,0.5553589235663414,-1.335491940419376,-0.7198029051832854
1783169628562080300,10.628080322265625,0.3359112859994173,-1.4794175962731242,-0.7012969421558082
1783169628572028400,10.6380283203125,0.08939736233055591,-1.5535595218047498,-0.686353055524081
1783169628581977300,10.647977294921875,-0.1369154848307371,-1.6482339477553962,-0.7296449386313557
1783169628591956500,10.65795654296875,-0.2421943069040775,-1.6768617840856312,-0.7593803708773106
1783169628601905400,10.667905517578125,-0.4657499643117189,-1.6079273640692233,-0.7468395998645574
1783169628611854300,10.677854248046875,-0.6445470270603895,-1.593403456415236,-0.726621572222188
1783169628621803300,10.68780322265625,-0.638488457673788,-1.6309353146910666,-0.7170484919086099
1783169628631782400,10.697782470703125,-0.5371586654871702,-1.6807105684682726,-0.5607315565153956
1783169628641731600,10.707731689453125,-0.3148088767379522,-1.9302432554364204,-0.08638751299008726
1783169628651679500,10.717679443359375,-0.4828209261000156,-2.2060306198626756,0.42516734016314145
1783169628661659400,10.727659423828126,-1.2921709773480892,-2.1273513431623576,0.5480331107228994
1783169628671607600,10.737607666015625,-2.3885832357525825,-2.001884304063022,0.40402671778313815
1783169628681556500,10.747556396484375,-2.8944156196057795,-1.8676780781909823,0.04343406805694103
1783169628691505400,10.75750537109375,-2.6542104406923053,-1.3614035035282372,-0.38571825008913874
1783169628701484500,10.767484619140625,-2.355357257977128,-0.5709609818458556,-0.8711250279638916
1783169628711433500,10.77743359375,-2.1231255421608686,0.2024786748483777,-1.2383870724514126
1783169628721381400,10.78738134765625,-1.8965023138761519,0.6317603184625507,-1.372153737862408
1783169628731361300,10.797361328125,-1.3642273287773132,0.6366022055357694,-1.4559575179696083
1783169628741309400,10.807309326171875,-0.43201194536089893,0.6775482561692595,-1.4640551919683813
1783169628751258400,10.81725830078125,0.04696282670497894,0.7711305029690265,-1.139419187090546
1783169628761207300,10.827207275390625,0.11117080272138118,0.6571604249179362,-0.6449706592999398
1783169628771186400,10.8371865234375,0.4099386452406645,0.3993371717274189,0.003978913568332791
1783169628781135400,10.84713525390625,0.6909194866567849,0.18953268403559922,0.5870862602818757
1783169628791084300,10.857084228515625,0.6849217075467109,0.10742810906171799,0.9071022041436284
1783169628801063400,10.8670634765625,0.4464870454370975,0.07831336599737405,0.9802137637142091
1783169628811012600,10.8770126953125,0.2752951969951391,0.1245443712964654,0.8214484122555702
1783169628820960300,10.886960205078125,0.09562018236815929,0.2538528882548213,0.5646162159290165
1783169628830909400,10.896909423828125,-0.07114508180320263,0.36094928114414215,0.3291740136336535
1783169628840888600,10.906888671875,-0.04886486093401909,0.40557898872643705,0.12486249733492731
1783169628850837500,10.91683740234375,0.024724691411852837,0.4692331302523613,-0.008042582810670136
1783169628860786400,10.926786376953125,0.01982815154194832,0.5017652805447578,-0.05426233606338501
1783169628870765600,10.936765625,0.07818915509581566,0.49345396379530426,-0.017366072277352214
1783169628880714500,10.946714599609376,0.34491350762248035,0.4961147074371576,0.09156075090952218
1783169628890662400,10.956662353515625,0.6476636977761984,0.5371642184451222,0.20363763562515377
1783169628900611300,10.966611328125,0.9165057731091976,0.5864765308856964,0.31916151898950335
1783169628910590500,10.976590576171875,1.1361615004688501,0.6246037247061729,0.40647871404513714
1783169628920539400,10.986539306640625,1.2564666267603635,0.6624240445345639,0.5080750482134521
1783169628930488300,10.99648828125,1.2767939599961042,0.7080021388828754,0.6224225082095712
1783169628940467500,11.006467529296875,1.2951456092447042,0.7148001284599304,0.6390639194741845
1783169628950416400,11.01641650390625,1.4249749352067709,0.6519938359349966,0.5236585479229688
1783169628960365300,11.026365234375,1.4827707060933113,0.574392125338316,0.4308223702501505
1783169628970313200,11.036313232421875,1.4962953735768794,0.45097588128894567,0.42155894040763375
1783169628980293600,11.046293701171875,1.5770926653444766,0.322304785451293,0.44161564000844955
1783169628990241300,11.0562412109375,1.6642320196151732,0.19549597635418176,0.4387559397283941
1783169629000190500,11.0661904296875,1.6804384735286235,0.04379559484571218,0.4368985483586788
1783169629010169600,11.076169677734375,1.6383768628686666,-0.1487774797990918,0.407792865383625
1783169629020118500,11.086118408203125,1.5853379311203957,-0.3060699822261929,0.3631239948347211
1783169629030067500,11.0960673828125,1.5267887115180492,-0.37993279855549333,0.30468934152275323
1783169629040015400,11.106015380859375,1.3877204325675963,-0.37728053048104043,0.24800226253047583
1783169629049995500,11.11599560546875,1.2359323727756737,-0.3715034083843231,0.19571677949801086
1783169629059943400,11.125943359375,1.057335216513276,-0.3720867612302303,0.2135730464451015
1783169629069892400,11.135892333984375,0.8857797954559326,-0.39859629023224113,0.24765469120182096
1783169629079871500,11.14587158203125,0.8686644100040197,-0.40067631137669085,0.2788759780913591
1783169629089820400,11.1558203125,0.8584276781499385,-0.4004039241760969,0.2765266384862363
1783169629099769300,11.165769287109375,0.8052478766262531,-0.4690370231583714,0.2270403211856261
1783169629109718300,11.17571826171875,0.7851689651936292,-0.5287848048955202,0.20960392361842095
1783169629119697400,11.185697509765625,0.7574936072826385,-0.5989402911394834,0.2928961740069091
1783169629129646300,11.195646240234375,0.7287970896303654,-0.6880638049647212,0.3911178441103548
1783169629139594200,11.20559423828125,0.6319166780680417,-0.861770851098001,0.4181185541627928
1783169629149574400,11.215574462890626,0.44502632523477076,-1.0332397629156709,0.43526923012379554
1783169629159522300,11.225522216796875,0.1973304983049631,-1.032278808929026,0.4408216035539284
1783169629169471500,11.235471435546875,-0.06778057380616664,-0.9577002455458045,0.3317163185276091
1783169629179420400,11.24542041015625,-0.24768296744823454,-0.9497884495079517,0.2658433319084346
1783169629189399600,11.255399658203125,-0.51617783677876,-1.0116320344805716,0.18651297088824212
1783169629199348500,11.265348388671875,-0.7424544435828924,-1.0219272185236215,0.0915710531078279
1783169629209296400,11.27529638671875,-0.9289262787431478,-0.9852055075868964,0.0004680559031665325
1783169629219276500,11.285276611328126,-1.043754434928298,-0.9334925637453794,-0.1223551541564986
1783169629229224400,11.295224365234375,-1.191438566532731,-0.8661471664860844,-0.24267861982230096
1783169629239173400,11.30517333984375,-1.3373387373298407,-0.7622910706922411,-0.37256219672225416
1783169629249122300,11.315122314453125,-1.338583768954873,-0.6879752498984336,-0.50060712348558
1783169629259101400,11.325101318359375,-1.2107482471585274,-0.7182420856073498,-0.5943492735547945
1783169629269050400,11.33505029296875,-0.9168763599872588,-0.8977773995026945,-0.5595491417977959
1783169629279029200,11.345029296875,-0.719385118162632,-1.1503069301992654,-0.3963441273912787
1783169629289008400,11.35500830078125,-1.0056424386769534,-1.2940259575650095,-0.22312318427450953
1783169629298957300,11.364957275390625,-1.3926678258419036,-1.3700158490508794,-0.18507497397437692
1783169629308905500,11.374905517578124,-1.512502996534109,-1.4396148704558611,-0.23374190118350088
1783169629318854400,11.3848544921875,-1.6135943037897347,-1.3731824963882564,-0.33836233241334557
1783169629328833300,11.394833251953125,-1.8724013073205947,-1.0940978439822793,-0.5392935586240142
1783169629338782200,11.4047822265625,-2.081008986443281,-0.7325900521725416,-0.8450936378676444
1783169629348731400,11.4147314453125,-2.1092478234559295,-0.3494765777543187,-1.2459271125674247
1783169629358710300,11.424710205078124,-2.078111511436105,-0.08399871815741061,-1.6306904000192879
1783169629368659200,11.4346591796875,-1.878320175975561,0.11489888333380222,-1.8671274585708975
1783169629378607400,11.444607421875,-1.4732663801670074,0.32794220681637526,-1.8781348825365305
1783169629388556300,11.454556396484374,-1.1140525445133447,0.4058379319235682,-1.6215296268336474
1783169629398535200,11.46453515625,-0.9350514836251735,0.35094460448026654,-1.227145839729905
1783169629408484000,11.474484130859375,-0.7913906161874532,0.3027422991082072,-0.9472742747299373
1783169629418433300,11.484433349609375,-0.5515542705863714,0.2543044314146042,-0.7791722089968621
1783169629428412200,11.494412109375,-0.3152279789328575,0.26502982356846333,-0.7189272183272987
1783169629438361000,11.504361083984374,-0.12773849116265773,0.389681746892631,-0.788034656823054
1783169629448310300,11.514310302734375,0.042568975660204886,0.5064888019353151,-0.9858112183950841
1783169629458258400,11.524258544921874,0.2821756041586399,0.5921688973084092,-1.1521994659475983
1783169629468238300,11.53423828125,0.5470856007397175,0.7019909157693386,-1.2206626151904463
1783169629478186500,11.5441865234375,0.7491372823476791,0.7838637278139591,-1.228152240293473
1783169629488135400,11.554135498046875,1.0135919363766908,0.841311708176136,-1.195080649362132
1783169629498114300,11.5641142578125,1.318050099492073,0.8160776059374213,-1.153212442382425
1783169629508063200,11.574063232421874,1.5514304008215665,0.7037284070864319,-1.0652454781811684
1783169629518012200,11.58401220703125,1.6913766316503285,0.5905380812361836,-0.9822709885049611
1783169629527960300,11.593960205078124,1.7708897288262844,0.4780336918234825,-0.8952953734286129
1783169629537940200,11.603940185546875,1.9322516726493835,0.4108274107739329,-0.8449319444999098
1783169629547888400,11.613888427734375,1.9860417150259018,0.3367433529093861,-0.8242399426702409
1783169629557837300,11.62383740234375,1.9177233810812233,0.31062282322496176,-0.7979608614232391
1783169629567786200,11.6337861328125,1.87496502032876,0.31752164282798767,-0.7693641508836299
1783169629577765000,11.64376513671875,1.7691233036756515,0.3083490330740809,-0.7542677771039307
1783169629587714300,11.65371435546875,1.6783119828939437,0.3030351445749402,-0.8032308377154171
1783169629597663200,11.663663330078125,1.610770478540659,0.28523557625114915,-0.8689112974371761
1783169629607642000,11.67364208984375,1.51356448828578,0.2898112136036157,-0.9084763420410453
1783169629617591300,11.68359130859375,1.3859002314031124,0.2888952678024769,-0.937443347197771
1783169629627539200,11.693539306640625,1.225045652580261,0.22598522264212367,-1.034417793719098
1783169629637488400,11.70348828125,1.013531730622053,0.06995353393107652,-1.1290887125384061
1783169629647467300,11.71346728515625,0.8663193081825971,-0.14439298110455273,-1.1569278096437454
1783169629657416400,11.72341650390625,0.7550573200464248,-0.289905906149745,-1.187152194450423
1783169629667365400,11.733365478515625,0.5464753598868847,-0.3837003343954682,-1.2703031366720794
1783169629677344300,11.74334423828125,0.40649347322285173,-0.47343759620487685,-1.4021781431175768
1783169629687293200,11.753293212890625,0.4924222826600074,-0.46749125502109523,-1.4057986717022954
1783169629697242400,11.763242431640625,0.5457388623058795,-0.4221744419574737,-1.2682757224977015
1783169629707190300,11.773190185546875,0.5594406399220228,-0.3508402673229575,-0.9909025501847266
1783169629717169400,11.78316943359375,0.516716765961051,-0.3692565062403679,-0.6830344324953853
1783169629727118300,11.793118408203124,0.5303840567857027,-0.508866929243505,-0.4620529729573056
1783169629737067300,11.8030673828125,0.5626455734431743,-0.674645520465076,-0.2822863710567355
1783169629747046100,11.813046142578125,0.5727075332522392,-0.7861632369279861,-0.1542367681182921
1783169629756995300,11.822995361328125,0.6243488731622695,-0.872099352888763,-0.06260623990818857
1783169629766944300,11.8329443359375,0.659115650638938,-0.9586939327582716,-0.043724283175170416
1783169629776892200,11.84289208984375,0.5965764846175908,-1.0746475858420133,-0.11498130092024803
1783169629786872300,11.852872314453125,0.5725058732002973,-1.1795131509393453,-0.2756638111118227
1783169629796820200,11.8628203125,0.5367249502450228,-1.18136959246099,-0.4483382262617349
1783169629806769400,11.872769287109374,0.33257541957497594,-1.1387693448796867,-0.6032076662603766
1783169629816748300,11.882748291015625,0.09353110113441944,-1.0994999952867626,-0.612819617279619
1783169629826697500,11.892697509765625,-0.01845335605740547,-1.0264856124803423,-0.6582556728087365
1783169629836646400,11.902646484375,0.1199234334975481,-0.9047007690250873,-0.5874902379728854
1783169629846595300,11.91259521484375,0.6305979966849088,-1.0421885007858276,0.03296703457832336
1783169629856574200,11.92257421875,2.5467618733644484,-1.7400977001994846,1.6335466662332414
1783169629866523400,11.9325234375,0.9909288536697626,-2.6168694288134575,2.716739085319638
1783169629876471300,11.94247119140625,-0.21894377969801423,-2.266856552225351,1.9423038417167962
1783169629886450200,11.9524501953125,-1.263474459695816,-1.5813450620919465,0.8192087435699998
1783169629896399400,11.9623994140625,-1.9348294141829012,-1.6419003608196974,0.29623949308544395
1783169629906348300,11.972348388671875,-2.242356317219138,-1.4456693481892346,0.20327588964067397
1783169629916297200,11.982297119140625,-2.4671318718105555,-0.7528174321651459,-0.12129903269968927
