time,seconds_elapsed,z,y,x
1783169618026891800,0.092891845703125,0.25770825147628784,-0.1317548304796219,0.20050805807113647
1783169618036840700,0.1028408203125,0.29800158739089966,-0.20816785097122192,0.12083321064710617
1783169618046788600,0.11278857421875,0.34965386986732483,-0.23486097157001495,0.0054637412540614605
1783169618056768800,0.122768798828125,0.3961547911167145,-0.22824355959892273,-0.14194221794605255
1783169618066716700,0.132716552734375,0.43722179532051086,-0.20341916382312775,-0.26489877700805664
1783169618076665600,0.14266552734375,0.4484632611274719,-0.13206376135349274,-0.3509087562561035
1783169618086614800,0.15261474609375,0.4217131435871124,0.00577826052904129,-0.3913794755935669
1783169618096593700,0.16259375,0.3569487929344177,0.1196422427892685,-0.3750103712081909
1783169618106542800,0.17254296875,0.2705233693122864,0.1678377389907837,-0.30502408742904663
1783169618116491800,0.18249169921875,0.17768344283103943,0.1549437791109085,-0.2061728686094284
1783169618126471000,0.192470947265625,0.08609786629676819,0.0926753431558609,-0.10554027557373047
1783169618136419800,0.202419921875,0.01912602409720421,-0.006551908794790506,-0.015603993088006973
1783169618146367700,0.21236767578125,-0.009153550490736961,-0.11269645392894745,0.03960493206977844
1783169618156316700,0.222316650390625,0.0019630161114037037,-0.17686238884925842,0.07256847620010376
1783169618166295800,0.2322958984375,0.04177221283316612,-0.15192268788814545,0.09703120589256287
1783169618176244700,0.24224462890625,0.08737591654062271,-0.07493069767951965,0.11638066917657852
1783169618186193700,0.252193603515625,0.12624821066856384,-0.02365206554532051,0.13748861849308014
1783169618196172800,0.2621728515625,0.1436237394809723,-0.017421068623661995,0.1537829041481018
1783169618206121700,0.272121826171875,0.1379789113998413,-0.03437661752104759,0.1829727441072464
1783169618216070700,0.282070556640625,0.10684895515441895,-0.08304747939109802,0.21858054399490356
1783169618226018600,0.2920185546875,0.059779178351163864,-0.14977777004241943,0.2530413269996643
1783169618235997700,0.301997802734375,0.007698665838688612,-0.20067743957042694,0.27208957076072693
1783169618245946600,0.311946533203125,-0.04114264249801636,-0.24444089829921722,0.26626524329185486
1783169618255895600,0.3218955078125,-0.07703272998332977,-0.2934627830982208,0.23436430096626282
1783169618265874700,0.331874755859375,-0.09018395841121674,-0.33415400981903076,0.1759079098701477
1783169618275837700,0.341837646484375,-0.09518536925315857,-0.3904329836368561,0.0794125348329544
1783169618285786600,0.35178662109375,-0.09438376128673553,-0.4461415410041809,-0.037643782794475555
1783169618295734500,0.361734619140625,-0.09243912249803543,-0.4620981216430664,-0.14403307437896729
1783169618305714700,0.371714599609375,-0.09086545556783676,-0.4100660979747772,-0.20897053182125092
1783169618315662600,0.38166259765625,-0.09315098077058792,-0.26196715235710144,-0.2253021001815796
1783169618325611500,0.391611572265625,-0.09984750300645828,-0.05576259642839432,-0.19664674997329712
1783169618335560400,0.401560546875,-0.11342988908290863,0.04397757723927498,-0.17565757036209106
1783169618345539600,0.41153955078125,-0.13140968978405,-0.033413615077733994,-0.2067212164402008
1783169618355488500,0.421488525390625,-0.1564497947692871,-0.20888210833072662,-0.3031952977180481
1783169618365437400,0.4314375,-0.21753445267677307,-0.4118698537349701,-0.4416674077510834
1783169618375416600,0.44141650390625,-0.3181318938732147,-0.6013505458831787,-0.5912553071975708
1783169618385365800,0.45136572265625,-0.41260966658592224,-0.6882731914520264,-0.7087965607643127
1783169618395313400,0.4613134765625,-0.45653584599494934,-0.6118311882019043,-0.7566817998886108
1783169618405262600,0.4712626953125,-0.4325349032878876,-0.41229861974716187,-0.7254636883735657
1783169618415241700,0.48124169921875,-0.34732121229171753,-0.1633646935224533,-0.6193841695785522
1783169618425190700,0.491190673828125,-0.2327437698841095,0.08672211319208145,-0.45107078552246094
1783169618435139600,0.5011396484375,-0.12637072801589966,0.21018946170806885,-0.2440856397151947
1783169618445118700,0.51111865234375,-0.05721641704440117,0.16589975357055664,-0.027767715975642204
1783169618455067600,0.521067626953125,-0.0423719584941864,0.006384662352502346,0.1709429770708084
1783169618465015600,0.531015625,-0.08518093824386597,-0.19706059992313385,0.3326597213745117
1783169618474964700,0.54096484375,-0.14761902391910553,-0.35840314626693726,0.4544050395488739
1783169618484943600,0.550943603515625,-0.19608855247497559,-0.4106232225894928,0.523466169834137
1783169618494892500,0.560892578125,-0.2193022519350052,-0.36402297019958496,0.5365481376647949
1783169618504841500,0.570841552734375,-0.2299671471118927,-0.2684197425842285,0.4842119514942169
1783169618514820600,0.580820556640625,-0.22700199484825134,-0.13974910974502563,0.38132765889167786
1783169618524769500,0.59076953125,-0.22879642248153687,-0.017250092700123787,0.2777796983718872
1783169618534718500,0.600718505859375,-0.24576902389526367,0.06412359327077866,0.19753597676753998
1783169618544666600,0.61066650390625,-0.2724299132823944,0.10581032186746597,0.16296948492527008
1783169618554646500,0.620646484375,-0.30463045835494995,0.13123099505901337,0.16862815618515015
1783169618564594400,0.630594482421875,-0.33937621116638184,0.1458733230829239,0.21139852702617645
1783169618574543600,0.640543701171875,-0.3640466630458832,0.12360981851816177,0.27242887020111084
1783169618584522800,0.650522705078125,-0.3856361210346222,0.044266797602176666,0.3286231458187103
1783169618594471700,0.6604716796875,-0.4156246483325958,-0.0770532414317131,0.3510323166847229
1783169618604420600,0.670420654296875,-0.447066992521286,-0.1736820489168167,0.34541839361190796
1783169618614368800,0.68036865234375,-0.4577830135822296,-0.1930336356163025,0.3119794726371765
1783169618624348700,0.6903486328125,-0.4455026388168335,-0.15134930610656738,0.2695379853248596
1783169618634296600,0.700296630859375,-0.40597227215766907,-0.11044954508543015,0.2206503450870514
1783169618644245500,0.71024560546875,-0.351246178150177,-0.06534039229154587,0.1855488270521164
1783169618654224600,0.720224609375,-0.3016336262226105,-0.034338001161813736,0.15968500077724457
1783169618664173600,0.730173583984375,-0.2627597153186798,-0.0510738380253315,0.15468332171440125
1783169618674122500,0.74012255859375,-0.2298148274421692,-0.1201663538813591,0.18632753193378448
1783169618684071400,0.750071533203125,-0.18498636782169342,-0.22394254803657532,0.22338008880615234
1783169618694050600,0.760050537109375,-0.24170610308647156,-0.2511211633682251,0.21432028710842133
1783169618703999500,0.76999951171875,-0.31304073333740234,-0.2761666178703308,0.20280078053474426
1783169618713947600,0.77994775390625,-0.3596963882446289,-0.3418087363243103,0.20582826435565948
1783169618723927600,0.789927490234375,-0.42380374670028687,-0.36337366700172424,0.19230979681015015
1783169618733875500,0.79987548828125,-0.4751012623310089,-0.3296673893928528,0.18476904928684235
1783169618743824600,0.80982470703125,-0.5260563492774963,-0.2785557210445404,0.172090545296669
1783169618753773600,0.819773681640625,-0.5518937706947327,-0.23734012246131897,0.13076867163181305
1783169618763752700,0.829752685546875,-0.532135009765625,-0.17506076395511627,0.07855606079101562
1783169618773701600,0.83970166015625,-0.4780813455581665,-0.09584689885377884,0.03442348912358284
1783169618783649800,0.84964990234375,-0.4070625603199005,-0.09775878489017487,-0.014299044385552406
1783169618793629700,0.859629638671875,-0.3454972207546234,-0.1876543164253235,-0.04625324904918671
1783169618803577600,0.86957763671875,-0.31316137313842773,-0.2694772779941559,-0.04398343712091446
1783169618813526500,0.879526611328125,-0.3085189461708069,-0.29222947359085083,-0.02231515944004059
1783169618823475700,0.889475830078125,-0.18787163496017456,-0.12638163566589355,-0.03682618960738182
1783169618833454600,0.89945458984375,-0.04760586842894554,0.17066335678100586,-0.04836487025022507
1783169618843403500,0.909403564453125,0.09560375660657883,0.3569362759590149,-0.02978639118373394
1783169618853352400,0.9193525390625,0.15625245869159698,0.3529900014400482,0.019346000626683235
1783169618863331600,0.92933154296875,0.16600175201892853,0.27142617106437683,0.07176580280065536
1783169618873280500,0.939280517578125,0.18151386082172394,0.2218133509159088,0.12181165814399719
1783169618883228400,0.949228515625,0.2216642200946808,0.1644885390996933,0.18693393468856812
1783169618893177600,0.959177490234375,0.22163918614387512,0.10791874676942825,0.25388792157173157
1783169618903156500,0.969156494140625,0.16625235974788666,0.05076837167143822,0.3334307074546814
1783169618913105400,0.97910546875,0.07500127702951431,0.006671485025435686,0.42942488193511963
1783169618923054600,0.9890546875,-0.0012029499048367143,0.21299989521503448,0.506576657295227
1783169618933033700,0.99903369140625,-0.004336957819759846,0.683582067489624,0.6508051753044128
1783169618942982700,1.008982666015625,0.028866801410913467,1.0842649936676025,0.7959101796150208
1783169618952930800,1.018930908203125,0.06964778900146484,1.1433051824569702,0.9265171885490417
1783169618962879700,1.028879638671875,0.05822468921542168,0.7966212630271912,0.994049608707428
1783169618972858600,1.038858642578125,-0.012779710814356804,0.17030781507492065,0.9576959013938904
1783169618982807600,1.0488076171875,-0.12542396783828735,-0.5270374417304993,0.8136577606201172
1783169618992756500,1.058756591796875,-0.25566452741622925,-1.0410717725753784,0.5854530930519104
1783169619002735600,1.068735595703125,-0.36203891038894653,-1.2187386751174927,0.31517764925956726
1783169619012684500,1.0786845703125,-0.3975929021835327,-1.0290086269378662,0.06937241554260254
1783169619022633500,1.088633544921875,-0.38432690501213074,-0.6332387328147888,-0.13534609973430634
1783169619032581600,1.09858154296875,-0.35502466559410095,-0.15679973363876343,-0.2625724971294403
1783169619042561500,1.1085615234375,-0.3142703175544739,0.2760781943798065,-0.2966811954975128
1783169619052509400,1.118509521484375,-0.2662647068500519,0.5295333862304688,-0.24035002291202545
1783169619062458600,1.128458740234375,-0.21334263682365417,0.5499515533447266,-0.13260038197040558
1783169619072437500,1.1384375,-0.12320102751255035,0.3909674882888794,-0.003750795964151621
1783169619082386400,1.148386474609375,0.011835354380309582,0.17199386656284332,0.10132795572280884
1783169619092335600,1.158335693359375,0.15647189319133759,-0.09631801396608353,0.13172714412212372
1783169619102283800,1.16828369140625,0.3115600049495697,-0.45222657918930054,0.09295843541622162
1783169619112263700,1.178263671875,0.4657820761203766,-0.7460406422615051,0.02737436629831791
1783169619122211600,1.188211669921875,0.5686445236206055,-0.888310968875885,-0.04357144609093666
1783169619132160800,1.198160888671875,0.5748412013053894,-0.905124843120575,-0.12404657900333405
1783169619142139600,1.2081396484375,0.49152180552482605,-0.9158506989479065,-0.216046541929245
1783169619152088600,1.218088623046875,0.3862435817718506,-0.9866974353790283,-0.34405776858329773
1783169619162037500,1.22803759765625,0.32474586367607117,-0.8773152828216553,-0.44449383020401
1783169619171986700,1.237986572265625,0.30798205733299255,-0.6364161372184753,-0.512117326259613
1783169619181965600,1.247965576171875,0.30578893423080444,-0.37350353598594666,-0.5684298872947693
1783169619191914500,1.25791455078125,0.29720452427864075,-0.16248637437820435,-0.6210587620735168
1783169619201862700,1.267862548828125,0.27986040711402893,-0.10854431986808777,-0.6762388944625854
1783169619211842600,1.277842529296875,0.22800999879837036,-0.19080403447151184,-0.7128390073776245
1783169619221790500,1.28779052734375,0.1489253044128418,-0.2918475568294525,-0.7263699769973755
1783169619231739600,1.29773974609375,0.07206061482429504,-0.35456207394599915,-0.6931627988815308
1783169619241688600,1.3076884765625,-0.04246729984879494,-0.34209901094436646,-0.6209873557090759
1783169619251667500,1.31766748046875,-0.20517098903656006,-0.21029891073703766,-0.5149229764938354
1783169619261616600,1.32761669921875,-0.4133654832839966,-0.005851231049746275,-0.39670661091804504
1783169619271564800,1.337564697265625,-0.5943232774734497,0.20248785614967346,-0.291171133518219
1783169619281588000,1.347587890625,-0.6603190898895264,0.3920266330242157,-0.2140401154756546
1783169619291536100,1.3575361328125,-0.6235019564628601,0.5003930330276489,-0.18070480227470398
1783169619301485000,1.367485107421875,-0.5084201097488403,0.4497501254081726,-0.19637323915958405
1783169619311434000,1.37743408203125,-0.3652498722076416,0.2839457094669342,-0.2570813298225403
1783169619321413000,1.3874130859375,-0.2505168914794922,0.10040490329265594,-0.3382992148399353
1783169619331362000,1.397362060546875,-0.1834758222103119,-0.003973968792706728,-0.4265452027320862
1783169619341311000,1.40731103515625,-0.14412760734558105,-0.022777484729886055,-0.5119042992591858
1783169619351290000,1.4172900390625,-0.1044907197356224,-0.01715741492807865,-0.5938093066215515
1783169619361239000,1.427239013671875,-0.028086230158805847,-0.10711447149515152,-0.6638554930686951
1783169619371187000,1.43718701171875,0.07297433912754059,-0.2273559272289276,-0.6760274767875671
1783169619381136000,1.447135986328125,0.12318984419107437,-0.2711111307144165,-0.5981241464614868
1783169619391115000,1.457114990234375,0.11851146817207336,-0.221332386136055,-0.4367016851902008
1783169619401064000,1.46706396484375,0.07947644591331482,-0.13496527075767517,-0.22426612675189972
1783169619411012900,1.477012939453125,0.033374469727277756,-0.03353399038314819,-0.028848959133028984
1783169619420992000,1.486991943359375,-0.004788363818079233,0.022180935367941856,0.11709146946668625
1783169619430941000,1.49694091796875,-0.04448304697871208,0.03289509937167168,0.18680982291698456
1783169619440888800,1.506888916015625,-0.06645891815423965,0.02008635923266411,0.18372082710266113
1783169619450838000,1.516838134765625,-0.06335446983575821,0.0013235911028459668,0.11827311664819717
1783169619460817200,1.526817138671875,-0.09259464591741562,0.049431730061769485,0.010526943020522594
1783169619470766000,1.53676611328125,-0.14589355885982513,0.15198633074760437,-0.08375854790210724
1783169619480715000,1.546715087890625,-0.18126140534877777,0.044977061450481415,-0.21466675400733948
1783169619490664000,1.556663818359375,-0.20211848616600037,-0.21505451202392578,-0.3696664571762085
1783169619500643000,1.56664306640625,-0.2036026567220688,-0.4651769995689392,-0.5202192068099976
1783169619510592000,1.576592041015625,-0.1649540662765503,-0.5363380312919617,-0.6353151798248291
1783169619520540000,1.586539794921875,-0.09414194524288177,-0.443482905626297,-0.655129075050354
1783169619530520000,1.59652001953125,-0.050638411194086075,-0.3628793954849243,-0.5960769653320312
1783169619540468000,1.606468017578125,-0.04319753870368004,-0.2052958905696869,-0.4353565275669098
1783169619550417000,1.6164169921875,-0.06781952828168869,0.006924751214683056,-0.19826701283454895
1783169619560365800,1.62636572265625,-0.14088362455368042,0.06043165177106857,0.04571928456425667
1783169619570345000,1.636344970703125,-0.2492883950471878,-0.09840113669633865,0.22800493240356445
1783169619580294000,1.6462939453125,-0.3679226338863373,-0.3722231090068817,0.30504778027534485
1783169619590241800,1.65624169921875,-0.4996289908885956,-0.625389575958252,0.2745455503463745
1783169619600222000,1.666221923828125,-0.6454993486404419,-0.7845592498779297,0.14116644859313965
1783169619610169900,1.676169921875,-0.7533976435661316,-0.7751860022544861,-0.05519534647464752
1783169619620119000,1.686119140625,-0.7904120683670044,-0.5565546154975891,-0.27904894948005676
1783169619630068000,1.69606787109375,-0.7232010960578918,-0.18173465132713318,-0.4947394132614136
1783169619640047000,1.706047119140625,-0.5682253837585449,0.22589890658855438,-0.6519021391868591
1783169619649996000,1.71599609375,-0.38956427574157715,0.5239077210426331,-0.7230721712112427
1783169619659945000,1.725945068359375,-0.25032514333724976,0.646908700466156,-0.6796261668205261
1783169619669924000,1.735924072265625,-0.18072503805160522,0.6038179993629456,-0.5389721393585205
1783169619679873000,1.745873046875,-0.15736645460128784,0.4133513569831848,-0.34401488304138184
1783169619689821000,1.755821044921875,-0.14922410249710083,0.1216055303812027,-0.14392894506454468
1783169619699769900,1.765769775390625,-0.13333755731582642,-0.1598288118839264,0.0462774820625782
1783169619709749000,1.7757490234375,-0.1053306832909584,-0.36809414625167847,0.2175901085138321
1783169619719698000,1.785697998046875,-0.08842413872480392,-0.5228099226951599,0.3464205265045166
1783169619729646800,1.795646728515625,-0.08761986345052719,-0.6242654323577881,0.4221706986427307
1783169619739626000,1.8056259765625,-0.09797795861959457,-0.648248553276062,0.4243435561656952
1783169619749575000,1.815574951171875,-0.11109483242034912,-0.6050094962120056,0.37653234601020813
1783169619759523800,1.82552392578125,-0.14049586653709412,-0.5072168707847595,0.2963445782661438
1783169619769472000,1.835471923828125,-0.18973290920257568,-0.3580007553100586,0.19832773506641388
1783169619779451000,1.845450927734375,-0.25576120615005493,-0.20721523463726044,0.09789380431175232
1783169619789400000,1.855400146484375,-0.32886016368865967,-0.08551596850156784,-0.0065231467597186565
1783169619799349000,1.865348876953125,-0.402536541223526,-0.01257810927927494,-0.1073530912399292
1783169619809328000,1.875328125,-0.4723225235939026,0.01014185044914484,-0.19111190736293793
1783169619819277000,1.885277099609375,-0.5391114354133606,-0.00475507415831089,-0.2466268241405487
1783169619829226000,1.89522607421875,-0.5968911051750183,-0.036730051040649414,-0.27977386116981506
1783169619839174100,1.905174072265625,-0.6465614438056946,-0.04189232364296913,-0.288707971572876
1783169619849154000,1.915154052734375,-0.6771060228347778,-0.02269439399242401,-0.274470716714859
1783169619859102000,1.92510205078125,-0.6771923303604126,0.008415056392550468,-0.2654263377189636
1783169619869051000,1.93505078125,-0.6417680382728577,0.008625179529190063,-0.27332767844200134
1783169619879030000,1.945030029296875,-0.5835087299346924,-0.014184262603521347,-0.2899812161922455
1783169619888979000,1.95497900390625,-0.5122790336608887,-0.029711822047829628,-0.3009539842605591
1783169619898927900,1.964927978515625,-0.4508366882801056,-0.06305087357759476,-0.29769986867904663
1783169619908876800,1.974876708984375,-0.3985878527164459,-0.10658449679613113,-0.272535115480423
1783169619918856000,1.98485595703125,-0.36461392045021057,-0.145699143409729,-0.21302279829978943
1783169619928804900,1.994804931640625,-0.3556302785873413,-0.14577344059944153,-0.1235102191567421
1783169619938752800,2.004752685546875,-0.376422643661499,-0.1088138297200203,-0.01381035428494215
1783169619948732000,2.01473193359375,-0.39974579215049744,-0.07186513394117355,0.07888869196176529
1783169619958680800,2.024680908203125,-0.4123803675174713,-0.09600961953401566,0.1322278082370758
1783169619968630000,2.034630126953125,-0.40943944454193115,-0.14681634306907654,0.13735465705394745
1783169619978579000,2.044578857421875,-0.4082282483577728,-0.15873637795448303,0.1097712367773056
1783169619988558000,2.05455810546875,-0.405527263879776,-0.12080951035022736,0.06654893606901169
1783169619998507000,2.064507080078125,-0.3904463052749634,-0.0623837485909462,0.01378185860812664
1783169620008455000,2.074454833984375,-0.3530121147632599,0.014111291617155075,-0.029882531613111496
1783169620018435000,2.08443505859375,-0.3084491789340973,0.09961527585983276,-0.05801589787006378
1783169620028383000,2.094383056640625,-0.274813711643219,0.16068315505981445,-0.07355091720819473
1783169620038332000,2.104331787109375,-0.25605466961860657,0.210629403591156,-0.07283452898263931
1783169620048280800,2.11428076171875,-0.2532631456851959,0.27610722184181213,-0.039133552461862564
1783169620058260000,2.124260009765625,-0.24191595613956451,0.32155299186706543,-0.00008096009696600959
1783169620068209000,2.134208984375,-0.22554364800453186,0.28955912590026855,0.033665020018815994
1783169620078157800,2.14415771484375,-0.18219749629497528,0.21284249424934387,0.061586666852235794
1783169620088137000,2.154136962890625,-0.11909576505422592,0.1343197226524353,0.09424261003732681
1783169620098086000,2.1640859375,-0.04956355690956116,0.0905994102358818,0.12822294235229492
1783169620108033800,2.17403369140625,0.010093647055327892,0.08237689733505249,0.15422818064689636
1783169620117983000,2.18398291015625,0.05384485423564911,0.09748314321041107,0.16241474449634552
1783169620127961900,2.1939619140625,0.09244471043348312,0.1414031982421875,0.16370292007923126
1783169620137911000,2.2039111328125,0.12434698641300201,0.26980432868003845,0.18104541301727295
1783169620147860000,2.21385986328125,0.14715349674224854,0.4570431709289551,0.22800573706626892
1783169620157839000,2.223839111328125,0.15956568717956543,0.5546402931213379,0.2719084918498993
1783169620167788000,2.2337880859375,0.17866455018520355,0.459065318107605,0.2771727442741394
1783169620177736000,2.24373583984375,0.2012777179479599,0.19533035159111023,0.2241678535938263
1783169620187685000,2.25368505859375,0.20132724940776825,-0.17718276381492615,0.10639381408691406
1783169620197664000,2.2636640625,0.16046717762947083,-0.576359212398529,-0.08207383006811142
1783169620207613000,2.273613037109375,0.09682987630367279,-0.8286367058753967,-0.28628528118133545
1783169620217561900,2.283561767578125,0.0449051558971405,-0.8432098031044006,-0.46178388595581055
1783169620227541000,2.293541015625,0.03141092136502266,-0.6623396277427673,-0.5701247453689575
1783169620237490000,2.303489990234375,0.06591376662254333,-0.3341337740421295,-0.5945994257926941
1783169620247438800,2.31343896484375,0.14832395315170288,0.011460646986961365,-0.536247968673706
1783169620257387000,2.323386962890625,0.244998037815094,0.27977919578552246,-0.42038238048553467
1783169620267367000,2.333366943359375,0.3301438093185425,0.4380977153778076,-0.26092132925987244
1783169620277325300,2.3433251953125,0.3695599436759949,0.49777036905288696,-0.07762608677148819
1783169620287274500,2.3532744140625,0.3462895154953003,0.4476448893547058,0.105416439473629
1783169620297253400,2.36325341796875,0.28369057178497314,0.3060390055179596,0.24687236547470093
1783169620307202600,2.37320263671875,0.22588452696800232,0.09806904196739197,0.3374994695186615
1783169620317151500,2.3831513671875,0.20259198546409607,-0.0969579741358757,0.36737748980522156
1783169620327099600,2.393099609375,0.216062530875206,-0.22287355363368988,0.3369050621986389
1783169620337079600,2.40307958984375,0.24657408893108368,-0.2884531021118164,0.2538208067417145
1783169620347027500,2.41302734375,0.2939477264881134,-0.29969164729118347,0.12651373445987701
1783169620356976400,2.422976318359375,0.34641653299331665,-0.24399694800376892,-0.013792244717478752
1783169620366955500,2.43295556640625,0.37848153710365295,-0.13107413053512573,-0.14391376078128815
1783169620376904400,2.442904541015625,0.3787270784378052,-0.014130732975900173,-0.23984694480895996
1783169620386853400,2.452853271484375,0.3522467315196991,0.08017339557409286,-0.3021042048931122
1783169620396802300,2.46280224609375,0.30364564061164856,0.1556154191493988,-0.32035085558891296
1783169620406781400,2.472781494140625,0.24136069416999817,0.2008039355278015,-0.2995017468929291
1783169620416730400,2.48273046875,0.1824835240840912,0.21464306116104126,-0.25137364864349365
1783169620426678500,2.492678466796875,0.13148052990436554,0.2287418395280838,-0.18350990116596222
1783169620436658400,2.502658447265625,0.10064724832773209,0.20923151075839996,-0.12440451234579086
1783169620446606300,2.5126064453125,0.08674261718988419,0.15265478193759918,-0.08303283154964447
1783169620456555300,2.52255517578125,0.09860966354608536,0.09485647082328796,-0.07298766076564789
1783169620466504400,2.53250439453125,0.13034150004386902,0.028773857280611992,-0.08518893271684647
1783169620476483600,2.542483642578125,0.1781713366508484,-0.014058294706046581,-0.10692138969898224
1783169620486432500,2.5524326171875,0.22214491665363312,0.006514358334243298,-0.11559956520795822
1783169620496380700,2.562380615234375,0.25775378942489624,0.060394901782274246,-0.10992543399333954
1783169620506329600,2.57232958984375,0.27744412422180176,0.08283389359712601,-0.1029207855463028
1783169620516308500,2.58230859375,0.2815190255641937,0.06696704775094986,-0.08459051698446274
1783169620526257400,2.59225732421875,0.26740559935569763,0.035226963460445404,-0.061284128576517105
1783169620536206600,2.60220654296875,0.24101847410202026,-0.02214711345732212,-0.03466237336397171
1783169620546185500,2.612185546875,0.20335152745246887,-0.09370731562376022,-0.01744317263364792
1783169620556134400,2.622134521484375,0.16222992539405823,-0.15074236690998077,0.001431182725355029
1783169620566083300,2.632083251953125,0.13132846355438232,-0.15765699744224548,0.012290487997233868
1783169620576031500,2.642031494140625,0.1080324575304985,-0.10058733075857162,0.03224848210811615
1783169620586011400,2.652011474609375,0.09534090012311935,-0.0154340835288167,0.05511411651968956
1783169620595959600,2.66195947265625,0.09332781285047531,0.07049254328012466,0.0824488028883934
1783169620605908500,2.671908447265625,0.09024734050035477,0.15235838294029236,0.12377121299505234
1783169620615887400,2.681887451171875,0.07265210151672363,0.21999840438365936,0.17861582338809967
1783169620625836300,2.691836181640625,0.03663657605648041,0.24810035526752472,0.22581981122493744
1783169620635785500,2.701785400390625,-0.003769438248127699,0.24874509871006012,0.26210352778434753
1783169620645733600,2.711733642578125,-0.04188859462738037,0.19304987788200378,0.2716219127178192
1783169620655713500,2.721713623046875,-0.06650898605585098,0.07267820090055466,0.2545771598815918
1783169620665661700,2.73166162109375,-0.07879015058279037,-0.05583929643034935,0.23121297359466553
1783169620675610600,2.741610595703125,-0.08637137711048126,-0.15755553543567657,0.20666901767253876
1783169620685589500,2.751589599609375,-0.09829460829496384,-0.20714865624904633,0.19061414897441864
1783169620695538400,2.761538330078125,-0.10548088699579239,-0.20484209060668945,0.17145085334777832
1783169620705487600,2.771487548828125,-0.1069517508149147,-0.18992599844932556,0.15171895921230316
1783169620715436500,2.7814365234375,-0.10756294429302216,-0.1756112426519394,0.12650202214717865
1783169620725415400,2.79141552734375,-0.11130495369434357,-0.15537014603614807,0.10101902484893799
1783169620735364400,2.8013642578125,-0.09963684529066086,-0.14126284420490265,0.09110620617866516
1783169620745312500,2.8113125,-0.08380594849586487,-0.13610590994358063,0.1149793192744255
1783169620755292400,2.82129248046875,-0.05368080362677574,-0.12437787652015686,0.17968879640102386
1783169620765240300,2.831240234375,-0.009236374869942665,-0.11189404129981995,0.285797655582428
1783169620775189500,2.841189453125,0.038413435220718384,-0.12259036302566528,0.39835402369499207
1783169620785138400,2.851138427734375,0.05137530714273453,-0.2254728078842163,0.46684014797210693
1783169620795117300,2.861117431640625,0.04616323485970497,-0.4071810841560364,0.46114498376846313
1783169620805066500,2.87106640625,0.019593141973018646,-0.6003968715667725,0.3767496645450592
1783169620815014700,2.8810146484375,-0.039678968489170074,-0.7938787341117859,0.2193608433008194
1783169620824994600,2.89099462890625,-0.12801389396190643,-0.9862564206123352,-0.006048304960131645
1783169620834942500,2.9009423828125,-0.23106969892978668,-1.1196157932281494,-0.2724616229534149
1783169620844891600,2.9108916015625,-0.32526305317878723,-1.1232795715332031,-0.5302833318710327
1783169620854840600,2.920840576171875,-0.3813430964946747,-0.9344070553779602,-0.7169064283370972
1783169620864819500,2.9308193359375,-0.41565898060798645,-0.5998349785804749,-0.8044242858886719
1783169620874768400,2.940768310546875,-0.4351690411567688,-0.22829149663448334,-0.8070182204246521
1783169620884717600,2.950717529296875,-0.4531451165676117,0.08625978976488113,-0.7355549931526184
1783169620894696400,2.960696533203125,-0.48716139793395996,0.28805094957351685,-0.6126924157142639
1783169620904645400,2.970645263671875,-0.5250720381736755,0.2960481643676758,-0.46553388237953186
1783169620914593500,2.980593505859375,-0.5391710996627808,0.1740514189004898,-0.3125978410243988
1783169620924542500,2.99054248046875,-0.5282422304153442,0.015218367800116539,-0.16604089736938477
1783169620934521300,3.000521240234375,-0.4937119781970978,-0.1304301768541336,-0.043121904134750366
1783169620944470500,3.010470458984375,-0.43418872356414795,-0.26775288581848145,0.03430657461285591
1783169620954419500,3.02041943359375,-0.3568321466445923,-0.3807185888290405,0.06239387020468712
1783169620964398300,3.0303984375,-0.2915208041667938,-0.43559888005256653,0.05766116455197334
1783169620974347500,3.040347412109375,-0.2530604898929596,-0.4284789264202118,0.03447222337126732
1783169620984295400,3.05029541015625,-0.2492676079273224,-0.37931588292121887,0.010483799502253532
1783169620994244600,3.06024462890625,-0.27540042996406555,-0.3191114068031311,-0.005416869651526213
1783169621004223500,3.070223388671875,-0.3241940438747406,-0.2965722680091858,-0.014551245607435703
1783169621014172700,3.080172607421875,-0.3950628936290741,-0.3027785122394562,-0.0020122844725847244
1783169621024121600,3.09012158203125,-0.4799463748931885,-0.3163028359413147,0.02918984368443489
1783169621034100500,3.1001005859375,-0.5810229182243347,-0.3071948289871216,0.08517667651176453
1783169621044049400,3.11004931640625,-0.6881632208824158,-0.2623887360095978,0.14285142719745636
1783169621053998600,3.11999853515625,-0.7775689959526062,-0.21076363325119019,0.1925595998764038
1783169621063946500,3.129946533203125,-0.8343579769134521,-0.16015025973320007,0.22461526095867157
1783169621073926400,3.139926513671875,-0.8550075888633728,-0.11118218302726746,0.2376067042350769
1783169621083874600,3.14987451171875,-0.8501209616661072,-0.06672416627407074,0.21516050398349762
1783169621093823500,3.159823486328125,-0.8226928114891052,-0.03247884660959244,0.1718231588602066
1783169621103802400,3.16980224609375,-0.781390905380249,-0.018629610538482666,0.11174836754798889
1783169621113751300,3.179751220703125,-0.7344449758529663,-0.021635787561535835,0.050217099487781525
1783169621123700500,3.189700439453125,-0.6922942996025085,-0.023494673892855644,0.004763596225529909
1783169621133648400,3.1996484375,-0.6567562818527222,-0.02370160073041916,-0.013517939485609531
1783169621143628500,3.209628662109375,-0.6379107236862183,-0.03764910623431206,-0.0024748756550252438
1783169621153576400,3.219576416015625,-0.6342871785163879,-0.05090392753481865,0.02333914488554001
1783169621163525600,3.229525634765625,-0.6437882781028748,-0.05070978403091431,0.05373087152838707
1783169621173504500,3.23950439453125,-0.6544068455696106,-0.04518558830022812,0.06999319791793823
1783169621183453400,3.249453369140625,-0.6521527767181396,-0.02653041109442711,0.06584718823432922
1783169621193402600,3.259402587890625,-0.6287094950675964,0.007533816155046225,0.04562127962708473
1783169621203351600,3.2693515625,-0.5913791656494141,0.04019002988934517,0.023253923282027245
1783169621213330400,3.279330322265625,-0.5628484487533569,0.07535680383443832,0.011670238338410854
1783169621223279400,3.289279296875,-0.5361603498458862,0.10833898931741714,0.02882126159965992
1783169621233227500,3.2992275390625,-0.5118009448051453,0.1124463826417923,0.06195497885346413
1783169621243207400,3.30920751953125,-0.4761905074119568,0.10975658893585205,0.11543019115924835
1783169621253155600,3.319155517578125,-0.4264274835586548,0.13035480678081512,0.18490487337112427
1783169621263104500,3.3291044921875,-0.36731863021850586,0.13146854937076569,0.25219228863716125
1783169621273053400,3.339053466796875,-0.30336838960647583,0.09812310338020325,0.304995596408844
1783169621283056000,3.34905615234375,-0.23273684084415436,0.05024825781583786,0.349001407623291
1783169621293005000,3.359005126953125,-0.16309544444084167,0.019841082394123077,0.3931499421596527
1783169621302953000,3.368952880859375,-0.10695494711399078,0.004347078036516905,0.43582844734191895
1783169621312932900,3.378932861328125,-0.04409236088395119,0.003934021573513746,0.483757346868515
1783169621322881000,3.388881103515625,0.03181838244199753,0.0005073322099633515,0.5285426378250122
1783169621332830000,3.398829833984375,0.12895745038986206,0.03140079975128174,0.5651826858520508
1783169621342779000,3.40877880859375,0.2480526864528656,0.17322823405265808,0.6147608757019043
1783169621352758000,3.418758056640625,0.3862994909286499,0.3968791663646698,0.6936362981796265
1783169621362707000,3.42870703125,0.514733612537384,0.5325973033905029,0.7625498175621033
1783169621372655900,3.43865576171875,0.6171087622642517,0.4185093641281128,0.7870684862136841
1783169621382634800,3.448634765625,0.6977396607398987,-0.04595950245857239,0.7336809039115906
1783169621392584200,3.458584228515625,0.7691968083381653,-0.8785622119903564,0.5757187008857727
1783169621402532000,3.468531982421875,0.8022730350494385,-1.759535551071167,0.35982128977775574
1783169621412481000,3.47848095703125,0.7579926252365112,-2.167600631713867,0.19985532760620117
1783169621422460200,3.488460205078125,0.6162357926368713,-1.9485899209976196,0.1355237364768982
1783169621432409000,3.4984091796875,0.4109286963939667,-1.2256687879562378,0.16659563779830933
1783169621442358000,3.50835791015625,0.2058655470609665,-0.2562142014503479,0.26321539282798767
1783169621452337200,3.518337158203125,0.044500622898340225,0.6475814580917358,0.36696574091911316
1783169621462286000,3.5282861328125,-0.054549794644117355,1.1664741039276123,0.42345646023750305
1783169621472235000,3.538235107421875,-0.10297724604606628,1.2435805797576904,0.4094516932964325
1783169621482183000,3.548182861328125,-0.13348935544490814,1.0710909366607666,0.35491546988487244
1783169621492162000,3.558162109375,-0.18092530965805054,0.7431095838546753,0.2688905894756317
1783169621502111000,3.568111083984375,-0.24258281290531158,0.33754128217697144,0.15096235275268555
1783169621512060000,3.578059814453125,-0.2956311106681824,-0.03214754909276962,-0.006144711747765541
1783169621522039000,3.5880390625,-0.3159047067165375,-0.2701270878314972,-0.18622659146785736
1783169621531988000,3.597988037109375,-0.3123001158237457,-0.3107709288597107,-0.361073762178421
1783169621541937000,3.60793701171875,-0.29781463742256165,-0.1948259472846985,-0.49934136867523193
1783169621551884800,3.617884765625,-0.286946564912796,0.03899400308728218,-0.5645347237586975
1783169621561865200,3.627865234375,-0.3047303557395935,0.29866844415664673,-0.5588963031768799
1783169621571812900,3.637812744140625,-0.33787018060684204,0.49023547768592834,-0.5020066499710083
1783169621581762000,3.647761962890625,-0.3706052303314209,0.5354043245315552,-0.40593525767326355
1783169621591711000,3.6577109375,-0.38682547211647034,0.39390310645103455,-0.2904294431209564
1783169621601690000,3.667690185546875,-0.36602354049682617,0.0749669224023819,-0.18166060745716095
1783169621611639000,3.67763916015625,-0.2979954779148102,-0.2964114248752594,-0.07495014369487762
1783169621621588000,3.687587890625,-0.18870148062705994,-0.5777754783630371,0.02089063450694084
1783169621631567000,3.697567138671875,-0.05034945532679558,-0.7407209873199463,0.10922076553106308
1783169621641516000,3.70751611328125,0.08756420016288757,-0.7872298955917358,0.19458119571208954
1783169621651464000,3.7174638671875,0.21335062384605408,-0.7170313596725464,0.27706170082092285
1783169621661412900,3.727412841796875,0.30282965302467346,-0.5973885655403137,0.33655405044555664
1783169621671392000,3.73739208984375,0.3365210294723511,-0.48856568336486816,0.3661172688007355
1783169621681341000,3.7473408203125,0.3124614953994751,-0.38000592589378357,0.3787638247013092
1783169621691289900,3.757289794921875,0.2543710172176361,-0.3081658184528351,0.3890068829059601
1783169621701269000,3.76726904296875,0.16550719738006592,-0.2780449390411377,0.4140720069408417
1783169621711218000,3.777218017578125,0.050514571368694305,-0.2412501722574234,0.4477519392967224
1783169621721165800,3.787165771484375,-0.08353271335363388,-0.1858159452676773,0.4845661520957947
1783169621731114800,3.79711474609375,-0.20766344666481018,-0.12848393619060516,0.5025784373283386
1783169621741094000,3.807093994140625,-0.29273173213005066,-0.1067594662308693,0.48712119460105896
1783169621751043000,3.81704296875,-0.33576521277427673,-0.110563263297081,0.435970664024353
1783169621760992000,3.826991943359375,-0.35224246978759766,-0.1327953338623047,0.3570651710033417
1783169621770971100,3.83697119140625,-0.3537612557411194,-0.14580513536930084,0.275409996509552
1783169621780920000,3.846920166015625,-0.34305456280708313,-0.1587614119052887,0.2072991281747818
1783169621790869000,3.856868896484375,-0.3288620412349701,-0.13874323666095734,0.16832323372364044
1783169621800817000,3.86681689453125,-0.31247320771217346,-0.08652344346046448,0.15433791279792786
1783169621810797000,3.876797119140625,-0.31082844734191895,-0.022839801385998726,0.16571040451526642
1783169621820745000,3.886744873046875,-0.3152085542678833,0.025123994797468185,0.20606234669685364
1783169621830694000,3.89669384765625,-0.32286033034324646,0.040953025221824646,0.2576565742492676
1783169621840673000,3.906673095703125,-0.3336852788925171,0.008955145254731178,0.3008913993835449
1783169621850622000,3.9166220703125,-0.347549706697464,-0.07414400577545166,0.3233277201652527
1783169621860571000,3.92657080078125,-0.3485308289527893,-0.14795777201652527,0.3505452275276184
1783169621870519000,3.93651904296875,-0.32981279492378235,-0.19533275067806244,0.39945098757743835
1783169621880499000,3.9464990234375,-0.2892179489135742,-0.27151405811309814,0.4391328990459442
1783169621890446800,3.95644677734375,-0.23434007167816162,-0.3822118043899536,0.46199771761894226
1783169621900395800,3.966395751953125,-0.17297284305095673,-0.5094355344772339,0.46401268243789673
1783169621910375000,3.976375,-0.1201985776424408,-0.6034704446792603,0.4450589418411255
1783169621920324000,3.986323974609375,-0.08670000731945038,-0.6025524139404297,0.42086148262023926
1783169621930273000,3.99627294921875,-0.07297194749116898,-0.5298340320587158,0.3986794650554657
1783169621940222000,4.006221923828125,-0.0641760528087616,-0.42789700627326965,0.38736608624458313
1783169621950201000,4.016201171875,-0.057680074125528336,-0.4297223389148712,0.35732004046440125
1783169621960150000,4.02614990234375,-0.06575451046228409,-0.6484658718109131,0.26461541652679443
1783169621970098000,4.036097900390625,-0.08926916122436523,-0.9414676427841187,0.10647877305746078
1783169621980078000,4.046078125,-0.14291907846927643,-1.1367905139923096,-0.07738533616065979
1783169621990026000,4.05602587890625,-0.22835247218608856,-1.1930255889892578,-0.26474031805992126
1783169621999975000,4.065974853515625,-0.3421613276004791,-1.1393316984176636,-0.4458126425743103
1783169622009923800,4.075923828125,-0.4709286391735077,-0.9790637493133545,-0.6201967000961304
1783169622019903000,4.085903076171875,-0.574878990650177,-0.7183418869972229,-0.7676798701286316
1783169622029852000,4.095851806640625,-0.6295619606971741,-0.42319440841674805,-0.8665606379508972
1783169622039799800,4.1057998046875,-0.6454573273658752,-0.14636999368667603,-0.9017396569252014
1783169622049780000,4.115780029296875,-0.6371492743492126,0.04999019578099251,-0.8699801564216614
1783169622059728000,4.125727783203125,-0.6049511432647705,0.14105911552906036,-0.7779250741004944
1783169622069676800,4.1356767578125,-0.5535670518875122,0.10602683573961258,-0.6458213329315186
1783169622079626000,4.1456259765625,-0.4947253167629242,-0.04594884812831879,-0.5024202466011047
1783169622089605000,4.155605224609375,-0.4443609416484833,-0.2502862811088562,-0.3689287602901459
1783169622099554000,4.165553955078125,-0.4072988033294678,-0.4607710838317871,-0.2665259540081024
1783169622109503000,4.1755029296875,-0.37944453954696655,-0.6230494379997253,-0.18909215927124023
1783169622119482000,4.185482177734375,-0.36594974994659424,-0.6724119782447815,-0.15055222809314728
1783169622129431000,4.19543115234375,-0.37060362100601196,-0.6301406621932983,-0.14206819236278534
1783169622139379000,4.20537890625,-0.39222609996795654,-0.5840237736701965,-0.15980058908462524
1783169622149328000,4.215327880859375,-0.4144371449947357,-0.567548394203186,-0.2113061249256134
1783169622159307000,4.22530712890625,-0.44190311431884766,-0.5259242653846741,-0.26985013484954834
1783169622169256000,4.235255859375,-0.4782981276512146,-0.46586117148399353,-0.3059138357639313
1783169622179204900,4.245204833984375,-0.5276188254356384,-0.4284791946411133,-0.3188813030719757
1783169622189184000,4.25518408203125,-0.5786207318305969,-0.39277976751327515,-0.32065364718437195
1783169622199133000,4.2651328125,-0.6244726777076721,-0.32955580949783325,-0.30176305770874023
1783169622209080800,4.275080810546875,-0.670816957950592,-0.25425490736961365,-0.2769381105899811
1783169622219030000,4.285030029296875,-0.7085995078086853,-0.18151013553142548,-0.2353280931711197
1783169622229009000,4.2950087890625,-0.7318909764289856,-0.13608433306217194,-0.20063775777816772
1783169622238957800,4.304957763671875,-0.7414290904998779,-0.12757526338100433,-0.18854141235351562
1783169622248907000,4.314906982421875,-0.7328593134880066,-0.15244519710540771,-0.19291140139102936
1783169622258886100,4.32488623046875,-0.6986243724822998,-0.17280666530132294,-0.19704462587833405
1783169622268835000,4.3348349609375,-0.6414191722869873,-0.19216997921466827,-0.1996033936738968
1783169622278823700,4.34482373046875,-0.5736430287361145,-0.21134845912456512,-0.20723360776901245
1783169622288771600,4.354771484375,-0.5054011344909668,-0.21670301258563995,-0.2226991206407547
1783169622298751500,4.36475146484375,-0.44130682945251465,-0.19370821118354797,-0.2405683994293213
1783169622308699600,4.37469970703125,-0.39062660932540894,-0.15008004009723663,-0.25071558356285095
1783169622318648600,4.384648681640625,-0.3718777000904083,-0.10404277592897415,-0.2450675368309021
1783169622328627700,4.394627685546875,-0.38000059127807617,-0.07259883731603622,-0.22459448873996735
1783169622338576600,4.40457666015625,-0.3987620174884796,-0.08127941191196442,-0.20618565380573273
1783169622348525600,4.414525634765625,-0.4144909381866455,-0.11315398663282394,-0.18386784195899963
1783169622358473500,4.424473388671875,-0.42152139544487,-0.16711655259132385,-0.16442276537418365
1783169622368453400,4.434453369140625,-0.4165692627429962,-0.22801612317562103,-0.14924460649490356
1783169622378401500,4.444401611328125,-0.3991585671901703,-0.3064078688621521,-0.14726348221302032
1783169622388350700,4.454350830078125,-0.3697298467159271,-0.35782045125961304,-0.1519290804862976
1783169622398329600,4.46432958984375,-0.33834609389305115,-0.340035080909729,-0.15210723876953125
1783169622408278800,4.47427880859375,-0.3185260593891144,-0.2651453912258148,-0.14474838972091675
1783169622418227700,4.484227783203125,-0.32114100456237793,-0.19144852459430695,-0.13781991600990295
1783169622428176600,4.4941767578125,-0.3367042541503906,-0.10669102519750595,-0.12835024297237396
1783169622438155800,4.50415576171875,-0.36361071467399597,-0.03663284704089165,-0.11557532846927643
1783169622448104700,4.514104736328125,-0.3808639943599701,0.0022564963437616825,-0.09651029109954834
1783169622458052600,4.524052490234375,-0.3815862536430359,0.029979471117258072,-0.06593161076307297
1783169622468032500,4.534032470703125,-0.37021827697753906,0.03964141756296158,-0.029349366202950478
1783169622477980700,4.543980712890625,-0.343065470457077,0.05001603066921234,0.007492537144571543
1783169622487929600,4.5539296875,-0.3075679540634155,0.08073718845844269,0.05655462294816971
1783169622497878500,4.56387841796875,-0.2735942602157593,0.12076103687286377,0.11334680020809174
1783169622507857700,4.573857666015625,-0.24690912663936615,0.1862068921327591,0.18077297508716583
1783169622517806600,4.583806640625,-0.23955880105495453,0.3332778215408325,0.2504676282405853
1783169622527754500,4.59375439453125,-0.25456702709198,0.5691617131233215,0.31292009353637695
1783169622537734400,4.603734375,-0.2840929627418518,0.6939162015914917,0.35588008165359497
1783169622547682600,4.6136826171875,-0.320318341255188,0.5880909562110901,0.36200934648513794
1783169622557631500,4.623631591796875,-0.3626386523246765,0.19059763848781586,0.2892776131629944
1783169622567580700,4.63358056640625,-0.3956115245819092,-0.36047428846359253,0.08484165370464325
1783169622577559800,4.643559814453125,-0.40178632736206055,-0.7442294359207153,-0.17169000208377838
1783169622587508700,4.6535087890625,-0.3927946984767914,-0.8344581127166748,-0.37831559777259827
1783169622597457700,4.663457763671875,-0.3874734342098236,-0.6310333609580994,-0.4843248724937439
1783169622607436500,4.6734365234375,-0.3628447651863098,-0.21858586370944977,-0.487641304731369
1783169622617385700,4.6833857421875,-0.32688143849372864,0.2563819885253906,-0.3765834867954254
1783169622627333600,4.693333740234375,-0.2915370464324951,0.6010123491287231,-0.18894489109516144
1783169622637282600,4.703282470703125,-0.2536780834197998,0.7062007784843445,0.010816162452101707
1783169622647261700,4.71326171875,-0.20714598894119263,0.5345555543899536,0.1848212480545044
1783169622657210600,4.723210693359375,-0.1582639366388321,0.16035452485084534,0.3081511855125427
1783169622667159600,4.73315966796875,-0.10574746876955032,-0.31511107087135315,0.35266217589378357
1783169622677107500,4.743107421875,-0.02719353698194027,-0.6876481771469116,0.3307185173034668
1783169622687087600,4.753087646484375,0.07685456424951553,-0.7968001961708069,0.27082324028015137
1783169622697035500,4.763035400390625,0.1665295958518982,-0.6875306963920593,0.19557589292526245
1783169622706984400,4.772984375,0.23005716502666473,-0.462461918592453,0.1190105453133583
1783169622716963600,4.782963623046875,0.25838759541511536,-0.2355044037103653,0.0338628925383091
1783169622726912500,4.79291259765625,0.25595349073410034,-0.04725699499249458,-0.03304130584001541
1783169622736861700,4.80286181640625,0.22335372865200043,0.07958190888166428,-0.06232009828090668
1783169622746810600,4.812810546875,0.16553010046482086,0.10100677609443665,-0.06609353423118591
1783169622756789800,4.822789794921875,0.10351280868053436,0.03574042022228241,-0.05073747783899307
1783169622766738700,4.83273876953125,0.0527082197368145,-0.027399400249123573,-0.02726251445710659
1783169622776686600,4.8426865234375,0.026859311386942863,-0.07723566889762878,-0.014242852106690407
1783169622786666800,4.852666748046875,0.01426468975841999,-0.0829731822013855,-0.023018766194581985
1783169622796614700,4.86261474609375,0.005338040180504322,-0.051188886165618896,-0.057261958718299866
1783169622806563600,4.8725634765625,-0.0028687571175396442,-0.007506652269512415,-0.11125967651605606
1783169622816512500,4.882512451171875,0.008981244638562202,0.03430524468421936,-0.16089008748531342
1783169622826491600,4.89249169921875,0.03581685200333595,0.05619030073285103,-0.19318491220474243
1783169622836440600,4.902440673828125,0.062065500766038895,0.058281946927309036,-0.20463304221630096
1783169622846388500,4.912388427734375,0.08125544339418411,0.05102430284023285,-0.18180681765079498
1783169622856368600,4.92236865234375,0.08464564383029938,0.03995487466454506,-0.1264045387506485
1783169622866316500,4.932316650390625,0.054551124572753906,0.018081799149513245,-0.050757452845573425
1783169622876265500,4.942265380859375,0.003100185887888074,-0.010124272666871548,0.030132602900266647
1783169622886214400,4.95221435546875,-0.0639992207288742,-0.04993986338376999,0.1042100265622139
1783169622896193500,4.962193603515625,-0.1339210420846939,-0.10896323621273041,0.14824992418289185
1783169622906142700,4.972142822265625,-0.21006987988948822,-0.16191592812538147,0.16369971632957458
1783169622916091600,4.982091552734375,-0.28180184960365295,-0.18554961681365967,0.15408863127231598
1783169622926070800,4.99207080078125,-0.3334123194217682,-0.20131100714206696,0.12724371254444122
1783169622936019700,5.002019775390625,-0.3696150779724121,-0.22377024590969086,0.08593088388442993
1783169622945967600,5.011967529296875,-0.4029730260372162,-0.21424837410449982,0.05577697977423668
1783169622955916500,5.02191650390625,-0.42641231417655945,-0.18059773743152618,0.052678924053907394
1783169622965895700,5.031895751953125,-0.4399680495262146,-0.13754427433013916,0.07529981434345245
1783169622975844600,5.0418447265625,-0.4428695738315582,-0.08145491033792496,0.1233871802687645
1783169622985793500,5.05179345703125,-0.4474051892757416,-0.02273700386285782,0.1908133625984192
1783169622995772700,5.061772705078125,-0.4565132260322571,0.0418957844376564,0.26417893171310425
1783169623005721600,5.0717216796875,-0.4665123224258423,0.11487358808517456,0.33043596148490906
1783169623015669500,5.08166943359375,-0.49771150946617126,0.15190111100673676,0.3697735369205475
1783169623025618400,5.091618408203125,-0.52122962474823,0.1155654788017273,0.3702712655067444
1783169623035597600,5.10159765625,-0.5296867489814758,0.03452149033546448,0.3342331051826477
1783169623045546500,5.11154638671875,-0.5320971608161926,-0.07379938662052155,0.2652180790901184
1783169623055495400,5.121495361328125,-0.5343696475028992,-0.15066301822662354,0.18393521010875702
1783169623065474600,5.131474609375,-0.5295307040214539,-0.1655881702899933,0.10480843484401703
1783169623075423700,5.141423828125,-0.5188910961151123,-0.15331658720970154,0.024883512407541275
1783169623085372700,5.15137255859375,-0.5051132440567017,-0.14513002336025238,-0.04818696901202202
1783169623095320600,5.161320556640625,-0.5059571862220764,-0.13650991022586823,-0.1020057275891304
1783169623105300700,5.17130078125,-0.5231678485870361,-0.11422377824783325,-0.11099869012832642
1783169623115248600,5.18124853515625,-0.555366575717926,-0.08843878656625748,-0.07232266664505005
1783169623125197600,5.191197509765625,-0.595570981502533,-0.03864779323339462,-0.003343332326039672
1783169623135176700,5.2011767578125,-0.6187516450881958,0.06094830483198166,0.08885317295789719
1783169623145125600,5.211125732421875,-0.6138578057289124,0.1692763715982437,0.1864098161458969
1783169623155074600,5.221074462890625,-0.6223857998847961,0.1363900601863861,0.2495480477809906
1783169623165023500,5.2310234375,-0.6740077137947083,-0.012867861427366734,0.24580363929271698
1783169623175002600,5.241002685546875,-0.755466639995575,-0.21997790038585663,0.15741145610809326
1783169623184951600,5.25095166015625,-0.8605514764785767,-0.4684012830257416,-0.044567469507455826
1783169623194899500,5.2608994140625,-0.9771957993507385,-0.7010497450828552,-0.3406926095485687
1783169623204878600,5.270878662109375,-1.0529118776321411,-0.7703726291656494,-0.6523213386535645
1783169623214827500,5.28082763671875,-1.0498239994049072,-0.606411337852478,-0.9051530361175537
1783169623224776400,5.2907763671875,-0.9869581460952759,-0.3283935785293579,-1.0698487758636475
1783169623234725600,5.3007255859375,-0.905044674873352,-0.06596383452415466,-1.1261589527130127
1783169623244704800,5.310704833984375,-0.8518218994140625,0.12888340651988983,-1.1066467761993408
1783169623254653700,5.32065380859375,-0.8474532961845398,0.1634587049484253,-1.0594438314437866
1783169623264601600,5.3306015625,-0.8509880900382996,-0.004327903036028147,-1.0264374017715454
1783169623274581800,5.340581787109375,-0.8205183148384094,-0.2373182773590088,-1.0004029273986816
1783169623284551400,5.350551513671875,-0.7267950177192688,-0.40297648310661316,-0.935604453086853
1783169623294500400,5.360500244140625,-0.591392993927002,-0.5091348886489868,-0.8315054774284363
1783169623304449300,5.37044921875,-0.4415294826030731,-0.5648742914199829,-0.6760716438293457
1783169623314428400,5.380428466796875,-0.3090073764324188,-0.5595272183418274,-0.4910283088684082
1783169623324377300,5.39037744140625,-0.22798550128936768,-0.5391191244125366,-0.2947445511817932
1783169623334326300,5.400326171875,-0.21378286182880402,-0.5349222421646118,-0.1210784912109375
1783169623344305200,5.41030517578125,-0.26300525665283203,-0.528634786605835,0.029801039025187492
1783169623354254300,5.42025439453125,-0.34322020411491394,-0.5295022130012512,0.15162813663482666
1783169623364202200,5.4302021484375,-0.43825432658195496,-0.5510151982307434,0.22936394810676575
1783169623374151200,5.440151123046875,-0.5108201503753662,-0.5473389625549316,0.27067863941192627
1783169623384130300,5.45013037109375,-0.552311897277832,-0.5247852206230164,0.28699183464050293
1783169623394079200,5.460079345703125,-0.5825701951980591,-0.5064924955368042,0.2712506651878357
1783169623404028200,5.470028076171875,-0.5989832878112793,-0.45907464623451233,0.2267916053533554
1783169623414007300,5.48000732421875,-0.614324688911438,-0.38233351707458496,0.1716172993183136
1783169623423956200,5.489956298828125,-0.6436508893966675,-0.3094044625759125,0.09988638013601303
1783169623433904000,5.499904052734375,-0.68336421251297,-0.2892264723777771,0.015199725516140461
1783169623443853300,5.509853271484375,-0.7173831462860107,-0.3190930485725403,-0.07271920889616013
1783169623453832400,5.51983251953125,-0.7376673817634583,-0.3449781537055969,-0.15629665553569794
1783169623463781400,5.529781494140625,-0.742992103099823,-0.35496607422828674,-0.21801169216632843
1783169623473730300,5.539730224609375,-0.7274512052536011,-0.3557620942592621,-0.26177409291267395
1783169623483709400,5.54970947265625,-0.6893832087516785,-0.3618309199810028,-0.28165778517723083
1783169623493658400,5.559658447265625,-0.6322773098945618,-0.38729020953178406,-0.2889649569988251
1783169623503607300,5.569607177734375,-0.5626175403594971,-0.40783753991127014,-0.2778414785861969
1783169623513555200,5.57955517578125,-0.49102485179901123,-0.38249412178993225,-0.23066677153110504
1783169623523535400,5.589535400390625,-0.44413989782333374,-0.3335380256175995,-0.15321272611618042
1783169623533483300,5.599483154296875,-0.42509111762046814,-0.32034313678741455,-0.0664362832903862
1783169623543432200,5.60943212890625,-0.4229443371295929,-0.3409882187843323,0.001773398951627314
1783169623553411300,5.619411376953125,-0.43641379475593567,-0.36946460604667664,0.034389130771160126
1783169623563360300,5.6293603515625,-0.457638144493103,-0.3813481628894806,0.04265398532152176
1783169623573309200,5.63930908203125,-0.4628147780895233,-0.3645281493663788,0.028306739404797554
1783169623583257000,5.649257080078125,-0.461717814207077,-0.333572655916214,-0.012884372845292091
1783169623593237200,5.6592373046875,-0.44001439213752747,-0.3065450191497803,-0.07910200953483582
1783169623603185200,5.66918505859375,-0.4066180884838104,-0.26937127113342285,-0.14347301423549652
1783169623613134300,5.67913427734375,-0.36704859137535095,-0.2349185049533844,-0.1975056231021881
1783169623623113200,5.68911328125,-0.3254803717136383,-0.19104266166687012,-0.22489090263843536
1783169623633062400,5.6990625,-0.29199084639549255,-0.13354581594467163,-0.2148747593164444
1783169623643011300,5.70901123046875,-0.2740134298801422,-0.06320426613092422,-0.175696462392807
1783169623652960300,5.718960205078125,-0.25510767102241516,-0.04180310666561127,-0.12900379300117493
1783169623662939400,5.728939453125,-0.23119033873081207,-0.055929578840732574,-0.08974746614694595
1783169623672888300,5.738888427734375,-0.1987868696451187,-0.0799262598156929,-0.07204383611679077
1783169623682836200,5.748836181640625,-0.1648547351360321,-0.0833825096487999,-0.06937640905380249
1783169623692816400,5.75881640625,-0.13619565963745117,-0.050039198249578476,-0.06633028388023376
1783169623702764300,5.768764404296875,-0.11059601604938507,0.04776539281010628,-0.05149035528302193
1783169623712713200,5.778713134765625,-0.09486313164234161,0.1981423795223236,-0.017006414011120796
1783169623722662100,5.788662109375,-0.07395198941230774,0.4289601445198059,0.05138249695301056
1783169623732641300,5.798641357421875,-0.033367011696100235,0.745898425579071,0.17129851877689362
1783169623742590200,5.808590087890625,0.0004897553008049726,0.9577526450157166,0.28857481479644775
1783169623752538000,5.8185380859375,-0.01128221582621336,0.9328272938728333,0.3439565598964691
1783169623762518300,5.828518310546875,-0.05843614414334297,0.7146320939064026,0.31636276841163635
1783169623772466200,5.838466064453125,-0.1470099538564682,0.2851494550704956,0.19880124926567078
1783169623782415400,5.848415283203125,-0.2705153822898865,-0.2483765184879303,0.010966097936034203
1783169623792364300,5.8583642578125,-0.38076865673065186,-0.5804734826087952,-0.16119767725467682
1783169623802343400,5.868343505859375,-0.4253305196762085,-0.5105322599411011,-0.22259099781513214
1783169623812292400,5.878292236328125,-0.4167357087135315,-0.10408885031938553,-0.17303302884101868
1783169623822241300,5.8882412109375,-0.3955982029438019,0.4338742196559906,-0.07545960694551468
1783169623832189400,5.898189453125,-0.37629586458206177,0.8320455551147461,-0.0139006357640028
1783169623842169300,5.90816943359375,-0.3395509123802185,1.0084283351898193,-0.00418302696198225
1783169623852117200,5.9181171875,-0.2946572005748749,0.9672161340713501,-0.05113961547613144
1783169623862066200,5.928066162109375,-0.2436709851026535,0.6758453249931335,-0.1634666919708252
1783169623872045300,5.93804541015625,-0.16046583652496338,0.3127046525478363,-0.27209916710853577
1783169623881994200,5.947994140625,-0.050638411194086075,0.027115507051348686,-0.3190605342388153
1783169623891943200,5.957943115234375,0.060563210397958755,-0.15015940368175507,-0.30274415016174316
1783169623901891300,5.967891357421875,0.14959615468978882,-0.22872719168663025,-0.23345935344696045
1783169623911871200,5.977871337890625,0.21732859313488007,-0.26209792494773865,-0.11350046098232269
1783169623921819100,5.987819091796875,0.25607171654701233,-0.21735815703868866,0.03943555802106857
1783169623931768000,5.99776806640625,0.24950464069843292,-0.13118384778499603,0.20880860090255737
1783169623941747200,6.007747314453125,0.1980491727590561,-0.03013925999403,0.373477965593338
1783169623951696100,6.017696044921875,0.10833632946014404,0.05793760344386101,0.5088198184967041
1783169623961645300,6.027645263671875,0.0006447513005696237,0.11372177302837372,0.5956867933273315
1783169623971594200,6.03759423828125,-0.10179826617240906,0.1314387172460556,0.6196818947792053
1783169623981573400,6.047573486328125,-0.1713895946741104,0.13963432610034943,0.5964961647987366
1783169623991522300,6.057522216796875,-0.21203449368476868,0.10363904386758804,0.5370248556137085
1783169624001470200,6.06747021484375,-0.22170816361904144,0.04199272394180298,0.4595603942871094
1783169624011450400,6.077450439453125,-0.2027595043182373,0.007876032963395119,0.37053677439689636
1783169624021398300,6.087398193359375,-0.1604836881160736,0.00851226132363081,0.28853538632392883
1783169624031347200,6.09734716796875,-0.10580126196146011,0.002432797569781542,0.21855337917804718
1783169624041296100,6.107296142578125,-0.04495415836572647,-0.01600692979991436,0.17078745365142822
1783169624051275300,6.117275146484375,0.007838215678930283,-0.0600135363638401,0.14758333563804626
1783169624061224200,6.12722412109375,0.03273983672261238,-0.13178865611553192,0.15370912849903107
1783169624071172400,6.13717236328125,0.0345529168844223,-0.2179078310728073,0.1731259822845459
1783169624081152300,6.14715234375,0.025602033361792564,-0.3075908422470093,0.21359510719776154
1783169624091100200,6.15710009765625,-0.0020564929582178593,-0.3707442581653595,0.26662182807922363
1783169624101049000,6.167049072265625,-0.0354251004755497,-0.3795153796672821,0.33273667097091675
1783169624110998300,6.176998291015625,-0.04857339337468147,-0.34059274196624756,0.39883527159690857
1783169624120977200,6.18697705078125,-0.030399451032280922,-0.2833382189273834,0.46156975626945496
1783169624130926300,6.19692626953125,-0.00580728892236948,-0.2373417168855667,0.5094565749168396
1783169624140875300,6.206875244140625,0.019863186404109,-0.2054825872182846,0.5488242506980896
1783169624150854400,6.2168544921875,0.03761022537946701,-0.19514872133731842,0.5924580097198486
1783169624160803300,6.22680322265625,0.05432156100869179,-0.21963141858577728,0.6247360706329346
1783169624170751200,6.236751220703125,0.059656936675310135,-0.2554781138896942,0.6437084078788757
1783169624180700400,6.246700439453125,0.051658667623996735,-0.2638327181339264,0.6408055424690247
1783169624190679300,6.25667919921875,0.041419077664613724,-0.2466912716627121,0.6212526559829712
1783169624200628200,6.266628173828125,0.04074050486087799,-0.20776411890983582,0.6057437062263489
1783169624210577200,6.2765771484375,0.033070601522922516,-0.17079730331897736,0.5898087024688721
1783169624220556300,6.286556396484375,0.016536099836230278,-0.15430036187171936,0.5632625818252563
1783169624230505200,6.296505126953125,0.006232063286006451,-0.1563294231891632,0.5372482538223267
1783169624240453000,6.306453125,0.003457848448306322,-0.19140218198299408,0.48843440413475037
1783169624250402300,6.31640234375,0.010457434691488743,-0.2625834345817566,0.438140332698822
1783169624260381200,6.326381103515625,0.01654195785522461,-0.3323633074760437,0.3905198276042938
1783169624270330000,6.336330078125,0.01582982949912548,-0.35125309228897095,0.3574124574661255
1783169624280293400,6.34629345703125,0.0082102594897151,-0.3566984534263611,0.3225162625312805
1783169624290272500,6.3562724609375,0.0028658276423811913,-0.3894002139568329,0.2761562168598175
1783169624300221400,6.366221435546875,-0.0010663296561688185,-0.42149317264556885,0.225272536277771
1783169624310170400,6.37617041015625,-0.01715821400284767,-0.44216862320899963,0.177210733294487
1783169624320118500,6.386118408203125,-0.039631299674510956,-0.424132376909256,0.15332217514514923
1783169624330098400,6.396098388671875,-0.059540823101997375,-0.383715957403183,0.13534504175186157
1783169624340046300,6.40604638671875,-0.06676837801933289,-0.334021657705307,0.1274556964635849
1783169624349995300,6.415995361328125,-0.05181526020169258,-0.21606944501399994,0.15330860018730164
1783169624359974400,6.425974365234375,-0.05222778394818306,-0.06398510932922363,0.20912419259548187
1783169624369923600,6.435923583984375,-0.11168951541185379,-0.06017545610666275,0.22643527388572693
1783169624379872500,6.44587255859375,-0.2099095582962036,-0.2753356993198395,0.1369061917066574
1783169624389820700,6.455820556640625,-0.3515665531158447,-0.597436249256134,-0.08099365234375
1783169624399800600,6.465800537109375,-0.5223031640052795,-0.8788370490074158,-0.4005093276500702
1783169624409748500,6.47574853515625,-0.6877949237823486,-1.0091960430145264,-0.7591215372085571
1783169624419697400,6.485697509765625,-0.7797725200653076,-0.9011859893798828,-1.0848519802093506
1783169624429676500,6.495676513671875,-0.780493974685669,-0.6234217882156372,-1.332051157951355
1783169624439625500,6.50562548828125,-0.6939182877540588,-0.30240699648857117,-1.4424316883087158
1783169624449574400,6.515574462890625,-0.5543814301490784,0.011753062717616558,-1.4028632640838623
1783169624459523300,6.5255234375,-0.4162174463272095,0.2936883568763733,-1.2177433967590332
1783169624469502500,6.53550244140625,-0.3135454058647156,0.44306743144989014,-0.9402804374694824
1783169624479451400,6.545451416015625,-0.25831276178359985,0.408967524766922,-0.6306562423706055
1783169624489399600,6.555399658203125,-0.24090395867824554,0.2121170461177826,-0.34952312707901
1783169624499379500,6.56537939453125,-0.25395771861076355,-0.06875029951334,-0.12816116213798523
1783169624509327400,6.575327392578125,-0.250196248292923,-0.29088082909584045,0.012221246026456356
1783169624519276300,6.5852763671875,-0.19523313641548157,-0.3621973693370819,0.08308663219213486
1783169624529225500,6.5952255859375,-0.1146586686372757,-0.31625595688819885,0.08309062570333481
1783169624539204600,6.60520458984375,-0.047197870910167694,-0.22776418924331665,0.03153422474861145
1783169624549153500,6.615153564453125,-0.007141266483813524,-0.13760021328926086,-0.03497716039419174
1783169624559101700,6.625101806640625,-0.007451258134096861,-0.06857267022132874,-0.08495829999446869
1783169624569081600,6.63508154296875,-0.04866660386323929,-0.02532426454126835,-0.1009223535656929
1783169624579029500,6.645029541015625,-0.12723597884178162,0.0049404301680624485,-0.07835472375154495
1783169624588978400,6.654978515625,-0.22555430233478546,0.021221132948994637,-0.035404860973358154
1783169624598927600,6.664927734375,-0.33032065629959106,-0.01804584637284279,-0.002980609890073538
1783169624608906500,6.674906494140625,-0.42792603373527527,-0.10008585453033447,0.00316010694950819
1783169624618855400,6.68485546875,-0.5040130615234375,-0.1940522938966751,-0.019306320697069168
1783169624628804400,6.694804443359375,-0.5543729066848755,-0.2613820731639862,-0.07393813878297806
1783169624638783500,6.704783447265625,-0.5703279376029968,-0.2867284417152405,-0.14749757945537567
1783169624648732400,6.714732421875,-0.5447573065757751,-0.3019060492515564,-0.2410067617893219
1783169624658680300,6.724680419921875,-0.4952952265739441,-0.32564467191696167,-0.33899644017219543
1783169624668629500,6.73462939453125,-0.43712300062179565,-0.32138654589653015,-0.4161956310272217
1783169624678608400,6.7446083984375,-0.3731938302516937,-0.3008138835430145,-0.4491325318813324
1783169624688557300,6.754557373046875,-0.33591195940971375,-0.23002095520496368,-0.41819965839385986
1783169624698506500,6.764506591796875,-0.332750529050827,-0.11616921424865723,-0.32992756366729736
1783169624708485400,6.7744853515625,-0.36264556646347046,-0.029565349221229553,-0.20951886475086212
1783169624718434600,6.7844345703125,-0.39596810936927795,-0.013888651505112648,-0.09327775239944458
1783169624728383500,6.794383544921875,-0.4235747158527374,-0.047200534492731094,0.0013928331900388002
1783169624738331600,6.80433154296875,-0.4406735301017761,-0.10078173875808716,0.05934375151991844
1783169624748310500,6.814310546875,-0.43388354778289795,-0.15804342925548553,0.07255036383867264
1783169624758259500,6.824259521484375,-0.39121145009994507,-0.20103244483470917,0.0594332329928875
1783169624768208400,6.83420849609375,-0.3373202383518219,-0.2123468816280365,0.02683720737695694
1783169624778187500,6.8441875,-0.28682538866996765,-0.18780691921710968,-0.019716180860996246
1783169624788136400,6.854136474609375,-0.24919943511486053,-0.1565086543560028,-0.06088652089238167
1783169624798085400,6.86408544921875,-0.22326983511447906,-0.09855986386537552,-0.08701931685209274
1783169624808033500,6.874033447265625,-0.20900700986385345,-0.02882365882396698,-0.09161673486232758
1783169624818013400,6.884013427734375,-0.20778408646583557,-0.013347763568162918,-0.08401154726743698
1783169624827961300,6.89396142578125,-0.208553746342659,-0.02749527432024479,-0.06302530318498611
1783169624837910500,6.90391064453125,-0.21724043786525726,-0.024380972608923912,-0.013494503684341908
1783169624847889400,6.913889404296875,-0.23031096160411835,-0.01920325495302677,0.04800640791654587
1783169624857838300,6.92383837890625,-0.22739188373088837,-0.015084144659340382,0.10170026123523712
1783169624867787500,6.93378759765625,-0.1978406459093094,0.007398527581244707,0.1413230448961258
1783169624877736400,6.943736328125,-0.15743009746074677,0.060330718755722046,0.159371018409729
1783169624887715600,6.953715576171875,-0.1269686073064804,0.13232049345970154,0.17028598487377167
1783169624897664500,6.96366455078125,-0.11775459349155426,0.23904134333133698,0.1829194873571396
1783169624907612700,6.97361279296875,-0.12330196052789688,0.38119128346443176,0.20316696166992188
1783169624917591600,6.983591552734375,-0.10973475128412247,0.5970010757446289,0.25609517097473145
1783169624927540500,6.99354052734375,-0.06962595134973526,0.8475081324577332,0.35161688923835754
1783169624937489400,7.003489501953125,-0.035898610949516296,1.0494720935821533,0.45631879568099976
1783169624947438600,7.0134384765625,-0.014855911023914814,1.0819885730743408,0.515397846698761
1783169624957417500,7.02341748046875,-0.013229252770543098,0.8317224979400635,0.47489622235298157
1783169624967366400,7.033366455078125,-0.00022796659322921187,0.3204704225063324,0.3120822608470917
1783169624977314600,7.043314453125,0.0070190271362662315,-0.22786246240139008,0.07714778184890747
1783169624987294500,7.05329443359375,-0.009123191237449646,-0.617318868637085,-0.158028244972229
1783169624997242400,7.063242431640625,-0.0229354090988636,-0.8429551720619202,-0.3792218863964081
1783169625007191300,7.07319140625,-0.01347346417605877,-0.8358240723609924,-0.5541196465492249
1783169625017140500,7.083140380859375,0.019353458657860756,-0.5830439925193787,-0.6124072074890137
1783169625027119400,7.093119384765625,0.06904777884483337,-0.20841871201992035,-0.5340290665626526
1783169625037068300,7.103068359375,0.11687495559453964,0.1980273276567459,-0.33236461877822876
1783169625047017500,7.113017578125,0.15113438665866852,0.5027244091033936,-0.039619848132133484
1783169625056996600,7.12299658203125,0.16314470767974854,0.5997278690338135,0.2770651578903198
1783169625066945500,7.132945556640625,0.14216220378875732,0.4450794756412506,0.545661211013794
1783169625076893700,7.142893798828125,0.0947217121720314,0.13207361102104187,0.7280595302581787
1783169625086842600,7.152842529296875,0.04376798868179321,-0.19649174809455872,0.8174197673797607
1783169625096821500,7.162821533203125,0.012425510212779045,-0.4567294716835022,0.8123126029968262
1783169625106770400,7.1727705078125,-0.0027952538803219795,-0.5867351293563843,0.7112498879432678
1783169625116719400,7.18271923828125,-0.00888110976666212,-0.5474063754081726,0.5496988296508789
1783169625126667500,7.19266748046875,-0.009242500178515911,-0.38835734128952026,0.3744010329246521
1783169625136647400,7.2026474609375,-0.01507082860916853,-0.20236802101135254,0.19949179887771606
1783169625146595600,7.212595703125,-0.02793123386800289,-0.054797735065221786,0.06019702926278114
1783169625156544500,7.22254443359375,-0.038493331521749496,0.026558373123407364,-0.04021772742271423
1783169625166523400,7.2325234375,-0.05495672672986984,0.031676702201366425,-0.09476272761821747
1783169625176472300,7.242472412109375,-0.08347838371992111,-0.04721997678279877,-0.11367729306221008
1783169625186421500,7.25242138671875,-0.12216398864984512,-0.13686437904834747,-0.10217484086751938
1783169625196370400,7.262370361328125,-0.16842496395111084,-0.22961588203907013,-0.07034606486558914
1783169625206349300,7.272349365234375,-0.23457202315330505,-0.34850338101387024,-0.024571388959884644
1783169625216298500,7.282298583984375,-0.3072099983692169,-0.4780137240886688,0.026558905839920044
1783169625226246700,7.29224658203125,-0.36112117767333984,-0.5966213345527649,0.0553751066327095
1783169625236226600,7.3022265625,-0.3631260097026825,-0.6872318983078003,0.03979694843292236
1783169625246174500,7.312174560546875,-0.3040730655193329,-0.7284616231918335,-0.02647688053548336
1783169625256123600,7.32212353515625,-0.14016349613666534,-0.7337504029273987,-0.132695734500885
1783169625266072600,7.332072509765625,0.13124217092990875,-0.673209011554718,-0.2733961343765259
1783169625276051500,7.342051513671875,0.3635936677455902,-0.5355808734893799,-0.4081946909427643
1783169625286007600,7.352007568359375,0.5282260179519653,-0.33795779943466187,-0.5262909531593323
1783169625295955700,7.361955810546875,0.6193156838417053,-0.18606440722942352,-0.6074816584587097
1783169625305935600,7.371935546875,0.6294873952865601,-0.15038257837295532,-0.6462075114250183
1783169625315883500,7.381883544921875,0.6108479499816895,-0.2337067723274231,-0.6439979076385498
1783169625325832700,7.391832763671875,0.5698940753936768,-0.2588494122028351,-0.5888451337814331
1783169625335781600,7.40178173828125,0.45485591888427734,-0.3136005401611328,-0.49369946122169495
1783169625345760500,7.411760498046875,0.281011164188385,-0.3786320090293884,-0.3638514578342438
1783169625355709400,7.42170947265625,0.082283154129982,-0.408070832490921,-0.2067611664533615
1783169625365659000,7.431658935546875,-0.099317267537117,-0.36535772681236267,-0.02129756473004818
1783169625375637500,7.441637451171875,-0.23943069577217102,-0.2595575451850891,0.17225565016269684
1783169625385586700,7.451586669921875,-0.3309060335159302,-0.11561820656061172,0.3620234429836273
1783169625395534800,7.461534912109375,-0.3841010630130768,0.03015577234327793,0.5216187238693237
1783169625405483800,7.47148388671875,-0.4122685194015503,0.12057808041572571,0.6377364993095398
1783169625415462700,7.481462646484375,-0.42507511377334595,0.13141155242919922,0.7071430087089539
1783169625425411600,7.49141162109375,-0.4208257794380188,0.0742204338312149,0.7141695022583008
1783169625435360800,7.50136083984375,-0.3946703374385834,-0.043778907507658005,0.6658856272697449
1783169625445339600,7.511339599609375,-0.35585397481918335,-0.1978267878293991,0.591384768486023
1783169625455288600,7.52128857421875,-0.31244418025016785,-0.35967934131622314,0.5033251643180847
1783169625465236700,7.53123681640625,-0.2703563868999481,-0.5024948120117188,0.41739776730537415
1783169625475185700,7.541185546875,-0.24436314404010773,-0.624785304069519,0.34064120054244995
1783169625485164500,7.55116455078125,-0.23208622634410858,-0.6807801127433777,0.2647075653076172
1783169625495113700,7.56111376953125,-0.23441515862941742,-0.6713533401489258,0.1911049783229828
1783169625505062700,7.571062744140625,-0.25823554396629333,-0.6231858134269714,0.1436900496482849
1783169625515041500,7.58104150390625,-0.28905656933784485,-0.5711787939071655,0.12531663477420807
1783169625524990500,7.590990478515625,-0.3160000443458557,-0.5314686894416809,0.14823420345783234
1783169625534939600,7.600939697265625,-0.3239003121852875,-0.4382053017616272,0.2214178740978241
1783169625544887600,7.610887451171875,-0.3147086799144745,-0.2486758679151535,0.3452008068561554
1783169625554867700,7.62086767578125,-0.318785160779953,-0.044195957481861115,0.4827224314212799
1783169625564816000,7.63081591796875,-0.35147812962532043,0.02966521680355072,0.5828344225883484
1783169625574764800,7.640764892578125,-0.4205397665500641,-0.09257733821868896,0.5829017758369446
1783169625584743700,7.65074365234375,-0.5071945190429688,-0.4097321331501007,0.43374958634376526
1783169625594692600,7.660692626953125,-0.5900260210037231,-0.7538633942604065,0.1451747715473175
1783169625604641800,7.670641845703125,-0.6533432006835938,-0.9446038007736206,-0.22942332923412323
1783169625614589700,7.680589599609375,-0.6869283318519592,-0.8462114334106445,-0.591093122959137
1783169625624569600,7.690569580078125,-0.6863275170326233,-0.4478030800819397,-0.8481462001800537
1783169625634517800,7.700517822265625,-0.6534774303436279,0.06121835112571716,-0.9517709016799927
1783169625644466700,7.710466796875,-0.622984766960144,0.4859374165534973,-0.8880025744438171
1783169625654445600,7.720445556640625,-0.6151473522186279,0.7034643888473511,-0.683060348033905
1783169625664394500,7.73039453125,-0.6298229694366455,0.7025173902511597,-0.38739487528800964
1783169625674343700,7.74034375,-0.6511332988739014,0.5681324005126953,-0.06303010135889053
1783169625684292600,7.750292724609375,-0.6573438048362732,0.346691370010376,0.23749564588069916
1783169625694271500,7.760271484375,-0.6397117972373962,0.14767122268676758,0.47615882754325867
1783169625704220400,7.770220458984375,-0.586759090423584,0.008963934145867825,0.6272982954978943
1783169625714168600,7.78016845703125,-0.4986167252063751,-0.08390714973211288,0.6847149729728699
1783169625724148700,7.790148681640625,-0.39377766847610474,-0.13815946877002716,0.6525378227233887
1783169625734096600,7.8000966796875,-0.2821595072746277,-0.13595996797084808,0.5605743527412415
1783169625744045800,7.8100458984375,-0.17628873884677887,-0.08915464580059052,0.43854352831840515
1783169625753994800,7.819994873046875,-0.09419654309749603,-0.028207402676343918,0.3186458945274353
1783169625763973600,7.8299736328125,-0.06777292490005493,-0.006010221783071756,0.2461160272359848
1783169625773922600,7.839922607421875,-0.09796597808599472,-0.03056083805859089,0.2187560498714447
1783169625783870700,7.84987060546875,-0.17780780792236328,-0.08278089761734009,0.24545156955718994
1783169625793850600,7.8598505859375,-0.27803322672843933,-0.11747682839632034,0.30403393507003784
1783169625803798800,7.869798828125,-0.3597120940685272,-0.10418232530355453,0.38066691160202026
1783169625813747700,7.879747802734375,-0.4126216471195221,-0.038769498467445374,0.458087682723999
1783169625823696600,7.889696533203125,-0.4479160010814667,0.04163159802556038,0.5187310576438904
1783169625833675500,7.899675537109375,-0.4594935476779938,0.09505567699670792,0.5280393362045288
1783169625843624700,7.909624755859375,-0.44988566637039185,0.0667412132024765,0.4724719524383545
1783169625853573600,7.91957373046875,-0.4206012785434723,-0.02797437645494938,0.3655151426792145
1783169625863552500,7.929552490234375,-0.39479151368141174,-0.1510387808084488,0.22534842789173126
1783169625873501400,7.93950146484375,-0.3635329306125641,-0.23933269083499908,0.0790330320596695
1783169625883449600,7.94944970703125,-0.3310282528400421,-0.24611896276474,-0.06958280503749847
1783169625893398800,7.959398681640625,-0.29846712946891785,-0.17984700202941895,-0.19261552393436432
1783169625903377400,7.96937744140625,-0.270254909992218,-0.03524933382868767,-0.28254327178001404
1783169625913326800,7.979326904296875,-0.24465875327587128,0.1407235562801361,-0.3362616300582886
1783169625923275800,7.98927587890625,-0.2281428873538971,0.26590490341186523,-0.34659337997436523
1783169625933254700,7.999254638671875,-0.22500728070735931,0.29531872272491455,-0.31915295124053955
1783169625943203600,8.00920361328125,-0.23709483444690704,0.23851190507411957,-0.24940796196460724
1783169625953151700,8.01915185546875,-0.25714629888534546,0.105873703956604,-0.1492009311914444
1783169625963100700,8.0291005859375,-0.27735570073127747,-0.05872669816017151,-0.04023636877536774
1783169625973079800,8.039079833984376,-0.3090481162071228,-0.22650663554668427,0.05794745683670044
1783169625983028700,8.04902880859375,-0.35641297698020935,-0.37108325958251953,0.1293468028306961
1783169625992977700,8.058977783203124,-0.4185338616371155,-0.4612613618373871,0.17250439524650574
1783169626002956500,8.06895654296875,-0.46162915229797363,-0.44833651185035706,0.1935308426618576
1783169626012905500,8.078905517578125,-0.46423158049583435,-0.3374811112880707,0.18122118711471558
1783169626022854700,8.088854736328125,-0.4291870594024658,-0.18043369054794312,0.13787025213241577
1783169626032802600,8.098802490234375,-0.385206013917923,-0.02412397786974907,0.0837407037615776
1783169626042782500,8.108782470703124,-0.3436705470085144,0.0967358648777008,0.024643294513225555
1783169626052730600,8.118730712890626,-0.30745023488998413,0.15583007037639618,-0.02684359811246395
1783169626062679800,8.1286796875,-0.2889300584793091,0.1314552277326584,-0.05456923693418503
1783169626072658400,8.138658447265625,-0.30146902799606323,0.05867103487253189,-0.08087460696697235
1783169626082607900,8.14860791015625,-0.35281264781951904,-0.022542860358953476,-0.11072411388158798
1783169626092556800,8.158556884765625,-0.39755988121032715,-0.06843232363462448,-0.14434759318828583
1783169626102504700,8.168504638671875,-0.3972717225551605,0.0041457428596913815,-0.1599867343902588
1783169626112484600,8.178484619140624,-0.368916779756546,0.2058330625295639,-0.13264459371566772
1783169626122432800,8.188432861328126,-0.32451337575912476,0.3211500644683838,-0.09583678096532822
1783169626132381700,8.198381591796876,-0.25739797949790955,0.13368456065654755,-0.1295478790998459
1783169626142360600,8.208360595703125,-0.18667134642601013,-0.37692731618881226,-0.2980165183544159
1783169626152309800,8.218309814453125,-0.14247165620326996,-0.9241962432861328,-0.5567612648010254
1783169626162258700,8.2282587890625,-0.10713284462690353,-1.1970528364181519,-0.8096196055412292
1783169626172207600,8.23820751953125,-0.07184143364429474,-1.0599210262298584,-0.9766882061958313
1783169626182186500,8.2481865234375,-0.03734550625085831,-0.6112223863601685,-1.010472059249878
1783169626192135700,8.2581357421875,-0.029737921431660652,-0.03345569595694542,-0.9104066491127014
1783169626202083600,8.26808349609375,-0.04908738657832146,0.4929753541946411,-0.6892351508140564
1783169626212063500,8.2780634765625,-0.08485417068004608,0.8409993648529053,-0.37528014183044434
1783169626222011600,8.28801171875,-0.12545272707939148,0.9275164008140564,-0.045581597834825516
1783169626231960600,8.297960693359375,-0.14541710913181305,0.744036078453064,0.24241796135902405
1783169626241909800,8.30790966796875,-0.19504378736019135,0.3745408356189728,0.4544340670108795
1783169626251888600,8.317888671875,-0.2129351794719696,-0.0013283847365528345,0.5908496975898743
1783169626261837800,8.327837890625,-0.12772414088249207,-0.4126160740852356,0.6004235148429871
1783169626271785700,8.33778564453125,0.011537612415850163,-0.675667405128479,0.5305211544036865
1783169626281790500,8.34779052734375,0.16272206604480743,-0.752631664276123,0.3977316617965698
1783169626291738600,8.357738525390625,0.32184407114982605,-0.6223141551017761,0.2244594693183899
1783169626301687800,8.367687744140625,0.4451633393764496,-0.37881600856781006,0.055100005120038986
1783169626311636700,8.37763671875,0.5075905323028564,-0.16806091368198395,-0.09078209847211838
1783169626321615600,8.38761572265625,0.5067121982574463,0.011480354703962803,-0.17829810082912445
1783169626331564500,8.397564453125,0.4553994834423065,0.1846286952495575,-0.20113949477672577
1783169626341513700,8.407513671875,0.3584529459476471,0.3065956234931946,-0.16578364372253418
1783169626351492600,8.41749267578125,0.24095003306865692,0.3420007526874542,-0.09225030243396759
1783169626361441500,8.427441650390625,0.11582859605550766,0.3046722710132599,-0.001955292886123061
1783169626371389700,8.4373896484375,-0.0022945795208215714,0.19570878148078918,0.07895074039697647
1783169626381338600,8.447338623046875,-0.09877824038267136,0.026331206783652306,0.1260649859905243
1783169626391317500,8.4573173828125,-0.1562758833169937,-0.12083214521408081,0.13056014478206635
1783169626401266700,8.4672666015625,-0.14274117350578308,-0.22029241919517517,0.09714598953723907
1783169626411215600,8.477215576171876,-0.07404813170433044,-0.3039476275444031,0.03214168921113014
1783169626421194500,8.487194580078125,0.013734187930822372,-0.3358035683631897,-0.044886514544487
1783169626431143400,8.497143310546875,0.09548977017402649,-0.3113975524902344,-0.10555492341518402
1783169626441092600,8.507092529296875,0.1595209538936615,-0.24334128201007843,-0.1452093869447708
1783169626451040500,8.51704052734375,0.1921800971031189,-0.15919044613838196,-0.14976578950881958
1783169626461019400,8.527019287109376,0.18381057679653168,-0.09262420982122421,-0.11383655667304993
1783169626470968800,8.53696875,0.13802018761634827,-0.07652833312749863,-0.05846863612532616
1783169626480917800,8.546917724609376,0.06269853562116623,-0.10593974590301514,0.009227054193615913
1783169626490866700,8.55686669921875,-0.0102592958137393,-0.1460655927658081,0.07994463294744492
1783169626500845600,8.566845458984375,-0.06791806221008301,-0.19190339744091034,0.12677791714668274
1783169626510794800,8.576794677734375,-0.10111063718795776,-0.23261913657188416,0.1492006629705429
1783169626520742700,8.58674267578125,-0.11053503304719925,-0.2660183608531952,0.15228168666362762
1783169626530722600,8.59672265625,-0.1073291227221489,-0.3077447712421417,0.13627448678016663
1783169626540670700,8.606670654296876,-0.09323247522115707,-0.3369194269180298,0.11554443836212158
1783169626550619600,8.61661962890625,-0.07225342094898224,-0.33704620599746704,0.09744372963905334
1783169626560568600,8.626568603515626,-0.0513252392411232,-0.29471418261528015,0.09346843510866165
1783169626570547500,8.63654736328125,-0.04090562090277672,-0.22233213484287262,0.11072757840156555
1783169626580496600,8.64649658203125,-0.055085889995098114,-0.1494813710451126,0.14210361242294312
1783169626590445600,8.656445556640625,-0.09078209847211838,-0.10185205936431885,0.17680566012859344
1783169626600424400,8.666424560546876,-0.1330038607120514,-0.0954492911696434,0.22010865807533264
1783169626610373400,8.676373291015626,-0.18060466647148132,-0.11649918556213379,0.2599881589412689
1783169626620321500,8.686321533203126,-0.2300797998905182,-0.17082154750823975,0.2962532341480255
1783169626630270700,8.696270751953126,-0.26889511942863464,-0.24716505408287048,0.33210790157318115
1783169626640249600,8.70624951171875,-0.2989869713783264,-0.30843427777290344,0.36550262570381165
1783169626650198800,8.71619873046875,-0.31452250480651855,-0.34559282660484314,0.3884798288345337
1783169626660147700,8.726147705078125,-0.3280268609523773,-0.37962642312049866,0.39133182168006897
1783169626670126600,8.736126708984376,-0.33902573585510254,-0.4240436851978302,0.37320980429649353
1783169626680075500,8.746075439453126,-0.3529287576675415,-0.479686439037323,0.3376299738883972
1783169626690023700,8.756023681640626,-0.36243224143981934,-0.5204498767852783,0.301558256149292
1783169626699972600,8.76597265625,-0.37831854820251465,-0.5368890166282654,0.27282193303108215
1783169626709951700,8.77595166015625,-0.4101414382457733,-0.5502538084983826,0.28072142601013184
1783169626719900700,8.785900634765625,-0.4531203508377075,-0.505753219127655,0.3264787793159485
1783169626729849600,8.795849609375,-0.5046098828315735,-0.36951306462287903,0.4220537841320038
1783169626739828500,8.805828369140626,-0.5481352806091309,-0.20318268239498138,0.5403138399124146
1783169626749777700,8.815777587890626,-0.583323061466217,-0.1482246220111847,0.6285984516143799
1783169626759726600,8.8257265625,-0.6293177604675293,-0.30372658371925354,0.6181622743606567
1783169626769674500,8.835674560546876,-0.6865938305854797,-0.5719940066337585,0.490030437707901
1783169626779654400,8.845654296875,-0.7716138958930969,-0.7946073412895203,0.2467847466468811
1783169626789602600,8.8556025390625,-0.8687636256217957,-0.9549791812896729,-0.09070300310850143
1783169626799551700,8.8655517578125,-0.9666768908500671,-1.0559226274490356,-0.4969269335269928
1783169626809530600,8.875530517578126,-1.0219472646713257,-1.0696862936019897,-0.9216002225875854
1783169626819479800,8.885479736328126,-1.015122413635254,-0.9049229621887207,-1.2885183095932007
1783169626829428700,8.8954287109375,-0.9611359238624573,-0.5986719727516174,-1.5421814918518066
1783169626839376600,8.905376708984376,-0.8846027851104736,-0.2473892867565155,-1.6609266996383667
1783169626849356500,8.9153564453125,-0.7964867353439331,0.08537588268518448,-1.6438218355178833
1783169626859304700,8.9253046875,-0.7164097428321838,0.36878976225852966,-1.482617974281311
1783169626869253600,8.935253662109375,-0.6467888951301575,0.5543715953826904,-1.1952035427093506
1783169626879232800,8.945232666015626,-0.5948497653007507,0.5255956053733826,-0.8371471166610718
1783169626889181700,8.955181640625,-0.5500367879867554,0.3113533556461334,-0.4541611075401306
1783169626899130600,8.965130615234376,-0.4881260097026825,0.032774459570646286,-0.08487360924482346
1783169626909079600,8.97507958984375,-0.40185022354125977,-0.24668674170970917,0.22099922597408295
1783169626919058700,8.98505859375,-0.30164745450019836,-0.4929303526878357,0.4457755982875824
1783169626929007600,8.995007568359375,-0.21933741867542267,-0.6686832308769226,0.5810591578483582
1783169626938955500,9.00495556640625,-0.16961246728897095,-0.735671877861023,0.6326490640640259
1783169626948935400,9.014935302734376,-0.1787300705909729,-0.7112621665000916,0.6192840337753296
1783169626958883600,9.024883544921876,-0.23277811706066132,-0.6411126255989075,0.54327392578125
1783169626968832500,9.03483251953125,-0.3285698890686035,-0.5764662623405457,0.41039150953292847
1783169626978781700,9.04478173828125,-0.449723482131958,-0.5261250734329224,0.24768276512622833
1783169626988760800,9.0547607421875,-0.5750406384468079,-0.4358465373516083,0.08748244494199753
1783169626998709800,9.064709716796875,-0.68620765209198,-0.3194749355316162,-0.0495811365544796
1783169627008657700,9.07465771484375,-0.7683067917823792,-0.22211216390132904,-0.15245665609836578
1783169627018637600,9.084637451171876,-0.819502055644989,-0.16682547330856323,-0.21999788284301758
1783169627028585700,9.094585693359376,-0.8456793427467346,-0.1483873426914215,-0.25959882140159607
1783169627038534700,9.10453466796875,-0.8355582356452942,-0.16187705099582672,-0.2674282491207123
1783169627048483600,9.114483642578126,-0.7888794541358948,-0.19010256230831146,-0.2386903315782547
1783169627058462700,9.124462646484375,-0.7271311283111572,-0.2490532249212265,-0.1960693746805191
1783169627068411600,9.13441162109375,-0.6620386838912964,-0.3337513506412506,-0.14773645997047424
1783169627078360600,9.144360595703125,-0.6068675518035889,-0.37693503499031067,-0.08693064004182816
1783169627088339500,9.15433935546875,-0.5713162422180176,-0.35836321115493774,-0.01636086404323578
1783169627098288600,9.16428857421875,-0.5572547316551208,-0.2932979166507721,0.06132727488875389
1783169627108236500,9.174236572265626,-0.5594276189804077,-0.22163519263267517,0.13436180353164673
1783169627118185500,9.184185546875,-0.5685529112815857,-0.19155532121658325,0.20053735375404358
1783169627128164600,9.19416455078125,-0.5730893611907959,-0.16576366126537323,0.2521699368953705
1783169627138113500,9.204113525390625,-0.5801882743835449,-0.16329731047153473,0.2903476655483246
1783169627148062700,9.214062744140625,-0.5793666839599609,-0.1968614012002945,0.30567604303359985
1783169627158041600,9.22404150390625,-0.5704554915428162,-0.2344958633184433,0.30916982889175415
1783169627167990800,9.23399072265625,-0.5610998272895813,-0.24451494216918945,0.32130852341651917
1783169627177938700,9.243938720703126,-0.5546752214431763,-0.24302570521831512,0.326631635427475
1783169627187887600,9.2538876953125,-0.548120379447937,-0.2599961459636688,0.30666273832321167
1783169627197866800,9.26386669921875,-0.5535199046134949,-0.2868384122848511,0.26065823435783386
1783169627207815700,9.273815673828125,-0.5665390491485596,-0.30839645862579346,0.20458057522773743
1783169627217764600,9.2837646484375,-0.5788806676864624,-0.3162655532360077,0.14454439282417297
1783169627227743700,9.29374365234375,-0.592656672000885,-0.30125892162323,0.09445273876190186
1783169627237692700,9.303692626953126,-0.6095160841941833,-0.2720696032047272,0.051175303757190704
1783169627247641600,9.3136416015625,-0.6242465376853943,-0.2451077550649643,0.0167922955006361
1783169627257589500,9.323589599609376,-0.6328381896018982,-0.2054932415485382,-0.00865980051457882
1783169627267569700,9.333569580078125,-0.6348134279251099,-0.1700388342142105,-0.021388379856944084
1783169627277517600,9.343517578125,-0.6294404864311218,-0.14525653421878815,-0.02598952315747738
1783169627287506400,9.35350634765625,-0.6187873482704163,-0.13939517736434937,-0.0220927856862545
1783169627297485000,9.363485107421875,-0.6023415327072144,-0.1454828977584839,-0.004878644831478596
1783169627307434200,9.373434326171875,-0.5737665891647339,-0.12489373236894608,0.038965776562690735
1783169627317383200,9.383383056640625,-0.5443647503852844,-0.1012541800737381,0.1064595952630043
1783169627327331300,9.393331298828125,-0.5159072875976562,-0.12062708288431168,0.19863346219062805
1783169627337311200,9.403311279296876,-0.490407794713974,-0.1280948519706726,0.31886425614356995
1783169627347259400,9.41325927734375,-0.47408849000930786,-0.06061354652047157,0.4685174226760864
1783169627357208300,9.423208251953126,-0.4522404372692108,0.07757681608200073,0.6476360559463501
1783169627367187200,9.433187255859375,-0.4164273142814636,0.20919770002365112,0.7996916174888611
1783169627377136000,9.44313623046875,-0.3831777572631836,0.16141551733016968,0.8743410706520081
1783169627387085300,9.453085205078125,-0.3766370117664337,-0.09675157815217972,0.8276652097702026
1783169627397034200,9.4630341796875,-0.3968466818332672,-0.4962012469768524,0.6590498089790344
1783169627407013000,9.47301318359375,-0.44980019330978394,-0.9734807014465332,0.3624173402786255
1783169627416962000,9.482962158203126,-0.5370005965232849,-1.3513672351837158,-0.01756381429731846
1783169627426910200,9.49291015625,-0.6304953694343567,-1.4051586389541626,-0.36515799164772034
1783169627436890000,9.50289013671875,-0.7173823714256287,-1.095941424369812,-0.5959235429763794
1783169627446838000,9.512838134765625,-0.7964705228805542,-0.5762569308280945,-0.6876164674758911
1783169627456787500,9.522787353515625,-0.845427930355072,-0.01774171181023121,-0.644957959651947
1783169627466736400,9.532736328125,-0.8452553749084473,0.42029768228530884,-0.48942774534225464
1783169627476715300,9.54271533203125,-0.7872780561447144,0.6404433846473694,-0.2600392997264862
1783169627486664200,9.552664306640626,-0.6983828544616699,0.6314157843589783,-0.016824252903461456
1783169627496612400,9.5626123046875,-0.5994666218757629,0.4033314883708954,0.18257513642311096
1783169627506592300,9.57259228515625,-0.488055944442749,0.048644766211509705,0.32127442955970764
1783169627516540400,9.58254052734375,-0.365180104970932,-0.3565272390842438,0.39767545461654663
1783169627526489300,9.5924892578125,-0.24892592430114746,-0.7070021629333496,0.43730756640434265
1783169627536438300,9.602438232421875,-0.15611369907855988,-0.8919320702552795,0.44895437359809875
1783169627546417200,9.612417236328126,-0.09252806752920151,-0.9095233082771301,0.4337588846683502
1783169627556366000,9.622365966796876,-0.05030471459031105,-0.795958399772644,0.3997969329357147
1783169627566315300,9.632315185546876,-0.0321829691529274,-0.5976415872573853,0.35548433661460876
1783169627576294100,9.642294189453125,-0.03775004297494888,-0.3719698190689087,0.3010413348674774
1783169627586243000,9.6522431640625,-0.07106591761112213,-0.18278685212135315,0.23728232085704803
1783169627596191200,9.662191162109375,-0.12804637849330902,-0.09196747094392776,0.16999836266040802
1783169627606140200,9.67214013671875,-0.20065639913082123,-0.08068738877773285,0.09090860188007355
1783169627616119000,9.682119140625,-0.27193430066108704,-0.12933801114559174,0.006194246467202902
1783169627626068200,9.692068115234376,-0.3199588358402252,-0.19217237830162048,-0.08481395989656448
1783169627636017400,9.702017333984376,-0.3377474248409271,-0.24264167249202728,-0.1839754283428192
1783169627645996300,9.711996337890625,-0.32769903540611267,-0.2982652485370636,-0.28916335105895996
1783169627655945200,9.7219453125,-0.304917573928833,-0.3082944452762604,-0.38014572858810425
1783169627665893400,9.731893310546875,-0.27697300910949707,-0.2619946002960205,-0.43534666299819946
1783169627675842300,9.74184228515625,-0.2346082478761673,-0.1882207691669464,-0.4598032832145691
1783169627685821200,9.7518212890625,-0.18218392133712769,-0.10809984058141708,-0.45125558972358704
1783169627695770400,9.761770263671876,-0.1261928230524063,-0.07911239564418793,-0.41187357902526855
1783169627705719300,9.77171923828125,-0.08670347183942795,-0.11368954926729202,-0.3534376919269562
1783169627715698200,9.7816982421875,-0.06319734454154968,-0.18079987168312073,-0.2883116900920868
1783169627725647000,9.791647216796875,-0.053396910429000854,-0.23773133754730225,-0.2191390097141266
1783169627735596300,9.80159619140625,-0.06447752565145493,-0.2811184823513031,-0.16321688890457153
1783169627745544200,9.811544189453125,-0.08572635799646378,-0.3039393723011017,-0.12243510037660599
1783169627755524000,9.821524169921876,-0.10031222552061081,-0.29860401153564453,-0.09388947486877441
1783169627765472300,9.83147216796875,-0.11803849041461945,-0.25560274720191956,-0.07126618921756744
1783169627775421200,9.841421142578126,-0.13847558200359344,-0.19727978110313416,-0.050153713673353195
1783169627785400000,9.851400146484375,-0.16259130835533142,-0.15233707427978516,-0.028191957622766495
1783169627795349200,9.861349365234375,-0.18486225605010986,-0.11671436578035355,-0.003067961661145091
1783169627805298400,9.87129833984375,-0.18927671015262604,-0.10212317109107971,0.022460835054516792
1783169627815246300,9.881246337890625,-0.17535024881362915,-0.10932090133428574,0.042995668947696686
1783169627825226200,9.891226318359376,-0.1558910608291626,-0.1254412829875946,0.06289507448673248
1783169627835174400,9.90117431640625,-0.14462189376354218,-0.16103681921958923,0.07775870710611343
1783169627845123300,9.911123291015626,-0.14077283442020416,-0.2056538313627243,0.08609546720981598
1783169627855102200,9.921102294921875,-0.14451217651367188,-0.24732697010040283,0.08442779630422592
1783169627865051400,9.931051513671875,-0.15812093019485474,-0.26838192343711853,0.07891958206892014
1783169627875000300,9.941000244140625,-0.17521363496780396,-0.2620486617088318,0.0698629692196846
1783169627884949200,9.95094921875,-0.19860416650772095,-0.22152014076709747,0.06627596169710159
1783169627894928100,9.96092822265625,-0.2292824536561966,-0.16927318274974823,0.0623248927295208
1783169627904877300,9.970877197265626,-0.2621948719024658,-0.1371956765651703,0.0624505952000618
1783169627914825200,9.9808251953125,-0.2756776511669159,-0.1433880478143692,0.06403357535600662
1783169627924774100,9.990774169921876,-0.26949670910835266,-0.19396041333675385,0.06228254735469818
1783169627934753300,10.000753173828125,-0.25251108407974243,-0.27536287903785706,0.054557252675294876
1783169627944702200,10.0107021484375,-0.23428599536418915,-0.3848552703857422,0.042457446455955505
1783169627954651100,10.020651123046875,-0.21547503769397736,-0.4682212769985199,0.021033912897109985
1783169627964630000,10.030630126953126,-0.2015770524740219,-0.5114779472351074,-0.010965831577777863
1783169627974579500,10.040579345703126,-0.18804526329040527,-0.5284848809242249,-0.04194611683487892
1783169627984527400,10.05052734375,-0.17836734652519226,-0.5061483979225159,-0.05227412283420563
1783169627994476300,10.060476318359376,-0.17058825492858887,-0.449726402759552,-0.021152157336473465
1783169628004455400,10.070455322265625,-0.17335793375968933,-0.336262971162796,0.047860465943813324
1783169628014404400,10.080404296875,-0.2003602534532547,-0.16435885429382324,0.15412192046642303
1783169628024353300,10.090353271484375,-0.2468942105770111,-0.08550771325826645,0.2419993132352829
1783169628034332200,10.100332275390626,-0.309516578912735,-0.20895268023014069,0.24827025830745697
1783169628044281300,10.11028125,-0.35782390832901,-0.4428195059299469,0.18075087666511536
1783169628054230300,10.120230224609376,-0.37973639369010925,-0.6084161996841431,0.07740025222301483
1783169628064178200,10.13017822265625,-0.39032140374183655,-0.6968467235565186,-0.053997188806533813
1783169628074158000,10.140157958984375,-0.38307201862335205,-0.7886133790016174,-0.2267167717218399
1783169628084106200,10.150106201171875,-0.3572790324687958,-0.8183276057243347,-0.41599854826927185
1783169628094055200,10.16005517578125,-0.33346131443977356,-0.694047212600708,-0.5674533247947693
1783169628104034300,10.170034423828126,-0.32941171526908875,-0.4839293956756592,-0.6456314921379089
1783169628113983200,10.179983154296876,-0.35634320974349976,-0.24529710412025452,-0.6411336660385132
1783169628123932200,10.18993212890625,-0.41365867853164673,-0.003944141324609518,-0.5707774758338928
1783169628133881300,10.19988134765625,-0.4816204309463501,0.22395427525043488,-0.4612264633178711
1783169628143860200,10.209860107421875,-0.5255969166755676,0.3812035322189331,-0.3519148826599121
1783169628153809400,10.219809326171875,-0.5210453271865845,0.42778676748275757,-0.2660950720310211
1783169628163757300,10.22975732421875,-0.46977123618125916,0.3872680962085724,-0.2027086317539215
1783169628173736400,10.239736328125,-0.3794589042663574,0.28976204991340637,-0.14847388863563538
1783169628183685400,10.249685302734376,-0.25906723737716675,0.15781359374523163,-0.09182126820087433
1783169628193634300,10.25963427734375,-0.11244691908359528,0.013891846872866154,-0.03584401682019234
1783169628203583200,10.269583251953126,0.050280481576919556,-0.10565745085477829,0.022282935678958893
1783169628213562400,10.279562255859375,0.2035621851682663,-0.19137848913669586,0.08383231610059738
1783169628223511300,10.28951123046875,0.307758092880249,-0.237751305103302,0.14402109384536743
1783169628233459200,10.299459228515625,0.34042122960090637,-0.22843104600906372,0.19701772928237915
1783169628243439000,10.309439208984376,0.3105597198009491,-0.16702893376350403,0.2520886957645416
1783169628253387300,10.31938720703125,0.22512179613113403,-0.09672414511442184,0.2919114828109741
1783169628263336200,10.329336181640626,0.11391618102788925,-0.03749198094010353,0.3137856125831604
1783169628273285000,10.33928515625,-0.007678425870835781,0.006594785954803228,0.3150772452354431
1783169628283271400,10.349271484375,-0.12067128717899323,0.01149819791316986,0.2822495400905609
1783169628293220400,10.359220458984375,-0.2144816666841507,-0.026379676535725594,0.22045060992240906
1783169628303169500,10.36916943359375,-0.2776172161102295,-0.06679261475801468,0.135742649435997
1783169628313148400,10.3791484375,-0.30642572045326233,-0.1098809614777565,0.032218389213085175
1783169628323097300,10.389097412109376,-0.309407114982605,-0.14319577813148499,-0.09069767594337463
1783169628333045500,10.39904541015625,-0.30303284525871277,-0.1599438637495041,-0.22651515901088715
1783169628342994400,10.408994384765625,-0.28640085458755493,-0.14544028043746948,-0.35544145107269287
1783169628352973600,10.4189736328125,-0.25953251123428345,-0.07931985706090927,-0.4475055932998657
1783169628362922500,10.428922607421875,-0.22725045680999756,0.016379239037632942,-0.4905441403388977
1783169628372871400,10.438871337890625,-0.21299296617507935,0.14630074799060822,-0.4722445011138916
1783169628382850300,10.448850341796875,-0.21606092154979706,0.2577441930770874,-0.3983471095561981
1783169628392799500,10.458799560546876,-0.22635164856910706,0.32206326723098755,-0.27494528889656067
1783169628402747400,10.468747314453125,-0.22266343235969543,0.33537986874580383,-0.13833816349506378
1783169628412696300,10.4786962890625,-0.20370066165924072,0.28709861636161804,-0.012315255589783192
1783169628422675500,10.488675537109375,-0.17776121199131012,0.19369782507419586,0.06687942892313004
1783169628432624400,10.498624267578125,-0.1430695354938507,0.10906390100717545,0.08573674410581589
1783169628442573300,10.5085732421875,-0.11085940897464752,0.04420500993728638,0.04090056195855141
1783169628452552200,10.51855224609375,-0.07837975770235062,0.0006002765148878098,-0.06461893767118454
1783169628462501400,10.52850146484375,-0.04059829190373421,0.009428922086954117,-0.2097255289554596
1783169628472450600,10.538450439453126,-0.008707204833626747,0.07892224937677383,-0.3504948914051056
1783169628482398500,10.5483984375,0.011795672588050365,0.178946852684021,-0.46599113941192627
1783169628492378400,10.55837841796875,0.03469859063625336,0.27770885825157166,-0.5319765210151672
1783169628502326500,10.568326416015625,0.047079361975193024,0.35873177647590637,-0.5241327285766602
1783169628512275500,10.578275390625,0.04788549989461899,0.38592401146888733,-0.44585445523262024
1783169628522254600,10.588254638671875,0.054790545254945755,0.4013037383556366,-0.3274380564689636
1783169628532203500,10.59820361328125,0.06252463161945343,0.39137548208236694,-0.1942770630121231
1783169628542152400,10.60815234375,0.06972741335630417,0.3523937463760376,-0.0937933400273323
1783169628552100400,10.618100341796875,0.06627089530229568,0.3085775375366211,-0.03013446554541588
1783169628562080300,10.628080322265625,0.060030847787857056,0.277312308549881,0.009249158203601837
1783169628572028400,10.6380283203125,0.055079761892557144,0.2389366775751114,0.0419868640601635
1783169628581977300,10.647977294921875,0.0501989871263504,0.24441853165626526,0.07945247739553452
1783169628591956500,10.65795654296875,0.04319886863231659,0.24673840403556824,0.12048540264368057
1783169628601905400,10.667905517578125,0.03319923207163811,0.22177579998970032,0.163667231798172
1783169628611854300,10.677854248046875,0.02635517530143261,0.23276667296886444,0.2113623172044754
1783169628621803300,10.68780322265625,0.020132698118686676,0.3143443465232849,0.25447383522987366
1783169628631782400,10.697782470703125,-0.0013494236627593637,0.4636182487010956,0.2943224310874939
1783169628641731600,10.707731689453125,-0.0346360057592392,0.516230046749115,0.32910147309303284
1783169628651679500,10.717679443359375,-0.06919318437576294,0.27806705236434937,0.28923314809799194
1783169628661659400,10.727659423828126,-0.0898318886756897,-0.2283838987350464,0.11593858897686005
1783169628671607600,10.737607666015625,-0.08779749274253845,-0.7362761497497559,-0.1495942920446396
1783169628681556500,10.747556396484375,-0.08829230815172195,-0.9489783048629761,-0.4122634530067444
1783169628691505400,10.75750537109375,-0.09925734251737595,-0.8740009665489197,-0.5922449231147766
1783169628701484500,10.767484619140625,-0.12352672964334488,-0.6305305361747742,-0.688819408416748
1783169628711433500,10.77743359375,-0.1437917947769165,-0.3427240550518036,-0.6986818909645081
1783169628721381400,10.78738134765625,-0.14746269583702087,-0.04827085882425308,-0.6088380217552185
1783169628731361300,10.797361328125,-0.11459475755691528,0.34730735421180725,-0.43449047207832336
1783169628741309400,10.807309326171875,-0.09193844348192215,0.6527615785598755,-0.22301258146762848
1783169628751258400,10.81725830078125,-0.08957835286855698,0.6943801045417786,-0.020357735455036163
1783169628761207300,10.827207275390625,-0.09311609715223312,0.5600992441177368,0.17851142585277557
1783169628771186400,10.8371865234375,-0.09327349066734314,0.3719192445278168,0.360431432723999
1783169628781135400,10.84713525390625,-0.08350448310375214,0.14218802750110626,0.4865265190601349
1783169628791084300,10.857084228515625,-0.0425538532435894,-0.12987783551216125,0.5299317836761475
1783169628801063400,10.8670634765625,0.035955868661403656,-0.3621824383735657,0.47343307733535767
1783169628811012600,10.8770126953125,0.1327439248561859,-0.49157851934432983,0.3302604556083679
1783169628820960300,10.886960205078125,0.21519993245601654,-0.5080664157867432,0.12314456701278687
1783169628830909400,10.896909423828125,0.27987879514694214,-0.3996691107749939,-0.1001548320055008
1783169628840888600,10.906888671875,0.31843283772468567,-0.20643439888954163,-0.3030293881893158
1783169628850837500,10.91683740234375,0.31504902243614197,-0.034398455172777176,-0.46207308769226074
1783169628860786400,10.926786376953125,0.27364352345466614,0.05884414166212082,-0.5641714930534363
1783169628870765600,10.936765625,0.19483765959739685,0.08842067420482635,-0.5942367315292358
1783169628880714500,10.946714599609376,0.09434354305267334,0.08983268588781357,-0.5633230209350586
1783169628890662400,10.956662353515625,-0.0011283813510090113,0.08359582722187042,-0.49015238881111145
1783169628900611300,10.966611328125,-0.06571856141090393,0.068552166223526,-0.39667731523513794
1783169628910590500,10.976590576171875,-0.09380345791578293,0.04778589680790901,-0.2982042729854584
1783169628920539400,10.986539306640625,-0.08345761150121689,0.013924604281783104,-0.21320921182632446
1783169628930488300,10.99648828125,-0.03862648829817772,-0.028207935392856598,-0.1625572144985199
1783169628940467500,11.006467529296875,0.04445002228021622,-0.036001142114400864,-0.13660231232643127
1783169628950416400,11.01641650390625,0.1578460931777954,-0.01763997972011566,-0.13733415305614471
1783169628960365300,11.026365234375,0.2825946807861328,0.0018738001817837358,-0.1503266543149948
1783169628970313200,11.036313232421875,0.3874068558216095,0.023070964962244034,-0.16106238961219788
1783169628980293600,11.046293701171875,0.4625452756881714,0.043122436851263046,-0.16535966098308563
1783169628990241300,11.0562412109375,0.5006257891654968,0.02497991733253002,-0.15254320204257965
1783169629000190500,11.0661904296875,0.507848858833313,-0.0256867203861475,-0.13398176431655884
1783169629010169600,11.076169677734375,0.48165425658226013,-0.08408478647470474,-0.10726999491453171
1783169629020118500,11.086118408203125,0.4315846860408783,-0.11838416755199432,-0.08002639561891556
1783169629030067500,11.0960673828125,0.35723403096199036,-0.14579981565475464,-0.05746994912624359
1783169629040015400,11.106015380859375,0.2802228629589081,-0.17018291354179382,-0.044554151594638824
1783169629049995500,11.11599560546875,0.22328421473503113,-0.19013158977031708,-0.045467350631952286
1783169629059943400,11.125943359375,0.19265760481357574,-0.19970618188381195,-0.05332900211215019
1783169629069892400,11.135892333984375,0.18944129347801208,-0.17550498247146606,-0.048104412853717804
1783169629079871500,11.14587158203125,0.19635912775993347,-0.10038945078849792,-0.034508973360061646
1783169629089820400,11.1558203125,0.2178196758031845,-0.014885205775499344,-0.023068834096193314
1783169629099769300,11.165769287109375,0.2447626143693924,0.05198410525918007,-0.020291956141591072
1783169629109718300,11.17571826171875,0.26964133977890015,0.06745973229408264,-0.011987953446805477
1783169629119697400,11.185697509765625,0.2711332440376282,0.04866687208414078,-0.00800226628780365
1783169629129646300,11.195646240234375,0.26198819279670715,0.02244086004793644,-0.013588779605925083
1783169629139594200,11.20559423828125,0.24181368947029114,0.022233400493860245,-0.01870923861861229
1783169629149574400,11.215574462890626,0.2119186520576477,0.04099110886454582,-0.020920461043715477
1783169629159522300,11.225522216796875,0.17475609481334686,0.03086630254983902,-0.001258609932847321
1783169629169471500,11.235471435546875,0.14164182543754578,0.015863651409745216,0.04240045323967934
1783169629179420400,11.24542041015625,0.10948548465967178,-0.009123457595705986,0.09824294596910477
1783169629189399600,11.255399658203125,0.08353297412395477,-0.06823604553937912,0.15889191627502441
1783169629199348500,11.265348388671875,0.06190278381109238,-0.16286134719848633,0.21552349627017975
1783169629209296400,11.27529638671875,0.037462685257196426,-0.25795724987983704,0.2631964683532715
1783169629219276500,11.285276611328126,0.007532751187682152,-0.34768739342689514,0.2868266999721527
1783169629229224400,11.295224365234375,-0.02015533484518528,-0.43876031041145325,0.2794518768787384
1783169629239173400,11.30517333984375,-0.046970169991254807,-0.5057694315910339,0.26056262850761414
1783169629249122300,11.315122314453125,-0.049861032515764236,-0.5107932090759277,0.2524887025356293
1783169629259101400,11.325101318359375,-0.0350290909409523,-0.3995995819568634,0.2616049647331238
1783169629269050400,11.33505029296875,-0.015724102035164833,-0.2312380075454712,0.30106663703918457
1783169629279029200,11.345029296875,-0.01672571711242199,-0.19817806780338287,0.31849807500839233
1783169629289008400,11.35500830078125,-0.05101524665951729,-0.3553309440612793,0.2713276445865631
1783169629298957300,11.364957275390625,-0.10130131989717484,-0.5524008870124817,0.17036961019039154
1783169629308905500,11.374905517578124,-0.17829783260822296,-0.6828851103782654,0.02460893988609314
1783169629318854400,11.3848544921875,-0.27896344661712646,-0.7514141201972961,-0.1547831892967224
1783169629328833300,11.394833251953125,-0.3828038275241852,-0.7564442753791809,-0.3484783470630646
1783169629338782200,11.4047822265625,-0.4430101811885834,-0.6632913947105408,-0.510625422000885
1783169629348731400,11.4147314453125,-0.459105521440506,-0.44976821541786194,-0.6196496486663818
1783169629358710300,11.424710205078124,-0.43136683106422424,-0.13124190270900726,-0.6571341753005981
1783169629368659200,11.4346591796875,-0.3790069818496704,0.21233916282653809,-0.574268102645874
1783169629378607400,11.444607421875,-0.3267080783843994,0.49090874195098877,-0.37415042519569397
1783169629388556300,11.454556396484374,-0.2918265163898468,0.6026784181594849,-0.112617626786232
1783169629398535200,11.46453515625,-0.2750014662742615,0.5114603638648987,0.17340187728405
1783169629408484000,11.474484130859375,-0.25423628091812134,0.3118244707584381,0.44973787665367126
1783169629418433300,11.484433349609375,-0.23368573188781738,0.08564885705709457,0.682765543460846
1783169629428412200,11.494412109375,-0.21375755965709686,-0.1133129745721817,0.8343523740768433
1783169629438361000,11.504361083984374,-0.1922733038663864,-0.27776265144348145,0.9020443558692932
1783169629448310300,11.514310302734375,-0.17152701318264008,-0.36498862504959106,0.886899471282959
1783169629458258400,11.524258544921874,-0.1693171262741089,-0.35489311814308167,0.810226559638977
1783169629468238300,11.53423828125,-0.19339236617088318,-0.2955927550792694,0.6734548211097717
1783169629478186500,11.5441865234375,-0.22365306317806244,-0.19391754269599915,0.5052400231361389
1783169629488135400,11.554135498046875,-0.24856853485107422,-0.08081415295600891,0.3308444917201996
1783169629498114300,11.5641142578125,-0.26027631759643555,0.020417656749486923,0.1647588610649109
1783169629508063200,11.574063232421874,-0.26392751932144165,0.07795285433530807,0.017161410301923752
1783169629518012200,11.58401220703125,-0.27009379863739014,0.09267427772283554,-0.10446515679359436
1783169629527960300,11.593960205078124,-0.2707952857017517,0.08382752537727356,-0.18162225186824799
1783169629537940200,11.603940185546875,-0.27160248160362244,0.07091625034809113,-0.22242268919944763
1783169629547888400,11.613888427734375,-0.2808431088924408,0.0462535135447979,-0.2352236956357956
1783169629557837300,11.62383740234375,-0.2945384383201599,0.019156383350491524,-0.21267631649971008
1783169629567786200,11.6337861328125,-0.3034144639968872,-0.0004093278548680246,-0.15761226415634155
1783169629577765000,11.64376513671875,-0.29506760835647583,-0.02461746148765087,-0.08791520446538925
1783169629587714300,11.65371435546875,-0.2633323073387146,-0.051002729684114456,-0.00759879732504487
1783169629597663200,11.663663330078125,-0.2251681387424469,-0.09119223058223724,0.07332801073789597
1783169629607642000,11.67364208984375,-0.18900294601917267,-0.15609586238861084,0.14160799980163574
1783169629617591300,11.68359130859375,-0.15019376575946808,-0.23158875107765198,0.17305992543697357
1783169629627539200,11.693539306640625,-0.11082372069358826,-0.30813199281692505,0.1726900190114975
1783169629637488400,11.70348828125,-0.08775994926691055,-0.36396223306655884,0.1281616985797882
1783169629647467300,11.71346728515625,-0.08952881395816803,-0.38328292965888977,0.0567367821931839
1783169629657416400,11.72341650390625,-0.11291483044624329,-0.3751845359802246,-0.032883647829294205
1783169629667365400,11.733365478515625,-0.15371020138263702,-0.284521222114563,-0.11166607588529587
1783169629677344300,11.74334423828125,-0.21831369400024414,-0.06139332056045532,-0.1420532763004303
1783169629687293200,11.753293212890625,-0.3222488760948181,0.24032658338546753,-0.12493368238210678
1783169629697242400,11.763242431640625,-0.4394737780094147,0.5120782256126404,-0.048405881971120834
1783169629707190300,11.773190185546875,-0.561206042766571,0.6534368991851807,0.06514864414930344
1783169629717169400,11.78316943359375,-0.6623188257217407,0.6742641925811768,0.17115017771720886
1783169629727118300,11.793118408203124,-0.7208913564682007,0.6192307472229004,0.23875266313552856
1783169629737067300,11.8030673828125,-0.729914665222168,0.5011683106422424,0.2603317201137543
1783169629747046100,11.813046142578125,-0.6920149326324463,0.36917591094970703,0.24250824749469757
1783169629756995300,11.822995361328125,-0.6126008033752441,0.2491733431816101,0.2071601152420044
1783169629766944300,11.8329443359375,-0.4893297553062439,0.1664923131465912,0.16349172592163086
1783169629776892200,11.84289208984375,-0.34590014815330505,0.16924548149108887,0.12104067206382751
1783169629786872300,11.852872314453125,-0.2182990461587906,0.3011028468608856,0.08525790274143219
1783169629796820200,11.8628203125,-0.11257874220609665,0.5023520588874817,0.05877010524272919
1783169629806769400,11.872769287109374,-0.03436196967959404,0.7211430072784424,0.0710720494389534
1783169629816748300,11.882748291015625,0.03374331444501877,0.9637335538864136,0.10002540051937103
1783169629826697500,11.892697509765625,0.11882918328046799,1.2129641771316528,0.14699263870716095
1783169629836646400,11.902646484375,0.2154047191143036,1.3872230052947998,0.25292253494262695
1783169629846595300,11.91259521484375,0.24428777396678925,1.6544859409332275,0.637412428855896
1783169629856574200,11.92257421875,0.1138293594121933,1.2910346984863281,1.0556824207305908
1783169629866523400,11.9325234375,-0.04542793706059456,0.38630056381225586,1.3147668838500977
1783169629876471300,11.94247119140625,-0.08984413743019104,-0.7500380277633667,1.3172905445098877
1783169629886450200,11.9524501953125,-0.0021438447292894125,-1.6532208919525146,1.0803184509277344
1783169629896399400,11.9623994140625,0.12700322270393372,-2.0326242446899414,0.7021099328994751
1783169629906348300,11.972348388671875,0.23728445172309875,-1.9622812271118164,0.2511318325996399
1783169629916297200,11.982297119140625,0.2983661890029907,-1.4734958410263062,-0.11440114676952362
