time,seconds_elapsed,z,y,x
1782667581087715300,0.07371533203125,0.025120267644524574,0.007352188695222139,-0.008510664105415344
1782667581097664300,0.083664306640625,0.024505343288183212,0.006874417886137962,-0.009100288152694702
1782667581107613400,0.093613525390625,0.024179106578230858,0.006740726996213198,-0.007465106900781393
1782667581117592300,0.10359228515625,0.024695759639143944,0.0051779840141534805,-0.007149788551032543
1782667581127541200,0.113541259765625,0.024763137102127075,0.006479737348854542,-0.003058906877413392
1782667581137489400,0.123489501953125,0.02748754993081093,0.008810269646346569,-0.006670952308923006
1782667581147438300,0.133438232421875,0.024934111163020134,0.006659234408289194,-0.0085452850908041
1782667581157387500,0.143387451171875,0.02292129397392273,0.007200122345238924,-0.0067828050814569
1782667581167366400,0.153366455078125,0.02527792565524578,0.004891161806881428,-0.00826938170939684
1782667581177315600,0.163315673828125,0.024951422587037086,0.0070858728140592575,-0.006337258033454418
1782667581187263500,0.173263427734375,0.02588352933526039,0.008410795591771603,-0.005160140804946423
1782667581197212400,0.18321240234375,0.026190059259533882,0.0049249837175011635,-0.008820123039186
1782667581207191600,0.193191650390625,0.024647822603583336,0.00771730812266469,-0.006903179921209812
1782667581217140500,0.203140380859375,0.022948991507291794,0.0043654534965753555,-0.009031311608850956
1782667581227089400,0.21308935546875,0.02551201730966568,0.006499710958451033,-0.006231530569493771
1782667581237038300,0.223038330078125,0.02562892995774746,0.008123972453176975,-0.0067545752972364426
1782667581246986500,0.232986572265625,0.026944532990455627,0.006517820525914431,-0.006503705866634846
1782667581256966400,0.24296630859375,0.02664918825030327,0.005344964098185301,-0.005591040477156639
1782667581266914300,0.252914306640625,0.022661369293928146,0.006536462344229221,-0.00708693778142333
1782667581276863200,0.26286328125,0.025944780558347702,0.004698348697274923,-0.006249640136957169
1782667581286812400,0.2728125,0.026400448754429817,0.007632086984813213,-0.00415346585214138
1782667581296791300,0.282791259765625,0.024444889277219772,0.0065590995363891125,-0.00618039770051837
1782667581306740200,0.292740234375,0.024583905935287476,0.005474660079926252,-0.005417136009782553
1782667581316689400,0.302689453125,0.023974042385816574,0.00566960358992219,-0.007577492389827967
1782667581326637600,0.312637451171875,0.024566330015659332,0.008220112882554531,-0.003370763035491109
1782667581336586500,0.32258642578125,0.02389175072312355,0.007559649180620909,-0.007250189781188965
1782667581346565400,0.3325654296875,0.024959944188594818,0.007518103811889887,-0.009254218079149723
1782667581356514600,0.3425146484375,0.026202043518424034,0.005948702804744244,-0.006256830412894487
1782667581366463500,0.35246337890625,0.024349547922611237,0.00407463638111949,-0.00628932099789381
1782667581376411400,0.362411376953125,0.024871794506907463,0.004701011814177036,-0.0057471017353236675
1782667581386391300,0.372391357421875,0.025676866993308067,0.006363889668136835,-0.006172941066324711
1782667581396339500,0.38233935546875,0.024459537118673325,0.00600462919101119,-0.008274707943201065
1782667581406288400,0.392288330078125,0.024768728762865067,0.006755374372005463,-0.007287473883479834
1782667581416237300,0.4022373046875,0.02485874481499195,0.005465338937938213,-0.006247509736567736
1782667581426216400,0.412216552734375,0.02527073584496975,0.006845655385404825,-0.007539409212768078
1782667581436165400,0.422165283203125,0.025844912976026535,0.0059596216306090355,-0.006330866366624832
1782667581446114300,0.4321142578125,0.02678314410150051,0.008106395602226257,-0.006473878398537636
1782667581456062200,0.442062255859375,0.02587846852838993,0.007358047645539045,-0.006627276539802551
1782667581466011400,0.452011474609375,0.025127990171313286,0.007879228331148624,-0.005233644042164087
1782667581475990300,0.461990234375,0.025620141997933388,0.005796370096504688,-0.005913815461099148
1782667581485939500,0.471939453125,0.02449708618223667,0.006313289515674114,-0.0062855929136276245
1782667581495888400,0.481888427734375,0.026981016620993614,0.00708747049793601,-0.005400358233600855
1782667581505836500,0.49183642578125,0.02503717690706253,0.00751890242099762,-0.008886436000466347
1782667581515816400,0.50181640625,0.024383369833230972,0.006749249063432217,-0.005085572600364685
1782667581525764400,0.511764404296875,0.025353027507662773,0.006187322083860636,-0.007734352257102728
1782667581535713500,0.521713623046875,0.025658491998910904,0.004728442523628473,-0.007166566327214241
1782667581545662500,0.531662353515625,0.026494724676012993,0.007258179131895304,-0.0062309978529810905
1782667581555611400,0.541611328125,0.026752784848213196,0.007670170161873102,-0.007642473094165325
1782667581565590300,0.55159033203125,0.024772191420197487,0.003753991797566414,-0.008440090343356133
1782667581575539500,0.56153955078125,0.024210264906287193,0.006612895056605339,-0.006993993651121855
1782667581585487400,0.5714873046875,0.024770326912403107,0.0057798586785793304,-0.008489890955388546
1782667581595436300,0.581436279296875,0.02394022047519684,0.007693073246628046,-0.009129848331212997
1782667581605415400,0.59141552734375,0.024389229714870453,0.0052051483653485775,-0.007378820329904556
1782667581615364400,0.6013642578125,0.025905100628733635,0.007084008306264877,-0.007309844717383385
1782667581625313300,0.611313232421875,0.02581295557320118,0.006160157732665539,-0.006559898145496845
1782667581635262500,0.621262451171875,0.025917617604136467,0.0049012815579771996,-0.006475742440670729
1782667581645210600,0.631210693359375,0.024380706250667572,0.007676828186959028,-0.006183859892189503
1782667581655190500,0.6411904296875,0.02503691054880619,0.006705573294311762,-0.005344431847333908
1782667581665138400,0.651138427734375,0.02400280348956585,0.004274639766663313,-0.006111954804509878
1782667581675087400,0.66108740234375,0.025492843240499496,0.0043990095146000385,-0.005272526293992996
1782667581685036500,0.67103662109375,0.0266001857817173,0.006429403554648161,-0.008345281705260277
1782667581695015400,0.681015380859375,0.0259903222322464,0.006099704187363386,-0.008007592521607876
1782667581704964400,0.69096435546875,0.02425527200102806,0.005497829522937536,-0.007162838242948055
1782667581714912500,0.70091259765625,0.023749537765979767,0.008636098355054855,-0.007056844420731068
1782667581724861400,0.710861328125,0.023539680987596512,0.005322593729943037,-0.007125287316739559
1782667581734810400,0.720810302734375,0.025951439514756203,0.005224322900176048,-0.00708773685619235
1782667581744789200,0.730789306640625,0.023679230362176895,0.0075758942402899265,-0.0062573631294071674
1782667581754738400,0.740738525390625,0.026633208617568016,0.00697881355881691,-0.007558850105851889
1782667581764687400,0.750687255859375,0.02389228343963623,0.005246161017566919,-0.005524194799363613
1782667581774635300,0.76063525390625,0.024936774745583534,0.006865096744149923,-0.005687180440872908
1782667581784615400,0.770615478515625,0.022970030084252357,0.0060056946240365505,-0.008860869333148003
1782667581794563300,0.780563232421875,0.026915237307548523,0.007262440398335457,-0.00589650496840477
1782667581804512500,0.790512451171875,0.025320004671812057,0.008472846820950508,-0.007011304143816233
1782667581814461400,0.80046142578125,0.022955117747187614,0.00592473428696394,-0.007247260306030512
1782667581824440600,0.810440673828125,0.025226527824997902,0.0047060721553862095,-0.006708769127726555
1782667581834389500,0.820389404296875,0.023938622325658798,0.00495161535218358,-0.008670985698699951
1782667581844337400,0.83033740234375,0.026222549378871918,0.00487225316464901,-0.0062187472358345985
1782667581854286300,0.840286376953125,0.026387665420770645,0.009577259421348572,-0.00797137338668108
1782667581864235500,0.850235595703125,0.025800438597798347,0.006618221756070852,-0.005921272095292807
1782667581874214400,0.86021435546875,0.02472665160894394,0.0036541232839226723,-0.007694937754422426
1782667581884163300,0.870163330078125,0.02418869361281395,0.006616090890020132,-0.006947388406842947
1782667581894112300,0.8801123046875,0.02515142597258091,0.007267500273883343,-0.006918360013514757
1782667581904060400,0.890060302734375,0.024237962439656258,0.008963135071098804,-0.007869641296565533
1782667581914040300,0.900040283203125,0.025231853127479553,0.005813680589199066,-0.006792126223444939
1782667581923988200,0.90998828125,0.024836374446749687,0.004818989895284176,-0.007723699789494276
1782667581933937400,0.9199375,0.02365179918706417,0.005997705273330212,-0.0076179723255336285
1782667581943886300,0.92988623046875,0.024718130007386208,0.007136472500860691,-0.007541273254901171
1782667581953835500,0.93983544921875,0.024602016434073448,0.008562861941754818,-0.006514624692499638
1782667581963814400,0.949814453125,0.024647289887070656,0.006012884899973869,-0.00628985371440649
1782667581973763600,0.959763671875,0.023668311536312103,0.005848834291100502,-0.0073628416284918785
1782667581983711500,0.96971142578125,0.025907764211297035,0.006560164503753185,-0.007274158298969269
1782667581993660400,0.979660400390625,0.025480858981609344,0.006623814348131418,-0.007040865253657103
1782667582003639600,0.9896396484375,0.026567695662379265,0.007222759071737528,-0.007783886976540089
1782667582013588500,0.99958837890625,0.02454768680036068,0.0075849490240216255,-0.008094144985079765
1782667582023537400,1.009537353515625,0.023606525734066963,0.004402471706271172,-0.007199056912213564
1782667582033516000,1.01951611328125,0.02304619736969471,0.004429635591804981,-0.0062573631294071674
1782667582043465000,1.02946484375,0.02604598179459572,0.007755924016237259,-0.00774740194901824
1782667582053443800,1.03944384765625,0.025465145707130432,0.007392934989184141,-0.007071225438266993
1782667582063392800,1.049392822265625,0.024566862732172012,0.0073564499616622925,-0.007044327445328236
1782667582073342000,1.059342041015625,0.02586275525391102,0.006177468225359917,-0.005191832315176725
1782667582083291000,1.069290771484375,0.022948725149035454,0.005071191117167473,-0.007464840542525053
1782667582093269800,1.079269775390625,0.026093386113643646,0.006578007712960243,-0.005043228156864643
1782667582103218700,1.08921875,0.024956215173006058,0.007126885466277599,-0.007276288699358702
1782667582113166800,1.099166748046875,0.023936757817864418,0.007065632846206427,-0.007134608458727598
1782667582123115800,1.10911572265625,0.024163126945495605,0.008528773672878742,-0.007864315062761307
1782667582133064700,1.119064697265625,0.02448217384517193,0.005082643125206232,-0.006084790453314781
1782667582143043800,1.1290439453125,0.025584455579519272,0.007787349168211222,-0.006915430538356304
1782667582152992800,1.13899267578125,0.025411084294319153,0.0049678608775138855,-0.009063802659511566
1782667582162940700,1.148940673828125,0.024771392345428467,0.006874151527881622,-0.006326605565845966
1782667582172889600,1.1588896484375,0.025171931833028793,0.008905877359211445,-0.008799617178738117
1782667582182868700,1.16886865234375,0.02449442446231842,0.0054786549881100655,-0.008488559164106846
1782667582192818000,1.17881787109375,0.026135729625821114,0.005020058713853359,-0.006130862981081009
1782667582202766800,1.188766845703125,0.025529328733682632,0.005976932588964701,-0.007870972156524658
1782667582212715800,1.1987158203125,0.026158366352319717,0.0070424629375338554,-0.004039749037474394
1782667582222664000,1.208663818359375,0.024770326912403107,0.006652576383203268,-0.00669225724413991
1782667582232643800,1.218643798828125,0.023964455351233482,0.005481318105012178,-0.006049370393157005
1782667582242591700,1.228591796875,0.026281138882040977,0.006253900937736034,-0.0054754591546952724
1782667582252541000,1.238541015625,0.026668628677725792,0.0068206219002604485,-0.0054307179525494576
1782667582262489900,1.24848974609375,0.023930367082357407,0.006015548016875982,-0.006431267596781254
1782667582272468700,1.25846875,0.02491227351129055,0.0034019220620393753,-0.008230765350162983
1782667582282417700,1.268417724609375,0.026609240099787712,0.0037705034483224154,-0.0067846691235899925
1782667582292365800,1.27836572265625,0.024759674444794655,0.007877896539866924,-0.007917577400803566
1782667582302314800,1.288314697265625,0.026211364194750786,0.007345797028392553,-0.005864014383405447
1782667582312294000,1.2982939453125,0.025773806497454643,0.005251220893114805,-0.0062554990872740746
1782667582322242800,1.308242919921875,0.0246715247631073,0.005918608978390694,-0.0052200620993971825
1782667582332191700,1.318191650390625,0.024043817073106766,0.0060328589752316475,-0.008010256104171276
1782667582342141000,1.328140869140625,0.023917051032185555,0.005179582163691521,-0.006071474403142929
1782667582352088800,1.3380888671875,0.026558106765151024,0.008009457029402256,-0.007044860161840916
1782667582362069000,1.348069091796875,0.02442198619246483,0.006666424684226513,-0.006622748915106058
1782667582372017000,1.358016845703125,0.023421170189976692,0.004310592543333769,-0.008918659761548042
1782667582381965800,1.3679658203125,0.024892300367355347,0.005329251755028963,-0.008050469681620598
1782667582391914800,1.377914794921875,0.024443557485938072,0.006012352649122477,-0.005893042776733637
1782667582401894000,1.387893798828125,0.023366043344140053,0.006459497381001711,-0.007733020931482315
1782667582411842800,1.3978427734375,0.02491333894431591,0.007671768311411142,-0.006643787957727909
1782667582421791700,1.407791748046875,0.025614816695451736,0.00893863383680582,-0.007695204112678766
1782667582431740000,1.417739990234375,0.0242568701505661,0.005067196674644947,-0.00863396842032671
1782667582441688800,1.427688720703125,0.024385234341025352,0.004712996073067188,-0.007469101343303919
1782667582451667700,1.437667724609375,0.0253349170088768,0.005835252348333597,-0.004370247479528189
1782667582461616600,1.44761669921875,0.024502946063876152,0.008685100823640823,-0.007142597809433937
1782667582471565800,1.45756591796875,0.02418922632932663,0.006991863250732422,-0.005934854503720999
1782667582481513700,1.467513671875,0.025954902172088623,0.007727694697678089,-0.00625975988805294
1782667582491493600,1.47749365234375,0.024402545765042305,0.006682137493044138,-0.008262190967798233
1782667582501441800,1.48744189453125,0.025737587362527847,0.006599845830351114,-0.006947654765099287
1782667582511391000,1.497390869140625,0.024777784943580627,0.006944192573428154,-0.007690410129725933
1782667582521340000,1.50733984375,0.0261828675866127,0.0037084517534822226,-0.006681338418275118
1782667582531288800,1.517288818359375,0.022968698292970657,0.005428054835647345,-0.008115717209875584
1782667582541268000,1.52726806640625,0.025791915133595467,0.0046629286371171474,-0.006934072356671095
1782667582551217000,1.537216796875,0.025059813633561134,0.0054365769028663635,-0.007830492220818996
1782667582561164800,1.547164794921875,0.026941070333123207,0.006988401059061289,-0.005401423200964928
1782667582571113700,1.55711376953125,0.02437032014131546,0.005717274267226458,-0.007534881588071585
1782667582581092900,1.5670927734375,0.026666764169931412,0.004799815360456705,-0.008578307926654816
1782667582591041800,1.577041748046875,0.0244922935962677,0.005357481073588133,-0.008893094025552273
1782667582600990700,1.58699072265625,0.025019066408276558,0.006221144460141659,-0.007919441908597946
1782667582610939000,1.59693896484375,0.025112809613347054,0.0070555126294493675,-0.006725813262164593
1782667582620887800,1.6068876953125,0.025064073503017426,0.005287440028041601,-0.005683718249201775
1782667582630866700,1.61686669921875,0.02526567503809929,0.006668821442872286,-0.0073564499616622925
1782667582640815600,1.626815673828125,0.024693628773093224,0.010823353193700314,-0.009135707281529903
1782667582650764800,1.636764892578125,0.025492044165730476,0.005249356850981712,-0.008608135394752026
1782667582660714000,1.6467138671875,0.02423902601003647,0.00794500857591629,-0.0073290192522108555
1782667582670692900,1.65669287109375,0.026977555826306343,0.008975918404757977,-0.0068267472088336945
1782667582680641800,1.666641845703125,0.024750353768467903,0.005277319811284542,-0.007613444700837135
1782667582690590000,1.67658984375,0.024583905935287476,0.002977680414915085,-0.006885603070259094
1782667582700539000,1.686538818359375,0.024874456226825714,0.006695186719298363,-0.004126301966607571
1782667582710487800,1.69648779296875,0.025645175948739052,0.007527957204729319,-0.006733536254614592
1782667582720467000,1.706467041015625,0.024354076012969017,0.009987120516598225,-0.007056578062474728
1782667582730415900,1.716415771484375,0.025014273822307587,0.007844607345759869,-0.006969226058572531
1782667582740364800,1.72636474609375,0.024826785549521446,0.0032509206794202328,-0.008022506721317768
1782667582750312700,1.736312744140625,0.025987658649683,0.0036815537605434656,-0.006808104924857616
1782667582760292900,1.74629296875,0.025610288605093956,0.0065460498444736,-0.005528189707547426
1782667582770240800,1.75624072265625,0.025894448161125183,0.005797967780381441,-0.005844839382916689
1782667582780189700,1.766189697265625,0.026383936405181885,0.006339921150356531,-0.0070366039872169495
1782667582790138600,1.776138671875,0.02365446276962757,0.006917028222233057,-0.007638745009899139
1782667582800086800,1.786086669921875,0.025957830250263214,0.005088767968118191,-0.00395772373303771
1782667582810066700,1.796066650390625,0.02297988347709179,0.00504109775647521,-0.006456035189330578
1782667582820014600,1.8060146484375,0.02630617283284664,0.007503456436097622,-0.006400641519576311
1782667582829964000,1.815964111328125,0.025713885203003883,0.007700530346482992,-0.007925300858914852
1782667582839913000,1.825912841796875,0.02466912753880024,0.005625927820801735,-0.005880525801330805
1782667582849891800,1.835891845703125,0.025857163593173027,0.0065018413588404655,-0.007750331424176693
1782667582859840800,1.8458408203125,0.02406299114227295,0.006032059900462627,-0.006678941659629345
1782667582869790000,1.8557900390625,0.02515435591340065,0.007002249360084534,-0.00660677021369338
1782667582879737900,1.86573779296875,0.0259288027882576,0.006458698306232691,-0.005225654691457748
1782667582889686800,1.875686767578125,0.024402013048529625,0.0036815537605434656,-0.0070677632465958595
1782667582899666000,1.885666015625,0.02490268647670746,0.007494401652365923,-0.006786533165723085
1782667582909614800,1.89561474609375,0.024503745138645172,0.007453389000147581,-0.005588377360254526
1782667582919563800,1.905563720703125,0.02744041197001934,0.006941263098269701,-0.007605188991874456
1782667582929511700,1.91551171875,0.024346085265278816,0.007098655682057142,-0.006677876226603985
1782667582939491800,1.925491943359375,0.02382037788629532,0.003736681304872036,-0.006856308318674564
1782667582949439700,1.935439697265625,0.025114407762885094,0.005404086317867041,-0.006140983197838068
1782667582959388700,1.945388671875,0.024463796988129616,0.006224073935300112,-0.008349276147782803
1782667582969337600,1.955337646484375,0.025561286136507988,0.00691915862262249,-0.006584932096302509
1782667582979286800,1.965286865234375,0.0241913553327322,0.010040117427706718,-0.006305832881480455
1782667582989266000,1.975265869140625,0.025347433984279633,0.008862201124429703,-0.006614493206143379
1782667582999214800,1.98521484375,0.024758875370025635,0.006509830709546804,-0.007982824929058552
1782667583009163000,1.9951630859375,0.025294704362750053,0.006327936891466379,-0.007449926808476448
1782667583019112000,2.00511181640625,0.024410534650087357,0.00782489962875843,-0.005817142780870199
1782667583029090800,2.0150908203125,0.024880848824977875,0.006849383935332298,-0.007303719408810139
1782667583039053600,2.025053466796875,0.025243038311600685,0.006430468522012234,-0.0075844163075089455
1782667583049003000,2.0350029296875,0.024264326319098473,0.006458165589720011,-0.006336991675198078
1782667583058952000,2.044951904296875,0.02414075657725334,0.0062879896722733974,-0.006398510653525591
1782667583068930800,2.054930908203125,0.024776719510555267,0.006991064175963402,-0.006621683482080698
1782667583078879700,2.064879638671875,0.02586541883647442,0.007583351340144873,-0.006225937977433205
1782667583088828000,2.074827880859375,0.024761006236076355,0.006826480850577354,-0.008281632326543331
1782667583098776800,2.08477685546875,0.023877102881669998,0.006041114684194326,-0.008482168428599834
1782667583108725800,2.094725830078125,0.022904250770807266,0.003703924361616373,-0.004941495135426521
1782667583118705000,2.104704833984375,0.02491120807826519,0.006621949840337038,-0.005073588341474533
1782667583128653800,2.11465380859375,0.02647608146071434,0.006665625609457493,-0.007626228034496307
1782667583138601700,2.124601806640625,0.025369537994265556,0.0036874127108603716,-0.006250439211726189
1782667583148550700,2.134550537109375,0.025799106806516647,0.003719370812177658,-0.0062917182222008705
1782667583158529800,2.14452978515625,0.023866716772317886,0.00466505903750658,-0.006216084118932486
1782667583168478700,2.154478759765625,0.02556474879384041,0.006742857396602631,-0.006863764952868223
1782667583178427600,2.164427734375,0.02509975992143154,0.0073535204865038395,-0.006972421891987324
1782667583188376600,2.17437646484375,0.024948492646217346,0.004257861990481615,-0.007713313214480877
1782667583198324700,2.18432470703125,0.024932513013482094,0.007161240093410015,-0.007378553971648216
1782667583208305000,2.194304931640625,0.025369271636009216,0.0028639633674174547,-0.0072925337590277195
1782667583218252500,2.20425244140625,0.02526381053030491,0.005600095260888338,-0.006944991648197174
1782667583228202000,2.214201904296875,0.025071531534194946,0.006960970349609852,-0.005249356850981712
1782667583238151000,2.22415087890625,0.024119451642036438,0.007711981888860464,-0.00833542738109827
1782667583248129800,2.2341298828125,0.02407817170023918,0.0037859496660530567,-0.006642189808189869
1782667583258078700,2.24407861328125,0.023324497044086456,0.005501291714608669,-0.009062470868229866
1782667583268027000,2.25402685546875,0.024353543296456337,0.005783853121101856,-0.004305532667785883
1782667583277975800,2.263975830078125,0.024080835282802582,0.009947705082595348,-0.007156978826969862
1782667583287924700,2.2739248046875,0.02473810315132141,0.007674697786569595,-0.007837150245904922
1782667583297903900,2.28390380859375,0.023440344259142876,0.005565473809838295,-0.006474144756793976
1782667583307852800,2.293852783203125,0.024595357477664948,0.004757204558700323,-0.005920207127928734
1782667583317801700,2.3038017578125,0.025320004671812057,0.005976666230708361,-0.009247294627130032
1782667583327749600,2.31374951171875,0.02437697909772396,0.006170277949422598,-0.006373477168381214
1782667583337729800,2.323729736328125,0.024083765223622322,0.01016688346862793,-0.007155647501349449
1782667583347677700,2.333677734375,0.023435018956661224,0.006597182713449001,-0.007032875902950764
1782667583357626600,2.343626708984375,0.02598952315747738,0.004454403184354305,-0.006614493206143379
1782667583367575800,2.353575927734375,0.024529578164219856,0.007623298559337854,-0.006910902913659811
1782667583377524700,2.363524658203125,0.025476597249507904,0.008622516877949238,-0.00711862975731492
1782667583387503900,2.37350390625,0.026378078386187553,0.007744472473859787,-0.008081362582743168
1782667583397452800,2.383452880859375,0.02521693892776966,0.007095193490386009,-0.0073170349933207035
1782667583407401000,2.39340087890625,0.025855565443634987,0.0030945930629968643,-0.007454187609255314
1782667583417350000,2.403349853515625,0.024355938658118248,0.006706638727337122,-0.005402488633990288
1782667583427328800,2.413328857421875,0.02400520071387291,0.0073109096847474575,-0.007302653975784779
1782667583437277700,2.423277587890625,0.025178590789437294,0.0049494849517941475,-0.008049404248595238
1782667583447227000,2.433226806640625,0.02520628646016121,0.006184658966958523,-0.006179066374897957
1782667583457174800,2.4431748046875,0.024505609646439552,0.007179882377386093,-0.008133294060826302
1782667583467123700,2.453123779296875,0.02479882352054119,0.0049550775438547134,-0.005629390012472868
1782667583477102800,2.463102783203125,0.024403609335422516,0.006982808467000723,-0.007172425277531147
1782667583487051800,2.4730517578125,0.025184182450175285,0.007736749015748501,-0.006274939980357885
1782667583497000700,2.483000732421875,0.02401265874505043,0.005629123654216528,-0.005209941882640123
1782667583506949600,2.49294970703125,0.02365366369485855,0.006780407857149839,-0.007743140682578087
1782667583516928800,2.5029287109375,0.024515463039278984,0.006578806787729263,-0.0073745595291256905
1782667583526878000,2.5128779296875,0.02694879285991192,0.003870371961966157,-0.005541239399462938
1782667583536825600,2.52282568359375,0.024462198838591576,0.008613727986812592,-0.00723527604714036
1782667583546774800,2.53277490234375,0.025861691683530807,0.007167898118495941,-0.0073226275853812695
1782667583556723700,2.5427236328125,0.02514876239001751,0.005695968866348267,-0.00806085579097271
1782667583566702800,2.552702880859375,0.024408670142292976,0.0073386067524552345,-0.007782289292663336
1782667583576651800,2.56265185546875,0.024096015840768814,0.007003314793109894,-0.006448578089475632
1782667583586600000,2.572599853515625,0.024527713656425476,0.007210508454591036,-0.009158344939351082
1782667583596548900,2.582548828125,0.0257482398301363,0.0065077003091573715,-0.006310892757028341
1782667583606527700,2.59252783203125,0.024213461205363274,0.0037947380915284157,-0.0062397862784564495
1782667583616476700,2.6024765625,0.026934411376714706,0.0036605149507522583,-0.005245361942797899
1782667583626425900,2.61242578125,0.0244321059435606,0.009904562495648861,-0.007842742837965488
1782667583636374800,2.622374755859375,0.023029152303934097,0.005989182740449905,-0.00723527604714036
1782667583646322700,2.63232275390625,0.024510402232408524,0.00854555144906044,-0.007576693315058947
1782667583656302600,2.642302490234375,0.025601767003536224,0.0027574370615184307,-0.007429420482367277
1782667583666250800,2.652250732421875,0.02497619017958641,0.005950034596025944,-0.006846720818430185
1782667583676199700,2.66219970703125,0.026202309876680374,0.008125304244458675,-0.0067782774567604065
1782667583686148900,2.67214892578125,0.025776470080018044,0.007268032990396023,-0.008654474280774593
1782667583696128000,2.6821279296875,0.025848641991615295,0.006061088293790817,-0.006404103245586157
1782667583706077000,2.692076904296875,0.02208692580461502,0.0025393241085112095,-0.006228601094335318
1782667583716025900,2.70202587890625,0.025797242298722267,0.0067724185064435005,-0.006178000941872597
1782667583725973800,2.711973876953125,0.023909326642751694,0.006439256947487593,-0.006184658966958523
1782667583735953000,2.721952880859375,0.026225745677947998,0.00697881355881691,-0.006424875929951668
1782667583745901800,2.73190185546875,0.02461293525993824,0.00657454552128911,-0.007168430835008621
1782667583755850800,2.741850830078125,0.024583639577031136,0.006325273774564266,-0.00726350536569953
1782667583765799700,2.751799560546875,0.025260616093873978,0.004683701321482658,-0.0075726984068751335
1782667583775747800,2.761747802734375,0.02472318895161152,0.006099704187363386,-0.007676828186959028
1782667583785727700,2.771727783203125,0.02310984581708908,0.008900816552340984,-0.008498147130012512
1782667583795675600,2.781675537109375,0.024020381271839142,0.006716225761920214,-0.006133259739726782
1782667583805624800,2.791624755859375,0.022901054471731186,0.0065108961425721645,-0.007720237597823143
1782667583815573800,2.80157373046875,0.023612651973962784,0.0038863508962094784,-0.006055762059986591
1782667583825552600,2.811552734375,0.02292795293033123,0.004266384057700634,-0.006819822825491428
1782667583835501600,2.82150146484375,0.025900039821863174,0.008979912847280502,-0.005028314422816038
1782667583845450800,2.83145068359375,0.024808144196867943,0.00501047121360898,-0.005792641546577215
1782667583855398700,2.841398681640625,0.02557140588760376,0.005618204362690449,-0.006387059111148119
1782667583865347800,2.851347900390625,0.02575942501425743,0.006162288598716259,-0.005418733693659306
1782667583875327000,2.861326904296875,0.024111460894346237,0.007655522786080837,-0.007696801796555519
1782667583885276000,2.87127587890625,0.02672508731484413,0.005862948950380087,-0.005133242812007666
1782667583895224800,2.881224853515625,0.02551175095140934,0.00640836451202631,-0.007710916455835104
1782667583905172700,2.8911728515625,0.024571122601628304,0.006715427152812481,-0.005358812864869833
1782667583915153000,2.90115283203125,0.022594258189201355,0.005920739844441414,-0.007661381736397743
1782667583925100800,2.911100830078125,0.025645175948739052,0.00598572101444006,-0.0076003954745829105
1782667583935049700,2.9210498046875,0.02412504330277443,0.007984423078596592,-0.006607036106288433
1782667583944998700,2.93099853515625,0.026277676224708557,0.008132228627800941,-0.006659766659140587
1782667583954947600,2.940947509765625,0.025003086775541306,0.005860285833477974,-0.007681888062506914
1782667583964926700,2.9509267578125,0.02558312378823757,0.006314621306955814,-0.005949501879513264
1782667583974875600,2.960875732421875,0.025114940479397774,0.005678125657141209,-0.007050452753901482
1782667583984823800,2.97082373046875,0.025481658056378365,0.007803861051797867,-0.006706904619932175
1782667583994772700,2.980772705078125,0.0256305281072855,0.007142864167690277,-0.00887711439281702
1782667584004751600,2.990751708984375,0.023182017728686333,0.007125020958483219,-0.005302620120346546
1782667584014700800,3.00070068359375,0.023152457550168037,0.006213421002030373,-0.005842442624270916
1782667584024650000,3.01064990234375,0.02562733180820942,0.0050687943585217,-0.008155930787324905
1782667584034610000,3.02060986328125,0.02599564753472805,0.006178000941872597,-0.007468036375939846
1782667584044558000,3.03055810546875,0.0258699469268322,0.0057162088342010975,-0.007364705670624971
1782667584054537000,3.040536865234375,0.024707211181521416,0.0086590014398098,-0.005335377063602209
1782667584064486100,3.050486083984375,0.026579413563013077,0.0054552191868424416,-0.005230181850492954
1782667584074435000,3.06043505859375,0.024443557485938072,0.006048304960131645,-0.006731405854225159
1782667584084384000,3.070384033203125,0.024632109329104424,0.006381466519087553,-0.008683502674102783
1782667584094363000,3.08036279296875,0.024477912113070488,0.007643005810678005,-0.00905581284314394
1782667584104312000,3.09031201171875,0.02323474921286106,0.007848069071769714,-0.007994011044502258
1782667584114260000,3.100260009765625,0.023127157241106033,0.007864580489695072,-0.006046707276254892
1782667584124209000,3.110208984375,0.025777002796530724,0.006858172360807657,-0.0067785438150167465
1782667584134157800,3.12015771484375,0.02473730407655239,0.005864280741661787,-0.005535646807402372
1782667584144137000,3.130136962890625,0.024897094815969467,0.008237689733505249,-0.00697881355881691
1782667584154086000,3.1400859375,0.02437245100736618,0.006326605565845966,-0.006734601687639952
1782667584164034800,3.150034912109375,0.024116788059473038,0.006485063582658768,-0.00785739067941904
1782667584173983000,3.15998291015625,0.026143720373511314,0.004030427895486355,-0.00646562222391367
1782667584183963000,3.169962890625,0.025951173156499863,0.005873335525393486,-0.007750065065920353
1782667584193910800,3.179910888671875,0.02394794300198555,0.007446997333317995,-0.008870723657310009
1782667584203860000,3.18985986328125,0.023970313370227814,0.0054972972720861435,-0.005392901133745909
1782667584213809000,3.199808837890625,0.023989222943782806,0.0038839541375637054,-0.008108260110020638
1782667584223757000,3.209757080078125,0.023856597021222115,-0.00031558459158986807,-0.007794007193297148
1782667584233737000,3.219737060546875,0.02586435340344906,0.007866977714002132,-0.008327971212565899
1782667584243685000,3.22968505859375,0.025013474747538567,0.006302104331552982,-0.005738845560699701
1782667584253634000,3.239634033203125,0.025592977181077003,0.007045392412692308,-0.009100021794438362
1782667584263583000,3.2495830078125,0.0254017636179924,0.004460262134671211,-0.007978031411767006
1782667584273561900,3.259561767578125,0.02292981743812561,0.006190784275531769,-0.007026484236121178
1782667584283511000,3.269510986328125,0.02455061674118042,0.0070736221969127655,-0.008130896836519241
1782667584293460000,3.2794599609375,0.024808144196867943,0.007273891940712929,-0.007764179725199938
1782667584303407900,3.289407958984375,0.02400546707212925,0.008947954513132572,-0.007473628968000412
1782667584313356800,3.299356689453125,0.02413889206945896,0.006264820229262114,-0.006657636258751154
1782667584323336000,3.3093359375,0.02334686741232872,0.0049004824832081795,-0.006070409435778856
1782667584333284900,3.319284912109375,0.024281637743115425,0.0057678744196891785,-0.007011570502072573
1782667584343233800,3.32923388671875,0.024754881858825684,0.0070640346966683865,-0.008045942522585392
1782667584353183000,3.339182861328125,0.026795394718647003,0.008943427354097366,-0.005142830312252045
1782667584363162000,3.349162109375,0.026797791942954063,0.007648332044482231,-0.00791491474956274
1782667584373110000,3.359110107421875,0.02395619824528694,0.006272276863455772,-0.007642739452421665
1782667584383059000,3.369058837890625,0.023960193619132042,0.004004595335572958,-0.008243015967309475
1782667584393007900,3.3790078125,0.027216972783207893,0.008680307306349277,-0.007242466323077679
1782667584402987000,3.388987060546875,0.024507474154233932,0.00794367678463459,-0.008854477666318417
1782667584412936000,3.39893603515625,0.024157000705599785,0.005509813781827688,-0.006445382256060839
1782667584422884900,3.408884765625,0.023934360593557358,0.007406251039355993,-0.007346596103161573
1782667584432833000,3.4188330078125,0.025476330891251564,0.006214752793312073,-0.00446825148537755
1782667584442782000,3.428781982421875,0.02690858021378517,0.006116481963545084,-0.008272843435406685
1782667584452760800,3.4387607421875,0.025120267644524574,0.007425159215927124,-0.008228635415434837
1782667584462710000,3.4487099609375,0.025202026590704918,0.005424859002232552,-0.007690410129725933
1782667584472659000,3.458658935546875,0.02562679909169674,0.005003546830266714,-0.007680290378630161
1782667584482607900,3.46860791015625,0.0255101528018713,0.004303401801735163,-0.005233377683907747
1782667584492586800,3.478586669921875,0.025173796340823174,0.006198507267981768,-0.005939648021012545
1782667584502536000,3.488535888671875,0.023981232196092606,0.00740225613117218,-0.00680144689977169
1782667584512483800,3.49848388671875,0.024655545130372047,0.006566556170582771,-0.008757539093494415
1782667584522433000,3.50843310546875,0.022937539964914322,0.00634817685931921,-0.005150287412106991
1782667584532382000,3.5183818359375,0.025714684277772903,0.0049561429768800735,-0.007004912476986647
1782667584542361000,3.528361083984375,0.027034014463424683,0.008552475832402706,-0.007784419693052769
1782667584552310000,3.53831005859375,0.023502130061388016,0.008111456409096718,-0.006340720225125551
1782667584562258000,3.5482578125,0.023917051032185555,0.008288822136819363,-0.0056863813661038876
1782667584572206800,3.558206787109375,0.024147680029273033,0.003982490859925747,-0.006274407263845205
1782667584582186000,3.56818603515625,0.023931965231895447,0.007848868146538734,-0.007610515225678682
1782667584592135000,3.578135009765625,0.026751186698675156,0.007896272465586662,-0.007502124644815922
1782667584602083800,3.588083740234375,0.023446204140782356,0.006286391522735357,-0.004918325692415237
1782667584612032800,3.59803271484375,0.025173796340823174,0.010001501068472862,-0.0062672169879078865
1782667584621981000,3.60798095703125,0.024942368268966675,0.006656304933130741,-0.007498928811401129
1782667584631960800,3.6179609375,0.023959394544363022,0.006080262828618288,-0.0073447320610284805
1782667584641909000,3.627908935546875,0.024404142051935196,0.006424609571695328,-0.006711432244628668
1782667584651858000,3.63785791015625,0.026732278987765312,0.0068001155741512775,-0.006836866959929466
1782667584661806800,3.647806884765625,0.02327629365026951,0.00866086594760418,-0.006334861274808645
1782667584671785700,3.65778564453125,0.02425314113497734,0.006657636258751154,-0.008012652397155762
1782667584681735000,3.66773486328125,0.023550067096948624,0.00407490273937583,-0.0062395199202001095
1782667584691683000,3.67768310546875,0.02575756050646305,0.007427290081977844,-0.007211573887616396
1782667584701632000,3.687632080078125,0.024925589561462402,0.007667773403227329,-0.007093595806509256
1782667584711581000,3.697580810546875,0.025246767327189445,0.006156429648399353,-0.007670170161873102
1782667584721560000,3.70756005859375,0.02395646460354328,0.005450159311294556,-0.009033176116645336
1782667584731509000,3.717509033203125,0.02520815096795559,0.007656854577362537,-0.007762315683066845
1782667584741458000,3.7274580078125,0.024179106578230858,0.004638161510229111,-0.0059660132974386215
1782667584751406000,3.737406005859375,0.024765534326434135,0.009728527627885342,-0.005205947440117598
1782667584761386000,3.747385986328125,0.026509106159210205,0.0063002402894198895,-0.006852846127003431
1782667584771334000,3.757333984375,0.024038223549723625,0.005201419815421104,-0.006095709279179573
1782667584781282800,3.76728271484375,0.02418150193989277,0.005682120565325022,-0.007502923719584942
1782667584791231700,3.777231689453125,0.026195650920271873,0.005642172880470753,-0.006762298755347729
1782667584801181000,3.787180908203125,0.025493109598755836,0.006374276243150234,-0.007166566327214241
1782667584811159800,3.797159912109375,0.026323748752474785,0.007421164773404598,-0.008105331100523472
1782667584821109000,3.80710888671875,0.023906132206320763,0.007652326952666044,-0.006629140581935644
1782667584831057000,3.817056884765625,0.024598287418484688,0.0062187472358345985,-0.006434197071939707
1782667584841006000,3.827006103515625,0.024835841730237007,0.0049316417425870895,-0.0056983656249940395
1782667584850985000,3.83698486328125,0.025307221338152885,0.007690942846238613,-0.0075873457826673985
1782667584860934100,3.84693408203125,0.025949308648705482,0.007682687137275934,-0.0062728095799684525
1782667584870883000,3.856883056640625,0.025892850011587143,0.0057188719511032104,-0.007285343483090401
1782667584880831000,3.8668310546875,0.023693878203630447,0.005179049447178841,-0.004993160720914602
1782667584890780000,3.87677978515625,0.024747690185904503,0.007481618318706751,-0.006758037488907576
1782667584900759000,3.886759033203125,0.025620141997933388,0.008211856707930565,-0.007693872321397066
1782667584910708000,3.8967080078125,0.02521081455051899,0.007608384825289249,-0.006695186719298363
1782667584920657000,3.906656982421875,0.02346804179251194,0.0060328589752316475,-0.006733004003763199
1782667584930605800,3.916605712890625,0.025961292907595634,0.006284261122345924,-0.006843791343271732
1782667584940585000,3.9265849609375,0.025637187063694,0.007685882970690727,-0.006632336415350437
1782667584950534000,3.936533935546875,0.02503637783229351,0.007470699492841959,-0.006427006796002388
1782667584960481800,3.946481689453125,0.02544250898063183,0.006719687953591347,-0.005656021647155285
1782667584970431000,3.956430908203125,0.024288561195135117,0.007014766335487366,-0.006549512036144733
1782667584980409900,3.966409912109375,0.025010811164975166,0.005052815657109022,-0.007102117873728275
1782667584990358800,3.97635888671875,0.02569630928337574,0.007499994244426489,-0.007926899008452892
1782667585000308000,3.986307861328125,0.026460103690624237,0.006780407857149839,-0.007495200727134943
1782667585010256100,3.996256103515625,0.02581268921494484,0.0065010422840714455,-0.006915430538356304
1782667585020205000,4.006205078125,0.02545742318034172,0.005868275184184313,-0.008045676164329052
1782667585030184000,4.016183837890625,0.024173246696591377,0.004883704707026482,-0.007894940674304962
1782667585040147700,4.026147705078125,0.02462012507021427,0.006954312324523926,-0.006943393498659134
1782667585050096600,4.0360966796875,0.02424541860818863,0.006490922532975674,-0.007101318798959255
1782667585060045800,4.0460458984375,0.025673672556877136,0.007831557653844357,-0.007953263819217682
1782667585070024700,4.056024658203125,0.024330107495188713,0.006189985200762749,-0.0065135592594742775
1782667585079973600,4.0659736328125,0.024286696687340736,0.007108775898814201,-0.006994260009378195
1782667585089921800,4.075921875,0.02490641549229622,0.001692705205641687,-0.00632048025727272
1782667585099870700,4.08587060546875,0.025041703134775162,0.00752103328704834,-0.009212939068675041
1782667585109820000,4.09581982421875,0.025423601269721985,0.00672368286177516,-0.006944991648197174
1782667585119798800,4.105798828125,0.026977023109793663,0.007841144688427448,-0.007711715530604124
1782667585129748000,4.115748046875,0.023959927260875702,0.005857356358319521,-0.006205964367836714
1782667585139697000,4.12569677734375,0.025346901267766953,0.005603024736046791,-0.00777589762583375
1782667585149644800,4.135644775390625,0.025198031216859818,0.006894391495734453,-0.007297594100236893
1782667585159624700,4.145624755859375,0.02659379318356514,0.008649148046970367,-0.005461877211928368
1782667585169572900,4.15557275390625,0.02557247132062912,0.006051500793546438,-0.008028365671634674
1782667585179521800,4.165521728515625,0.024149544537067413,0.00458649592474103,-0.007959389127790928
1782667585189470700,4.175470703125,0.02395540103316307,0.004544417839497328,-0.009135973639786243
1782667585199419000,4.1854189453125,0.02442571520805359,0.007029147353023291,-0.007187339011579752
1782667585209398800,4.195398681640625,0.024872327223420143,0.008331965655088425,-0.007027283310890198
1782667585219346700,4.2053466796875,0.025409486144781113,0.0062110242433846,-0.007459514308720827
1782667585229295600,4.215295654296875,0.02346404641866684,0.007741010282188654,-0.006995591334998608
1782667585239244800,4.225244873046875,0.025893915444612503,0.007413441315293312,-0.007995874620974064
1782667585249223700,4.2352236328125,0.025356754660606384,0.005680522415786982,-0.006523413117974997
1782667585259172600,4.245172607421875,0.02502492628991604,0.008586564101278782,-0.007693073246628046
1782667585269121800,4.255121826171875,0.023003851994872093,0.00881985668092966,-0.006577474996447563
1782667585279069700,4.265069580078125,0.025718413293361664,0.00660543842241168,-0.009210276417434216
1782667585289019000,4.275018798828125,0.025232385843992233,0.005033374298363924,-0.006372944451868534
1782667585298997800,4.284997802734375,0.02544836886227131,0.006583866663277149,-0.005851763766258955
1782667585308947000,4.294947021484375,0.025547970086336136,0.004790494218468666,-0.005785184912383556
1782667585318895900,4.304895751953125,0.02474076673388481,0.008774583227932453,-0.007166299968957901
1782667585328843800,4.31484375,0.024170583114027977,0.006148972548544407,-0.007195328362286091
1782667585338823700,4.32482373046875,0.02545502595603466,0.00418249424546957,-0.00812024436891079
1782667585348771800,4.334771728515625,0.024279773235321045,0.004788363818079233,-0.0068387314677238464
1782667585358720800,4.344720703125,0.026863304898142815,0.007207312621176243,-0.007062969263643026
1782667585368669700,4.354669677734375,0.025903236120939255,0.00689172837883234,-0.00878896377980709
1782667585378618600,4.36461865234375,0.025005483999848366,0.0051630702801048756,-0.007447530049830675
1782667585388597800,4.37459765625,0.024220384657382965,0.005340436939150095,-0.006472546607255936
1782667585398546700,4.384546630859375,0.0255783312022686,0.004959604702889919,-0.007426491007208824
1782667585408494600,4.39449462890625,0.022943930700421333,0.0038599856197834015,-0.00555082643404603
1782667585418443800,4.40444384765625,0.024632375687360764,0.008330900222063065,-0.006596916355192661
1782667585428422700,4.414422607421875,0.025562085211277008,0.008635565638542175,-0.006384662352502346
1782667585438371600,4.42437158203125,0.025840118527412415,0.0070613715797662735,-0.007929029874503613
1782667585448320800,4.43432080078125,0.023910392075777054,0.0026972496416419744,-0.007242732681334019
1782667585458270000,4.44427001953125,0.024982048198580742,0.005360943265259266,-0.005137770436704159
1782667585468217900,4.4542177734375,0.025081118568778038,0.0070459251292049885,-0.005366003140807152
1782667585478197800,4.46419775390625,0.026546655222773552,0.006162554491311312,-0.005053082015365362
1782667585488146000,4.47414599609375,0.023722106590867043,0.006662430241703987,-0.006650179624557495
1782667585498094800,4.4840947265625,0.025256887078285217,0.005327120888978243,-0.006077866069972515
1782667585508043800,4.494043701171875,0.023482423275709152,0.006539125461131334,-0.005393700208514929
1782667585518022700,4.504022705078125,0.02564197964966297,0.005916744936257601,-0.007275755982846022
1782667585527971800,4.513971923828125,0.023499732837080956,0.007535947021096945,-0.007419300265610218
1782667585537919700,4.523919677734375,0.025300029665231705,0.004445881117135286,-0.006030461750924587
1782667585547868700,4.53386865234375,0.024816665798425674,0.00560968229547143,-0.006622216198593378
1782667585557817600,4.543817626953125,0.024087226018309593,0.004056260455399752,-0.00809041690081358
1782667585567796700,4.553796630859375,0.025562351569533348,0.006052566226571798,-0.007669371087104082
1782667585577745700,4.56374560546875,0.02424408681690693,0.007778028026223183,-0.007528489921241999
1782667585587694800,4.57369482421875,0.025644909590482712,0.004484497010707855,-0.007277354132384062
1782667585597642800,4.583642822265625,0.02574877254664898,0.0034677020739763975,-0.006105030421167612
1782667585607623000,4.593622802734375,0.024519991129636765,0.004201669245958328,-0.006334062200039625
1782667585617570800,4.60357080078125,0.024747157469391823,0.006658701691776514,-0.006735134404152632
1782667585627519700,4.613519775390625,0.023244868963956833,0.008220645599067211,-0.007989482954144478
1782667585637469000,4.623468994140625,0.025060079991817474,0.003960653208196163,-0.007360977120697498
1782667585647447800,4.63344775390625,0.026914970949292183,0.005160673521459103,-0.005103681702166796
1782667585657396700,4.643396728515625,0.025475531816482544,0.005212338641285896,-0.005959355738013983
1782667585667345000,4.653344970703125,0.025647573173046112,0.008802279829978943,-0.005065598525106907
1782667585677293800,4.6632939453125,0.026252109557390213,0.00888084340840578,-0.008956210687756538
1782667585687242800,4.67324267578125,0.023424899205565453,0.00555135915055871,-0.007871771231293678
1782667585697221600,4.6832216796875,0.024055268615484238,0.0057473680935800076,-0.0051625375635921955
1782667585707170800,4.6931708984375,0.024749021977186203,0.0020208065398037434,-0.005138835404068232
1782667585717119700,4.70311962890625,0.025077123194932938,0.006966562941670418,-0.008258196525275707
1782667585727067600,4.713067626953125,0.026271818205714226,0.007477091159671545,-0.006677876226603985
1782667585737047600,4.723047607421875,0.023307187482714653,0.003579554846510291,-0.006997189484536648
1782667585746995700,4.73299560546875,0.024997761473059654,0.0065439194440841675,-0.005095159634947777
1782667585756944600,4.742944580078125,0.023274429142475128,0.007531153038144112,-0.007637945935130119
1782667585766893800,4.752893798828125,0.024716265499591827,0.006625145673751831,-0.007782822009176016
1782667585776842800,4.7628427734375,0.025186313316226006,0.008987636305391788,-0.006882939953356981
1782667585786822000,4.77282177734375,0.02521187998354435,0.007530354429036379,-0.006909038871526718
1782667585796770800,4.782770751953125,0.02407843805849552,0.004899683874100447,-0.007198257837444544
1782667585806718700,4.79271875,0.025179920718073845,0.007503989152610302,-0.00669358903542161
1782667585816668000,4.80266796875,0.025975940749049187,0.00600436283275485,-0.007661648094654083
1782667585826646800,4.812646728515625,0.025316808372735977,0.007035006303340197,-0.008140484802424908
1782667585836595700,4.822595703125,0.02412610873579979,0.006926083005964756,-0.007262706756591797
1782667585846544600,4.832544677734375,0.02533118985593319,0.005573463626205921,-0.006702111102640629
1782667585856492800,4.842492919921875,0.02406831830739975,0.007652060594409704,-0.007874168455600739
1782667585866441700,4.852441650390625,0.024702949449419975,0.005643504671752453,-0.00529676117002964
1782667585876420900,4.8624208984375,0.025677932426333427,0.008954346179962158,-0.007530620787292719
1782667585886369800,4.872369873046875,0.024110395461320877,0.007750331424176693,-0.007831024937331676
1782667585896318700,4.882318603515625,0.024112526327371597,0.005337241105735302,-0.005966812372207642
1782667585906268000,4.892267822265625,0.02491973154246807,0.005364405456930399,-0.007977498695254326
1782667585916246800,4.902246826171875,0.024102939292788506,0.0067910607904195786,-0.006628075148910284
1782667585926196000,4.912196044921875,0.024478977546095848,0.008403871208429337,-0.00586614478379488
1782667585936144000,4.922143798828125,0.02623746357858181,0.006265352945774794,-0.005508748814463615
1782667585946092800,4.9320927734375,0.024160197004675865,0.005085306242108345,-0.0067785438150167465
1782667585956041700,4.942041748046875,0.02628806233406067,0.010362093336880207,-0.007225954905152321
1782667585966020900,4.952020751953125,0.025047563016414642,0.007596134208142757,-0.0046267095021903515
1782667585975969800,4.9619697265625,0.02588086575269699,0.005270129535347223,-0.009222793392837048
1782667585985917700,4.971917724609375,0.026738936081528664,0.006415288895368576,-0.0062067629769444466
1782667585995867000,4.981866943359375,0.024174312129616737,0.0041555967181921005,-0.005081844050437212
1782667586005845800,4.991845703125,0.0233553908765316,0.005546565633267164,-0.005322327371686697
1782667586015794700,5.001794677734375,0.024262461811304092,0.004758269991725683,-0.006155630573630333
1782667586025743600,5.01174365234375,0.025370603427290916,0.006851780693978071,-0.006945257540792227
1782667586035702300,5.021702392578125,0.025140507146716118,0.0076240976341068745,-0.006956443190574646
1782667586045650200,5.031650146484375,0.025793513283133507,0.00663340138271451,-0.006415288895368576
1782667586055630000,5.041630126953125,0.024756478145718575,0.008206264115869999,-0.008381767198443413
1782667586065578200,5.051578125,0.02624518610537052,0.006616357248276472,-0.007181213703006506
1782667586075527400,5.06152734375,0.026341060176491737,0.005425391718745232,-0.007060039788484573
1782667586085476400,5.071476318359375,0.02515861578285694,0.006272276863455772,-0.004736698232591152
1782667586095455500,5.08145556640625,0.022358568385243416,0.006578806787729263,-0.006368417292833328
1782667586105404400,5.091404296875,0.024142354726791382,0.003829092951491475,-0.005306348204612732
1782667586115353300,5.101353271484375,0.024280305951833725,0.004255198873579502,-0.004948685877025127
1782667586125301200,5.11130126953125,0.02545822225511074,0.005948170088231564,-0.007469367701560259
1782667586135250400,5.12125048828125,0.026496589183807373,0.005879194475710392,-0.007262706756591797
1782667586145229300,5.131229248046875,0.024118918925523758,0.006183593533933163,-0.00771863991394639
1782667586155178200,5.14117822265625,0.024872060865163803,0.0076182386837899685,-0.006463758181780577
1782667586165127200,5.151127197265625,0.024994298815727234,0.005374791566282511,-0.008173773996531963
1782667586175075300,5.161075439453125,0.024897625669836998,0.004217914305627346,-0.006088785361498594
1782667586185055200,5.17105517578125,0.02478018030524254,0.0070616379380226135,-0.007847269997000694
1782667586195003400,5.18100341796875,0.0246635340154171,0.007878162898123264,-0.005559348501265049
1782667586204952300,5.190952392578125,0.024601483717560768,0.010128800757229328,-0.0062363240867853165
1782667586214901200,5.2009013671875,0.02365206554532051,0.007849134504795074,-0.007071491796523333
1782667586224850400,5.210850341796875,0.02370213344693184,0.005270129535347223,-0.005349491722881794
1782667586234829300,5.220829345703125,0.026993000879883766,0.008561796508729458,-0.005620867945253849
1782667586244778500,5.230778564453125,0.02467471919953823,0.008763398043811321,-0.007838482037186623
1782667586254726400,5.240726318359375,0.024772457778453827,0.005945506971329451,-0.007212905213236809
1782667586264675300,5.25067529296875,0.025049161165952682,0.005001949146389961,-0.007322361227124929
1782667586274654500,5.260654541015625,0.025838522240519524,0.007498396094888449,-0.0067780110985040665
1782667586284603400,5.270603271484375,0.02521480992436409,0.007574030198156834,-0.009206281043589115
1782667586294552300,5.28055224609375,0.02436446212232113,0.005257878918200731,-0.007017429452389479
1782667586304500200,5.290500244140625,0.02461453340947628,0.00717695290222764,-0.006310626398772001
1782667586314480400,5.30048046875,0.0244321059435606,0.005239236634224653,-0.006688529159873724
1782667586324428300,5.31042822265625,0.02454182878136635,0.00714659271761775,-0.006732204928994179
1782667586334377200,5.320377197265625,0.02558285742998123,0.008405469357967377,-0.006585198454558849
1782667586344326100,5.330326171875,0.02562546916306019,0.007665376644581556,-0.007647267077118158
1782667586354275300,5.340275390625,0.02527419663965702,0.007729558739811182,-0.008464857004582882
1782667586364254200,5.350254150390625,0.02430347539484501,0.006325273774564266,-0.006095709279179573
1782667586374203100,5.360203125,0.025418540462851524,0.005310343112796545,-0.0065377941355109215
1782667586384151300,5.3701513671875,0.027047064155340195,0.007244597189128399,-0.008742092177271843
1782667586394100500,5.3801005859375,0.026515230536460876,0.0073114424012601376,-0.006124737672507763
1782667586404079000,5.3900791015625,0.02701963298022747,0.0073109096847474575,-0.007241934072226286
1782667586414028300,5.4000283203125,0.02225816808640957,0.006518353242427111,-0.005435245577245951
1782667586423977500,5.4099775390625,0.024113591760396957,0.005012867972254753,-0.006413690745830536
1782667586433926400,5.419926513671875,0.02528112195432186,0.006087719928473234,-0.006612096447497606
1782667586443874300,5.429874267578125,0.025054752826690674,0.0070770843885838985,-0.007423827890306711
1782667586453853400,5.439853515625,0.025854233652353287,0.00888110976666212,-0.00771704176440835
1782667586463802400,5.44980224609375,0.02413489669561386,0.005130579695105553,-0.007981760427355766
1782667586473751300,5.459751220703125,0.02611362561583519,0.007355384528636932,-0.006998254451900721
1782667586483700200,5.4697001953125,0.02484622783958912,0.007994011044502258,-0.008013717830181122
1782667586493679400,5.479679443359375,0.024383369833230972,0.007255782373249531,-0.00595482811331749
1782667586503628300,5.489628173828125,0.02462119050323963,0.006848851218819618,-0.007836351171135902
1782667586513576200,5.499576171875,0.0237071942538023,0.006783603690564632,-0.008810802362859249
1782667586523525000,5.509525146484375,0.027027355507016182,0.006028864067047834,-0.00803209375590086
1782667586533474300,5.519474365234375,0.0244856346398592,0.006652842741459608,-0.007740477565675974
1782667586543453200,5.529453125,0.02527446299791336,0.008461395278573036,-0.00515827676281333
1782667586553402400,5.53940234375,0.026553846895694733,0.007541805971413851,-0.005425125360488892
1782667586563351300,5.549351318359375,0.023780429735779762,0.003921504598110914,-0.007110639940947294
1782667586573299500,5.559299560546875,0.025167936459183693,0.005547098349779844,-0.005834453273564577
1782667586583279400,5.569279296875,0.02538338676095009,0.006584399379789829,-0.008402539417147636
1782667586593227300,5.579227294921875,0.02545875497162342,0.007993744686245918,-0.005776662845164537
1782667586603176400,5.589176513671875,0.0247812457382679,0.006165750324726105,-0.00631941482424736
1782667586613125400,5.59912548828125,0.02545822225511074,0.005917810369282961,-0.007985222153365612
1782667586623073300,5.6090732421875,0.025011077523231506,0.005496231839060783,-0.007489341776818037
1782667586633053200,5.61905322265625,0.02496899850666523,0.006265086587518454,-0.006416087504476309
1782667586643001300,5.62900146484375,0.025617212057113647,0.007525294087827206,-0.006144179031252861
1782667586652950300,5.6389501953125,0.023488281294703484,0.00504083139821887,-0.007892011664807796
1782667586662899200,5.648899169921875,0.02460920624434948,0.006968427449464798,-0.008064850233495235
1782667586672878300,5.65887841796875,0.024083232507109642,0.005730589851737022,-0.005528722424060106
1782667586682827300,5.6688271484375,0.024764202535152435,0.005042429082095623,-0.0089378347620368
1782667586692776200,5.678776123046875,0.02503903955221176,0.009197226725518703,-0.005750829819589853
1782667586702724000,5.68872412109375,0.02418096922338009,0.006933273747563362,-0.00842677429318428
1782667586712673500,5.698673583984375,0.023974308744072914,0.007419300265610218,-0.01022467389702797
1782667586722652200,5.708652099609375,0.0254579558968544,0.0057127466425299644,-0.007526093162596226
1782667586732601300,5.718601318359375,0.026100575923919678,0.005067196674644947,-0.00851412583142519
1782667586742550300,5.72855029296875,0.024873657152056694,0.005822202656418085,-0.007412376347929239
1782667586752499500,5.73849951171875,0.024218786507844925,0.006921821739524603,-0.007289072033017874
1782667586762478300,5.748478271484375,0.02514663152396679,0.007748466916382313,-0.00899828877300024
1782667586772426200,5.75842626953125,0.025192970409989357,0.005447229836136103,-0.007814247161149979
1782667586782375400,5.76837548828125,0.02430054545402527,0.00675377668812871,-0.0067907944321632385
1782667586792324400,5.778324462890625,0.02641456387937069,0.007941014133393764,-0.005508216097950935
1782667586802273300,5.788273193359375,0.024685107171535492,0.006031260825693607,-0.007260309532284737
1782667586812252200,5.798252197265625,0.02449469082057476,0.006412625312805176,-0.0076217008754611015
1782667586822201300,5.808201416015625,0.025622272863984108,0.004705006722360849,-0.006311159115284681
1782667586832149200,5.818149169921875,0.025673406198620796,0.004688761197030544,-0.00669252360239625
1782667586842098200,5.82809814453125,0.026702983304858208,0.009518936276435852,-0.007045126520097256
1782667586852077300,5.838077392578125,0.024109330028295517,0.007128216791898012,-0.008538893423974514
1782667586862026200,5.848026123046875,0.023910924792289734,0.006000634748488665,-0.0071164988912642
1782667586871975400,5.857975341796875,0.024469656869769096,0.0065742796286940575,-0.008608135394752026
1782667586881924400,5.86792431640625,0.024897892028093338,0.008783637546002865,-0.005780124571174383
1782667586891903500,5.877903564453125,0.024525316432118416,0.00547386147081852,-0.005356415640562773
1782667586901852400,5.887852294921875,0.023995347321033478,0.008730906993150711,-0.007768440991640091
1782667586911800300,5.89780029296875,0.025588717311620712,0.005112203769385815,-0.008889098651707172
1782667586921749200,5.907749267578125,0.02586568519473076,0.00361790438182652,-0.0059721386060118675
1782667586931698400,5.917698486328125,0.02586302161216736,0.006324474699795246,-0.007752461824566126
1782667586941677300,5.92767724609375,0.025621473789215088,0.010300042107701302,-0.0065167550928890705
1782667586951626200,5.937626220703125,0.024108532816171646,0.005330583080649376,-0.006895456463098526
1782667586961574400,5.947574462890625,0.024644626304507256,0.0063196811825037,-0.007158310618251562
1782667586971523300,5.9575234375,0.023635555058717728,0.0079173119738698,-0.005732454359531403
1782667586981502200,5.967502197265625,0.02574637532234192,0.004856008104979992,-0.009135707281529903
1782667586991451100,5.977451171875,0.026220152154564857,0.00854581780731678,-0.009154083207249641
1782667587001400300,5.987400390625,0.024955684319138527,0.007203051820397377,-0.007816910743713379
1782667587011349200,5.997349365234375,0.025977272540330887,0.0060182115994393826,-0.008394017815589905
1782667587021297200,6.007297119140625,0.024287229403853416,0.00652660895138979,-0.009415073320269585
1782667587031277300,6.01727734375,0.025980200618505478,0.006587328854948282,-0.005209675524383783
1782667587041241900,6.027241943359375,0.025364745408296585,0.005338306538760662,-0.0070190271362662315
1782667587051190800,6.037190673828125,0.024744227528572083,0.00768774701282382,-0.008549279533326626
1782667587061139700,6.0471396484375,0.02400626614689827,0.007515174336731434,-0.00694925244897604
1782667587071118800,6.057118896484375,0.024833444505929947,0.004396346397697926,-0.006988134700804949
1782667587081068000,6.067068115234375,0.025082450360059738,0.006770288106054068,-0.006858438719063997
1782667587091016000,6.077015869140625,0.025463281199336052,0.0055092815309762955,-0.006106362212449312
1782667587100965000,6.086965087890625,0.024869397282600403,0.007385211996734142,-0.007412642706185579
1782667587110914000,6.0969140625,0.026969032362103462,0.007941014133393764,-0.007794806268066168
1782667587120893000,6.106892822265625,0.0234677754342556,0.00583844818174839,-0.006071740761399269
1782667587130841900,6.116841796875,0.025592977181077003,0.0044133905321359634,-0.008027566596865654
1782667587140791000,6.126791015625,0.025606293231248856,0.005233910400420427,-0.00663473317399621
1782667587150739000,6.136739013671875,0.024984978139400482,0.007081078831106424,-0.008172442205250263
1782667587160718800,6.14671875,0.024628113955259323,0.008888300508260727,-0.0070222229696810246
1782667587170667000,6.1566669921875,0.023302126675844193,0.0070366039872169495,-0.004564658273011446
1782667587180616000,6.166615966796875,0.024293622002005577,0.00612207455560565,-0.006572148762643337
1782667587190564900,6.17656494140625,0.02569524385035038,0.006055762059986591,-0.006500776391476393
1782667587200513800,6.186513671875,0.026004968211054802,0.007891212590038776,-0.008916529826819897
1782667587210493000,6.196492919921875,0.026514964178204536,0.007466438226401806,-0.00729386555030942
1782667587220442000,6.206442138671875,0.025313345715403557,0.005991579964756966,-0.007759652566164732
1782667587230389800,6.2163896484375,0.025124793872237206,0.005419266410171986,-0.008584433235228062
1782667587240339000,6.2263388671875,0.023934360593557358,0.006450176239013672,-0.0067785438150167465
1782667587250318000,6.236318115234375,0.024118652567267418,0.0062706791795790195,-0.007249124348163605
1782667587260267000,6.24626708984375,0.024658475071191788,0.008313323371112347,-0.006764162797480822
1782667587270216000,6.2562158203125,0.023973776027560234,0.007379885762929916,-0.006590524688363075
1782667587280164000,6.2661640625,0.025543710216879845,0.0030692932195961475,-0.00567093538120389
1782667587290113000,6.276113037109375,0.023630227893590927,0.0038344194181263447,-0.008047273382544518
1782667587300092000,6.286091796875,0.024997495114803314,0.00631914846599102,-0.006852047052234411
1782667587310040800,6.296040771484375,0.025945579633116722,0.007141799200326204,-0.005564675200730562
1782667587319990000,6.305989990234375,0.024339161813259125,0.0072901370003819466,-0.007693872321397066
1782667587329939000,6.31593896484375,0.02466699667274952,0.005964415613561869,-0.007714112289249897
1782667587339917800,6.325917724609375,0.0231708325445652,0.006681604776531458,-0.007122890558093786
1782667587349866800,6.33586669921875,0.024634506553411484,0.00663553224876523,-0.009033176116645336
1782667587359815000,6.34581494140625,0.02413676120340824,0.005380916874855757,-0.005823800805956125
1782667587369763800,6.355763916015625,0.026809776201844215,0.008520783856511116,-0.008594819344580173
1782667587379712800,6.365712646484375,0.025236381217837334,0.005119660869240761,-0.009189503267407417
1782667587389692000,6.37569189453125,0.026220418512821198,0.0044408212415874004,-0.0065263425931334496
1782667587399641000,6.38564111328125,0.02550376206636429,0.006637662649154663,-0.006125536747276783
1782667587409589000,6.395589111328125,0.02599378302693367,0.006197974551469088,-0.007891745306551456
1782667587419538000,6.405537841796875,0.024537034332752228,0.006657369900494814,-0.008864864706993103
1782667587429517000,6.41551708984375,0.02430214360356331,0.005411277059465647,-0.008175638504326344
1782667587439466000,6.425466064453125,0.023064039647579193,0.004583832807838917,-0.006641923915594816
1782667587449415000,6.435414794921875,0.025361549109220505,0.0067452541552484035,-0.0070424629375338554
1782667587459363800,6.44536376953125,0.02647235430777073,0.00860254280269146,-0.006749515421688557
1782667587469312000,6.45531201171875,0.02593918889760971,0.006127400789409876,-0.008505604229867458
1782667587479292000,6.4652919921875,0.024409469217061996,0.005089300684630871,-0.008074970915913582
1782667587489239800,6.47523974609375,0.025738386437296867,0.0057412427850067616,-0.005672799423336983
1782667587499189000,6.48518896484375,0.027028687298297882,0.005066663958132267,-0.005889314226806164
1782667587509138000,6.495137939453125,0.025729332119226456,0.008195345290005207,-0.007918376475572586
1782667587519116800,6.50511669921875,0.02533172257244587,0.0065527078695595264,-0.00827843602746725
1782667587529065700,6.515065673828125,0.026161029934883118,0.005949768237769604,-0.005971073638647795
1782667587539015200,6.52501513671875,0.02462092414498329,0.00669412175193429,-0.006362558342516422
1782667587548962800,6.534962890625,0.025952238589525223,0.005637645721435547,-0.00808828603476286
1782667587558943000,6.54494287109375,0.02792404219508171,0.006847786251455545,-0.007199056912213564
1782667587568891100,6.55489111328125,0.02334686741232872,0.00711623253300786,-0.007157511543482542
1782667587578840000,6.564840087890625,0.025655828416347504,0.004795287735760212,-0.006885603070259094
1782667587588789000,6.5747890625,0.024261662736535072,0.006307963281869888,-0.009193232282996178
1782667587598737000,6.58473681640625,0.02430320903658867,0.006661631166934967,-0.0051476238295435905
1782667587608717000,6.594717041015625,0.025243038311600685,0.008416920900344849,-0.005028580781072378
1782667587618665000,6.6046650390625,0.024837706238031387,0.008496815338730812,-0.010311227291822433
1782667587628614000,6.61461376953125,0.024573786184191704,0.00558145297691226,-0.006399043370038271
1782667587638562800,6.624562744140625,0.02436020039021969,0.005097290500998497,-0.008644088171422482
1782667587648542000,6.6345419921875,0.02508671022951603,0.005967345088720322,-0.0054269894026219845
1782667587658491000,6.644490966796875,0.025681395083665848,0.008125836960971355,-0.006548180244863033
1782667587668439800,6.654439697265625,0.02455194853246212,0.006036587059497833,-0.006256830412894487
1782667587678388000,6.664387939453125,0.024329308420419693,0.007012103218585253,-0.007476292084902525
1782667587688337000,6.6743369140625,0.026003902778029442,0.003184075467288494,-0.004893824923783541
1782667587698315800,6.684315673828125,0.025416675955057144,0.004608334042131901,-0.0059596216306090355
1782667587708264700,6.6942646484375,0.02616715617477894,0.005702893249690533,-0.007893876172602177
1782667587718214100,6.704214111328125,0.026260100305080414,0.007762848399579525,-0.00806431844830513
1782667587728162000,6.714162109375,0.023969780653715134,0.006597182713449001,-0.006219812668859959
1782667587738142000,6.724141845703125,0.025428127497434616,0.00552339619025588,-0.007730357814580202
1782667587748090000,6.734090087890625,0.025644643232226372,0.003370230318978429,-0.008802279829978943
1782667587758039000,6.7440390625,0.024472586810588837,0.007651794236153364,-0.0065561700612306595
1782667587767988000,6.753988037109375,0.02594025433063507,0.008439024910330772,-0.006911435630172491
1782667587777937000,6.76393701171875,0.023855531588196754,0.007555920630693436,-0.008493353612720966
1782667587787916000,6.773916015625,0.024648088961839676,0.005122057627886534,-0.008349542506039143
1782667587797865000,6.783864990234375,0.024945829063653946,0.0059628174640238285,-0.0075726984068751335
1782667587807812900,6.793812744140625,0.02406911738216877,0.008902414701879025,-0.007763380650430918
1782667587817761800,6.80376171875,0.027037743479013443,0.0060445768758654594,-0.007980694994330406
1782667587827741000,6.813740966796875,0.025359418243169785,0.004821919370442629,-0.007446730975061655
1782667587837689900,6.82368994140625,0.024819329380989075,0.004265851341187954,-0.008290686644613743
1782667587847638800,6.833638671875,0.023730896413326263,0.0049582733772695065,-0.00887977797538042
1782667587857588000,6.843587890625,0.025110146030783653,0.004719920456409454,-0.008902947418391705
1782667587867536000,6.853535888671875,0.025982331484556198,0.006986536551266909,-0.006383596919476986
1782667587877516000,6.86351611328125,0.02486034296452999,0.004509796854108572,-0.007954861968755722
1782667587887464000,6.8734638671875,0.024025708436965942,0.006358030717819929,-0.005644835997372866
1782667587897413000,6.8834130859375,0.02563825249671936,0.005123921670019627,-0.006346579175442457
1782667587907362000,6.893362060546875,0.025292040780186653,0.008905078284442425,-0.006176403257995844
1782667587917341000,6.9033408203125,0.025674736127257347,0.0073079802095890045,-0.007375624496489763
1782667587927289900,6.913289794921875,0.02389654517173767,0.007240069564431906,-0.008538360707461834
1782667587937238000,6.923238037109375,0.024771392345428467,0.005615541245788336,-0.009247028268873692
1782667587947187000,6.93318701171875,0.024330373853445053,0.0054419031366705894,-0.007255782373249531
1782667587957136000,6.943135986328125,0.025727201253175735,0.00583791546523571,-0.006088519003242254
1782667587967115000,6.953114990234375,0.025850770995020866,0.009073389694094658,-0.007006776984781027
1782667587977064000,6.96306396484375,0.02568911761045456,0.007754059974104166,-0.005567338317632675
1782667587987012900,6.973012939453125,0.023977771401405334,0.006452040281146765,-0.006147374864667654
1782667587996960800,6.982960693359375,0.025608690455555916,0.005697300657629967,-0.007815312594175339
1782667588006941000,6.99294091796875,0.02490748092532158,0.0043625240214169025,-0.007310110609978437
1782667588016888800,7.002888916015625,0.023995613679289818,0.007424892857670784,-0.008256332017481327
1782667588026837800,7.012837646484375,0.025233717635273933,0.00651595601812005,-0.006443251855671406
1782667588036791000,7.022791015625,0.025053154677152634,0.006505569908767939,-0.006377205718308687
1782667588046739200,7.0327392578125,0.025801770389080048,0.003910585772246122,-0.005526325665414333
1782667588056719000,7.042718994140625,0.024993499740958214,0.007418501656502485,-0.007406783755868673
1782667588066667000,7.0526669921875,0.025441709905862808,0.009646502323448658,-0.005319930613040924
1782667588076616000,7.062615966796875,0.02503238245844841,0.007286142557859421,-0.006942062173038721
1782667588086565000,7.072565185546875,0.023141006007790565,0.006234726402908564,-0.00637773796916008
1782667588096544000,7.0825439453125,0.026815369725227356,0.0054546864703297615,-0.009267800487577915
1782667588106493000,7.092492919921875,0.024690698832273483,0.0059596216306090355,-0.00788695178925991
1782667588116441900,7.10244189453125,0.024172447621822357,0.007492803502827883,-0.005615274887531996
1782667588126390000,7.11239013671875,0.02582280896604061,0.009046758525073528,-0.007941014133393764
1782667588136339000,7.1223388671875,0.024350346997380257,0.00726483715698123,-0.005752161610871553
1782667588146318000,7.132318115234375,0.02286776527762413,0.0037734329234808683,-0.005550027824938297
1782667588156267000,7.14226708984375,0.024893898516893387,0.004180630203336477,-0.005943376570940018
1782667588166216200,7.15221630859375,0.02539324015378952,0.007508516311645508,-0.006741259712725878
1782667588176165000,7.1621650390625,0.024051006883382797,0.006068811286240816,-0.005091697443276644
1782667588186144000,7.17214404296875,0.02520388923585415,0.007151386234909296,-0.0075852153822779655
1782667588196093200,7.18209326171875,0.025304291397333145,0.006358563434332609,-0.007310110609978437
1782667588206041000,7.192041015625,0.024085095152258873,0.004452006425708532,-0.006117281038314104
1782667588215990000,7.201989990234375,0.025126658380031586,0.007299724500626326,-0.0073018549010157585
1782667588225969200,7.21196923828125,0.02521933615207672,0.008480303920805454,-0.007423827890306711
1782667588235918000,7.22191796875,0.025558089837431908,0.006680539343506098,-0.007182545494288206
1782667588245867000,7.231866943359375,0.025198031216859818,0.006324208807200193,-0.008015049621462822
1782667588255815000,7.24181494140625,0.024099742993712425,0.004363056737929583,-0.0037675739731639624
1782667588265764000,7.25176416015625,0.026031866669654846,0.00624138442799449,-0.008171376772224903
1782667588275743000,7.261742919921875,0.023967383429408073,0.007838482037186623,-0.006602775305509567
1782667588285692000,7.27169189453125,0.023574834689497948,0.006906642112880945,-0.006216616835445166
1782667588295640800,7.281640869140625,0.024657675996422768,0.005501824431121349,-0.007104780990630388
1782667588305590000,7.291590087890625,0.02292875200510025,0.0035143073182553053,-0.005560680292546749
1782667588315569000,7.30156884765625,0.024336231872439384,0.004741491749882698,-0.007113036699593067
1782667588325518000,7.31151806640625,0.025603363290429115,0.008647816255688667,-0.008142881095409393
1782667588335466000,7.321466064453125,0.025195633992552757,0.00646828580647707,-0.0067716194316744804
1782667588345415200,7.331415283203125,0.024957014247775078,0.00469488650560379,-0.009972739033401012
1782667588355364000,7.341364013671875,0.02581881359219551,0.00621022516861558,-0.005429386626929045
1782667588365343000,7.351343017578125,0.02516127936542034,0.005798766855150461,-0.007244863547384739
1782667588375292200,7.361292236328125,0.024520788341760635,0.008864065632224083,-0.007154582068324089
1782667588385240000,7.371239990234375,0.02592374198138714,0.00977699737995863,-0.006726345978677273
1782667588395189000,7.38118896484375,0.02298414520919323,0.007597998715937138,-0.007288272958248854
1782667588405168000,7.391168212890625,0.024684840813279152,0.005120726302266121,-0.006248041987419128
1782667588415117000,7.401116943359375,0.02401532046496868,0.00669332267716527,-0.007799599785357714
1782667588425066000,7.41106591796875,0.02551494725048542,0.006469617132097483,-0.00768774701282382
1782667588435015000,7.421014892578125,0.025250228121876717,0.005649629980325699,-0.00765738682821393
1782667588444963000,7.430963134765625,0.02599964290857315,0.0062666842713952065,-0.005271460860967636
1782667588454943000,7.44094287109375,0.024340493604540825,0.005541505757719278,-0.005825132131576538
1782667588464891000,7.450890869140625,0.025082184001803398,0.006734868045896292,-0.006618754006922245
1782667588474839800,7.46083984375,0.025731729343533516,0.0075671058148145676,-0.007454187609255314
1782667588484789200,7.470789306640625,0.024507207795977592,0.0038152446504682302,-0.007388674188405275
1782667588494767900,7.480767822265625,0.025357820093631744,0.006938866339623928,-0.006396912969648838
1782667588504717000,7.490717041015625,0.023976439610123634,0.007863515987992287,-0.006652043666690588
1782667588514666000,7.500666015625,0.026488065719604492,0.004231496714055538,-0.00800066813826561
1782667588524614100,7.5106142578125,0.025487249717116356,0.0057710702531039715,-0.00666269613429904
1782667588534563000,7.52056298828125,0.026323482394218445,0.01008086372166872,-0.006228334736078978
1782667588544542000,7.5305419921875,0.02387923374772072,0.00678307143971324,-0.008168181404471397
1782667588554491100,7.5404912109375,0.025111477822065353,0.005880259443074465,-0.005056543741375208
1782667588564440000,7.550440185546875,0.026012159883975983,0.006460029631853104,-0.00612393906340003
1782667588574388000,7.560387939453125,0.025527197867631912,0.010793792083859444,-0.008643022738397121
1782667588584367900,7.570367919921875,0.026136528700590134,0.007232879288494587,-0.005102350376546383
1782667588594316000,7.58031591796875,0.024458738043904305,0.005991313606500626,-0.007890147157013416
1782667588604265000,7.590264892578125,0.023909060284495354,0.006419549696147442,-0.008792426437139511
1782667588614214000,7.6002138671875,0.02527260035276413,0.005666407756507397,-0.007839813828468323
1782667588624162800,7.610162841796875,0.026934944093227386,0.0067969197407364845,-0.007002782076597214
1782667588634142000,7.620141845703125,0.025366343557834625,0.009126919321715832,-0.007530886679887772
1782667588644091100,7.630091064453125,0.0241913553327322,0.006600644905120134,-0.006927414797246456
1782667588654038800,7.640038818359375,0.02544623799622059,0.005313006229698658,-0.006336725316941738
1782667588663988200,7.64998828125,0.02520468831062317,0.004888498689979315,-0.006001433357596397
1782667588673967000,7.659967041015625,0.02514583244919777,0.007930893450975418,-0.007066697813570499
1782667588683916000,7.669916015625,0.023839285597205162,0.007261907681822777,-0.007493868935853243
1782667588693865000,7.679864990234375,0.023120498284697533,0.006342850625514984,-0.0084249097853899
1782667588703813000,7.689813232421875,0.021799571812152863,0.0062637547962367535,-0.007143929600715637
1782667588713762000,7.699761962890625,0.023851003497838974,0.005228051450103521,-0.0070797475054860115
1782667588723741000,7.709740966796875,0.02508538030087948,0.003753991797566414,-0.008096542209386826
1782667588733690000,7.719690185546875,0.025671541690826416,0.007223558146506548,-0.006163619924336672
1782667588743639000,7.72963916015625,0.024169784039258957,0.006564159411936998,-0.006681072060018778
1782667588753588000,7.739587890625,0.024296818301081657,0.003940413240343332,-0.006982275750488043
1782667588763566800,7.74956689453125,0.02407071553170681,0.004994492046535015,-0.006617422681301832
1782667588773516000,7.75951611328125,0.024524250999093056,0.007531685754656792,-0.008947421796619892
1782667588783464000,7.7694638671875,0.025897908955812454,0.0070861391723155975,-0.00678227236494422
1782667588793412900,7.779412841796875,0.024994831532239914,0.007675230037420988,-0.008074171841144562
1782667588803362000,7.789362060546875,0.02690698206424713,0.005583849735558033,-0.007105047348886728
1782667588813341200,7.799341064453125,0.023442208766937256,0.0054448326118290424,-0.005813946947455406
1782667588823290000,7.8092900390625,0.02551787719130516,0.006701312027871609,-0.006560963578522205
1782667588833239000,7.819239013671875,0.024571122601628304,0.007547132205218077,-0.006099437829107046
1782667588843187200,7.829187255859375,0.025405490770936012,0.009324791841208935,-0.007303985767066479
1782667588853166000,7.839166015625,0.025801770389080048,0.007576693315058947,-0.006386792752891779
1782667588863115000,7.849114990234375,0.02502412721514702,0.006502107717096806,-0.007427023723721504
1782667588873064000,7.85906396484375,0.024394821375608444,0.005934588145464659,-0.007759386207908392
1782667588883013000,7.86901318359375,0.025562884286046028,0.006673082709312439,-0.0073383403941988945
1782667588892992000,7.878991943359375,0.02365819178521633,0.007843808270990849,-0.005049886181950569
1782667588902941000,7.88894091796875,0.024992434307932854,0.0059969061985611916,-0.008978048339486122
1782667588912889000,7.89888916015625,0.025481924414634705,0.006939132697880268,-0.005904227960854769
1782667588922838000,7.908838134765625,0.02514956146478653,0.007063768338412046,-0.009183644317090511
1782667588932787000,7.918786865234375,0.026860110461711884,0.007822503335773945,-0.007568703964352608
1782667588942765800,7.928765869140625,0.02394474670290947,0.008449144661426544,-0.007809187285602093
1782667588952715000,7.938715087890625,0.02388722263276577,0.007619303651154041,-0.005983057431876659
1782667588962664200,7.948664306640625,0.02425394020974636,0.006786533165723085,-0.005120992194861174
1782667588972611800,7.95861181640625,0.02478817105293274,0.004816060420125723,-0.008547947742044926
1782667588982592000,7.968592041015625,0.024657409638166428,0.006680539343506098,-0.008857940323650837
1782667588992540200,7.9785400390625,0.025192437693476677,0.006048571318387985,-0.008132761344313622
1782667589002489000,7.988489013671875,0.024212395772337914,0.007406517397612333,-0.0065191518515348434
1782667589012438000,7.99843798828125,0.02491467073559761,0.005783320404589176,-0.005657619331032038
1782667589022386200,8.00838623046875,0.024098144844174385,0.004267449490725994,-0.006604905705899
1782667589032366000,8.018365966796875,0.024447819218039513,0.006742058787494898,-0.00672341650351882
1782667589042328000,8.028328125,0.024032631888985634,0.007390538230538368,-0.006342317909002304
1782667589052277000,8.038277099609376,0.025105886161327362,0.006608634255826473,-0.005453355144709349
1782667589062226200,8.04822607421875,0.025732792913913727,0.006717557553201914,-0.0070491209626197815
1782667589072205000,8.058205078125,0.025004684925079346,0.005780657287687063,-0.005548429675400257
1782667589082154000,8.068154052734375,0.026432406157255173,0.006417685654014349,-0.006880276836454868
1782667589092103000,8.07810302734375,0.024512799456715584,0.006154831498861313,-0.008169246837496758
1782667589102051000,8.088051025390625,0.026499517261981964,0.007525294087827206,-0.0081474082544446
1782667589112000000,8.098,0.026568492874503136,0.007012635935097933,-0.007626228034496307
1782667589121979000,8.107978759765626,0.023250460624694824,0.00592420157045126,-0.0072840116918087006
1782667589131928000,8.117927978515626,0.024393489584326744,0.007209709845483303,-0.007020625285804272
1782667589141877000,8.127876953125,0.02504010498523712,0.008869658224284649,-0.006258961278945208
1782667589151825000,8.137824951171876,0.024325313046574593,0.006934072356671095,-0.006374542135745287
1782667589161804800,8.1478046875,0.023904800415039062,0.004781439434736967,-0.008855809457600117
1782667589171753000,8.1577529296875,0.025911225005984306,0.005874400492757559,-0.00654551712796092
1782667589181702100,8.1677021484375,0.025072863325476646,0.007384679280221462,-0.007378820329904556
1782667589191651000,8.177651123046875,0.026618560776114464,0.008651012554764748,-0.007256315089762211
1782667589201600000,8.18760009765625,0.025605227798223495,0.007986021228134632,-0.007623298559337854
1782667589211579100,8.1975791015625,0.026678748428821564,0.0076392777264118195,-0.008801480755209923
1782667589221528000,8.207528076171876,0.025960227474570274,0.005602225661277771,-0.006588927004486322
1782667589231476000,8.21747607421875,0.025193236768245697,0.00569889834150672,-0.006584932096302509
1782667589241425200,8.227425048828126,0.025584988296031952,0.006592122372239828,-0.005534581374377012
1782667589251404000,8.237404052734375,0.023983629420399666,0.008085889741778374,-0.007634217385202646
1782667589261353000,8.24735302734375,0.026249181479215622,0.004781705792993307,-0.007577226031571627
1782667589271302000,8.257302001953125,0.024480042979121208,0.00740225613117218,-0.006843258626759052
1782667589281251000,8.2672509765625,0.026504578068852425,0.006374542135745287,-0.008139952085912228
1782667589291199000,8.277198974609375,0.023678697645664215,0.00618172949180007,-0.009247294627130032
1782667589301179000,8.287178955078126,0.026564765721559525,0.007071757689118385,-0.005201419815421104
1782667589311127000,8.297126953125,0.02522306516766548,0.005854160524904728,-0.007586546707898378
1782667589321076000,8.307075927734376,0.024467526003718376,0.005696767941117287,-0.005403021350502968
1782667589331025200,8.317025146484376,0.025121597573161125,0.005892776418477297,-0.006337524391710758
1782667589341004000,8.327004150390625,0.02297802083194256,0.007954861968755722,-0.009102418087422848
1782667589350953200,8.336953125,0.02472558617591858,0.008350341580808163,-0.006530071143060923
1782667589360901000,8.346901123046875,0.024323182180523872,0.006931941956281662,-0.0065383268520236015
1782667589370850000,8.35685009765625,0.025076057761907578,0.0037643781397491693,-0.007077616639435291
1782667589380799000,8.366799072265625,0.025370869785547256,0.0054765245877206326,-0.00657587731257081
1782667589390778000,8.376778076171876,0.026431607082486153,0.0070645674131810665,-0.005363872740417719
1782667589400727000,8.38672705078125,0.025469141080975533,0.006972954608500004,-0.005321528296917677
1782667589410676000,8.396676025390626,0.02468111179769039,0.005390238016843796,-0.007207312621176243
1782667589420624100,8.4066240234375,0.024595623835921288,0.0038903458043932915,-0.006529804784804583
1782667589430604000,8.41660400390625,0.02472691796720028,0.005024852231144905,-0.006662163883447647
1782667589440552000,8.426552001953125,0.024101341143250465,0.006862965878099203,-0.007675230037420988
1782667589450500900,8.4365009765625,0.026702184230089188,0.006424343679100275,-0.005556419026106596
1782667589460450000,8.446449951171875,0.024659540504217148,0.0065108961425721645,-0.007731955498456955
1782667589470398000,8.45639794921875,0.025593509897589684,0.006183327175676823,-0.00518810423091054
1782667589480377900,8.4663779296875,0.025342907756567,0.0041220407001674175,-0.007679757662117481
1782667589490326000,8.476325927734376,0.02569551020860672,0.008884837850928307,-0.007678958587348461
1782667589500275200,8.486275146484376,0.025685124099254608,0.0076065207831561565,-0.007881625555455685
1782667589510224100,8.49622412109375,0.025066737085580826,0.008767126128077507,-0.006757771130651236
1782667589520203000,8.506203125,0.02504010498523712,0.00635057408362627,-0.004591822158545256
1782667589530152200,8.516152099609375,0.025837989524006844,0.007208910770714283,-0.007936752401292324
1782667589540101000,8.52610107421875,0.023470439016819,0.0060088904574513435,-0.007132211700081825
1782667589550049000,8.536049072265625,0.025975141674280167,0.008197742514312267,-0.006154298782348633
1782667589560029000,8.54602880859375,0.026457972824573517,0.006443784572184086,-0.008098673075437546
1782667589569977000,8.55597705078125,0.0255756676197052,0.005416070576757193,-0.007346063386648893
1782667589579926000,8.565926025390626,0.02630617283284664,0.005508482456207275,-0.0067721521481871605
1782667589589875000,8.575875,0.024169251322746277,0.005750829819589853,-0.007930094376206398
1782667589599824000,8.585823974609376,0.0275645162910223,0.007077882997691631,-0.006086121778935194
1782667589609803000,8.595802978515625,0.025469407439231873,0.008432633243501186,-0.007375091779977083
1782667589619752000,8.605751953125,0.02389201708137989,0.007310110609978437,-0.0070549799129366875
1782667589629699800,8.615699951171875,0.024590298533439636,0.003820570884272456,-0.007760717533528805
1782667589639649000,8.62564892578125,0.0251623447984457,0.004326305352151394,-0.006044044159352779
1782667589649628000,8.6356279296875,0.028119785711169243,0.008140218444168568,-0.007790811359882355
1782667589659577000,8.6455771484375,0.026260100305080414,0.007089600898325443,-0.006360427476465702
1782667589669526000,8.655526123046876,0.024579377844929695,0.006372145377099514,-0.006569752003997564
1782667589679474200,8.66547412109375,0.025369271636009216,0.003771835006773472,-0.005107676610350609
1782667589689423000,8.675423095703126,0.02423849329352379,0.00549170421436429,-0.00811864621937275
1782667589699402000,8.685402099609375,0.026999659836292267,0.00794261135160923,-0.00612207455560565
1782667589709351200,8.69535107421875,0.027873177081346512,0.004917260725051165,-0.007704258430749178
1782667589719300000,8.705300048828125,0.023344736546278,0.005981992464512587,-0.005059206858277321
1782667589729249000,8.7152490234375,0.02588193118572235,0.005540973041206598,-0.006991863250732422
1782667589739228000,8.725227783203126,0.026450781151652336,0.003910852130502462,-0.009165268391370773
1782667589749177000,8.735177001953126,0.02593732438981533,0.0062645538710057735,-0.006744721904397011
1782667589759125000,8.745125,0.025735456496477127,0.0072925337590277195,-0.008412126451730728
1782667589769074000,8.755073974609376,0.023389479145407677,0.006124737672507763,-0.007727161981165409
1782667589779022800,8.76502294921875,0.024179106578230858,0.00785739067941904,-0.0060080913826823235
1782667589789002000,8.775001953125,0.026766367256641388,0.005320196971297264,-0.005946838762611151
1782667589798951000,8.784950927734375,0.024533571675419807,0.00595589354634285,-0.00896606408059597
1782667589808898800,8.79489892578125,0.024945296347141266,0.00643686018884182,-0.0076331524178385735
1782667589818848300,8.80484814453125,0.02707316353917122,0.00484322477132082,-0.007997206412255764
1782667589828827000,8.814826904296876,0.024828383699059486,0.00509782275184989,-0.007062969263643026
1782667589838776000,8.824776123046876,0.0255716722458601,0.004227768164128065,-0.008137022145092487
1782667589848725000,8.83472509765625,0.02521347813308239,0.007749532349407673,-0.008008657954633236
1782667589858674200,8.844674072265626,0.024162061512470245,0.008577242493629456,-0.005027781706303358
1782667589868622000,8.8546220703125,0.025494175031781197,0.007384412921965122,-0.008882441557943821
1782667589878602000,8.86460205078125,0.024166589602828026,0.006931941956281662,-0.007028880994766951
1782667589888550100,8.874550048828125,0.02436765655875206,0.0056949034333229065,-0.006172674708068371
1782667589898499000,8.8844990234375,0.025840651243925095,0.007931958884000778,-0.005667206831276417
1782667589908448000,8.894447998046875,0.025186579674482346,0.005005411338061094,-0.006992129608988762
1782667589918427000,8.904427001953126,0.024957014247775078,0.007891212590038776,-0.009910687804222107
1782667589928376000,8.9143759765625,0.024503478780388832,0.004831506870687008,-0.007934622466564178
1782667589938325000,8.924324951171876,0.025903236120939255,0.006791327148675919,-0.005440039094537497
1782667589948273000,8.93427294921875,0.026342658326029778,0.008895756676793098,-0.006361492909491062
1782667589958221800,8.944221923828126,0.025431323796510696,0.008219580166041851,-0.007279484532773495
1782667589968201000,8.954200927734375,0.024807345122098923,0.008417453616857529,-0.006057359743863344
1782667589978150100,8.964150146484375,0.024055268615484238,0.0056980992667376995,-0.006365487817674875
1782667589988099000,8.97409912109375,0.024988707154989243,0.005823268089443445,-0.006764162797480822
1782667589998047200,8.984047119140625,0.024994831532239914,0.00646775308996439,-0.007502391003072262
1782667590008027100,8.994027099609376,0.02496819943189621,0.005858155433088541,-0.006114884279668331
1782667590017975000,9.00397509765625,0.025470472872257233,0.007300257217139006,-0.007244330830872059
1782667590027924000,9.013924072265626,0.02508538030087948,0.006674414500594139,-0.005169994663447142
1782667590037873400,9.023873291015626,0.025490712374448776,0.005395830608904362,-0.0070853400975465775
1782667590047822600,9.033822509765624,0.02436259761452675,0.006760966964066029,-0.007137537933886051
1782667590057801500,9.043801513671875,0.025618011131882668,0.009680324234068394,-0.00797243881970644
1782667590067750400,9.05375048828125,0.02581029199063778,0.006457366514950991,-0.00749200489372015
1782667590077698600,9.063698486328125,0.025588450953364372,0.006135390605777502,-0.007363906595855951
1782667590087647700,9.073647705078125,0.023133547976613045,0.006105296779423952,-0.005518602207303047
1782667590097626400,9.08362646484375,0.02538338676095009,0.006469350773841143,-0.004593153949826956
1782667590107575600,9.093575439453126,0.025471538305282593,0.006010221783071756,-0.005313538946211338
1782667590117524700,9.103524658203124,0.02672109380364418,0.0075796227902174,-0.0062616243958473206
1782667590127472600,9.11347265625,0.023144999518990517,0.00669465446844697,-0.007349525578320026
1782667590137421600,9.123421630859376,0.024761805310845375,0.006716492120176554,-0.006656837183982134
1782667590147400700,9.133400634765625,0.02466593123972416,0.0055817193351686,-0.007110373582690954
1782667590157349600,9.143349609375,0.024760739877820015,0.007726362906396389,-0.006996656768023968
1782667590167298600,9.153298583984375,0.025105886161327362,0.008532501757144928,-0.007424360606819391
1782667590177247500,9.16324755859375,0.025557290762662888,0.007502923719584942,-0.007970042526721954
1782667590187226600,9.1732265625,0.024291224777698517,0.00529622845351696,-0.00875088106840849
1782667590197175600,9.183175537109374,0.024176176637411118,0.006626211106777191,-0.006952714640647173
1782667590207123500,9.19312353515625,0.026486733928322792,0.008731439709663391,-0.007978830486536026
1782667590217072400,9.203072265625,0.025777269154787064,0.00686056911945343,-0.005465871654450893
1782667590227051500,9.213051513671875,0.025500033050775528,0.00509888818487525,-0.0075639099813997746
1782667590237000400,9.22300048828125,0.023934094235301018,0.004336957819759846,-0.006409962195903063
1782667590246949600,9.23294970703125,0.024053137749433517,0.0056994310580194,-0.0073135728016495705
1782667590256898600,9.242898681640625,0.02587074600160122,0.003959587775170803,-0.005834453273564577
1782667590266846700,9.2528466796875,0.025500565767288208,0.00552366254851222,-0.0057646785862743855
1782667590276825600,9.26282568359375,0.026759441941976547,0.007532751187682152,-0.007507184520363808
1782667590286774500,9.2727744140625,0.02520388923585415,0.006184126250445843,-0.007778827100992203
1782667590296723700,9.2827236328125,0.025709889829158783,0.0067750816233456135,-0.008901615627110004
1782667590306672600,9.292672607421874,0.024090155959129333,0.005452289711683989,-0.007278419099748135
1782667590316651500,9.302651611328125,0.024111993610858917,0.009588711895048618,-0.0075905416160821915
1782667590326600400,9.312600341796875,0.026033198460936546,0.00689066294580698,-0.008947688154876232
1782667590336548600,9.322548583984375,0.02503504604101181,0.006087719928473234,-0.008561530150473118
1782667590346497500,9.33249755859375,0.025851303711533546,0.00481366366147995,-0.0051715923473238945
1782667590356446500,9.342446533203125,0.02304593101143837,0.0059782639145851135,-0.008155930787324905
1782667590366425600,9.352425537109376,0.025769278407096863,0.007527957204729319,-0.006966829299926758
1782667590376374500,9.36237451171875,0.024449151009321213,0.007348460145294666,-0.007644603960216045
1782667590386323500,9.372323486328124,0.022879483178257942,0.005850698333233595,-0.006715693045407534
1782667590396271400,9.382271240234376,0.024055534973740578,0.005850166082382202,-0.004944957327097654
1782667590406251800,9.392251708984375,0.02521827071905136,0.0062789348885416985,-0.006535663735121489
1782667590416199400,9.402199462890625,0.025439845398068428,0.007216367404907942,-0.007753527257591486
1782667590426148600,9.412148681640625,0.025968749076128006,0.006656038574874401,-0.005839779507368803
1782667590436097500,9.42209765625,0.025365810841321945,0.00484322477132082,-0.005636580288410187
1782667590446045700,9.432045654296875,0.02700871415436268,0.006043777801096439,-0.006387325469404459
1782667590456025600,9.442025634765624,0.026748256757855415,0.008593222126364708,-0.007234210614115
1782667590465973500,9.451973388671876,0.02544756978750229,0.009516273625195026,-0.008709069341421127
1782667590475922700,9.461922607421876,0.02510109171271324,0.005913282744586468,-0.007101851515471935
1782667590485871600,9.47187158203125,0.024406272917985916,0.005847768858075142,-0.006748716346919537
1782667590495850500,9.4818505859375,0.02437218464910984,0.005563876125961542,-0.00902811624109745
1782667590505799400,9.49179931640625,0.02472478710114956,0.006984139792621136,-0.008229966275393963
1782667590515748600,9.50174853515625,0.025057949125766754,0.006114617921411991,-0.005368932615965605
1782667590525696500,9.511696533203125,0.02600124105811119,0.006954578682780266,-0.008923985995352268
1782667590535645400,9.5216455078125,0.02503957226872444,0.005176386330276728,-0.0071178306825459
1782667590545624600,9.53162451171875,0.02521134726703167,0.006836600601673126,-0.00746084563434124
1782667590555573500,9.541573486328126,0.025011077523231506,0.005293831694871187,-0.006335127633064985
1782667590565522700,9.551522705078124,0.024505876004695892,0.007215302437543869,-0.007484814152121544
1782667590575471600,9.5614716796875,0.024144217371940613,0.006339388433843851,-0.007952732034027576
1782667590585450800,9.57145068359375,0.024653414264321327,0.006170277949422598,-0.007511445786803961
1782667590595398700,9.581398681640625,0.025469141080975533,0.0049550775438547134,-0.006964166183024645
1782667590605347600,9.59134765625,0.02641190029680729,0.007273891940712929,-0.00694925244897604
1782667590615296500,9.601296630859375,0.02497912012040615,0.007773767225444317,-0.007125820033252239
1782667590625245700,9.61124560546875,0.026791667565703392,0.008251538500189781,-0.008271778002381325
1782667590635224600,9.621224609375,0.02388908714056015,0.009346097707748413,-0.007735950406640768
1782667590645173500,9.631173583984374,0.024957546964287758,0.005632319487631321,-0.006647250149399042
1782667590655121700,9.64112158203125,0.02592667192220688,0.004830974154174328,-0.006150037981569767
1782667590665070600,9.651070556640626,0.02605183981359005,0.007889614440500736,-0.0065377941355109215
1782667590675049500,9.661049560546875,0.025905899703502655,0.007843009196221828,-0.007384412921965122
1782667590684998400,9.670998291015625,0.0249644722789526,0.007414506748318672,-0.00532472413033247
1782667590694947600,9.680947509765625,0.024767132475972176,0.005750829819589853,-0.006160690449178219
1782667590704896500,9.690896484375,0.025800438597798347,0.00872131995856762,-0.006183327175676823
1782667590714844400,9.700844482421875,0.024575117975473404,0.00717508839443326,-0.006331665441393852
1782667590724824600,9.710824462890624,0.0245458222925663,0.00812077708542347,-0.008753277361392975
1782667590734772700,9.720772705078126,0.025527730584144592,0.00893756840378046,-0.00818096473813057
1782667590744721700,9.7307216796875,0.026277143508195877,0.005381715949624777,-0.007586813066154718
1782667590754670600,9.740670654296874,0.024053137749433517,0.006610764656215906,-0.007568171247839928
1782667590764649700,9.750649658203125,0.026643594726920128,0.007131678983569145,-0.007752461824566126
1782667590774598700,9.7605986328125,0.02538871392607689,0.007033142261207104,-0.0073532541282474995
1782667590784546600,9.770546630859375,0.024539431557059288,0.008094144985079765,-0.007966846227645874
1782667590794495500,9.78049560546875,0.024269919842481613,0.006226470693945885,-0.006346845533698797
1782667590804444700,9.790444580078125,0.025856364518404007,0.004069576505571604,-0.0070190271362662315
1782667590814423600,9.800423583984376,0.02570056915283203,0.005299157928675413,-0.006583600305020809
1782667590824372500,9.81037255859375,0.025596972554922104,0.006853645201772451,-0.009757023304700851
1782667590834321400,9.8203212890625,0.02485581487417221,0.007821704261004925,-0.006243514828383923
1782667590844269600,9.83026953125,0.02473810315132141,0.005330316722393036,-0.006490656174719334
1782667590854249500,9.84024951171875,0.025590581819415092,0.007346329744905233,-0.008081628940999508
1782667590864197400,9.850197265625,0.025056350976228714,0.006849916651844978,-0.0072962623089551926
1782667590874146600,9.860146484375,0.025075791403651237,0.007195328362286091,-0.007247526664286852
1782667590884095700,9.870095703125,0.025182317942380905,0.007543403655290604,-0.0072959959506988525
1782667590894074600,9.88007470703125,0.026632409542798996,0.007757521700114012,-0.00812051072716713
1782667590904023600,9.8900234375,0.025726402178406715,0.005760150961577892,-0.008008391596376896
1782667590913971700,9.8999716796875,0.026690199971199036,0.005142031237483025,-0.008768724277615547
1782667590923920600,9.909920654296876,0.02683001570403576,0.007296528667211533,-0.006312756799161434
1782667590933869600,9.91986962890625,0.02412291243672371,0.008345015347003937,-0.007121559232473373
1782667590943848700,9.9298486328125,0.024466726928949356,0.00657587731257081,-0.00896952673792839
1782667590953797600,9.939797607421875,0.024637969210743904,0.00472391489893198,-0.008401740342378616
1782667590963746600,9.94974658203125,0.024524250999093056,0.006475742440670729,-0.009241435676813126
1782667590973694500,9.959694580078125,0.02556608058512211,0.0073410035111010075,-0.007010771427303553
1782667590983674600,9.969674560546874,0.025062208995223045,0.007489075418561697,-0.008145278319716454
1782667590993622500,9.97962255859375,0.024102406576275826,0.007570568006485701,-0.00720438314601779
1782667591003571500,9.989571533203126,0.025076856836676598,0.006646717432886362,-0.0064373929053545
1782667591013520400,9.999520263671876,0.025537850335240364,0.006099970545619726,-0.0068211546167731285
1782667591023469600,10.009469482421874,0.02528165467083454,0.0060150157660245895,-0.007769505959004164
1782667591033448400,10.019448486328125,0.02418762817978859,0.008577242493629456,-0.007020625285804272
1782667591043399700,10.029399658203126,0.025742381811141968,0.007209443487226963,-0.006642189808189869
1782667591053347600,10.03934765625,0.025353293865919113,0.005029113497585058,-0.007864580489695072
1782667591063296500,10.049296630859375,0.02503211610019207,0.005747634451836348,-0.005408347584307194
1782667591073275600,10.059275634765624,0.02311224304139614,0.007300523575395346,-0.007193997036665678
1782667591083224600,10.069224609375,0.026083000004291534,0.0073298183269798756,-0.008094677701592445
1782667591093173500,10.079173583984375,0.024456340819597244,0.007682154420763254,-0.007405185606330633
1782667591103121400,10.089121337890624,0.024511734023690224,0.004246943164616823,-0.008893094025552273
1782667591113070600,10.099070556640624,0.024330640211701393,0.005796902813017368,-0.00532445777207613
1782667591123049500,10.109049560546875,0.024223847314715385,0.005569202359765768,-0.006853911560028791
1782667591132998400,10.118998291015625,0.026676617562770844,0.008581504225730896,-0.007881092838943005
1782667591142947300,10.128947265625,0.02533678151667118,0.007734085898846388,-0.008980445563793182
1782667591152896500,10.138896484375,0.024599619209766388,0.006075735669583082,-0.007486944552510977
1782667591162875400,10.14887548828125,0.02478097938001156,0.0075934710912406445,-0.006073072552680969
1782667591172824600,10.158824462890625,0.024867266416549683,0.0007115966291166842,-0.005391303449869156
1782667591182772700,10.168772705078124,0.024648355320096016,0.00854288786649704,-0.00851519126445055
1782667591192721700,10.1787216796875,0.02569524385035038,0.008428905159235,-0.006716225761920214
1782667591202670600,10.188670654296875,0.02521960251033306,0.005141498986631632,-0.007488009985536337
1782667591212649500,10.1986494140625,0.02437884360551834,0.006624080706387758,-0.008741825819015503
1782667591222598700,10.2085986328125,0.027542944997549057,0.006311159115284681,-0.007244064472615719
1782667591232546600,10.218546630859375,0.023726634681224823,0.006616090890020132,-0.007463508751243353
1782667591242495500,10.22849560546875,0.025244902819395065,0.007905859500169754,-0.00697907991707325
1782667591252474600,10.238474609375,0.025195101276040077,0.004822185728698969,-0.004020840395241976
1782667591262423600,10.248423583984374,0.025312013924121857,0.0065409899689257145,-0.008035289123654366
1782667591272372500,10.25837255859375,0.0247303806245327,0.00657667638733983,-0.006876814644783735
1782667591282321400,10.2683212890625,0.02442331798374653,0.007188138086348772,-0.005887982901185751
1782667591292269600,10.27826953125,0.025920813903212547,0.006530337035655975,-0.007005178835242987
1782667591302249500,10.28824951171875,0.02496367320418358,0.005667206831276417,-0.007907191291451454
1782667591312197400,10.298197265625,0.02558232471346855,0.005665342323482037,-0.010309096425771713
1782667591322146300,10.308146240234375,0.024649953469634056,0.00618172949180007,-0.00740119069814682
1782667591332095700,10.318095703125,0.023960459977388382,0.008994294330477715,-0.008106928318738937
1782667591342074600,10.32807470703125,0.025742648169398308,0.010157562792301178,-0.007193730678409338
1782667591352023600,10.3380234375,0.02472345530986786,0.007397995330393314,-0.006178533658385277
1782667591361972500,10.347972412109375,0.025621740147471428,0.0029023129027336836,-0.007562578655779362
1782667591371920600,10.357920654296874,0.023328492417931557,0.006423810962587595,-0.009149556048214436
1782667591381869600,10.36786962890625,0.025103222578763962,0.006984139792621136,-0.008553273975849152
1782667591391848400,10.377848388671875,0.02370426431298256,0.002010420197620988,-0.007445399183779955
1782667591401797600,10.387797607421875,0.025717347860336304,0.00612234091386199,-0.008256065659224987
1782667591411746600,10.39774658203125,0.025783659890294075,0.004403270315378904,-0.008476574905216694
1782667591421694500,10.407694580078125,0.02587500587105751,0.00407570181414485,-0.008016647771000862
1782667591431674400,10.41767431640625,0.023809725418686867,0.00734233483672142,-0.006935137789696455
1782667591441622500,10.42762255859375,0.026212163269519806,0.007014766335487366,-0.00621155695989728
1782667591451571500,10.437571533203124,0.02395486831665039,0.0062403189949691296,-0.007573231123387814
1782667591461520400,10.447520263671874,0.024900289252400398,0.005547896958887577,-0.006917827297002077
1782667591471469600,10.457469482421875,0.026103505864739418,0.006995059084147215,-0.00765978405252099
1782667591481448400,10.467448486328125,0.025171132758259773,0.006808104924857616,-0.006960703991353512
1782667591491397600,10.477397705078126,0.02701297588646412,0.009064868092536926,-0.008464857004582882
1782667591501345500,10.487345458984375,0.02478444203734398,0.007965248078107834,-0.008464857004582882
1782667591511294700,10.497294677734375,0.023738352581858635,0.0062605589628219604,-0.006905310321599245
1782667591521273600,10.507273681640624,0.024470722302794456,0.005805158521980047,-0.006999852601438761
1782667591531222500,10.517222412109374,0.026550650596618652,0.0059510995633900166,-0.007952199317514896
1782667591541171500,10.52717138671875,0.023917850106954575,0.005042961798608303,-0.007545800413936377
1782667591551119600,10.53711962890625,0.024950889870524406,0.007537811063230038,-0.006185458041727543
1782667591561099500,10.547099609375,0.023788686841726303,0.005395564250648022,-0.005715143866837025
1782667591571047400,10.55704736328125,0.02582360804080963,0.007543936371803284,-0.007451258134096861
1782667591580996600,10.56699658203125,0.022963106632232666,0.00646775308996439,-0.0073079802095890045
1782667591590945500,10.576945556640625,0.02563558891415596,0.005390238016843796,-0.007891745306551456
1782667591600894500,10.58689453125,0.024397218599915504,0.004618453793227673,-0.005256813485175371
1782667591610873300,10.596873291015624,0.02449841797351837,0.006326339207589626,-0.005464806687086821
1782667591620822500,10.606822509765625,0.025653164833784103,0.006582801695913076,-0.007949802093207836
1782667591630770400,10.6167705078125,0.024998027831315994,0.006922354456037283,-0.007394000422209501
1782667591640719400,10.62671923828125,0.025855831801891327,0.0078102522529661655,-0.006987601984292269
1782667591650698500,10.636698486328125,0.026757577434182167,0.0075852153822779655,-0.007196926511824131
1782667591660647700,10.646647705078125,0.02473517321050167,0.006602508947253227,-0.007748466916382313
1782667591670596600,10.6565966796875,0.022831279784440994,0.0062696137465536594,-0.006582002621144056
1782667591680545500,10.666545654296876,0.026572221890091896,0.006593720521777868,-0.007893609814345837
1782667591690493700,10.67649365234375,0.024622788652777672,0.007788947317749262,-0.006551908794790506
1782667591700473600,10.6864736328125,0.025539981201291084,0.008595352061092854,-0.007446198258548975
1782667591710421500,10.69642138671875,0.025784192606806755,0.0075660403817892075,-0.006160956807434559
1782667591720370400,10.706370361328124,0.024655545130372047,0.006112221162766218,-0.006630738265812397
1782667591730319600,10.716319580078125,0.025305889546871185,0.00729493098333478,-0.008269115351140499
1782667591740298500,10.726298583984375,0.024561535567045212,0.007158576976507902,-0.008018511347472668
1782667591750247400,10.736247314453125,0.02551920898258686,0.006641124840825796,-0.006986536551266909
1782667591760195600,10.746195556640625,0.025624670088291168,0.007712780963629484,-0.006666158325970173
1782667591770144500,10.75614453125,0.02286989614367485,0.005851763766258955,-0.007379619404673576
1782667591780093400,10.766093505859375,0.025527996942400932,0.008704808540642262,-0.007864315062761307
1782667591790072300,10.776072265625,0.02526327781379223,0.007565241772681475,-0.006357498001307249
1782667591800021500,10.786021484375,0.025677666068077087,0.00765898497775197,-0.00752129964530468
1782667591809970700,10.795970703125,0.02467818185687065,0.006788397673517466,-0.005114600993692875
1782667591819918600,10.805918701171874,0.025104820728302002,0.011095527559518814,-0.005290635861456394
1782667591829898500,10.8158984375,0.025409486144781113,0.009358348324894905,-0.005684250965714455
1782667591839846700,10.8258466796875,0.020545221865177155,0.006274673622101545,-0.00830773077905178
1782667591849795600,10.835795654296875,0.02040753699839115,0.007547132205218077,-0.00902811624109745
1782667591859744500,10.84574462890625,0.01955665647983551,0.0067662931978702545,-0.0073287528939545155
1782667591869692700,10.855692626953125,0.02315884828567505,0.004974252078682184,-0.006265885196626186
1782667591879672600,10.865672607421875,0.028789836913347244,0.00401471508666873,-0.006512494292110205
1782667591889620500,10.875620361328124,0.03442961350083351,0.008439823985099792,-0.008196943439543247
1782667591899569400,10.8855693359375,0.03523654863238335,0.008563394658267498,-0.005764412228018045
1782667591909518600,10.8955185546875,0.03206126391887665,0.00640729907900095,-0.007416903506964445
1782667591919497500,10.90549755859375,0.030001042410731316,0.0049614692106842995,-0.005301554687321186
1782667591929446400,10.9154462890625,0.025980733335018158,0.006759102921932936,-0.0062155514024198055
1782667591939395300,10.925395263671875,0.02022138237953186,0.00812024436891079,-0.007518103811889887
1782667591949343500,10.935343505859375,0.01769324392080307,0.006601709872484207,-0.00678307143971324
1782667591959292400,10.94529248046875,0.01744823157787323,0.004798749927431345,-0.00842544250190258
1782667591969271300,10.955271240234374,0.019179552793502808,0.00526586826890707,-0.006579073145985603
1782667591979220700,10.965220703125,0.022435534745454788,0.003724697045981884,-0.007443801499903202
1782667591989169700,10.975169677734375,0.027599137276411057,0.006925550289452076,-0.005644303746521473
1782667591999118600,10.98511865234375,0.026522953063249588,0.007400924805551767,-0.005823001731187105
1782667592009097500,10.995097412109375,0.030280407518148422,0.008728777058422565,-0.007375624496489763
1782667592019046700,11.005046630859376,0.027485420927405357,0.006116215605288744,-0.007879761047661304
1782667592028994600,11.01499462890625,0.02726304531097412,0.0057652113027870655,-0.003989148885011673
1782667592038960600,11.024960693359375,0.025253424420952797,0.0014559502014890313,-0.005544435232877731
1782667592048909600,11.03490966796875,0.02418443188071251,0.005964948330074549,-0.009996441192924976
1782667592058888700,11.044888671875,0.023064306005835533,0.008017712272703648,-0.0065132929012179375
1782667592068837600,11.054837646484375,0.02262674830853939,0.006439256947487593,-0.007282414007931948
1782667592078785500,11.06478564453125,0.023868847638368607,0.005437109619379044,-0.008241417817771435
1782667592088734700,11.074734619140624,0.02515036053955555,0.007113303057849407,-0.006698915269225836
1782667592098713600,11.084713623046875,0.025440910831093788,0.008637696504592896,-0.007220895029604435
1782667592108662500,11.09466259765625,0.026522153988480568,0.0078073227778077126,-0.006976949516683817
1782667592118611500,11.104611572265625,0.026435069739818573,0.00632074661552906,-0.008779643103480339
1782667592128560600,11.114560546875,0.02641349844634533,0.0028431906830519438,-0.0052173989824950695
1782667592138508500,11.124508544921875,0.028084099292755127,0.0017699368763715029,-0.00535455159842968
1782667592148488700,11.13448876953125,0.02665318176150322,0.0067724185064435005,-0.007016896735876799
1782667592158436600,11.1444365234375,0.025718413293361664,0.005306082312017679,-0.005675995256751776
1782667592168385800,11.1543857421875,0.026025742292404175,0.007014233618974686,-0.009043828584253788
1782667592178334700,11.164334716796875,0.024627847597002983,0.004957207944244146,-0.005573197267949581
1782667592188313600,11.174313720703125,0.024749021977186203,0.005339371506124735,-0.006594253238290548
1782667592198262800,11.1842626953125,0.023786555975675583,0.007735684048384428,-0.00836658664047718
1782667592208210700,11.194210693359375,0.02394607849419117,0.00866193138062954,-0.007588943932205439
1782667592218159600,11.20415966796875,0.02316923439502716,0.004050401505082846,-0.009071791544556618
1782667592228108500,11.214108642578125,0.022161228582262993,0.003881557146087289,-0.005347361322492361
1782667592238087700,11.224087646484374,0.024416659027338028,0.008525843732059002,-0.007161506451666355
1782667592248036600,11.23403662109375,0.0251623447984457,0.006579872220754623,-0.004209125880151987
1782667592257985500,11.243985595703125,0.025009745731949806,0.0054877097718417645,-0.006439523305743933
1782667592267933700,11.25393359375,0.02912539429962635,0.006175071466714144,-0.007306915242224932
1782667592277913600,11.26391357421875,0.026336798444390297,0.006609699688851833,-0.003043194068595767
1782667592287861500,11.273861572265625,0.02550456114113331,0.00544323492795229,-0.006862965878099203
1782667592297810400,11.283810546875,0.024119718000292778,0.007817975245416164,-0.008127967827022076
1782667592307759900,11.293759765625,0.02309892699122429,0.005132444202899933,-0.008358331397175789
1782667592317738500,11.303738525390624,0.025079254060983658,0.006856841035187244,-0.0062453788705170155
1782667592327687700,11.313687744140625,0.025133848190307617,0.007351389620453119,-0.007024353835731745
1782667592337636600,11.32363671875,0.022875487804412842,0.00555269094184041,-0.007385211996734142
1782667592347584800,11.333584716796874,0.025891251862049103,0.006313023157417774,-0.0054914383217692375
1782667592357533700,11.34353369140625,0.026210565119981766,0.009415073320269585,-0.008381234481930733
1782667592367512600,11.3535126953125,0.025585787370800972,0.006018477492034435,-0.005653890781104565
1782667592377461800,11.363461669921875,0.023898407816886902,0.0051596080884337425,-0.0086603332310915
1782667592387410700,11.37341064453125,0.025118669494986534,0.005316202063113451,-0.008026501163840294
1782667592397358600,11.383358642578125,0.024112792685627937,0.006410494912415743,-0.007957791909575462
1782667592407338500,11.39333837890625,0.027042802423238754,0.006877347361296415,-0.006960970349609852
1782667592417286700,11.40328662109375,0.023572171106934547,0.0054701329208910465,-0.005305016878992319
1782667592427235600,11.413235595703124,0.025178324431180954,0.00759853096678853,-0.005538842175155878
1782667592437184500,11.4231845703125,0.025797242298722267,0.005338838789612055,-0.0062666842713952065
1782667592447133400,11.433133544921875,0.02684492990374565,0.006359362509101629,-0.00920308567583561
1782667592457112600,11.443112548828125,0.026863837614655495,0.006955910474061966,-0.008816927671432495
1782667592467061800,11.453061767578125,0.025948775932192802,0.007217166479676962,-0.006118346471339464
1782667592477009400,11.463009521484375,0.025479260832071304,0.005547630600631237,-0.007378021255135536
1782667592486958800,11.472958740234375,0.024454742670059204,0.006086388137191534,-0.007511179428547621
1782667592496937700,11.482937744140624,0.02570216730237007,0.006302637048065662,-0.006403570994734764
1782667592506886700,11.49288671875,0.025064339861273766,0.005931392312049866,-0.0073537868447601795
1782667592516835600,11.502835693359375,0.025292573496699333,0.006626211106777191,-0.007269897032529116
1782667592526783700,11.51278369140625,0.024227041751146317,0.006388657260686159,-0.006129798013716936
1782667592536732700,11.522732666015624,0.025966087356209755,0.005912483669817448,-0.007823036052286625
1782667592546711800,11.5327119140625,0.02311703749001026,0.007390538230538368,-0.007463508751243353
1782667592556660700,11.54266064453125,0.023519175127148628,0.006439789664000273,-0.007511712145060301
1782667592566609700,11.552609619140625,0.023560186848044395,0.006133526097983122,-0.006060555577278137
1782667592576558600,11.56255859375,0.024574585258960724,0.004120176658034325,-0.006968959700316191
1782667592586537500,11.572537353515624,0.0242515429854393,0.006913299672305584,-0.005602492019534111
1782667592596486700,11.582486572265625,0.02545715682208538,0.0051987566985189915,-0.007696269080042839
1782667592606434600,11.5924345703125,0.02539563737809658,0.009464874863624573,-0.00749173853546381
1782667592616383500,11.602383544921874,0.026510968804359436,0.0065500447526574135,-0.007288272958248854
1782667592626332700,11.612332763671875,0.025419872254133224,0.005391037091612816,-0.006675745826214552
1782667592636311600,11.6223115234375,0.024992700666189194,0.00526773277670145,-0.007442736066877842
1782667592646260700,11.6322607421875,0.02407710626721382,0.006713296286761761,-0.005622731987386942
1782667592656209700,11.642209716796875,0.025543443858623505,0.00936127733439207,-0.009121593087911606
1782667592666157800,11.65215771484375,0.024561269208788872,0.00842783972620964,-0.007794806268066168
1782667592676136700,11.66213671875,0.024285897612571716,0.007253385614603758,-0.006734335329383612
1782667592686085600,11.672085693359374,0.0241913553327322,0.00558198569342494,-0.008388690650463104
1782667592696034600,11.68203466796875,0.024119984358549118,0.0051596080884337425,-0.007724765222519636
1782667592705983700,11.691983642578125,0.025403892621397972,0.009982859715819359,-0.008845156989991665
1782667592715931600,11.701931640625,0.02545768953859806,0.005169461946934462,-0.007546066772192717
1782667592725911600,11.71191162109375,0.023322898894548416,0.007902930490672588,-0.006399309728294611
1782667592735859700,11.721859619140625,0.02581055834889412,0.006842992268502712,-0.005465871654450893
1782667592745808600,11.73180859375,0.025606293231248856,0.005932990461587906,-0.004510862287133932
1782667592755757600,11.741757568359375,0.02467259019613266,0.008047273382544518,-0.008652344346046448
1782667592765736700,11.75173681640625,0.024636104702949524,0.0065742796286940575,-0.007689611054956913
1782667592775685600,11.761685546875,0.024042751640081406,0.006429669912904501,-0.006587062496691942
1782667592785634800,11.771634765625,0.02468270994722843,0.006284793838858604,-0.007648066151887178
1782667592795582500,11.78158251953125,0.025376196950674057,0.00507092522457242,-0.009260609745979309
1782667592805531600,11.79153173828125,0.025308819487690926,0.004588892683386803,-0.00711809704080224
1782667592815510800,11.8015107421875,0.026248116046190262,0.008236890658736229,-0.006533532869070768
1782667592825459700,11.811459716796875,0.02568592131137848,0.004538558889180422,-0.008423046208918095
1782667592835408600,11.82140869140625,0.025601500645279884,0.0057098171673715115,-0.006213687360286713
1782667592845356800,11.831356689453125,0.025129854679107666,0.0041374871507287025,-0.006421680096536875
1782667592855336700,11.841336669921875,0.0247812457382679,0.007330883294343948,-0.007069627288728952
1782667592865284600,11.85128466796875,0.024446221068501472,0.009633452631533146,-0.00754926260560751
1782667592875233500,11.861233642578124,0.02305072359740734,0.009675797075033188,-0.00788561999797821
1782667592885182700,11.8711826171875,0.025771941989660263,0.008984440006315708,-0.005805691238492727
1782667592895131600,11.881131591796875,0.02395460195839405,0.007982824929058552,-0.005134308245033026
1782667592905110500,11.891110595703125,0.02550829015672207,0.008438758552074432,-0.007968977093696594
1782667592915059500,11.9010595703125,0.02534051053225994,0.006229666527360678,-0.007109042257070541
1782667592925007600,11.911007568359375,0.024944763630628586,0.005848567932844162,-0.006302104331552982
