time,seconds_elapsed,z,y,x
1783169445917948400,0.093948486328125,-0.8723602294921875,-0.4926605224609375,0.0415191650390625
1783169445927928300,0.10392822265625,-0.868133544921875,-0.493988037109375,0.043792724609375
1783169445937876500,0.11387646484375,-0.8595428466796875,-0.4902801513671875,0.043975830078125
1783169445947825400,0.123825439453125,-0.853485107421875,-0.4876556396484375,0.0482177734375
1783169445957774300,0.1337744140625,-0.85638427734375,-0.4897613525390625,0.0540313720703125
1783169445967753500,0.14375341796875,-0.85736083984375,-0.491546630859375,0.0561065673828125
1783169445977702400,0.153702392578125,-0.856475830078125,-0.4880523681640625,0.0576629638671875
1783169445987650300,0.163650390625,-0.85455322265625,-0.479034423828125,0.0547027587890625
1783169445997630500,0.17363037109375,-0.8552703857421875,-0.4757232666015625,0.051849365234375
1783169446007578400,0.183578369140625,-0.861724853515625,-0.4811553955078125,0.0541229248046875
1783169446017527300,0.19352734375,-0.8647613525390625,-0.4875640869140625,0.055023193359375
1783169446027476200,0.203476318359375,-0.85870361328125,-0.4851837158203125,0.053070068359375
1783169446037455400,0.213455322265625,-0.8551177978515625,-0.479827880859375,0.052398681640625
1783169446047404500,0.223404541015625,-0.852569580078125,-0.4794769287109375,0.049713134765625
1783169446057353500,0.233353515625,-0.851470947265625,-0.4803619384765625,0.0467987060546875
1783169446067301600,0.243301513671875,-0.852325439453125,-0.4795684814453125,0.04656982421875
1783169446077281500,0.253281494140625,-0.8534088134765625,-0.4786224365234375,0.048553466796875
1783169446087229400,0.2632294921875,-0.85296630859375,-0.4776763916015625,0.04742431640625
1783169446097178400,0.273178466796875,-0.8515625,-0.4756927490234375,0.047149658203125
1783169446107157500,0.283157470703125,-0.85321044921875,-0.473907470703125,0.0451202392578125
1783169446117106400,0.2931064453125,-0.8586273193359375,-0.4754486083984375,0.0386810302734375
1783169446127055400,0.303055419921875,-0.8625946044921875,-0.4792022705078125,0.037078857421875
1783169446137037800,0.313037841796875,-0.859222412109375,-0.4817657470703125,0.0334320068359375
1783169446147016700,0.3230166015625,-0.8631134033203125,-0.4832916259765625,0.03131103515625
1783169446156964900,0.33296484375,-0.8608856201171875,-0.4850311279296875,0.0260009765625
1783169446166913800,0.342913818359375,-0.8587799072265625,-0.4857177734375,0.023468017578125
1783169446176862700,0.35286279296875,-0.86474609375,-0.4873504638671875,0.0237274169921875
1783169446186841600,0.362841552734375,-0.8624114990234375,-0.490386962890625,0.0243682861328125
1783169446196790800,0.372790771484375,-0.85675048828125,-0.4920654296875,0.0258331298828125
1783169446206739700,0.38273974609375,-0.860443115234375,-0.4933624267578125,0.0273590087890625
1783169446216718600,0.392718505859375,-0.868927001953125,-0.4970855712890625,0.0274658203125
1783169446226667500,0.40266748046875,-0.864532470703125,-0.4989776611328125,0.0281829833984375
1783169446236615700,0.41261572265625,-0.862335205078125,-0.4941253662109375,0.0263519287109375
1783169446246564600,0.422564697265625,-0.8715667724609375,-0.488983154296875,0.0240936279296875
1783169446256543700,0.432543701171875,-0.87432861328125,-0.4879302978515625,0.0218353271484375
1783169446266492700,0.44249267578125,-0.8691864013671875,-0.486572265625,0.02178955078125
1783169446276441900,0.45244189453125,-0.8647918701171875,-0.482391357421875,0.0243377685546875
1783169446286390800,0.462390869140625,-0.8589935302734375,-0.4807891845703125,0.0274505615234375
1783169446296369700,0.47236962890625,-0.8475189208984375,-0.483612060546875,0.0321807861328125
1783169446306318800,0.48231884765625,-0.8357086181640625,-0.487152099609375,0.0404205322265625
1783169446316266800,0.492266845703125,-0.8357696533203125,-0.4898223876953125,0.050567626953125
1783169446326246000,0.502245849609375,-0.84124755859375,-0.4941864013671875,0.057952880859375
1783169446336194800,0.51219482421875,-0.8406982421875,-0.4961090087890625,0.057952880859375
1783169446346143700,0.522143798828125,-0.8431854248046875,-0.4907379150390625,0.05767822265625
1783169446356092700,0.5320927734375,-0.8535308837890625,-0.4871673583984375,0.0571136474609375
1783169446366071800,0.54207177734375,-0.862457275390625,-0.487884521484375,0.05462646484375
1783169446376020700,0.552020751953125,-0.865447998046875,-0.4853515625,0.0505218505859375
1783169446385968600,0.56196875,-0.8619384765625,-0.480316162109375,0.0477142333984375
1783169446395917600,0.57191748046875,-0.859527587890625,-0.47723388671875,0.0479888916015625
1783169446405896700,0.581896728515625,-0.8587646484375,-0.4774932861328125,0.0479278564453125
1783169446415845600,0.591845703125,-0.8546142578125,-0.480865478515625,0.0456695556640625
1783169446425794600,0.601794677734375,-0.84814453125,-0.481292724609375,0.0442657470703125
1783169446435773700,0.611773681640625,-0.84747314453125,-0.4812774658203125,0.045013427734375
1783169446445723000,0.621722900390625,-0.84613037109375,-0.4805755615234375,0.0460052490234375
1783169446455671800,0.631671875,-0.846649169921875,-0.47900390625,0.04669189453125
1783169446465619700,0.64161962890625,-0.85052490234375,-0.4764404296875,0.046356201171875
1783169446475600000,0.651599853515625,-0.8524017333984375,-0.475189208984375,0.04742431640625
1783169446485547800,0.6615478515625,-0.8570098876953125,-0.4756622314453125,0.05120849609375
1783169446495496700,0.67149658203125,-0.858795166015625,-0.4742431640625,0.0563812255859375
1783169446505445600,0.681445556640625,-0.86151123046875,-0.47210693359375,0.059234619140625
1783169446515424800,0.6914248046875,-0.8668060302734375,-0.4713134765625,0.0589141845703125
1783169446525373700,0.701373779296875,-0.8681640625,-0.4720611572265625,0.0567474365234375
1783169446535321600,0.711321533203125,-0.869720458984375,-0.4706573486328125,0.0540313720703125
1783169446545301800,0.7213017578125,-0.8733062744140625,-0.469573974609375,0.0510101318359375
1783169446555249700,0.731249755859375,-0.8764495849609375,-0.4733428955078125,0.0478057861328125
1783169446565198600,0.741198486328125,-0.8779296875,-0.480560302734375,0.0438079833984375
1783169446575147500,0.7511474609375,-0.87890625,-0.4860992431640625,0.0413665771484375
1783169446585126700,0.761126708984375,-0.8788604736328125,-0.4873504638671875,0.038330078125
1783169446595075600,0.77107568359375,-0.87921142578125,-0.4912261962890625,0.033416748046875
1783169446605024800,0.781024658203125,-0.875823974609375,-0.4937744140625,0.0271148681640625
1783169446614973000,0.790972900390625,-0.8728790283203125,-0.49261474609375,0.0240020751953125
1783169446624952800,0.800952880859375,-0.8727874755859375,-0.4923858642578125,0.0210113525390625
1783169446634900700,0.810900634765625,-0.8734130859375,-0.4919891357421875,0.0179443359375
1783169446644849700,0.820849609375,-0.8710174560546875,-0.4932098388671875,0.0179443359375
1783169446654828800,0.830828857421875,-0.8669586181640625,-0.49200439453125,0.01849365234375
1783169446664777700,0.84077783203125,-0.8622589111328125,-0.49066162109375,0.023101806640625
1783169446674726700,0.8507265625,-0.85986328125,-0.4897003173828125,0.0225067138671875
1783169446684674800,0.8606748046875,-0.85675048828125,-0.4912567138671875,0.0225372314453125
1783169446694654700,0.87065478515625,-0.8536376953125,-0.4903411865234375,0.0277862548828125
1783169446704602600,0.8806025390625,-0.8512115478515625,-0.48773193359375,0.0298919677734375
1783169446714551800,0.8905517578125,-0.8520050048828125,-0.486175537109375,0.032623291015625
1783169446724500700,0.900500732421875,-0.8557281494140625,-0.4844970703125,0.037841796875
1783169446734479600,0.910479736328125,-0.8541259765625,-0.482269287109375,0.0427093505859375
1783169446744428500,0.920428466796875,-0.856658935546875,-0.4747772216796875,0.0479888916015625
1783169446754377700,0.930377685546875,-0.861785888671875,-0.4694976806640625,0.0518798828125
1783169446764356600,0.940356689453125,-0.86505126953125,-0.4668426513671875,0.0546112060546875
1783169446774305800,0.950305908203125,-0.8668060302734375,-0.4624786376953125,0.05523681640625
1783169446784254000,0.96025390625,-0.87078857421875,-0.4579010009765625,0.057220458984375
1783169446794203000,0.970202880859375,-0.874114990234375,-0.4579010009765625,0.06011962890625
1783169446804181800,0.980181640625,-0.874908447265625,-0.4595489501953125,0.06292724609375
1783169446814130700,0.990130615234375,-0.8792266845703125,-0.4584197998046875,0.0645294189453125
1783169446824080000,1.000079833984375,-0.8802642822265625,-0.4565582275390625,0.06219482421875
1783169446834027800,1.01002783203125,-0.8760986328125,-0.45465087890625,0.056671142578125
1783169446844007700,1.020007568359375,-0.8736419677734375,-0.4537811279296875,0.055572509765625
1783169446853955800,1.029955810546875,-0.874053955078125,-0.456573486328125,0.055633544921875
1783169446863904800,1.03990478515625,-0.874847412109375,-0.4615325927734375,0.056915283203125
1783169446873883600,1.049883544921875,-0.867218017578125,-0.4636383056640625,0.05584716796875
1783169446883832600,1.05983251953125,-0.8643951416015625,-0.4585113525390625,0.051971435546875
1783169446893781800,1.06978173828125,-0.8721160888671875,-0.4571533203125,0.053253173828125
1783169446903730700,1.079730712890625,-0.873992919921875,-0.4622955322265625,0.0543670654296875
1783169446913709600,1.08970947265625,-0.87506103515625,-0.4633941650390625,0.0482025146484375
1783169446923658500,1.099658447265625,-0.8785552978515625,-0.460906982421875,0.0430755615234375
1783169446933606700,1.109606689453125,-0.879547119140625,-0.463104248046875,0.0409088134765625
1783169446943555800,1.119555908203125,-0.8734893798828125,-0.4674072265625,0.0403900146484375
1783169446953534700,1.12953466796875,-0.873046875,-0.4678955078125,0.0400543212890625
1783169446963484000,1.13948388671875,-0.8781890869140625,-0.4673614501953125,0.0367431640625
1783169446973432800,1.149432861328125,-0.8776397705078125,-0.467559814453125,0.0360260009765625
1783169446983411700,1.15941162109375,-0.87939453125,-0.46759033203125,0.03704833984375
1783169446993360600,1.169360595703125,-0.8836669921875,-0.469329833984375,0.0381317138671875
1783169447003308800,1.179308837890625,-0.8882293701171875,-0.4716796875,0.03778076171875
1783169447013257700,1.1892578125,-0.8910675048828125,-0.470245361328125,0.037933349609375
1783169447023236900,1.19923681640625,-0.8928070068359375,-0.467010498046875,0.0380859375
1783169447033185800,1.209185791015625,-0.8958282470703125,-0.4654541015625,0.0361480712890625
1783169447043134700,1.219134765625,-0.8954315185546875,-0.4647979736328125,0.033477783203125
1783169447053083600,1.229083740234375,-0.891693115234375,-0.464019775390625,0.032318115234375
1783169447063062800,1.239062744140625,-0.89129638671875,-0.4599761962890625,0.034210205078125
1783169447073011700,1.24901171875,-0.890899658203125,-0.4601287841796875,0.0360107421875
1783169447082959600,1.258959716796875,-0.886810302734375,-0.4640350341796875,0.03692626953125
1783169447092939500,1.268939453125,-0.884033203125,-0.46490478515625,0.0398712158203125
1783169447102887700,1.2788876953125,-0.884979248046875,-0.4650115966796875,0.0410614013671875
1783169447112836600,1.288836669921875,-0.8850860595703125,-0.4654388427734375,0.0413665771484375
1783169447122785800,1.298785888671875,-0.8828582763671875,-0.4649658203125,0.039825439453125
1783169447132788200,1.308788330078125,-0.8826751708984375,-0.462371826171875,0.0383758544921875
1783169447142737200,1.318737060546875,-0.8826904296875,-0.462158203125,0.039642333984375
1783169447152686000,1.32868603515625,-0.88055419921875,-0.4639892578125,0.041229248046875
1783169447162634200,1.33863427734375,-0.8786163330078125,-0.4647369384765625,0.040802001953125
1783169447172613000,1.348613037109375,-0.8774871826171875,-0.46588134765625,0.03839111328125
1783169447182562000,1.35856201171875,-0.8749847412109375,-0.4670257568359375,0.0384521484375
1783169447192511200,1.36851123046875,-0.87139892578125,-0.4671173095703125,0.0401153564453125
1783169447202490400,1.378490478515625,-0.8713531494140625,-0.466644287109375,0.04156494140625
1783169447212439300,1.388439208984375,-0.873138427734375,-0.46826171875,0.0431365966796875
1783169447222388200,1.39838818359375,-0.8743896484375,-0.4674072265625,0.0467987060546875
1783169447232336400,1.40833642578125,-0.8777313232421875,-0.4642486572265625,0.0507354736328125
1783169447242316300,1.41831640625,-0.8817596435546875,-0.464324951171875,0.0565948486328125
1783169447252264200,1.42826416015625,-0.88507080078125,-0.4633636474609375,0.0606536865234375
1783169447262213000,1.438213134765625,-0.8915863037109375,-0.458709716796875,0.06561279296875
1783169447272162300,1.448162353515625,-0.902923583984375,-0.456817626953125,0.0643310546875
1783169447282141200,1.45814111328125,-0.9084930419921875,-0.4568328857421875,0.060943603515625
1783169447292090000,1.468090087890625,-0.91192626953125,-0.4559326171875,0.058258056640625
1783169447302039000,1.4780390625,-0.9009857177734375,-0.4567413330078125,0.0516357421875
1783169447312018200,1.48801806640625,-0.8896942138671875,-0.4595489501953125,0.0508270263671875
1783169447321967000,1.497967041015625,-0.895233154296875,-0.46490478515625,0.0537567138671875
1783169447331915300,1.507915283203125,-0.9056396484375,-0.476837158203125,0.0571136474609375
1783169447341864200,1.5178642578125,-0.902496337890625,-0.4793243408203125,0.0531463623046875
1783169447351843000,1.527843017578125,-0.894805908203125,-0.470367431640625,0.0442047119140625
1783169447361792300,1.537792236328125,-0.89447021484375,-0.4660797119140625,0.040496826171875
1783169447371741200,1.5477412109375,-0.8885345458984375,-0.473480224609375,0.045623779296875
1783169447381720300,1.55772021484375,-0.8738555908203125,-0.4790191650390625,0.049530029296875
1783169447391669200,1.567669189453125,-0.856414794921875,-0.47509765625,0.048980712890625
1783169447401617400,1.577617431640625,-0.843780517578125,-0.46710205078125,0.0565185546875
1783169447411566300,1.58756640625,-0.8336639404296875,-0.4672698974609375,0.068328857421875
1783169447421545200,1.597545166015625,-0.8306732177734375,-0.470916748046875,0.0768890380859375
1783169447431494100,1.607494140625,-0.8379364013671875,-0.473388671875,0.0797119140625
1783169447441443300,1.617443359375,-0.83935546875,-0.4742889404296875,0.072967529296875
1783169447451392300,1.627392333984375,-0.8336181640625,-0.471588134765625,0.063446044921875
1783169447461371100,1.63737109375,-0.8231658935546875,-0.4664459228515625,0.05596923828125
1783169447471320000,1.647320068359375,-0.8206024169921875,-0.4663848876953125,0.054656982421875
1783169447481268200,1.657268310546875,-0.8217926025390625,-0.4738311767578125,0.05401611328125
1783169447491248000,1.667248046875,-0.8245849609375,-0.4808807373046875,0.0536651611328125
1783169447501196000,1.677196044921875,-0.8293914794921875,-0.482879638671875,0.05322265625
1783169447511145200,1.687145263671875,-0.836395263671875,-0.48309326171875,0.050811767578125
1783169447521094400,1.697094482421875,-0.8428802490234375,-0.480255126953125,0.05145263671875
1783169447531073300,1.7070732421875,-0.8462982177734375,-0.4790191650390625,0.0508575439453125
1783169447541022200,1.717022216796875,-0.84991455078125,-0.4794158935546875,0.0498809814453125
1783169447550970400,1.726970458984375,-0.85650634765625,-0.4792022705078125,0.0472259521484375
1783169447560919300,1.736919189453125,-0.8627777099609375,-0.4820709228515625,0.046417236328125
1783169447570898200,1.746898193359375,-0.8603057861328125,-0.4837493896484375,0.0475616455078125
1783169447580847400,1.756847412109375,-0.85455322265625,-0.480194091796875,0.048248291015625
1783169447590796300,1.76679638671875,-0.857818603515625,-0.4787139892578125,0.050079345703125
1783169447600775200,1.776775146484375,-0.861175537109375,-0.484771728515625,0.05322265625
1783169447610724000,1.78672412109375,-0.8651885986328125,-0.4893035888671875,0.0562591552734375
1783169447620673300,1.79667333984375,-0.8716583251953125,-0.489837646484375,0.057464599609375
1783169447630621200,1.80662109375,-0.874908447265625,-0.487274169921875,0.053314208984375
1783169447640601000,1.81660107421875,-0.8750762939453125,-0.482086181640625,0.0456390380859375
1783169447650549200,1.82654931640625,-0.87322998046875,-0.478546142578125,0.041473388671875
1783169447660498200,1.836498291015625,-0.8719024658203125,-0.4783477783203125,0.0437164306640625
1783169447670447000,1.846447021484375,-0.8701934814453125,-0.479644775390625,0.0473785400390625
1783169447680426200,1.85642626953125,-0.8787994384765625,-0.4810943603515625,0.050811767578125
1783169447690375400,1.86637548828125,-0.882659912109375,-0.482452392578125,0.0514678955078125
1783169447700323000,1.876322998046875,-0.8800811767578125,-0.479949951171875,0.0504150390625
1783169447710303200,1.88630322265625,-0.8846893310546875,-0.4757080078125,0.0488128662109375
1783169447720251400,1.89625146484375,-0.885284423828125,-0.47430419921875,0.0460205078125
1783169447730200300,1.906200439453125,-0.8854217529296875,-0.4750823974609375,0.0451202392578125
1783169447740149200,1.916149169921875,-0.8778533935546875,-0.4757232666015625,0.0452880859375
1783169447750128400,1.92612841796875,-0.8728790283203125,-0.4758148193359375,0.0469818115234375
1783169447760077300,1.936077392578125,-0.875946044921875,-0.476348876953125,0.0507659912109375
1783169447770026200,1.946026123046875,-0.8734893798828125,-0.47735595703125,0.0525054931640625
1783169447779974100,1.95597412109375,-0.8660736083984375,-0.47674560546875,0.0506591796875
1783169447789954300,1.965954345703125,-0.8620758056640625,-0.4778289794921875,0.0452117919921875
1783169447799902200,1.975902099609375,-0.8606414794921875,-0.4814300537109375,0.0428619384765625
1783169447809851100,1.98585107421875,-0.855682373046875,-0.4863128662109375,0.044189453125
1783169447819830300,1.995830322265625,-0.850799560546875,-0.487579345703125,0.0406341552734375
1783169447829779200,2.005779296875,-0.84619140625,-0.4849853515625,0.036346435546875
1783169447839728000,2.01572802734375,-0.8335418701171875,-0.4771728515625,0.03607177734375
1783169447849676000,2.025676025390625,-0.829925537109375,-0.4710540771484375,0.034698486328125
1783169447859656400,2.035656494140625,-0.847625732421875,-0.4733123779296875,0.0245513916015625
1783169447869604000,2.04560400390625,-0.86480712890625,-0.4737091064453125,0.0157470703125
1783169447879553300,2.05555322265625,-0.867401123046875,-0.4683380126953125,0.0174407958984375
1783169447889502200,2.065502197265625,-0.86749267578125,-0.4646759033203125,0.02362060546875
1783169447899481300,2.0754814453125,-0.8702545166015625,-0.4657440185546875,0.0271148681640625
1783169447909430300,2.08543017578125,-0.877532958984375,-0.469818115234375,0.0276336669921875
1783169447919379200,2.095379150390625,-0.881134033203125,-0.4771575927734375,0.027069091796875
1783169447929358300,2.1053583984375,-0.8805694580078125,-0.48223876953125,0.03076171875
1783169447939307300,2.115307373046875,-0.8782958984375,-0.4792633056640625,0.0316925048828125
1783169447949255200,2.125255126953125,-0.87347412109375,-0.472747802734375,0.0323638916015625
1783169447959204000,2.1352041015625,-0.87506103515625,-0.472686767578125,0.0345916748046875
1783169447969183200,2.145183349609375,-0.8758697509765625,-0.4777069091796875,0.0361480712890625
1783169447979132200,2.155132080078125,-0.8759002685546875,-0.479522705078125,0.03582763671875
1783169447989081000,2.1650810546875,-0.878173828125,-0.47674560546875,0.0345611572265625
1783169447999030000,2.175030029296875,-0.8782501220703125,-0.474090576171875,0.034942626953125
1783169448009009200,2.185009033203125,-0.871307373046875,-0.473785400390625,0.0346832275390625
1783169448018957000,2.19495703125,-0.8649444580078125,-0.4728546142578125,0.0351104736328125
1783169448028906000,2.204906005859375,-0.8631439208984375,-0.4731292724609375,0.0362701416015625
1783169448038885000,2.214885009765625,-0.860260009765625,-0.4727783203125,0.0366668701171875
1783169448048834300,2.224834228515625,-0.859466552734375,-0.4710845947265625,0.040008544921875
1783169448058783200,2.234783203125,-0.857177734375,-0.4694976806640625,0.0406951904296875
1783169448068732200,2.244732177734375,-0.857452392578125,-0.4698028564453125,0.0388946533203125
1783169448078711300,2.254711181640625,-0.866729736328125,-0.47039794921875,0.033935546875
1783169448088660200,2.26466015625,-0.87457275390625,-0.470672607421875,0.0263214111328125
1783169448098608000,2.274608154296875,-0.875732421875,-0.4698638916015625,0.0206146240234375
1783169448108557300,2.284557373046875,-0.87255859375,-0.466156005859375,0.0127716064453125
1783169448118536200,2.2945361328125,-0.864593505859375,-0.461090087890625,0.0087432861328125
1783169448128485000,2.304485107421875,-0.8597412109375,-0.4608001708984375,0.0074462890625
1783169448138464500,2.314464599609375,-0.8568878173828125,-0.4624481201171875,0.007598876953125
1783169448148443400,2.324443359375,-0.8589630126953125,-0.4633636474609375,0.0076446533203125
1783169448158392300,2.334392333984375,-0.845001220703125,-0.4732666015625,0.026519775390625
1783169448168341500,2.344341552734375,-0.8279876708984375,-0.47772216796875,0.0436553955078125
1783169448178289400,2.354289306640625,-0.8290252685546875,-0.473052978515625,0.036712646484375
1783169448188268500,2.3642685546875,-0.8310089111328125,-0.4727935791015625,0.0338287353515625
1783169448198217500,2.374217529296875,-0.8369293212890625,-0.48193359375,0.0404510498046875
1783169448208166400,2.38416650390625,-0.84326171875,-0.4923858642578125,0.047943115234375
1783169448218115300,2.394115234375,-0.8473358154296875,-0.490814208984375,0.0464630126953125
1783169448228094500,2.404094482421875,-0.8490142822265625,-0.4848480224609375,0.040863037109375
1783169448238043400,2.41404345703125,-0.8517303466796875,-0.484130859375,0.039031982421875
1783169448247991300,2.4239912109375,-0.8555450439453125,-0.48736572265625,0.03692626953125
1783169448257971500,2.433971435546875,-0.8572540283203125,-0.4895477294921875,0.04071044921875
1783169448267919600,2.443919677734375,-0.8659515380859375,-0.4866790771484375,0.044189453125
1783169448277868500,2.45386865234375,-0.8738250732421875,-0.4828643798828125,0.0421600341796875
1783169448287817500,2.4638173828125,-0.8774566650390625,-0.4791259765625,0.0389862060546875
1783169448297796600,2.473796630859375,-0.8830413818359375,-0.4778900146484375,0.0371551513671875
1783169448307745500,2.48374560546875,-0.8867034912109375,-0.4781341552734375,0.0354766845703125
1783169448317694500,2.493694580078125,-0.885345458984375,-0.4764556884765625,0.03411865234375
1783169448327642400,2.503642333984375,-0.882659912109375,-0.477386474609375,0.03179931640625
1783169448337622500,2.51362255859375,-0.8855743408203125,-0.4794921875,0.0277099609375
1783169448347570400,2.5235703125,-0.88836669921875,-0.4834747314453125,0.0228729248046875
1783169448357519400,2.533519287109375,-0.88555908203125,-0.4862823486328125,0.0188751220703125
1783169448367498500,2.54349853515625,-0.879608154296875,-0.486114501953125,0.0155487060546875
1783169448377447400,2.553447509765625,-0.8715362548828125,-0.4861602783203125,0.0121612548828125
1783169448387396400,2.563396240234375,-0.8721160888671875,-0.4876251220703125,0.012542724609375
1783169448397344300,2.57334423828125,-0.8786773681640625,-0.4914093017578125,0.0139007568359375
1783169448407324400,2.583324462890625,-0.881072998046875,-0.492279052734375,0.0113067626953125
1783169448417272300,2.593272216796875,-0.8820343017578125,-0.487701416015625,0.006927490234375
1783169448427221500,2.603221435546875,-0.877197265625,-0.4825897216796875,0.0045318603515625
1783169448437170400,2.61317041015625,-0.87371826171875,-0.4776611328125,0.005767822265625
1783169448447149600,2.623149658203125,-0.8694000244140625,-0.4766845703125,0.0079193115234375
1783169448457098500,2.633098388671875,-0.869537353515625,-0.4808197021484375,0.013031005859375
1783169448467047400,2.64304736328125,-0.8700103759765625,-0.487152099609375,0.017181396484375
1783169448477026600,2.653026611328125,-0.8654937744140625,-0.4855499267578125,0.021820068359375
1783169448486975500,2.6629755859375,-0.865478515625,-0.479949951171875,0.023529052734375
1783169448496923400,2.67292333984375,-0.866973876953125,-0.476287841796875,0.0247650146484375
1783169448506872300,2.682872314453125,-0.870697021484375,-0.4754638671875,0.022796630859375
1783169448516851500,2.6928515625,-0.873046875,-0.47381591796875,0.0231475830078125
1783169448526800400,2.70280029296875,-0.87371826171875,-0.470306396484375,0.02362060546875
1783169448536749300,2.712749267578125,-0.8762969970703125,-0.46734619140625,0.0194549560546875
1783169448546697500,2.722697509765625,-0.879425048828125,-0.4654998779296875,0.017822265625
1783169448556677400,2.732677490234375,-0.88360595703125,-0.4617919921875,0.017578125
1783169448566625300,2.742625244140625,-0.881134033203125,-0.46014404296875,0.0167694091796875
1783169448576574200,2.75257421875,-0.88250732421875,-0.4571075439453125,0.016448974609375
1783169448586553300,2.76255322265625,-0.8864593505859375,-0.457672119140625,0.017242431640625
1783169448596502500,2.77250244140625,-0.8842620849609375,-0.4617462158203125,0.0166168212890625
1783169448606451500,2.782451416015625,-0.8842315673828125,-0.465850830078125,0.0156097412109375
1783169448616400400,2.792400390625,-0.8790283203125,-0.4688873291015625,0.015380859375
1783169448626379500,2.802379638671875,-0.873565673828125,-0.469757080078125,0.016082763671875
1783169448636328400,2.812328369140625,-0.8749847412109375,-0.471466064453125,0.0164947509765625
1783169448646276400,2.8222763671875,-0.8734130859375,-0.4753265380859375,0.014007568359375
1783169448656225500,2.8322255859375,-0.8683013916015625,-0.4772186279296875,0.0148162841796875
1783169448666204400,2.842204345703125,-0.8677978515625,-0.475006103515625,0.01702880859375
1783169448676153300,2.8521533203125,-0.8665313720703125,-0.473968505859375,0.0174560546875
1783169448686102300,2.862102294921875,-0.86688232421875,-0.476348876953125,0.01617431640625
1783169448696081400,2.872081298828125,-0.8657989501953125,-0.47589111328125,0.0179290771484375
1783169448706030300,2.8820302734375,-0.8640899658203125,-0.4713134765625,0.0195465087890625
1783169448715978500,2.891978515625,-0.8628082275390625,-0.4685516357421875,0.021514892578125
1783169448725927400,2.901927490234375,-0.8701171875,-0.4684295654296875,0.0207672119140625
1783169448735906300,2.91190625,-0.878631591796875,-0.4683837890625,0.0184478759765625
1783169448745855200,2.921855224609375,-0.8772125244140625,-0.4643402099609375,0.018798828125
1783169448755804400,2.931804443359375,-0.879852294921875,-0.458892822265625,0.0187530517578125
1783169448765753600,2.941753662109375,-0.88604736328125,-0.4604034423828125,0.0187835693359375
1783169448775732500,2.951732421875,-0.8894195556640625,-0.4625091552734375,0.0185394287109375
1783169448785681400,2.961681396484375,-0.8844146728515625,-0.4603424072265625,0.01873779296875
1783169448795629600,2.971629638671875,-0.88604736328125,-0.455230712890625,0.0223236083984375
1783169448805609500,2.981609375,-0.886566162109375,-0.4549407958984375,0.0262451171875
1783169448815557400,2.991557373046875,-0.8836822509765625,-0.457244873046875,0.029541015625
1783169448825506600,3.001506591796875,-0.8861083984375,-0.4588470458984375,0.0282135009765625
1783169448835455500,3.01145556640625,-0.88970947265625,-0.45989990234375,0.026947021484375
1783169448845434400,3.021434326171875,-0.8913726806640625,-0.461273193359375,0.026580810546875
1783169448855383300,3.03138330078125,-0.8876800537109375,-0.4594573974609375,0.0270233154296875
1783169448865331500,3.04133154296875,-0.887786865234375,-0.4554290771484375,0.02593994140625
1783169448875280400,3.0512802734375,-0.8885345458984375,-0.455474853515625,0.0220947265625
1783169448885259300,3.06125927734375,-0.88525390625,-0.45648193359375,0.0186614990234375
1783169448895208400,3.07120849609375,-0.884429931640625,-0.4568634033203125,0.017791748046875
1783169448905157400,3.081157470703125,-0.880279541015625,-0.45977783203125,0.0191802978515625
1783169448915136300,3.09113623046875,-0.8738861083984375,-0.4619140625,0.0191192626953125
1783169448925085400,3.10108544921875,-0.8714752197265625,-0.4641571044921875,0.015655517578125
1783169448935034600,3.11103466796875,-0.8690338134765625,-0.4678192138671875,0.0136871337890625
1783169448944982500,3.120982421875,-0.8699951171875,-0.47235107421875,0.0150909423828125
1783169448954962400,3.13096240234375,-0.873199462890625,-0.4761962890625,0.0156097412109375
1783169448964910600,3.14091064453125,-0.87640380859375,-0.4749908447265625,0.0128936767578125
1783169448974859500,3.150859619140625,-0.87921142578125,-0.4718170166015625,0.01177978515625
1783169448984808400,3.160808349609375,-0.88165283203125,-0.4691009521484375,0.013427734375
1783169448994787300,3.170787353515625,-0.87786865234375,-0.4680023193359375,0.0129852294921875
1783169449004736500,3.180736572265625,-0.8746795654296875,-0.464569091796875,0.012054443359375
1783169449014685400,3.190685546875,-0.87188720703125,-0.4642333984375,0.012115478515625
1783169449024664300,3.200664306640625,-0.866668701171875,-0.4647369384765625,0.0150299072265625
1783169449034612500,3.210612548828125,-0.8621673583984375,-0.4654541015625,0.0194244384765625
1783169449044561400,3.2205615234375,-0.8643798828125,-0.4650726318359375,0.020111083984375
1783169449054510300,3.23051025390625,-0.860565185546875,-0.4687957763671875,0.0177459716796875
1783169449064489500,3.240489501953125,-0.8550567626953125,-0.4705810546875,0.016937255859375
1783169449074438400,3.2504384765625,-0.8491973876953125,-0.470123291015625,0.015411376953125
1783169449084387600,3.2603876953125,-0.8310699462890625,-0.4803009033203125,0.0124359130859375
1783169449094335200,3.270335205078125,-0.8181304931640625,-0.481842041015625,0.0028228759765625
1783169449104315400,3.2803154296875,-0.830352783203125,-0.474609375,-0.0040130615234375
1783169449114263600,3.290263671875,-0.84783935546875,-0.4760894775390625,-0.009307861328125
1783169449124212500,3.30021240234375,-0.85211181640625,-0.4815673828125,-0.0147552490234375
1783169449134219000,3.310218994140625,-0.85595703125,-0.477813720703125,-0.0183258056640625
1783169449144168200,3.320168212890625,-0.8715667724609375,-0.4709014892578125,-0.013641357421875
1783169449154117000,3.3301171875,-0.8865966796875,-0.4678497314453125,-0.0111236572265625
1783169449164066000,3.340066162109375,-0.8896484375,-0.468536376953125,-0.0098114013671875
1783169449174045200,3.350045166015625,-0.897735595703125,-0.465606689453125,-0.002960205078125
1783169449183994000,3.359994140625,-0.9088287353515625,-0.464019775390625,0.0054473876953125
1783169449193942000,3.36994189453125,-0.910675048828125,-0.4678192138671875,0.0093994140625
1783169449203891000,3.379890869140625,-0.9068145751953125,-0.469757080078125,0.0111083984375
1783169449213870000,3.3898701171875,-0.905517578125,-0.4681396484375,0.0124664306640625
1783169449223819000,3.399819091796875,-0.903167724609375,-0.4713897705078125,0.0148162841796875
1783169449233768000,3.409767822265625,-0.89837646484375,-0.4771270751953125,0.014312744140625
1783169449243747000,3.4197470703125,-0.891937255859375,-0.478271484375,0.012237548828125
1783169449253696000,3.429696044921875,-0.8834686279296875,-0.47906494140625,0.0115509033203125
1783169449263644000,3.439643798828125,-0.8713836669921875,-0.4820556640625,0.0108642578125
1783169449273592800,3.4495927734375,-0.862762451171875,-0.4829254150390625,0.0115966796875
1783169449283572000,3.459572021484375,-0.8589324951171875,-0.48272705078125,0.011260986328125
1783169449293521200,3.469521240234375,-0.859130859375,-0.4847869873046875,0.0093536376953125
1783169449303470000,3.479469970703125,-0.8535003662109375,-0.4872894287109375,0.00811767578125
1783169449313419000,3.4894189453125,-0.8470916748046875,-0.48614501953125,0.0083465576171875
1783169449323398100,3.499398193359375,-0.843048095703125,-0.4830169677734375,0.006011962890625
1783169449333347000,3.50934716796875,-0.8460693359375,-0.483123779296875,0.0060882568359375
1783169449343295000,3.519294921875,-0.8505859375,-0.4838714599609375,0.007110595703125
1783169449353275100,3.529275146484375,-0.8512115478515625,-0.48260498046875,0.0052337646484375
1783169449363223000,3.53922314453125,-0.8545684814453125,-0.4779205322265625,0.00567626953125
1783169449373172000,3.549171875,-0.8607025146484375,-0.47607421875,0.005096435546875
1783169449383121000,3.559120849609375,-0.8600006103515625,-0.4780120849609375,0.0075225830078125
1783169449393100000,3.56910009765625,-0.857330322265625,-0.4770355224609375,0.0113983154296875
1783169449403049000,3.579049072265625,-0.8600616455078125,-0.4781646728515625,0.01324462890625
1783169449412997000,3.5889970703125,-0.8627471923828125,-0.480865478515625,0.011749267578125
1783169449422946000,3.598946044921875,-0.866302490234375,-0.4810028076171875,0.0077972412109375
1783169449432925000,3.608925048828125,-0.873016357421875,-0.480926513671875,0.005584716796875
1783169449442873900,3.618873779296875,-0.8746337890625,-0.4821319580078125,0.006805419921875
1783169449452823000,3.628822998046875,-0.87353515625,-0.4844970703125,0.0049591064453125
1783169449462802000,3.638802001953125,-0.873260498046875,-0.48590087890625,0.003997802734375
1783169449472751000,3.648751220703125,-0.875274658203125,-0.4865875244140625,0.0044403076171875
1783169449482700000,3.658699951171875,-0.8804779052734375,-0.4883270263671875,0.0012359619140625
1783169449492648200,3.668648193359375,-0.885711669921875,-0.486663818359375,-0.001129150390625
1783169449502628000,3.678628173828125,-0.88787841796875,-0.48358154296875,-0.0051727294921875
1783169449512576000,3.688575927734375,-0.886077880859375,-0.480804443359375,-0.00909423828125
1783169449522525200,3.698525146484375,-0.879486083984375,-0.479522705078125,-0.011474609375
1783169449532474000,3.70847412109375,-0.8748016357421875,-0.477874755859375,-0.01092529296875
1783169449542453000,3.718452880859375,-0.8701019287109375,-0.480133056640625,-0.0093231201171875
1783169449552402000,3.72840185546875,-0.8616180419921875,-0.483123779296875,-0.0092010498046875
1783169449562350000,3.73835009765625,-0.854034423828125,-0.4845428466796875,-0.011016845703125
1783169449572330000,3.748330078125,-0.846466064453125,-0.4842529296875,-0.0121917724609375
1783169449582278000,3.75827783203125,-0.834991455078125,-0.4837493896484375,-0.0138092041015625
1783169449592227000,3.76822705078125,-0.828643798828125,-0.4862823486328125,-0.01446533203125
1783169449602176000,3.778176025390625,-0.8303680419921875,-0.487213134765625,-0.01287841796875
1783169449612155000,3.78815478515625,-0.8315887451171875,-0.489654541015625,-0.011138916015625
1783169449622104000,3.79810400390625,-0.8291473388671875,-0.489471435546875,-0.012725830078125
1783169449632053200,3.80805322265625,-0.8303680419921875,-0.4865264892578125,-0.0125274658203125
1783169449642001200,3.818001220703125,-0.8355560302734375,-0.4859619140625,-0.01116943359375
1783169449651981000,3.82798095703125,-0.8332977294921875,-0.4911651611328125,-0.0079193115234375
1783169449661929200,3.83792919921875,-0.8367462158203125,-0.4924468994140625,-0.0037384033203125
1783169449671878100,3.847878173828125,-0.8446807861328125,-0.4918212890625,-0.0042724609375
1783169449681857000,3.85785693359375,-0.84796142578125,-0.4931640625,-0.0043792724609375
1783169449691806000,3.867805908203125,-0.8508758544921875,-0.4929046630859375,-0.0013580322265625
1783169449701755100,3.877755126953125,-0.862030029296875,-0.4925079345703125,-0.002593994140625
1783169449711703000,3.887703125,-0.8694610595703125,-0.4919281005859375,-0.0038299560546875
1783169449721683000,3.897682861328125,-0.873504638671875,-0.48992919921875,-0.0016632080078125
1783169449731631000,3.907631103515625,-0.8842010498046875,-0.48779296875,-0.0004425048828125
1783169449741580000,3.917580078125,-0.890228271484375,-0.4873046875,0.0009918212890625
1783169449751529000,3.927529052734375,-0.8914031982421875,-0.488861083984375,0.004425048828125
1783169449761508000,3.937508056640625,-0.8940582275390625,-0.4864044189453125,0.0069122314453125
1783169449771457000,3.94745703125,-0.89630126953125,-0.4841766357421875,0.0066986083984375
1783169449781406200,3.95740625,-0.897735595703125,-0.4826507568359375,0.0060577392578125
1783169449791384800,3.967384765625,-0.9005889892578125,-0.482421875,0.0046234130859375
1783169449801334000,3.977333984375,-0.89715576171875,-0.4814605712890625,0.003509521484375
1783169449811282200,3.9872822265625,-0.8883056640625,-0.4799957275390625,0.0041656494140625
1783169449821231000,3.997231201171875,-0.8809661865234375,-0.4808197021484375,0.00079345703125
1783169449831210200,4.007210205078125,-0.874969482421875,-0.484710693359375,-0.0015411376953125
1783169449841159200,4.0171591796875,-0.8639068603515625,-0.484710693359375,0.0001068115234375
1783169449851108000,4.027108154296875,-0.855255126953125,-0.4821319580078125,0.001190185546875
1783169449861057000,4.03705712890625,-0.8492889404296875,-0.482574462890625,-0.0006103515625
1783169449871036200,4.0470361328125,-0.844512939453125,-0.4854736328125,-0.0044708251953125
1783169449880984000,4.056984130859375,-0.8372802734375,-0.48486328125,-0.0060882568359375
1783169449890933000,4.06693310546875,-0.8336029052734375,-0.4813079833984375,-0.00408935546875
1783169449900912000,4.076912109375,-0.8323211669921875,-0.481536865234375,-0.0034027099609375
1783169449910861000,4.086861083984375,-0.832275390625,-0.4821929931640625,-0.004058837890625
1783169449920810000,4.09681005859375,-0.8392333984375,-0.479461669921875,-0.0012969970703125
1783169449930759000,4.106759033203125,-0.84295654296875,-0.4804534912109375,-0.002838134765625
1783169449940738000,4.116738037109375,-0.845489501953125,-0.4825439453125,-0.007476806640625
1783169449950687000,4.12668701171875,-0.850341796875,-0.4840240478515625,-0.010986328125
1783169449960635000,4.136634765625,-0.85296630859375,-0.4840240478515625,-0.01373291015625
1783169449970584000,4.146583984375,-0.851287841796875,-0.4836578369140625,-0.0152130126953125
1783169449980563200,4.156563232421875,-0.85125732421875,-0.4844818115234375,-0.015167236328125
1783169449990512000,4.16651220703125,-0.8516998291015625,-0.489166259765625,-0.01513671875
1783169450000461000,4.1764609375,-0.8550262451171875,-0.49163818359375,-0.0125885009765625
1783169450010440200,4.186440185546875,-0.861297607421875,-0.4923248291015625,-0.008575439453125
1783169450020389000,4.19638916015625,-0.8643951416015625,-0.4927520751953125,-0.006103515625
1783169450030338000,4.206338134765625,-0.8728485107421875,-0.490447998046875,-0.0036468505859375
1783169450040286000,4.216285888671875,-0.8837432861328125,-0.4867706298828125,0.00299072265625
1783169450050265000,4.22626513671875,-0.8896484375,-0.4844512939453125,0.0093994140625
1783169450060214000,4.236214111328125,-0.893280029296875,-0.4791412353515625,0.01458740234375
1783169450070163000,4.246162841796875,-0.8977508544921875,-0.4747161865234375,0.0181884765625
1783169450080111900,4.25611181640625,-0.89984130859375,-0.4731292724609375,0.0224609375
1783169450090091000,4.266091064453125,-0.9037322998046875,-0.4737701416015625,0.0253143310546875
1783169450100040000,4.2760400390625,-0.90264892578125,-0.475250244140625,0.0274200439453125
1783169450109988000,4.285988037109375,-0.9028167724609375,-0.4725341796875,0.0261383056640625
1783169450119968000,4.295968017578125,-0.9001312255859375,-0.4706573486328125,0.02252197265625
1783169450129916000,4.305916015625,-0.893463134765625,-0.472808837890625,0.017852783203125
1783169450139868200,4.3158681640625,-0.890045166015625,-0.4760284423828125,0.0131988525390625
1783169450149817300,4.3258173828125,-0.8851318359375,-0.47857666015625,0.010711669921875
1783169450159796200,4.335796142578125,-0.8722076416015625,-0.4796600341796875,0.00799560546875
1783169450169745200,4.3457451171875,-0.8590850830078125,-0.4786376953125,0.0077972412109375
1783169450179694000,4.355694091796875,-0.8495025634765625,-0.4779052734375,0.0068359375
1783169450189642200,4.365642333984375,-0.8412017822265625,-0.4825592041015625,0.0052337646484375
1783169450199622100,4.3756220703125,-0.839141845703125,-0.4851837158203125,0.006378173828125
1783169450209570000,4.385570068359375,-0.8423919677734375,-0.486297607421875,0.0033416748046875
1783169450219519200,4.395519287109375,-0.84454345703125,-0.4855194091796875,0.000701904296875
1783169450229498000,4.405498046875,-0.8464202880859375,-0.4822845458984375,-0.0019073486328125
1783169450239447000,4.415447021484375,-0.847564697265625,-0.4818572998046875,-0.0027008056640625
1783169450249396000,4.42539599609375,-0.8481597900390625,-0.482208251953125,-0.0028533935546875
1783169450259344100,4.43534423828125,-0.851043701171875,-0.479400634765625,-0.0017852783203125
1783169450269324000,4.445323974609375,-0.8525390625,-0.4810638427734375,-0.0003662109375
1783169450279272200,4.455272216796875,-0.85565185546875,-0.4852294921875,0.000823974609375
1783169450289221400,4.465221435546875,-0.86370849609375,-0.4881744384765625,-0.0003662109375
1783169450299170300,4.47517041015625,-0.8683013916015625,-0.4875030517578125,-0.0039825439453125
1783169450309149200,4.485149169921875,-0.8677215576171875,-0.4859466552734375,-0.006988525390625
1783169450319098000,4.49509814453125,-0.86260986328125,-0.485198974609375,-0.00579833984375
1783169450329047300,4.50504736328125,-0.8609619140625,-0.4839019775390625,-0.0016632080078125
1783169450339026200,4.515026123046875,-0.863677978515625,-0.482818603515625,0.0006866455078125
1783169450348975000,4.52497509765625,-0.8658294677734375,-0.484588623046875,0.0019989013671875
1783169450358923300,4.53492333984375,-0.8665618896484375,-0.484344482421875,0.007080078125
1783169450368872200,4.5448720703125,-0.8663177490234375,-0.48358154296875,0.0085906982421875
1783169450378851000,4.55485107421875,-0.8653411865234375,-0.48297119140625,0.0048370361328125
1783169450388800300,4.56480029296875,-0.8656768798828125,-0.4802703857421875,0.00225830078125
1783169450398749200,4.574749267578125,-0.8671722412109375,-0.47998046875,0.0037689208984375
1783169450408697000,4.584697021484375,-0.864349365234375,-0.4822845458984375,0.004608154296875
1783169450418677000,4.594677001953125,-0.8615264892578125,-0.48443603515625,0.0052032470703125
1783169450428625200,4.604625244140625,-0.8585968017578125,-0.4872283935546875,0.0038299560546875
1783169450438574000,4.614573974609375,-0.8575439453125,-0.48876953125,0.00628662109375
1783169450448553000,4.624552978515625,-0.8597869873046875,-0.4898681640625,0.0087432861328125
1783169450458502400,4.63450244140625,-0.865142822265625,-0.4905548095703125,0.009674072265625
1783169450468451300,4.644451416015625,-0.8665008544921875,-0.4915618896484375,0.0094451904296875
1783169450478400300,4.654400146484375,-0.86541748046875,-0.4904632568359375,0.008270263671875
1783169450488379100,4.664379150390625,-0.86480712890625,-0.4880523681640625,0.0058746337890625
1783169450498328300,4.674328369140625,-0.8652496337890625,-0.48419189453125,0.009735107421875
1783169450508276200,4.684276123046875,-0.86767578125,-0.4825439453125,0.013702392578125
1783169450518225200,4.69422509765625,-0.8660430908203125,-0.480987548828125,0.0162353515625
1783169450528204300,4.704204345703125,-0.867889404296875,-0.4777984619140625,0.015838623046875
1783169450538153200,4.7141533203125,-0.8690185546875,-0.4772186279296875,0.01617431640625
1783169450548102100,4.72410205078125,-0.8654327392578125,-0.4772491455078125,0.0166778564453125
1783169450558081000,4.7340810546875,-0.865081787109375,-0.4779815673828125,0.0172576904296875
1783169450568030200,4.7440302734375,-0.863311767578125,-0.480560302734375,0.013916015625
1783169450577978000,4.75397802734375,-0.859832763671875,-0.4796142578125,0.0124664306640625
1783169450587927000,4.763927001953125,-0.8614501953125,-0.4777984619140625,0.011199951171875
1783169450597906200,4.77390625,-0.861968994140625,-0.4801177978515625,0.0068511962890625
1783169450607855000,4.783855224609375,-0.8621368408203125,-0.4819488525390625,0.0028076171875
1783169450617804300,4.79380419921875,-0.864593505859375,-0.48199462890625,-0.000396728515625
1783169450627753200,4.803753173828125,-0.8629302978515625,-0.4832000732421875,-0.0045928955078125
1783169450637732400,4.813732421875,-0.85919189453125,-0.4842987060546875,-0.005615234375
1783169450647681300,4.823681396484375,-0.8595733642578125,-0.48687744140625,-0.0042266845703125
1783169450657629200,4.833629150390625,-0.861297607421875,-0.491790771484375,-0.00555419921875
1783169450667609000,4.843609130859375,-0.8631134033203125,-0.493927001953125,-0.009918212890625
1783169450677557200,4.85355712890625,-0.863677978515625,-0.4951324462890625,-0.0128173828125
1783169450687506200,4.863506103515625,-0.8628997802734375,-0.494354248046875,-0.012664794921875
1783169450697455000,4.873455078125,-0.8603057861328125,-0.4958953857421875,-0.01324462890625
1783169450707434200,4.883434326171875,-0.861358642578125,-0.499267578125,-0.01177978515625
1783169450717383200,4.893383056640625,-0.86669921875,-0.501678466796875,-0.008575439453125
1783169450727331000,4.9033310546875,-0.868377685546875,-0.5042572021484375,-0.0083160400390625
1783169450737280300,4.9132802734375,-0.8756866455078125,-0.5017242431640625,-0.010589599609375
1783169450747259100,4.923259033203125,-0.8834075927734375,-0.4963226318359375,-0.015625
1783169450757208000,4.9332080078125,-0.88409423828125,-0.4929046630859375,-0.01788330078125
1783169450767157000,4.943156982421875,-0.8845062255859375,-0.4902801513671875,-0.01702880859375
1783169450777136000,4.95313623046875,-0.886138916015625,-0.4874725341796875,-0.011077880859375
1783169450787085000,4.9630849609375,-0.8875274658203125,-0.48822021484375,-0.005035400390625
1783169450797034200,4.9730341796875,-0.8814239501953125,-0.4891357421875,0.000091552734375
1783169450806982400,4.982982421875,-0.8787994384765625,-0.4872589111328125,0.004302978515625
1783169450816962300,4.99296240234375,-0.8690643310546875,-0.4884490966796875,0.0076904296875
1783169450826910200,5.00291015625,-0.8608245849609375,-0.4860992431640625,0.0110321044921875
1783169450836859100,5.012859130859375,-0.858612060546875,-0.4865570068359375,0.010955810546875
1783169450846808300,5.022808349609375,-0.8594970703125,-0.488739013671875,0.0103607177734375
1783169450856787200,5.032787109375,-0.854705810546875,-0.4896240234375,0.0118560791015625
1783169450866736000,5.042736083984375,-0.8411407470703125,-0.483367919921875,0.018829345703125
1783169450876685000,5.05268505859375,-0.8466949462890625,-0.477996826171875,0.0214996337890625
1783169450886664200,5.062664306640625,-0.8524932861328125,-0.4832305908203125,0.020660400390625
1783169450896612000,5.072612060546875,-0.8469390869140625,-0.4865570068359375,0.0258636474609375
1783169450906561000,5.08256103515625,-0.8431549072265625,-0.4812774658203125,0.0293731689453125
1783169450916510200,5.09251025390625,-0.8464813232421875,-0.47479248046875,0.0293731689453125
1783169450926489000,5.102489013671875,-0.8465423583984375,-0.4791107177734375,0.0281524658203125
1783169450936438000,5.11243798828125,-0.84564208984375,-0.484161376953125,0.027374267578125
1783169450946387200,5.12238720703125,-0.8439788818359375,-0.48370361328125,0.0286712646484375
1783169450956335000,5.132335205078125,-0.8414306640625,-0.4837799072265625,0.02972412109375
1783169450966315300,5.142315185546875,-0.839324951171875,-0.4901275634765625,0.03466796875
1783169450976263200,5.15226318359375,-0.839019775390625,-0.49566650390625,0.04095458984375
1783169450986212400,5.16221240234375,-0.845062255859375,-0.497222900390625,0.04022216796875
1783169450996191200,5.172191162109375,-0.8563385009765625,-0.4989776611328125,0.039642333984375
1783169451006140200,5.18214013671875,-0.8652191162109375,-0.4998016357421875,0.0357208251953125
1783169451016089000,5.192089111328125,-0.8753814697265625,-0.499176025390625,0.0286102294921875
1783169451026038300,5.202038330078125,-0.88482666015625,-0.497100830078125,0.0223388671875
1783169451036017200,5.21201708984375,-0.8936614990234375,-0.496185302734375,0.01708984375
1783169451045966000,5.221966064453125,-0.9012298583984375,-0.494964599609375,0.012603759765625
1783169451055914200,5.231914306640625,-0.9050750732421875,-0.4937896728515625,0.009307861328125
1783169451065863200,5.24186328125,-0.9041748046875,-0.4932861328125,0.009613037109375
1783169451075842000,5.251842041015625,-0.900726318359375,-0.4932708740234375,0.0088958740234375
1783169451085791200,5.261791259765625,-0.8974151611328125,-0.492645263671875,0.00909423828125
1783169451095740200,5.271740234375,-0.8974456787109375,-0.4930267333984375,0.0098724365234375
1783169451105719000,5.281718994140625,-0.8907012939453125,-0.4958038330078125,0.0053558349609375
1783169451115668000,5.29166796875,-0.8800506591796875,-0.4938201904296875,0.000274658203125
1783169451125616000,5.3016162109375,-0.8734588623046875,-0.4903106689453125,-0.0048980712890625
1783169451135596300,5.31159619140625,-0.871917724609375,-0.4912567138671875,-0.009307861328125
1783169451145575200,5.3215751953125,-0.86260986328125,-0.4954376220703125,-0.012115478515625
1783169451155524400,5.3315244140625,-0.8491058349609375,-0.496551513671875,-0.012359619140625
1783169451165473300,5.341473388671875,-0.834930419921875,-0.49407958984375,-0.008880615234375
1783169451175422200,5.351422119140625,-0.825408935546875,-0.4949188232421875,-0.004730224609375
1783169451185401000,5.361401123046875,-0.820465087890625,-0.50146484375,-0.0006256103515625
1783169451195350300,5.371350341796875,-0.8245697021484375,-0.508544921875,0.001495361328125
1783169451205298200,5.381298095703125,-0.82415771484375,-0.51068115234375,-0.000762939453125
1783169451215278000,5.391278076171875,-0.8209228515625,-0.507537841796875,-0.0059661865234375
1783169451225226200,5.401226318359375,-0.822723388671875,-0.5060577392578125,-0.0128326416015625
1783169451235175200,5.411175048828125,-0.8184814453125,-0.5074920654296875,-0.018402099609375
1783169451245124000,5.4211240234375,-0.8121490478515625,-0.5091400146484375,-0.0194091796875
1783169451255103200,5.431103271484375,-0.80609130859375,-0.5105743408203125,-0.0186920166015625
1783169451265052200,5.44105224609375,-0.796905517578125,-0.5128173828125,-0.0118865966796875
1783169451275000000,5.451,-0.7939910888671875,-0.5164031982421875,-0.0019378662109375
1783169451284949000,5.460948974609375,-0.796722412109375,-0.51806640625,0.0094146728515625
1783169451294928100,5.47092822265625,-0.8027801513671875,-0.5173492431640625,0.0177154541015625
1783169451304877300,5.480877197265625,-0.8101959228515625,-0.51513671875,0.0234375
1783169451314826200,5.490826171875,-0.821990966796875,-0.5125274658203125,0.0276336669921875
1783169451324805400,5.500805419921875,-0.839080810546875,-0.5120849609375,0.030792236328125
1783169451334754300,5.51075439453125,-0.8534698486328125,-0.5124053955078125,0.032379150390625
1783169451344703200,5.520703125,-0.8718414306640625,-0.5108642578125,0.0316619873046875
1783169451354651100,5.530651123046875,-0.8918304443359375,-0.51043701171875,0.02947998046875
1783169451364631300,5.54063134765625,-0.8930511474609375,-0.5114898681640625,0.0279998779296875
1783169451374579200,5.5505791015625,-0.8873748779296875,-0.50653076171875,0.0269775390625
1783169451384528100,5.560528076171875,-0.903167724609375,-0.50042724609375,0.025543212890625
1783169451394477000,5.57047705078125,-0.912078857421875,-0.5034332275390625,0.0204620361328125
1783169451404456200,5.580456298828125,-0.90521240234375,-0.50701904296875,0.0146331787109375
1783169451414405000,5.590405029296875,-0.897430419921875,-0.504180908203125,0.0121002197265625
1783169451424353000,5.60035302734375,-0.8868560791015625,-0.501922607421875,0.0107879638671875
1783169451434333200,5.610333251953125,-0.87237548828125,-0.5052337646484375,0.0079803466796875
1783169451444281000,5.620281005859375,-0.8625335693359375,-0.50909423828125,0.0102996826171875
1783169451454230000,5.63022998046875,-0.856597900390625,-0.5124053955078125,0.0136566162109375
1783169451464179200,5.64017919921875,-0.8473358154296875,-0.5167999267578125,0.01318359375
1783169451474158300,5.650158447265625,-0.836029052734375,-0.5155792236328125,0.013031005859375
1783169451484107300,5.660107177734375,-0.82769775390625,-0.5112762451171875,0.0121002197265625
1783169451494056200,5.67005615234375,-0.8214263916015625,-0.51019287109375,0.01116943359375
1783169451504004400,5.68000439453125,-0.8176727294921875,-0.513641357421875,0.0093536376953125
1783169451513984300,5.689984375,-0.816162109375,-0.5174102783203125,0.00933837890625
1783169451523932200,5.69993212890625,-0.81781005859375,-0.518707275390625,0.0089569091796875
1783169451533881000,5.709881103515625,-0.823516845703125,-0.51995849609375,0.008209228515625
1783169451543860200,5.719860107421875,-0.8260955810546875,-0.5215911865234375,0.004547119140625
1783169451553809200,5.72980908203125,-0.82965087890625,-0.5197601318359375,0.002593994140625
1783169451563758000,5.739758056640625,-0.831329345703125,-0.5172882080078125,0.0017852783203125
1783169451573706200,5.749706298828125,-0.8282623291015625,-0.5147552490234375,0.0044403076171875
1783169451583686100,5.75968603515625,-0.8301239013671875,-0.5108642578125,0.0111846923828125
1783169451593634000,5.769634033203125,-0.8363189697265625,-0.5072174072265625,0.0167694091796875
1783169451603583000,5.7795830078125,-0.8403778076171875,-0.5043487548828125,0.01800537109375
1783169451613532200,5.7895322265625,-0.845489501953125,-0.5012969970703125,0.0184783935546875
1783169451623511000,5.799510986328125,-0.853057861328125,-0.4994354248046875,0.0186309814453125
1783169451633460200,5.809460205078125,-0.8589019775390625,-0.5014190673828125,0.018280029296875
1783169451643409200,5.8194091796875,-0.856109619140625,-0.500152587890625,0.0195770263671875
1783169451653388300,5.82938818359375,-0.8506011962890625,-0.497802734375,0.01959228515625
1783169451663337200,5.839337158203125,-0.8475189208984375,-0.5009918212890625,0.0189208984375
1783169451673285000,5.84928515625,-0.8389129638671875,-0.5087890625,0.0191650390625
1783169451683234300,5.859234375,-0.834136962890625,-0.51239013671875,0.0207061767578125
1783169451693213200,5.869213134765625,-0.833526611328125,-0.512420654296875,0.0204315185546875
1783169451703162000,5.879162109375,-0.830291748046875,-0.5152587890625,0.019683837890625
1783169451713111000,5.889111083984375,-0.8282318115234375,-0.5196533203125,0.0203704833984375
1783169451723090200,5.899090087890625,-0.8341522216796875,-0.5247955322265625,0.0216522216796875
1783169451733039000,5.9090390625,-0.8453369140625,-0.526702880859375,0.0242767333984375
1783169451742987300,5.9189873046875,-0.85357666015625,-0.52679443359375,0.025238037109375
1783169451752936200,5.928936279296875,-0.8595123291015625,-0.52490234375,0.021392822265625
1783169451762915000,5.9389150390625,-0.865966796875,-0.5226898193359375,0.0180511474609375
1783169451772864000,5.948864013671875,-0.8689727783203125,-0.5208282470703125,0.015838623046875
1783169451782813200,5.958813232421875,-0.8675537109375,-0.5189971923828125,0.01519775390625
1783169451792762400,5.968762451171875,-0.864715576171875,-0.5172882080078125,0.018096923828125
1783169451802741200,5.9787412109375,-0.86865234375,-0.51666259765625,0.020233154296875
1783169451812690200,5.988690185546875,-0.8768157958984375,-0.5147705078125,0.021484375
1783169451822638300,5.998638427734375,-0.87994384765625,-0.5134429931640625,0.018035888671875
1783169451832618200,6.0086181640625,-0.87176513671875,-0.5093994140625,0.013671875
1783169451842566100,6.018566162109375,-0.8670806884765625,-0.504180908203125,0.0139617919921875
1783169451852515300,6.028515380859375,-0.8619232177734375,-0.5040740966796875,0.01513671875
1783169451862464300,6.03846435546875,-0.8514556884765625,-0.5041046142578125,0.018402099609375
1783169451872443100,6.048443115234375,-0.842620849609375,-0.5006256103515625,0.0220947265625
1783169451882392000,6.05839208984375,-0.8335418701171875,-0.5014801025390625,0.02398681640625
1783169451892341200,6.06834130859375,-0.83209228515625,-0.503265380859375,0.02850341796875
1783169451902289200,6.0782890625,-0.843017578125,-0.5055084228515625,0.0284576416015625
1783169451912268300,6.088268310546875,-0.8509674072265625,-0.5121917724609375,0.0261077880859375
1783169451922217200,6.09821728515625,-0.85205078125,-0.5169525146484375,0.0250091552734375
1783169451932166100,6.108166259765625,-0.852020263671875,-0.5140838623046875,0.0233612060546875
1783169451942145000,6.11814501953125,-0.8551788330078125,-0.5102386474609375,0.0191650390625
1783169451952094000,6.128093994140625,-0.8578033447265625,-0.5106964111328125,0.013763427734375
1783169451962043400,6.13804345703125,-0.8546905517578125,-0.5146484375,0.0113983154296875
1783169451971991000,6.147990966796875,-0.853302001953125,-0.5167236328125,0.0105438232421875
1783169451981971200,6.15797119140625,-0.8568267822265625,-0.5150909423828125,0.0069580078125
1783169451991919400,6.16791943359375,-0.8540191650390625,-0.5158538818359375,0.0034942626953125
1783169452001868300,6.177868408203125,-0.8470001220703125,-0.5145111083984375,0.00115966796875
1783169452011817200,6.187817138671875,-0.8426513671875,-0.51336669921875,0.0033111572265625
1783169452021796400,6.19779638671875,-0.8384857177734375,-0.5112152099609375,0.0084686279296875
1783169452031745300,6.207745361328125,-0.8377838134765625,-0.509735107421875,0.01318359375
1783169452041694200,6.217694091796875,-0.8410186767578125,-0.51019287109375,0.0152740478515625
1783169452051673000,6.227673095703125,-0.8481597900390625,-0.5104827880859375,0.01507568359375
1783169452061622000,6.2376220703125,-0.859039306640625,-0.511383056640625,0.013031005859375
1783169452071570200,6.247570068359375,-0.8624420166015625,-0.5110626220703125,0.0114898681640625
1783169452081519000,6.25751904296875,-0.8655853271484375,-0.5092926025390625,0.0176239013671875
1783169452091498200,6.267498291015625,-0.8695526123046875,-0.5160369873046875,0.0206756591796875
1783169452101447200,6.277447265625,-0.8685150146484375,-0.525543212890625,0.0205078125
1783169452111396000,6.28739599609375,-0.8842620849609375,-0.5374603271484375,0.019500732421875
1783169452121344000,6.297343994140625,-0.89501953125,-0.5437469482421875,0.0201416015625
1783169452131324400,6.307324462890625,-0.8946990966796875,-0.5445098876953125,0.02008056640625
1783169452141287200,6.317287109375,-0.8844146728515625,-0.540313720703125,0.0122528076171875
1783169452151236000,6.327236083984375,-0.8729400634765625,-0.5410308837890625,0.011077880859375
1783169452161215000,6.337215087890625,-0.863616943359375,-0.54827880859375,0.016693115234375
1783169452171164200,6.3471640625,-0.85797119140625,-0.559356689453125,0.0204315185546875
1783169452181113300,6.35711328125,-0.8522796630859375,-0.564483642578125,0.0235748291015625
1783169452191062300,6.367062255859375,-0.85040283203125,-0.567657470703125,0.022735595703125
1783169452201041200,6.377041259765625,-0.8295440673828125,-0.5676422119140625,0.0200958251953125
1783169452210990000,6.386989990234375,-0.8056182861328125,-0.5626068115234375,0.024322509765625
1783169452220938200,6.396938232421875,-0.79071044921875,-0.559295654296875,0.030548095703125
1783169452230887200,6.40688720703125,-0.776611328125,-0.5650177001953125,0.037689208984375
1783169452240866300,6.4168662109375,-0.76373291015625,-0.5709228515625,0.04376220703125
1783169452250815200,6.426815185546875,-0.7596588134765625,-0.575653076171875,0.0554656982421875
1783169452260764200,6.43676416015625,-0.77001953125,-0.57745361328125,0.06292724609375
1783169452270743000,6.446742919921875,-0.7718353271484375,-0.57745361328125,0.0626220703125
1783169452280692200,6.456692138671875,-0.7650299072265625,-0.572784423828125,0.0632781982421875
1783169452290640100,6.46664013671875,-0.7677154541015625,-0.56805419921875,0.06298828125
1783169452300589000,6.476589111328125,-0.782958984375,-0.567413330078125,0.0614776611328125
1783169452310568200,6.486568115234375,-0.7960357666015625,-0.5734710693359375,0.064971923828125
1783169452320517000,6.49651708984375,-0.8062744140625,-0.5823211669921875,0.07147216796875
1783169452330466300,6.50646630859375,-0.817962646484375,-0.5878448486328125,0.07513427734375
1783169452340415200,6.516415283203125,-0.8290557861328125,-0.591827392578125,0.069671630859375
1783169452350394400,6.526394287109375,-0.839935302734375,-0.5964202880859375,0.064483642578125
1783169452360343300,6.53634326171875,-0.8480987548828125,-0.6005096435546875,0.0630950927734375
1783169452370291200,6.546291259765625,-0.8511810302734375,-0.6014251708984375,0.0687255859375
1783169452380271000,6.55627099609375,-0.8623199462890625,-0.6039581298828125,0.0770416259765625
1783169452390219300,6.56621923828125,-0.876953125,-0.607025146484375,0.0826873779296875
1783169452400168200,6.576168212890625,-0.8881988525390625,-0.6041259765625,0.08404541015625
1783169452410117000,6.5861171875,-0.896392822265625,-0.5946197509765625,0.0792694091796875
1783169452420096300,6.59609619140625,-0.904693603515625,-0.58544921875,0.07275390625
1783169452430045200,6.606045166015625,-0.91387939453125,-0.5790252685546875,0.0701446533203125
1783169452439993000,6.6159931640625,-0.90667724609375,-0.5736541748046875,0.0681304931640625
1783169452449942000,6.62594189453125,-0.8897705078125,-0.567352294921875,0.0667724609375
1783169452459921200,6.635921142578125,-0.8683319091796875,-0.558746337890625,0.0682525634765625
1783169452469870000,6.6458701171875,-0.84564208984375,-0.5530548095703125,0.071136474609375
1783169452479819000,6.655819091796875,-0.82403564453125,-0.553253173828125,0.0686492919921875
1783169452489798100,6.665798095703125,-0.8005828857421875,-0.553741455078125,0.0654296875
1783169452499747300,6.675747314453125,-0.7889251708984375,-0.55328369140625,0.0621185302734375
1783169452509696300,6.6856962890625,-0.799468994140625,-0.554412841796875,0.05316162109375
1783169452519644200,6.69564404296875,-0.809112548828125,-0.545806884765625,0.03509521484375
1783169452529624300,6.705624267578125,-0.78973388671875,-0.5308074951171875,0.0221710205078125
1783169452539572200,6.715572265625,-0.7776031494140625,-0.520599365234375,0.0206451416015625
1783169452549521200,6.725521240234375,-0.778167724609375,-0.5236358642578125,0.025787353515625
1783169452559470000,6.735469970703125,-0.7748565673828125,-0.5362548828125,0.0298614501953125
1783169452569449200,6.74544921875,-0.7613677978515625,-0.5446624755859375,0.0344696044921875
1783169452579398100,6.755398193359375,-0.7510833740234375,-0.542877197265625,0.037933349609375
1783169452589346000,6.765345947265625,-0.752471923828125,-0.5427093505859375,0.0364990234375
1783169452599326200,6.775326171875,-0.7540435791015625,-0.546875,0.032867431640625
1783169452609274000,6.785274169921875,-0.7513580322265625,-0.5471038818359375,0.0269927978515625
1783169452619223000,6.79522314453125,-0.7484588623046875,-0.544830322265625,0.02227783203125
1783169452629172000,6.805171875,-0.7590484619140625,-0.5457763671875,0.020233154296875
1783169452639151000,6.815151123046875,-0.764190673828125,-0.5512542724609375,0.01947021484375
1783169452649100000,6.82510009765625,-0.76226806640625,-0.553497314453125,0.0220489501953125
1783169452659049200,6.83504931640625,-0.76873779296875,-0.5517730712890625,0.0205841064453125
1783169452668997400,6.844997314453125,-0.7742767333984375,-0.5530548095703125,0.019744873046875
1783169452678977300,6.854977294921875,-0.7728118896484375,-0.5519561767578125,0.0214691162109375
1783169452688925200,6.86492529296875,-0.7696533203125,-0.546722412109375,0.026336669921875
1783169452698874000,6.8748740234375,-0.7784576416015625,-0.5413665771484375,0.0335540771484375
1783169452708853200,6.884853271484375,-0.7940521240234375,-0.544219970703125,0.034393310546875
1783169452718802200,6.89480224609375,-0.8018951416015625,-0.5503387451171875,0.032379150390625
1783169452728751000,6.904751220703125,-0.805084228515625,-0.550872802734375,0.032440185546875
1783169452738699300,6.91469921875,-0.8105621337890625,-0.549560546875,0.028594970703125
1783169452748679200,6.92467919921875,-0.8115234375,-0.5541534423828125,0.0254974365234375
1783169452758627000,6.934626953125,-0.811859130859375,-0.5607147216796875,0.0244903564453125
1783169452768576300,6.944576171875,-0.8114013671875,-0.5652313232421875,0.0232086181640625
1783169452778525200,6.954525146484375,-0.8092193603515625,-0.5714263916015625,0.027679443359375
1783169452788504000,6.964504150390625,-0.8098602294921875,-0.5788421630859375,0.0353240966796875
1783169452798453000,6.974452880859375,-0.8157501220703125,-0.5835723876953125,0.03887939453125
1783169452808402200,6.984402099609375,-0.8202972412109375,-0.5826263427734375,0.035430908203125
1783169452818381000,6.994381103515625,-0.824798583984375,-0.580474853515625,0.0302581787109375
1783169452828330200,7.004330322265625,-0.8283233642578125,-0.5783843994140625,0.0289459228515625
1783169452838278400,7.0142783203125,-0.8317413330078125,-0.57421875,0.02935791015625
1783169452848227300,7.024227294921875,-0.8336029052734375,-0.5718994140625,0.028411865234375
1783169452858206200,7.034206298828125,-0.8295745849609375,-0.5712127685546875,0.02655029296875
1783169452868155100,7.044155029296875,-0.8248443603515625,-0.570892333984375,0.0276641845703125
1783169452878104300,7.054104248046875,-0.8216552734375,-0.5711212158203125,0.03314208984375
1783169452888053200,7.06405322265625,-0.8206634521484375,-0.5722808837890625,0.0359344482421875
1783169452898032000,7.0740322265625,-0.814453125,-0.574127197265625,0.034210205078125
1783169452907981000,7.08398095703125,-0.8094635009765625,-0.5720062255859375,0.0310211181640625
1783169452917929200,7.09392919921875,-0.8057861328125,-0.5690155029296875,0.0289764404296875
1783169452927908000,7.103908203125,-0.802093505859375,-0.5673828125,0.032562255859375
1783169452937857000,7.11385693359375,-0.800201416015625,-0.56793212890625,0.035308837890625
1783169452947806200,7.12380615234375,-0.7973480224609375,-0.5668792724609375,0.03704833984375
1783169452957755100,7.133755126953125,-0.800811767578125,-0.5665283203125,0.0349273681640625
1783169452967734000,7.143734130859375,-0.8044281005859375,-0.567138671875,0.0318603515625
1783169452977683000,7.153682861328125,-0.80035400390625,-0.566619873046875,0.027252197265625
1783169452987631000,7.163631103515625,-0.78839111328125,-0.5641021728515625,0.02740478515625
1783169452997580300,7.173580322265625,-0.781494140625,-0.564117431640625,0.0318756103515625
1783169453007559200,7.18355908203125,-0.778045654296875,-0.574005126953125,0.037841796875
1783169453017508400,7.19350830078125,-0.7742462158203125,-0.5860137939453125,0.0470123291015625
1783169453027457300,7.203457275390625,-0.7776336669921875,-0.5922088623046875,0.05816650390625
1783169453037436200,7.213436279296875,-0.7893218994140625,-0.5962066650390625,0.064208984375
1783169453047385000,7.223385009765625,-0.8034820556640625,-0.59930419921875,0.063934326171875
1783169453057334300,7.233334228515625,-0.8118133544921875,-0.600494384765625,0.0599212646484375
1783169453067282200,7.2432822265625,-0.819122314453125,-0.5962677001953125,0.054107666015625
1783169453077262000,7.253261962890625,-0.825927734375,-0.5915679931640625,0.045654296875
1783169453087210200,7.263210205078125,-0.8291778564453125,-0.5908050537109375,0.036895751953125
1783169453097159200,7.2731591796875,-0.8276519775390625,-0.5876617431640625,0.0294952392578125
1783169453107108000,7.283108154296875,-0.8260650634765625,-0.585052490234375,0.0186920166015625
1783169453117087200,7.293087158203125,-0.8231658935546875,-0.584564208984375,0.0172271728515625
1783169453127036200,7.3030361328125,-0.81927490234375,-0.5882568359375,0.0111083984375
1783169453137003800,7.313003662109375,-0.8152923583984375,-0.5884552001953125,0.0110015869140625
1783169453146983700,7.322983642578125,-0.82000732421875,-0.58721923828125,0.01312255859375
1783169453156931600,7.332931640625,-0.826416015625,-0.5876312255859375,0.009674072265625
1783169453166880500,7.342880615234375,-0.83270263671875,-0.58331298828125,0.0054473876953125
1783169453176829700,7.35282958984375,-0.8339385986328125,-0.57861328125,0.0056304931640625
1783169453186808600,7.36280859375,-0.83056640625,-0.572509765625,0.00628662109375
1783169453196757500,7.372757568359375,-0.8281402587890625,-0.564208984375,0.00048828125
1783169453206706400,7.38270654296875,-0.8278656005859375,-0.5624237060546875,-0.0025787353515625
1783169453216654600,7.392654541015625,-0.8226318359375,-0.5673065185546875,0.0000762939453125
1783169453226634500,7.402634521484375,-0.81927490234375,-0.56903076171875,0.00067138671875
1783169453236582400,7.41258251953125,-0.8177642822265625,-0.5697784423828125,0.000732421875
1783169453246531600,7.422531494140625,-0.8189239501953125,-0.57086181640625,-0.000274658203125
1783169453256510500,7.432510498046875,-0.8201751708984375,-0.5731964111328125,-0.0023956298828125
1783169453266459600,7.442459716796875,-0.811279296875,-0.5735015869140625,-0.0041961669921875
1783169453276408600,7.45240869140625,-0.804656982421875,-0.572418212890625,-0.00384521484375
1783169453286356700,7.462356689453125,-0.806396484375,-0.5762939453125,-0.0004730224609375
1783169453296336600,7.472336669921875,-0.803009033203125,-0.5824432373046875,0.004119873046875
1783169453306284500,7.482284423828125,-0.79443359375,-0.5835113525390625,0.0048980712890625
1783169453316233700,7.492233642578125,-0.7920379638671875,-0.5839080810546875,0.0072479248046875
1783169453326182700,7.5021826171875,-0.7866668701171875,-0.5879364013671875,0.0131378173828125
1783169453336161500,7.51216162109375,-0.78118896484375,-0.5915069580078125,0.0204925537109375
1783169453346110500,7.5221103515625,-0.78289794921875,-0.5900421142578125,0.0231475830078125
1783169453356059600,7.5320595703125,-0.783966064453125,-0.588043212890625,0.0232696533203125
1783169453366038500,7.54203857421875,-0.784210205078125,-0.5867156982421875,0.0275421142578125
1783169453375987500,7.551987548828125,-0.790283203125,-0.5882415771484375,0.034454345703125
1783169453385935600,7.561935546875,-0.7893218994140625,-0.588165283203125,0.03662109375
1783169453395884500,7.571884521484375,-0.7868804931640625,-0.584625244140625,0.0360870361328125
1783169453405863400,7.581863525390625,-0.7862548828125,-0.5808258056640625,0.037078857421875
1783169453415812600,7.5918125,-0.7848663330078125,-0.581512451171875,0.042938232421875
1783169453425761800,7.60176171875,-0.7877655029296875,-0.583984375,0.04583740234375
1783169453435709400,7.61170947265625,-0.7919921875,-0.58355712890625,0.04693603515625
1783169453445689600,7.621689697265625,-0.7881622314453125,-0.5858001708984375,0.045684814453125
1783169453455637800,7.6316376953125,-0.784820556640625,-0.5886077880859375,0.04449462890625
1783169453465586700,7.641586669921875,-0.7857513427734375,-0.588134765625,0.0457305908203125
1783169453475565600,7.651565673828125,-0.78631591796875,-0.5899658203125,0.0471954345703125
1783169453485514800,7.6615146484375,-0.7860870361328125,-0.5915069580078125,0.046966552734375
1783169453495463700,7.671463623046875,-0.7861785888671875,-0.5927276611328125,0.0455322265625
1783169453505412600,7.68141259765625,-0.7823028564453125,-0.5923919677734375,0.0439605712890625
1783169453515391500,7.6913916015625,-0.7806549072265625,-0.5941619873046875,0.0425567626953125
1783169453525340700,7.701340576171875,-0.7760467529296875,-0.594024658203125,0.0411376953125
1783169453535288600,7.71128857421875,-0.7714080810546875,-0.5941619873046875,0.0381011962890625
1783169453545237500,7.721237548828125,-0.7736053466796875,-0.5959014892578125,0.0347900390625
1783169453555216600,7.731216552734375,-0.7791748046875,-0.5994720458984375,0.0354461669921875
1783169453565165600,7.74116552734375,-0.7829437255859375,-0.5999755859375,0.033721923828125
1783169453575114500,7.751114501953125,-0.7874755859375,-0.597625732421875,0.0279388427734375
1783169453585093400,7.76109326171875,-0.796112060546875,-0.5971527099609375,0.022674560546875
1783169453595042800,7.771042724609375,-0.8010406494140625,-0.5982513427734375,0.0207672119140625
1783169453604990500,7.780990478515625,-0.8009185791015625,-0.593170166015625,0.02227783203125
1783169453614939600,7.790939697265625,-0.80108642578125,-0.5883636474609375,0.02069091796875
1783169453624918800,7.800918701171875,-0.80126953125,-0.5912322998046875,0.0206298828125
1783169453634867700,7.81086767578125,-0.8026123046875,-0.5973358154296875,0.0250396728515625
1783169453644816600,7.820816650390625,-0.7985382080078125,-0.600494384765625,0.0290069580078125
1783169453654765600,7.830765625,-0.7957305908203125,-0.6010589599609375,0.0296783447265625
1783169453664744700,7.84074462890625,-0.7962188720703125,-0.5989227294921875,0.024749755859375
1783169453674693600,7.850693603515625,-0.7951202392578125,-0.598724365234375,0.021087646484375
1783169453684641500,7.8606416015625,-0.7921295166015625,-0.5977630615234375,0.0169677734375
1783169453694621400,7.870621337890625,-0.7900238037109375,-0.594696044921875,0.0128173828125
1783169453704569600,7.880569580078125,-0.7911834716796875,-0.591033935546875,0.0141143798828125
1783169453714518500,7.8905185546875,-0.7834625244140625,-0.592437744140625,0.0142669677734375
1783169453724467500,7.900467529296875,-0.776611328125,-0.5920867919921875,0.014739990234375
1783169453734446600,7.910446533203125,-0.777984619140625,-0.590728759765625,0.0191192626953125
1783169453744395500,7.9203955078125,-0.7801666259765625,-0.59112548828125,0.0230560302734375
1783169453754343400,7.930343505859375,-0.7789306640625,-0.5899505615234375,0.02264404296875
1783169453764292400,7.940292236328125,-0.785308837890625,-0.5912017822265625,0.01812744140625
1783169453774271500,7.950271484375,-0.787445068359375,-0.591278076171875,0.0151214599609375
1783169453784220700,7.960220703125,-0.789520263671875,-0.593353271484375,0.01409912109375
1783169453794169600,7.970169677734375,-0.793365478515625,-0.5952606201171875,0.014678955078125
1783169453804148700,7.980148681640625,-0.79742431640625,-0.5993499755859375,0.0169830322265625
1783169453814097700,7.99009765625,-0.8009185791015625,-0.6024322509765625,0.0179595947265625
1783169453824046600,8.000046630859375,-0.802276611328125,-0.603851318359375,0.0192108154296875
1783169453833994800,8.009994873046875,-0.8043365478515625,-0.6034088134765625,0.019775390625
1783169453843974700,8.019974609375,-0.8094024658203125,-0.604156494140625,0.02020263671875
1783169453853922600,8.029922607421875,-0.812835693359375,-0.6038055419921875,0.0205841064453125
1783169453863871500,8.03987158203125,-0.80914306640625,-0.602813720703125,0.0196685791015625
1783169453873820400,8.0498203125,-0.805084228515625,-0.600433349609375,0.01800537109375
1783169453883799600,8.059799560546875,-0.8056640625,-0.5982666015625,0.02056884765625
1783169453893748500,8.06974853515625,-0.8029327392578125,-0.598602294921875,0.026824951171875
1783169453903697400,8.079697509765625,-0.8023529052734375,-0.598480224609375,0.0310821533203125
1783169453913676500,8.089676513671876,-0.8019561767578125,-0.5973052978515625,0.032867431640625
1783169453923625700,8.099625732421876,-0.7984466552734375,-0.5951080322265625,0.0319366455078125
1783169453933573400,8.109573486328125,-0.797760009765625,-0.595794677734375,0.0306396484375
1783169453943522800,8.119522705078126,-0.7960968017578125,-0.592437744140625,0.0314788818359375
1783169453953501700,8.129501708984375,-0.7938079833984375,-0.5901336669921875,0.0303497314453125
1783169453963450600,8.13945068359375,-0.7932586669921875,-0.5905914306640625,0.0298309326171875
1783169453973399600,8.149399658203125,-0.7960968017578125,-0.5919189453125,0.0280303955078125
1783169453983347700,8.15934765625,-0.793182373046875,-0.59539794921875,0.0246124267578125
1783169453993327600,8.16932763671875,-0.7870025634765625,-0.5968170166015625,0.0226898193359375
1783169454003275500,8.179275634765625,-0.7822723388671875,-0.598419189453125,0.022186279296875
1783169454013224700,8.189224609375,-0.7776947021484375,-0.5991058349609375,0.021148681640625
1783169454023203600,8.19920361328125,-0.7791595458984375,-0.601409912109375,0.0233306884765625
1783169454033152500,8.209152587890625,-0.780364990234375,-0.6038818359375,0.022308349609375
1783169454043101400,8.219101318359375,-0.7840423583984375,-0.6034088134765625,0.0214385986328125
1783169454053050600,8.229050537109375,-0.7844390869140625,-0.6036529541015625,0.0204620361328125
1783169454063029500,8.239029541015626,-0.7856597900390625,-0.5998992919921875,0.0214691162109375
1783169454072978400,8.248978515625,-0.7907867431640625,-0.5995330810546875,0.022979736328125
1783169454082926600,8.258926513671875,-0.795654296875,-0.6012420654296875,0.0234222412109375
1783169454092875500,8.26887548828125,-0.7989501953125,-0.6007232666015625,0.022491455078125
1783169454102854400,8.2788544921875,-0.8014678955078125,-0.5992279052734375,0.0189666748046875
1783169454112803600,8.288803466796875,-0.7974395751953125,-0.5972747802734375,0.0163116455078125
1783169454122752800,8.298752685546875,-0.7970733642578125,-0.5944366455078125,0.0152130126953125
1783169454132731600,8.308731689453126,-0.7985076904296875,-0.5950775146484375,0.0165557861328125
1783169454142726100,8.31872607421875,-0.79632568359375,-0.60015869140625,0.0149383544921875
1783169454152674300,8.32867431640625,-0.7904205322265625,-0.60137939453125,0.0130157470703125
1783169454162623200,8.338623291015624,-0.78424072265625,-0.5987091064453125,0.014984130859375
1783169454172602000,8.34860205078125,-0.785491943359375,-0.59808349609375,0.0196990966796875
1783169454182551000,8.358551025390625,-0.783660888671875,-0.6029052734375,0.0198516845703125
1783169454192500200,8.368500244140625,-0.783782958984375,-0.6055908203125,0.019134521484375
1783169454202449400,8.378449462890625,-0.782196044921875,-0.60284423828125,0.018524169921875
1783169454212428300,8.38842822265625,-0.7772216796875,-0.6002960205078125,0.014373779296875
1783169454222377200,8.398377197265624,-0.7821044921875,-0.5997772216796875,0.0115509033203125
1783169454232325400,8.408325439453124,-0.785797119140625,-0.601898193359375,0.01165771484375
1783169454242305300,8.41830517578125,-0.77838134765625,-0.5991363525390625,0.0107421875
1783169454252253200,8.428253173828125,-0.7740020751953125,-0.59454345703125,0.0087890625
1783169454262202400,8.438202392578125,-0.774261474609375,-0.5977020263671875,0.009429931640625
1783169454272151300,8.4481513671875,-0.7722625732421875,-0.607635498046875,0.0144500732421875
1783169454282130200,8.458130126953124,-0.76837158203125,-0.6168670654296875,0.0200347900390625
1783169454292079000,8.4680791015625,-0.765289306640625,-0.6245269775390625,0.022369384765625
1783169454302027300,8.47802734375,-0.7662200927734375,-0.6317291259765625,0.023956298828125
1783169454311976200,8.48797607421875,-0.77105712890625,-0.6336517333984375,0.0240020751953125
1783169454321955300,8.497955322265625,-0.7734375,-0.6316986083984375,0.01702880859375
1783169454331904300,8.507904296875,-0.78240966796875,-0.6265869140625,0.0076141357421875
1783169454341853200,8.517853271484375,-0.7908935546875,-0.6229248046875,0.00006103515625
1783169454351832000,8.52783203125,-0.79095458984375,-0.6253509521484375,-0.002716064453125
1783169454361781200,8.53778125,-0.7872467041015625,-0.624481201171875,-0.0011444091796875
1783169454371730400,8.54773046875,-0.7858734130859375,-0.6209716796875,0.00323486328125
1783169454381678000,8.557677978515626,-0.7904510498046875,-0.6208953857421875,0.0081024169921875
1783169454391658200,8.567658203125,-0.7910919189453125,-0.623992919921875,0.010986328125
1783169454401606400,8.5776064453125,-0.7908172607421875,-0.621978759765625,0.013641357421875
1783169454411555300,8.587555419921875,-0.80096435546875,-0.616546630859375,0.014190673828125
1783169454421504300,8.597504150390625,-0.8062896728515625,-0.61065673828125,0.013824462890625
1783169454431483400,8.6074833984375,-0.8148651123046875,-0.606719970703125,0.0131683349609375
1783169454441432300,8.617432373046874,-0.8178863525390625,-0.60614013671875,0.0144500732421875
1783169454451380200,8.627380126953126,-0.8149871826171875,-0.5996856689453125,0.0187530517578125
1783169454461360000,8.637360107421875,-0.822509765625,-0.59466552734375,0.019439697265625
1783169454471308300,8.647308349609375,-0.8242645263671875,-0.59649658203125,0.0244903564453125
1783169454481257200,8.65725732421875,-0.8165130615234375,-0.597076416015625,0.0341033935546875
1783169454491206100,8.6672060546875,-0.8148345947265625,-0.59027099609375,0.0408782958984375
1783169454501185300,8.677185302734374,-0.8183441162109375,-0.583953857421875,0.0423431396484375
1783169454511134200,8.68713427734375,-0.8197174072265625,-0.5841064453125,0.04071044921875
1783169454521083100,8.697083251953124,-0.8124847412109375,-0.582977294921875,0.0396728515625
1783169454531031000,8.707031005859376,-0.80426025390625,-0.5771636962890625,0.0403289794921875
1783169454541011500,8.717011474609375,-0.7943572998046875,-0.5710601806640625,0.04425048828125
1783169454550959000,8.726958984375,-0.786712646484375,-0.57110595703125,0.04791259765625
1783169454560908300,8.736908203125,-0.78057861328125,-0.5744476318359375,0.0517425537109375
1783169454570887400,8.746887451171874,-0.773590087890625,-0.5787200927734375,0.05303955078125
1783169454580836400,8.75683642578125,-0.7677459716796875,-0.57977294921875,0.050323486328125
1783169454590785300,8.766785400390624,-0.7653350830078125,-0.5787506103515625,0.0473785400390625
1783169454600733200,8.776733154296876,-0.7600250244140625,-0.5800933837890625,0.0433197021484375
1783169454610713300,8.78671337890625,-0.7530517578125,-0.58416748046875,0.0369873046875
1783169454620661200,8.7966611328125,-0.7508087158203125,-0.587066650390625,0.0380401611328125
1783169454630610200,8.806610107421875,-0.7521209716796875,-0.59002685546875,0.03662109375
1783169454640559000,8.81655908203125,-0.7587890625,-0.5960540771484375,0.0296630859375
1783169454650538200,8.826538330078124,-0.7681427001953125,-0.5996856689453125,0.0245819091796875
1783169454660487200,8.836487060546874,-0.7704315185546875,-0.596954345703125,0.0189361572265625
1783169454670436000,8.84643603515625,-0.77777099609375,-0.594329833984375,0.0180816650390625
1783169454680415200,8.856415283203125,-0.78497314453125,-0.5942535400390625,0.0192718505859375
1783169454690364200,8.8663642578125,-0.7857818603515625,-0.5923004150390625,0.0188140869140625
1783169454700312000,8.87631201171875,-0.786407470703125,-0.5907440185546875,0.014617919921875
1783169454710261000,8.886260986328125,-0.7789459228515625,-0.5914154052734375,0.0092620849609375
1783169454720240000,8.896240234375,-0.771728515625,-0.5909271240234375,0.009063720703125
1783169454730189300,8.906189208984374,-0.7746734619140625,-0.5889434814453125,0.018096923828125
1783169454740138200,8.91613818359375,-0.775054931640625,-0.5865020751953125,0.0258636474609375
1783169454750087200,8.926087158203124,-0.7698822021484375,-0.580474853515625,0.030181884765625
1783169454760066300,8.93606640625,-0.772430419921875,-0.5764007568359375,0.0364227294921875
1783169454770014200,8.94601416015625,-0.78302001953125,-0.5791168212890625,0.0464630126953125
1783169454779963100,8.955963134765625,-0.792449951171875,-0.582366943359375,0.0561676025390625
1783169454789942300,8.9659423828125,-0.7911834716796875,-0.5816497802734375,0.056610107421875
1783169454799891200,8.97589111328125,-0.79095458984375,-0.576171875,0.054931640625
1783169454809840000,8.985840087890624,-0.79949951171875,-0.5720367431640625,0.0519256591796875
1783169454819789000,8.9957890625,-0.804443359375,-0.572418212890625,0.05255126953125
1783169454829768200,9.005768310546875,-0.8068389892578125,-0.5766754150390625,0.0505828857421875
1783169454839717000,9.015717041015625,-0.8208160400390625,-0.57952880859375,0.0433197021484375
1783169454849665300,9.025665283203125,-0.82891845703125,-0.575836181640625,0.0398712158203125
1783169454859614200,9.0356142578125,-0.8304901123046875,-0.5730133056640625,0.03936767578125
1783169454869593000,9.045593017578126,-0.83380126953125,-0.5742950439453125,0.0355224609375
1783169454879542000,9.0555419921875,-0.8359527587890625,-0.574981689453125,0.030426025390625
1783169454889491200,9.0654912109375,-0.8406524658203125,-0.5730743408203125,0.0308990478515625
1783169454899470300,9.07547021484375,-0.84210205078125,-0.5712738037109375,0.033050537109375
1783169454909419300,9.085419189453125,-0.8389434814453125,-0.569183349609375,0.0314483642578125
1783169454919368200,9.0953681640625,-0.8386077880859375,-0.564971923828125,0.0308837890625
1783169454929316400,9.10531640625,-0.8330230712890625,-0.56427001953125,0.032196044921875
1783169454939296300,9.115296142578124,-0.8253173828125,-0.56634521484375,0.034454345703125
1783169454949244200,9.125244140625,-0.8184814453125,-0.570648193359375,0.0320587158203125
1783169454959193300,9.135193359375,-0.8108367919921875,-0.5716094970703125,0.02825927734375
1783169454969142300,9.145142333984374,-0.8033905029296875,-0.5705413818359375,0.0265960693359375
1783169454979121200,9.15512109375,-0.7977294921875,-0.5706024169921875,0.0245819091796875
1783169454989070000,9.165070068359375,-0.7989501953125,-0.571624755859375,0.0211334228515625
1783169454999018200,9.175018310546875,-0.8011474609375,-0.571807861328125,0.0170440673828125
1783169455008998100,9.184998046875,-0.8028564453125,-0.5722808837890625,0.017333984375
1783169455018946000,9.194946044921876,-0.802154541015625,-0.5735015869140625,0.021881103515625
1783169455028895200,9.204895263671874,-0.801055908203125,-0.5758209228515625,0.0264129638671875
1783169455038844200,9.21484423828125,-0.797576904296875,-0.5779876708984375,0.0257415771484375
1783169455048823000,9.224822998046875,-0.7928619384765625,-0.580657958984375,0.0229644775390625
1783169455058772200,9.234772216796875,-0.79388427734375,-0.582122802734375,0.02117919921875
1783169455068721400,9.244721435546875,-0.7956695556640625,-0.5841064453125,0.01898193359375
1783169455078669300,9.25466943359375,-0.7984771728515625,-0.58587646484375,0.0163726806640625
1783169455088649200,9.264649169921874,-0.7994232177734375,-0.585906982421875,0.0139007568359375
1783169455098597400,9.274597412109374,-0.8010101318359375,-0.5833282470703125,0.0115509033203125
1783169455108546300,9.28454638671875,-0.803436279296875,-0.583099365234375,0.0098876953125
1783169455118525200,9.294525146484375,-0.80841064453125,-0.586151123046875,0.009674072265625
1783169455128474000,9.30447412109375,-0.813079833984375,-0.5875244140625,0.0117950439453125
1783169455138423300,9.31442333984375,-0.8135223388671875,-0.589569091796875,0.012725830078125
1783169455148371200,9.32437109375,-0.8096923828125,-0.587738037109375,0.0148773193359375
1783169455158351000,9.33435107421875,-0.8161163330078125,-0.5835723876953125,0.016693115234375
1783169455168299300,9.34429931640625,-0.819427490234375,-0.5838470458984375,0.0170135498046875
1783169455178248400,9.35424853515625,-0.8167724609375,-0.58685302734375,0.01837158203125
1783169455188197400,9.364197265625,-0.8152313232421875,-0.5844268798828125,0.0190887451171875
1783169455198176300,9.37417626953125,-0.814727783203125,-0.58306884765625,0.0164794921875
1783169455208125400,9.38412548828125,-0.8201446533203125,-0.584197998046875,0.0140228271484375
1783169455218074400,9.394074462890625,-0.82012939453125,-0.5876007080078125,0.0121002197265625
1783169455228053200,9.40405322265625,-0.8164215087890625,-0.588348388671875,0.01422119140625
1783169455238002200,9.414002197265624,-0.8184814453125,-0.5873260498046875,0.0197601318359375
1783169455247950300,9.423950439453124,-0.819091796875,-0.5864715576171875,0.0216064453125
1783169455257899300,9.433899169921874,-0.8173370361328125,-0.586395263671875,0.0226593017578125
1783169455267878400,9.44387841796875,-0.8158721923828125,-0.582427978515625,0.0263824462890625
1783169455277827300,9.453827392578125,-0.8151092529296875,-0.5793914794921875,0.029693603515625
1783169455287776300,9.4637763671875,-0.81402587890625,-0.5806732177734375,0.0330047607421875
1783169455297724200,9.47372412109375,-0.81341552734375,-0.5829925537109375,0.0368499755859375
1783169455307704300,9.483704345703124,-0.8108062744140625,-0.582855224609375,0.039306640625
1783169455317652200,9.49365234375,-0.8105621337890625,-0.58099365234375,0.0431365966796875
1783169455327601200,9.50360107421875,-0.810699462890625,-0.5819549560546875,0.04449462890625
1783169455337580300,9.513580322265625,-0.8064727783203125,-0.5831298828125,0.0458526611328125
1783169455347529500,9.523529541015625,-0.8067626953125,-0.5824432373046875,0.0460052490234375
1783169455357478400,9.533478515625,-0.810577392578125,-0.579833984375,0.044708251953125
1783169455367427300,9.54342724609375,-0.8108673095703125,-0.576416015625,0.041229248046875
1783169455377406500,9.553406494140624,-0.8108978271484375,-0.5713043212890625,0.0402374267578125
1783169455387355400,9.56335546875,-0.8052825927734375,-0.5684967041015625,0.039276123046875
1783169455397303300,9.57330322265625,-0.794403076171875,-0.5705718994140625,0.0403900146484375
1783169455407252200,9.583252197265624,-0.78857421875,-0.575775146484375,0.04400634765625
1783169455417231400,9.5932314453125,-0.785491943359375,-0.5784149169921875,0.0465240478515625
1783169455427180300,9.60318017578125,-0.7852630615234375,-0.5795135498046875,0.0474090576171875
1783169455437129200,9.613129150390625,-0.7842559814453125,-0.5798492431640625,0.0478668212890625
1783169455447108400,9.6231083984375,-0.785186767578125,-0.577301025390625,0.047088623046875
1783169455457057300,9.633057373046874,-0.790069580078125,-0.57666015625,0.0463409423828125
1783169455467005200,9.643005126953126,-0.7930755615234375,-0.57568359375,0.044189453125
1783169455476954000,9.6529541015625,-0.7943115234375,-0.57427978515625,0.041900634765625
1783169455486933200,9.662933349609375,-0.7944793701171875,-0.5770263671875,0.042022705078125
1783169455496882200,9.672882080078125,-0.7991943359375,-0.579742431640625,0.043975830078125
1783169455506831400,9.682831298828125,-0.800262451171875,-0.5790557861328125,0.0453033447265625
1783169455516780300,9.6927802734375,-0.7976837158203125,-0.577880859375,0.046295166015625
1783169455526759400,9.702759521484374,-0.79931640625,-0.5774993896484375,0.04718017578125
1783169455536708400,9.712708251953124,-0.7967987060546875,-0.5773773193359375,0.0466156005859375
1783169455546656300,9.72265625,-0.794708251953125,-0.5771484375,0.0471038818359375
1783169455556636400,9.732636474609375,-0.792694091796875,-0.57647705078125,0.0480499267578125
1783169455566584300,9.742584228515625,-0.79180908203125,-0.57666015625,0.04925537109375
1783169455576533200,9.752533203125,-0.79296875,-0.5784912109375,0.049652099609375
1783169455586482200,9.762482177734375,-0.7912445068359375,-0.5795440673828125,0.0480194091796875
1783169455596461300,9.77246142578125,-0.7907257080078125,-0.57861328125,0.048736572265625
1783169455606410200,9.78241015625,-0.78851318359375,-0.57952880859375,0.04974365234375
1783169455616358400,9.7923583984375,-0.7930145263671875,-0.5802459716796875,0.049468994140625
1783169455626307300,9.802307373046874,-0.8065338134765625,-0.580718994140625,0.048919677734375
1783169455636286200,9.8122861328125,-0.8097991943359375,-0.5824737548828125,0.0492706298828125
1783169455646235100,9.822235107421875,-0.804168701171875,-0.5807342529296875,0.049713134765625
1783169455656184300,9.832184326171875,-0.8038482666015625,-0.57666015625,0.0500640869140625
1783169455666163200,9.8421630859375,-0.80279541015625,-0.5782012939453125,0.0538482666015625
1783169455676112400,9.8521123046875,-0.79986572265625,-0.5847320556640625,0.0569610595703125
1783169455686061300,9.862061279296874,-0.79486083984375,-0.587371826171875,0.0623779296875
1783169455696009500,9.872009521484374,-0.7934722900390625,-0.586334228515625,0.0637359619140625
1783169455705989400,9.8819892578125,-0.790435791015625,-0.5856781005859375,0.060028076171875
1783169455715937300,9.891937255859375,-0.789459228515625,-0.5856475830078125,0.05810546875
1783169455725886500,9.901886474609375,-0.79205322265625,-0.5849761962890625,0.0558929443359375
1783169455735835400,9.91183544921875,-0.79278564453125,-0.587799072265625,0.0553131103515625
1783169455745814300,9.921814208984374,-0.802032470703125,-0.5946502685546875,0.051788330078125
1783169455755763200,9.93176318359375,-0.804779052734375,-0.5944366455078125,0.0506744384765625
1783169455765712400,9.94171240234375,-0.8009185791015625,-0.5922698974609375,0.0503387451171875
1783169455775691300,9.951691162109375,-0.805023193359375,-0.5896148681640625,0.0506744384765625
1783169455785639200,9.96163916015625,-0.8088836669921875,-0.589874267578125,0.052032470703125
1783169455795588400,9.97158837890625,-0.812225341796875,-0.59002685546875,0.050201416015625
1783169455805537300,9.981537353515625,-0.812774658203125,-0.588104248046875,0.050384521484375
1783169455815516200,9.99151611328125,-0.815521240234375,-0.58587646484375,0.0514984130859375
1783169455825465000,10.001465087890624,-0.8166656494140625,-0.587188720703125,0.0503082275390625
1783169455835414500,10.01141455078125,-0.8144989013671875,-0.5872039794921875,0.0482177734375
1783169455845362200,10.021362060546876,-0.811737060546875,-0.5845489501953125,0.0470123291015625
1783169455855342300,10.03134228515625,-0.8075408935546875,-0.5810394287109375,0.0477752685546875
1783169455865290500,10.04129052734375,-0.8075408935546875,-0.580322265625,0.04974365234375
1783169455875239400,10.051239501953125,-0.8087005615234375,-0.58251953125,0.05108642578125
1783169455885218300,10.06121826171875,-0.8130645751953125,-0.5845947265625,0.0481109619140625
1783169455895167200,10.071167236328124,-0.81170654296875,-0.58489990234375,0.0459136962890625
1783169455905116400,10.081116455078124,-0.809112548828125,-0.5841064453125,0.0462799072265625
1783169455915065300,10.0910654296875,-0.8036041259765625,-0.5864410400390625,0.045654296875
1783169455925044200,10.101044189453125,-0.7993621826171875,-0.588043212890625,0.04547119140625
1783169455934993200,10.1109931640625,-0.8036346435546875,-0.5890960693359375,0.04339599609375
1783169455944941300,10.12094140625,-0.8021240234375,-0.5930633544921875,0.0418243408203125
1783169455954890200,10.13089013671875,-0.79766845703125,-0.5934295654296875,0.0393829345703125
1783169455964869400,10.140869384765624,-0.79510498046875,-0.5933380126953125,0.035980224609375
1783169455974818300,10.150818359375,-0.7902679443359375,-0.5970001220703125,0.0366668701171875
1783169455984767200,10.160767333984374,-0.7839813232421875,-0.5973052978515625,0.040313720703125
1783169455994746000,10.17074609375,-0.7797698974609375,-0.5951690673828125,0.0437469482421875
1783169456004695300,10.1806953125,-0.77783203125,-0.595306396484375,0.04876708984375
1783169456014643200,10.190643310546875,-0.7789764404296875,-0.59564208984375,0.0519866943359375
1783169456024592400,10.20059228515625,-0.7781829833984375,-0.592864990234375,0.0529937744140625
1783169456034571500,10.210571533203124,-0.7796173095703125,-0.588714599609375,0.0530242919921875
1783169456044520400,10.2205205078125,-0.786468505859375,-0.58966064453125,0.055023193359375
1783169456054469400,10.230469482421874,-0.7902374267578125,-0.5886383056640625,0.0539093017578125
1783169456064418300,10.240418212890624,-0.7943115234375,-0.5819091796875,0.053436279296875
1783169456074397400,10.2503974609375,-0.7961883544921875,-0.57720947265625,0.0567626953125
1783169456084346400,10.260346435546875,-0.7946929931640625,-0.5763397216796875,0.0601348876953125
1783169456094294300,10.270294189453125,-0.796478271484375,-0.5751190185546875,0.0622711181640625
1783169456104274200,10.280274169921874,-0.7994842529296875,-0.574859619140625,0.064666748046875
1783169456114222300,10.290222412109374,-0.8008880615234375,-0.57708740234375,0.0677490234375
1783169456124171300,10.300171142578124,-0.8014984130859375,-0.5798492431640625,0.0687255859375
1783169456134120200,10.3101201171875,-0.79974365234375,-0.57861328125,0.06842041015625
1783169456144141600,10.3201416015625,-0.7996978759765625,-0.5767822265625,0.0681610107421875
1783169456154090800,10.3300908203125,-0.8019256591796875,-0.5778656005859375,0.0691070556640625
1783169456164038700,10.34003857421875,-0.80517578125,-0.581939697265625,0.0720367431640625
1783169456173987600,10.349987548828125,-0.802642822265625,-0.5849456787109375,0.0718841552734375
1783169456183966700,10.359966796875,-0.7965087890625,-0.582489013671875,0.0721893310546875
1783169456193915600,10.36991552734375,-0.795806884765625,-0.5807342529296875,0.0737152099609375
1783169456203864600,10.379864501953126,-0.79571533203125,-0.5825653076171875,0.0768585205078125
1783169456213843700,10.38984375,-0.794525146484375,-0.5844879150390625,0.0802459716796875
1783169456223793000,10.39979296875,-0.792236328125,-0.5857391357421875,0.078765869140625
1783169456233741800,10.409741943359375,-0.7889556884765625,-0.58489990234375,0.0772857666015625
1783169456243689700,10.419689697265625,-0.786346435546875,-0.5860137939453125,0.076507568359375
1783169456253669600,10.429669677734376,-0.7861480712890625,-0.590576171875,0.0745391845703125
1783169456263617800,10.43961767578125,-0.7860870361328125,-0.594268798828125,0.072235107421875
1783169456273566700,10.449566650390626,-0.785186767578125,-0.592864990234375,0.071380615234375
1783169456283515600,10.459515625,-0.78497314453125,-0.5934295654296875,0.0709381103515625
1783169456293494800,10.469494873046875,-0.7845001220703125,-0.5963287353515625,0.072509765625
1783169456303443700,10.479443603515625,-0.7874908447265625,-0.595947265625,0.073089599609375
1783169456313391600,10.4893916015625,-0.7906036376953125,-0.597259521484375,0.073089599609375
1783169456323371800,10.499371826171876,-0.792205810546875,-0.598663330078125,0.0727386474609375
1783169456333319700,10.509319580078126,-0.792877197265625,-0.59722900390625,0.0718231201171875
1783169456343268600,10.5192685546875,-0.7944488525390625,-0.59320068359375,0.07049560546875
1783169456353217500,10.529217529296876,-0.794891357421875,-0.59222412109375,0.0720672607421875
1783169456363196700,10.53919677734375,-0.7959136962890625,-0.592742919921875,0.0750732421875
1783169456373145600,10.5491455078125,-0.8011474609375,-0.5939178466796875,0.0753631591796875
1783169456383094800,10.5590947265625,-0.800018310546875,-0.59075927734375,0.0762176513671875
1783169456393042700,10.569042724609375,-0.797088623046875,-0.585479736328125,0.076202392578125
1783169456403022800,10.57902294921875,-0.7990570068359375,-0.5821380615234375,0.07965087890625
1783169456412970800,10.588970703125,-0.802001953125,-0.58306884765625,0.083221435546875
1783169456422919700,10.598919677734376,-0.8016510009765625,-0.58270263671875,0.0821075439453125
1783169456432898800,10.60889892578125,-0.798736572265625,-0.5785369873046875,0.082427978515625
1783169456442847700,10.61884765625,-0.7973480224609375,-0.5752716064453125,0.0855560302734375
1783169456452796700,10.628796630859375,-0.79681396484375,-0.5780487060546875,0.0887451171875
1783169456462744800,10.638744873046875,-0.80450439453125,-0.5833587646484375,0.08905029296875
1783169456472724700,10.648724853515626,-0.8144989013671875,-0.585174560546875,0.0888519287109375
1783169456482672600,10.658672607421876,-0.805633544921875,-0.590484619140625,0.087615966796875
1783169456492621600,10.66862158203125,-0.7972259521484375,-0.5899505615234375,0.0897674560546875
1783169456502570800,10.67857080078125,-0.80267333984375,-0.589324951171875,0.0896453857421875
1783169456512549600,10.688549560546875,-0.79425048828125,-0.5952911376953125,0.0932159423828125
1783169456522498600,10.69849853515625,-0.7875518798828125,-0.598236083984375,0.09674072265625
1783169456532447500,10.708447509765625,-0.7902679443359375,-0.59466552734375,0.0979461669921875
1783169456542426600,10.718426513671876,-0.78887939453125,-0.5926666259765625,0.0942535400390625
1783169456552375800,10.728375732421876,-0.783233642578125,-0.590667724609375,0.0941314697265625
1783169456562323500,10.738323486328126,-0.781402587890625,-0.58880615234375,0.0979766845703125
1783169456572273000,10.74827294921875,-0.7851409912109375,-0.5880279541015625,0.0952606201171875
1783169456582251800,10.758251708984375,-0.785980224609375,-0.588348388671875,0.0929107666015625
1783169456592200700,10.76820068359375,-0.7854461669921875,-0.5884246826171875,0.091888427734375
1783169456602149600,10.778149658203125,-0.7859649658203125,-0.5887603759765625,0.0912933349609375
1783169456612098800,10.788098876953125,-0.7856903076171875,-0.587799072265625,0.0898895263671875
1783169456622077700,10.79807763671875,-0.7870941162109375,-0.58642578125,0.0877838134765625
1783169456632025600,10.808025634765626,-0.794097900390625,-0.5840301513671875,0.085205078125
1783169456641974800,10.817974853515626,-0.7946929931640625,-0.580291748046875,0.0859832763671875
1783169456651953700,10.82795361328125,-0.7933502197265625,-0.5786285400390625,0.087554931640625
1783169456661902600,10.837902587890625,-0.7931671142578125,-0.5780487060546875,0.088653564453125
1783169456671851500,10.8478515625,-0.7953338623046875,-0.577972412109375,0.0900726318359375
1783169456681800700,10.85780078125,-0.7947998046875,-0.580078125,0.0913543701171875
1783169456691779600,10.867779541015626,-0.7944793701171875,-0.5825958251953125,0.093414306640625
1783169456701728500,10.877728515625,-0.798736572265625,-0.5831298828125,0.0904541015625
1783169456711676700,10.8876767578125,-0.7955780029296875,-0.583099365234375,0.08685302734375
1783169456721625600,10.89762548828125,-0.7951202392578125,-0.5813751220703125,0.0863037109375
1783169456731604500,10.9076044921875,-0.79888916015625,-0.5835723876953125,0.0847625732421875
1783169456741553700,10.9175537109375,-0.798736572265625,-0.5860443115234375,0.083892822265625
1783169456751502800,10.9275029296875,-0.80352783203125,-0.5862579345703125,0.084503173828125
1783169456761481700,10.937481689453126,-0.8046112060546875,-0.58575439453125,0.0838775634765625
1783169456771430700,10.9474306640625,-0.7988739013671875,-0.5865936279296875,0.0810546875
1783169456781379600,10.957379638671876,-0.7972869873046875,-0.58758544921875,0.07843017578125
1783169456791327700,10.96732763671875,-0.79876708984375,-0.58673095703125,0.0777740478515625
1783169456801306600,10.977306640625,-0.7978363037109375,-0.587738037109375,0.0777130126953125
1783169456811255800,10.987255859375,-0.7971954345703125,-0.5893096923828125,0.0769195556640625
1783169456821204700,10.997204833984375,-0.79718017578125,-0.588531494140625,0.0748443603515625
1783169456831153700,11.007153564453125,-0.7913970947265625,-0.58734130859375,0.075408935546875
1783169456841132500,11.017132568359376,-0.791015625,-0.5860137939453125,0.0759429931640625
1783169456851081700,11.027081787109376,-0.7917938232421875,-0.585540771484375,0.07647705078125
1783169456861029600,11.037029541015626,-0.7920684814453125,-0.5877532958984375,0.0758514404296875
1783169456871009500,11.047009521484375,-0.7928314208984375,-0.5878448486328125,0.074371337890625
1783169456880957700,11.056957763671875,-0.7928619384765625,-0.5871124267578125,0.0751190185546875
1783169456890906600,11.06690673828125,-0.7897186279296875,-0.588287353515625,0.07830810546875
1783169456900855800,11.076855712890625,-0.78973388671875,-0.5879669189453125,0.0802001953125
1783169456910834700,11.086834716796876,-0.7942352294921875,-0.5876312255859375,0.082489013671875
1783169456920784000,11.096783935546876,-0.79437255859375,-0.58843994140625,0.0833587646484375
1783169456930732800,11.10673291015625,-0.7936859130859375,-0.5851898193359375,0.08514404296875
1783169456940680700,11.1166806640625,-0.793670654296875,-0.5840606689453125,0.0867156982421875
1783169456950660600,11.12666064453125,-0.794464111328125,-0.58245849609375,0.086090087890625
1783169456960608800,11.13660888671875,-0.7948455810546875,-0.581085205078125,0.086700439453125
1783169456970557700,11.1465576171875,-0.79638671875,-0.5837249755859375,0.0823516845703125
1783169456980536600,11.15653662109375,-0.7962799072265625,-0.5810699462890625,0.0814666748046875
1783169456990485800,11.16648583984375,-0.7996673583984375,-0.5781097412109375,0.081146240234375
1783169457000434700,11.1764345703125,-0.7984466552734375,-0.57305908203125,0.08575439453125
1783169457010382600,11.186382568359376,-0.8009796142578125,-0.567474365234375,0.091217041015625
1783169457020362500,11.196362548828125,-0.8033599853515625,-0.5640106201171875,0.09393310546875
1783169457030310700,11.206310546875,-0.8075714111328125,-0.5644989013671875,0.087005615234375
1783169457040259600,11.216259521484375,-0.8099212646484375,-0.5693206787109375,0.084014892578125
1783169457050208500,11.22620849609375,-0.8073883056640625,-0.5675048828125,0.102081298828125
1783169457060187600,11.236187744140626,-0.806671142578125,-0.563201904296875,0.0908355712890625
1783169457070136800,11.24613671875,-0.8100128173828125,-0.5659637451171875,0.073760986328125
1783169457080085800,11.256085693359376,-0.8128509521484375,-0.5724639892578125,0.06561279296875
1783169457090064600,11.266064697265625,-0.80859375,-0.5768585205078125,0.0622100830078125
1783169457100013800,11.276013916015625,-0.8058319091796875,-0.58087158203125,0.0599212646484375
1783169457109961700,11.285961669921875,-0.8078155517578125,-0.58514404296875,0.0557403564453125
1783169457119910700,11.29591064453125,-0.8108367919921875,-0.5870513916015625,0.048187255859375
1783169457129889800,11.305889892578126,-0.8070220947265625,-0.585357666015625,0.044464111328125
1783169457139846700,11.3158466796875,-0.8090057373046875,-0.5810089111328125,0.0449676513671875
1783169457149795600,11.325795654296876,-0.8189849853515625,-0.5797271728515625,0.04412841796875
1783169457159743500,11.335743408203125,-0.8223114013671875,-0.583740234375,0.0440216064453125
1783169457169723400,11.345723388671875,-0.818939208984375,-0.5862884521484375,0.0469818115234375
1783169457179671600,11.355671630859375,-0.8134307861328125,-0.58544921875,0.0496063232421875
1783169457189620500,11.365620361328125,-0.80615234375,-0.58734130859375,0.05194091796875
1783169457199599600,11.375599609375,-0.8020782470703125,-0.5911712646484375,0.0543060302734375
1783169457209548500,11.385548583984376,-0.8030853271484375,-0.5951385498046875,0.0560302734375
1783169457219497700,11.395497802734376,-0.800323486328125,-0.5956573486328125,0.05584716796875
1783169457229446700,11.40544677734375,-0.7957763671875,-0.5927734375,0.0540313720703125
1783169457239425500,11.415425537109375,-0.7957305908203125,-0.588836669921875,0.054718017578125
1783169457249374700,11.425374755859375,-0.79754638671875,-0.5860595703125,0.0578460693359375
1783169457259322600,11.435322509765625,-0.795867919921875,-0.5839691162109375,0.057769775390625
1783169457269271600,11.445271484375,-0.7938995361328125,-0.5822906494140625,0.0596923828125
1783169457279250700,11.455250732421876,-0.7897186279296875,-0.58038330078125,0.0640716552734375
1783169457289199600,11.46519970703125,-0.78887939453125,-0.5799560546875,0.0670623779296875
1783169457299148500,11.4751484375,-0.7914276123046875,-0.5823211669921875,0.0669097900390625
1783169457309127700,11.485127685546875,-0.7920684814453125,-0.5838623046875,0.0653533935546875
1783169457319076600,11.49507666015625,-0.7922515869140625,-0.58148193359375,0.0628204345703125
1783169457329024500,11.5050244140625,-0.790618896484375,-0.573760986328125,0.0604095458984375
1783169457338973400,11.514973388671875,-0.7923431396484375,-0.569915771484375,0.0587005615234375
1783169457348952600,11.52495263671875,-0.7992095947265625,-0.572418212890625,0.05865478515625
1783169457358901500,11.534901611328126,-0.79888916015625,-0.5727996826171875,0.0595855712890625
1783169457368850700,11.5448505859375,-0.7969970703125,-0.573211669921875,0.0611572265625
1783169457378799600,11.554799560546876,-0.8012847900390625,-0.575225830078125,0.0626220703125
1783169457388778800,11.56477880859375,-0.804718017578125,-0.576568603515625,0.0639495849609375
1783169457398727700,11.574727783203125,-0.8043365478515625,-0.5771331787109375,0.062347412109375
1783169457408675600,11.584675537109375,-0.80712890625,-0.5731658935546875,0.0619659423828125
1783169457418655700,11.59465576171875,-0.80889892578125,-0.572906494140625,0.0623779296875
1783169457428603600,11.604603759765626,-0.80853271484375,-0.5769805908203125,0.0523529052734375
1783169457438552600,11.614552490234376,-0.810577392578125,-0.5803375244140625,0.0513153076171875
1783169457448501500,11.62450146484375,-0.8068695068359375,-0.585052490234375,0.0520782470703125
1783169457458480600,11.634480712890625,-0.800811767578125,-0.5895843505859375,0.0501251220703125
1783169457468429600,11.6444296875,-0.8007049560546875,-0.5930328369140625,0.0466156005859375
1783169457478377500,11.65437744140625,-0.79718017578125,-0.5956268310546875,0.0410919189453125
1783169457488326700,11.66432666015625,-0.7921142578125,-0.594879150390625,0.0431976318359375
1783169457498305500,11.674305419921875,-0.7936859130859375,-0.5950469970703125,0.0465850830078125
1783169457508254500,11.68425439453125,-0.794158935546875,-0.59716796875,0.0475311279296875
1783169457518203400,11.694203369140626,-0.79498291015625,-0.59954833984375,0.04632568359375
1783169457528182500,11.7041826171875,-0.795074462890625,-0.6008148193359375,0.045166015625
1783169457538131500,11.71413134765625,-0.7972869873046875,-0.601837158203125,0.0495452880859375
1783169457548080600,11.72408056640625,-0.809600830078125,-0.602569580078125,0.0493316650390625
1783169457558028800,11.73402880859375,-0.81622314453125,-0.5990142822265625,0.03729248046875
1783169457568008700,11.7440087890625,-0.777801513671875,-0.5796051025390625,0.029296875
1783169457577956600,11.75395654296875,-0.687896728515625,-0.5507354736328125,0.0778656005859375
1783169457587905500,11.763905517578126,-0.81146240234375,-0.570220947265625,0.0961151123046875
1783169457597854700,11.773854736328126,-0.842041015625,-0.59161376953125,0.054351806640625
1783169457607833600,11.78383349609375,-0.8185882568359375,-0.5827789306640625,0.0515899658203125
1783169457617782500,11.793782470703125,-0.8222503662109375,-0.5757904052734375,0.0532073974609375
1783169457627731500,11.8037314453125,-0.8208770751953125,-0.572296142578125,0.05889892578125
1783169457637710600,11.813710693359376,-0.8307952880859375,-0.572509765625,0.068817138671875
1783169457647658500,11.823658447265625,-0.81573486328125,-0.57904052734375,0.0602874755859375
1783169457657607700,11.833607666015626,-0.77520751953125,-0.5871734619140625,0.0500640869140625
