time,seconds_elapsed,z,y,x
1783169445935893500,0.1118935546875,0.051513329616189,0.05062105695158243,-0.08724135334044694
1783169445945841400,0.12184130859375,0.1256874038517475,0.08056406753361224,-0.06015402445048094
1783169445955790600,0.13179052734375,0.11191022291183471,0.06574672989100218,0.0008733853010460733
1783169445965739500,0.141739501953125,0.09280220233798027,0.03825111246109009,0.025767040071636438
1783169445975718400,0.151718505859375,0.1015150856256485,0.06059387717247009,0.0470624876871705
1783169445985667600,0.16166748046875,0.11487141080498695,0.14745470676273106,0.029534137520194053
1783169445995616500,0.171616455078125,0.11956453705728054,0.20103373673707245,-0.005766929496265947
1783169446005595400,0.181595458984375,0.05753565864562988,0.16538637703359127,0.010546528455615043
1783169446015544300,0.19154443359375,0.013826280778646468,0.10017594597637652,0.0322597630918026
1783169446025492500,0.201492431640625,0.05777940427362919,0.10591448962837458,0.017625380800664423
1783169446035441400,0.21144140625,0.10204057080447673,0.1649316190034151,0.017866349949687717
1783169446045420300,0.221420166015625,0.12273439926505088,0.18205343419611453,-0.002556991006433964
1783169446055369500,0.231369384765625,0.13921791655421256,0.172828217472136,-0.028478527520038186
1783169446065318400,0.241318359375,0.13504969095885752,0.17235943091660738,-0.034211810475029046
1783169446075266300,0.251266357421875,0.12421323964595794,0.18490853136628865,-0.01039002271965146
1783169446085246200,0.26124609375,0.1286678809672594,0.18687457074224947,-0.016569734267890452
1783169446095194400,0.2711943359375,0.14536591778993604,0.20132044472396374,-0.016059738919138908
1783169446105143300,0.281143310546875,0.14028583804666994,0.21653379594683647,-0.017903613220155237
1783169446115122400,0.291122314453125,0.09487783956825732,0.20404811612218618,-0.07615374027807265
1783169446125071600,0.301071533203125,0.047210663986206054,0.16702420736849308,-0.08742489321380853
1783169446135053600,0.311053466796875,0.07772270662784576,0.13692308361530303,-0.1096148054510355
1783169446145002500,0.32100244140625,0.053044776967167855,0.1242629240065813,-0.1239969665467739
1783169446154981600,0.330981689453125,0.050509705531597136,0.10701455982476472,-0.16191168666034936
1783169446164930800,0.340930908203125,0.08956687367856501,0.10495558146834373,-0.1921910895898938
1783169446174878700,0.350878662109375,0.029326632249355316,0.0920052067413926,-0.18546674977093933
1783169446184828000,0.360827880859375,0.03504617893993854,0.06542027441561221,-0.18056334176883101
1783169446194806800,0.370806884765625,0.0914887816518545,0.044892157910764216,-0.17053327493537215
1783169446204755700,0.380755615234375,0.08236381043195724,0.03599164309650659,-0.14999536768887192
1783169446214704600,0.39070458984375,-0.008910451686382293,0.0022708675414323805,-0.1464835601756349
1783169446224683800,0.400683837890625,0.013438158243894577,-0.033951661701500414,-0.13586319929882884
1783169446234632700,0.4106328125,0.0612251608133316,0.0013283259943127632,-0.14819061982184648
1783169446244580900,0.420580810546875,-0.017568974438309667,0.05237257679402828,-0.17092530646026133
1783169446254529800,0.43052978515625,-0.06561959637999534,0.06665449238568544,-0.19906696670874952
1783169446264508700,0.4405087890625,-0.021485855621099472,0.07332914784401655,-0.20975772594064473
1783169446274457600,0.45045751953125,0.024466332736611366,0.11188888786286115,-0.1931469655426219
1783169446284406800,0.46040673828125,0.07382219205796718,0.13702303685843945,-0.1737935919055715
1783169446294355700,0.470355712890625,0.1698597230553627,0.1188879529699683,-0.13556816187500953
1783169446304334600,0.48033447265625,0.2939858689397573,0.091894439843297,-0.06988543713092804
1783169446314283500,0.490283447265625,0.31647593316733835,0.06923954044282436,0.023454379215091466
1783169446324231700,0.500231689453125,0.2558931619107723,0.035305706658959386,0.11151669354960322
1783169446334211800,0.5102119140625,0.2510322778761387,0.005732406172156333,0.12353066420927643
1783169446344159500,0.520159423828125,0.23958850831985473,0.048504210928082464,0.1200510053999722
1783169446354109000,0.53010888671875,0.15491642094552516,0.08918693445026873,0.11897270864397287
1783169446364057900,0.540057861328125,0.060420274171233176,0.07833148617595434,0.10268281423076987
1783169446374036700,0.55003662109375,0.023478490743041036,0.0883110283985734,0.06828618524074553
1783169446383985700,0.559985595703125,0.0490559995919466,0.13259382223933935,0.038959406860917804
1783169446393933800,0.569933837890625,0.08492810796201229,0.16445990983843803,0.039528146659582854
1783169446403882800,0.5798828125,0.08555880708098411,0.17338292874544858,0.04450239140819758
1783169446413861600,0.589861572265625,0.11647533887028694,0.14791092609763146,0.03210939483568072
1783169446423810800,0.599810791015625,0.17550445094406603,0.14610592250227927,0.014836188473552465
1783169446433759700,0.609759765625,0.18995441657900808,0.1544941038802266,0.024780184458754954
1783169446443738600,0.619738525390625,0.19652794975042343,0.1629968515485525,0.030487784983217716
1783169446453687600,0.6296875,0.19837328535616397,0.17779110057651995,0.03433817680105567
1783169446463636700,0.63963671875,0.16363456493020057,0.1966109518587589,0.02490355511009693
1783169446473584600,0.649584716796875,0.14899170707166193,0.20268179620504378,0.024022826752811668
1783169446483564500,0.659564453125,0.11455284637510776,0.18859248057603836,0.047376083680987356
1783169446493512700,0.6695126953125,0.09534136542677879,0.18186054197251797,0.0877878813073039
1783169446503461600,0.679461669921875,0.08511106331348418,0.19218319854438304,0.1181608077391982
1783169446513410800,0.689410888671875,0.03891629837155342,0.19347733000814912,0.11669818784072994
1783169446523389700,0.6993896484375,0.021392332118749618,0.1783165857553482,0.09218830822333693
1783169446533339000,0.7093388671875,0.012732640323042868,0.17982845162302255,0.06439385397732257
1783169446543287800,0.719287841796875,-0.017119477105140685,0.1935053870588541,0.030236842429451644
1783169446553266700,0.7292666015625,-0.04947159465551376,0.16215952394157648,-0.00030132103413343426
1783169446563214800,0.73921484375,-0.062324646487832064,0.08960749794989824,-0.04036068849358707
1783169446573163800,0.749163818359375,-0.07184533902704715,0.02303425410687923,-0.062249243164062495
1783169446583112700,0.75911279296875,-0.06585691226720809,0.0010287585258483885,-0.0849963874252513
1783169446593091800,0.769091796875,-0.0670721332758665,-0.040704058571159836,-0.12519892621506004
1783169446603040800,0.779040771484375,-0.03413958548903465,-0.08380991758704184,-0.18389716236665843
1783169446612989700,0.78898974609375,0.0018961890101432798,-0.08118921369463204,-0.21715284116063266
1783169446622937600,0.7989375,0.012002572482824325,-0.08513736679852009,-0.24602950115278363
1783169446632917800,0.808917724609375,0.006226911690831184,-0.08188216439485549,-0.2754134165473282
1783169446642865700,0.81886572265625,0.02498947982788086,-0.09377250867485999,-0.28126331161931156
1783169446652814600,0.828814697265625,0.0610205781519413,-0.08986877923458814,-0.2758275503061712
1783169446662793700,0.838793701171875,0.10687982752919196,-0.07123217556476592,-0.23570158388391135
1783169446672742700,0.84874267578125,0.13482348098754882,-0.05815817445814609,-0.2227462407208979
1783169446682691800,0.85869189453125,0.16208792001008987,-0.07004705743342637,-0.2356329025618732
1783169446692640800,0.868640869140625,0.19536299762427806,-0.0682446841865778,-0.18121230719685552
1783169446702620000,0.878619873046875,0.21936989615559577,-0.04250117112100124,-0.15479571717530488
1783169446712568800,0.88856884765625,0.22402502848505973,-0.026665304085612296,-0.13353548700362444
1783169446722516700,0.898516845703125,0.18684943630099296,-0.01716945372670889,-0.08108326910212635
1783169446732496000,0.908495849609375,0.19680092147290706,-0.004508417335152626,-0.0321538184992969
1783169446742444800,0.91844482421875,0.1903150665849447,0.053359542004764074,0.020772702383063734
1783169446752393700,0.928393798828125,0.14223638759255408,0.1110737720876932,0.06224208277091384
1783169446762342700,0.9383427734375,0.109492640376091,0.13020692710280418,0.09078399438336492
1783169446772321800,0.94832177734375,0.09627718497216702,0.16382628811001776,0.09942468921765685
1783169446782270700,0.958270751953125,0.06392448289990425,0.20433014793395995,0.11103636268675326
1783169446792218600,0.968218505859375,0.02812251715660095,0.2091337488234043,0.14070377119779587
1783169446802167600,0.97816748046875,0.024707740277051925,0.18697569302916525,0.16638620172590016
1783169446812146700,0.988146728515625,-0.012991583520174026,0.18829437441229818,0.1901400022789836
1783169446822095600,0.998095703125,-0.031768180182576176,0.2056415227934718,0.18094357325807212
1783169446832044500,1.00804443359375,0.0040630116552114485,0.2184317385226488,0.1287501158906147
1783169446842023700,1.018023681640625,0.040462943291664125,0.22832009533047676,0.1061604272134602
1783169446851972900,1.027972900390625,0.04010170876383781,0.20108897405564785,0.10826339084208011
1783169446861921800,1.037921875,0.03242226017713547,0.15040625004470348,0.11554857941418885
1783169446871869700,1.04786962890625,0.09100655109286308,0.11239040764421224,0.11360953764300792
1783169446881849900,1.057849853515625,0.15078560475111008,0.15131284349560736,0.07414937818571925
1783169446891797800,1.0677978515625,0.0786357298195362,0.17716536989361048,0.07449088509976863
1783169446901746700,1.07774658203125,0.05129705651700496,0.12976736664175986,0.09725099844038486
1783169446911695600,1.087695556640625,0.043882980868220324,0.10364040721654891,0.05024155611470341
1783169446921674800,1.0976748046875,0.01680909598171711,0.1257224751651287,-0.008385258768498898
1783169446931623700,1.107623779296875,-0.002905658313632011,0.11350158375650643,-0.027801066649891435
1783169446941571800,1.11757177734375,0.048563832160830496,0.06279869374036788,-0.04059095358550548
1783169446951551700,1.1275517578125,0.07859364424347877,0.04528203401118517,-0.04086640952602029
1783169446961499600,1.137499755859375,0.025252514678239822,0.04875847795009613,-0.07117474628910422
1783169446971448600,1.147448486328125,0.02750993821620941,0.03976736224293709,-0.08845295761991291
1783169446981397500,1.1573974609375,0.020697920113801956,0.03536415884792805,-0.08121244843974709
1783169446991376600,1.167376708984375,-0.014047814574837683,0.017998598027229307,-0.07335764328613877
1783169447001325600,1.17732568359375,-0.061139820617437356,-0.010218027153611182,-0.07459975230172276
1783169447011274800,1.187274658203125,-0.08988134645521641,-0.006192717160284519,-0.0749787051493302
1783169447021223000,1.197222900390625,-0.10791793840527533,0.02569382870495319,-0.0669013067536056
1783169447031202800,1.207202880859375,-0.13282500064671038,0.0412654918462038,-0.08052874049190431
1783169447041150700,1.217150634765625,-0.14199848718345165,0.04922404963523149,-0.10397259831298142
1783169447051100000,1.227099853515625,-0.10504676688313483,0.05443067836761474,-0.12251885681822895
1783169447061078800,1.237078857421875,-0.0951139864116907,0.08925532351136208,-0.11094532340243458
1783169447071027700,1.24702783203125,-0.09779927997291088,0.10479659151434897,-0.09510916410610079
1783169447080976600,1.2569765625,-0.061440264868736265,0.0682055212199688,-0.09239862650576978
1783169447090924800,1.2669248046875,-0.030615503016114234,0.05413987872749567,-0.0718793874271214
1783169447100904700,1.27690478515625,-0.0326081381380558,0.053503042128682135,-0.05854498181864619
1783169447110852600,1.2868525390625,-0.04055705131590366,0.04905483054816723,-0.05710968831852078
1783169447120801800,1.2968017578125,-0.019069442129135132,0.04919160867035389,-0.07170271568596363
1783169447130774300,1.306774169921875,-0.013540449574589728,0.07312690327018499,-0.09311598099488765
1783169447140753200,1.316753173828125,-0.01689443617761135,0.08329378475844859,-0.08876037960126995
1783169447150702300,1.326702392578125,0.0036930092990398403,0.06371639310717582,-0.07298150345012545
1783169447160651300,1.3366513671875,0.01967033063173294,0.05861410153210163,-0.07250482584908605
1783169447170630100,1.346630126953125,0.034714170506596566,0.04703326159268617,-0.0964182008780539
1783169447180579000,1.3565791015625,0.0502495932906866,0.038974750560522076,-0.10413900438845157
1783169447190527200,1.36652734375,0.08661094648241996,0.03917611835151911,-0.08778846582919358
1783169447200476200,1.37647607421875,0.09267302300035953,0.048180385801196095,-0.07326075878292322
1783169447210455300,1.386455322265625,0.07441723534166812,0.03278203340023756,-0.06368395214229822
1783169447220404200,1.396404296875,0.06472469336688517,0.035086510950326916,-0.03211933170780539
1783169447230353200,1.406353271484375,0.03551905714869499,0.06719283704608678,0.0029547581523656843
1783169447240301000,1.416301025390625,-0.0027507600128650663,0.07116203293800354,0.05898717262819409
1783169447250281200,1.42628125,-0.038025487011671064,0.07165069323778152,0.09862827814295887
1783169447260229000,1.43622900390625,-0.08919102610349655,0.11724983037412166,0.1505563260398805
1783169447270178300,1.44617822265625,-0.20079671311080455,0.14704115752577782,0.15721724523380398
1783169447280157400,1.456157470703125,-0.27213001096248624,0.14848697241991757,0.12860548325553536
1783169447290106400,1.4661064453125,-0.31428280703723427,0.16506956616938112,0.11434661974590271
1783169447300055300,1.47605517578125,-0.24596213500499725,0.1734066018819809,0.05914323997274041
1783169447310004200,1.486004150390625,-0.12009586745500564,0.1658732837677002,0.040322073516249654
1783169447319983400,1.4959833984375,-0.15217150615155697,0.1427691792950034,0.07229436143618076
1783169447329932300,1.505932373046875,-0.2741179699093103,0.047585342517495154,0.11147051632031797
1783169447339880200,1.515880126953125,-0.2814092959612608,0.008955167610943317,0.09101604957357048
1783169447349829000,1.5258291015625,-0.20429975279569626,0.1019984852284193,-0.0029005437470972536
1783169447359808300,1.535808349609375,-0.19924422297179697,0.1729617807239294,-0.06900193229466677
1783169447369757200,1.545757080078125,-0.1680775158137083,0.1263227791458368,-0.050089178564585744
1783169447379706000,1.5557060546875,-0.04221767800450325,0.06473053858578205,-0.019560878907889125
1783169447389685200,1.565685302734375,0.1273223115772009,0.08919453323483467,-0.04300020668432116
1783169447399634200,1.57563427734375,0.25483809989988804,0.17946809387803075,-0.01300882691591978
1783169447409582000,1.58558203125,0.3500526240766048,0.2052466782569885,0.08819003236740827
1783169447419531000,1.595531005859375,0.3934814314365387,0.18267390418201684,0.16322700704261658
1783169447429510100,1.60551025390625,0.3234428495705127,0.16825404142439365,0.20279957736581564
1783169447439459300,1.615459228515625,0.28779519760608674,0.16782675592303276,0.15634689214006064
1783169447449408300,1.625408203125,0.32056700187325476,0.19692776272296905,0.06459975181296468
1783169447459357200,1.635357177734375,0.41958091833293437,0.2570043380230665,-0.0062334875620901585
1783169447469336300,1.64533642578125,0.46143443920016286,0.2800280707359314,-0.024538996114023028
1783169447479285200,1.65528515625,0.4498632438719272,0.2203741047620773,-0.02142535760551691
1783169447489233200,1.665233154296875,0.4268395111590624,0.14183862044662238,-0.019245675478875637
1783169447499213300,1.67521337890625,0.3849737153321504,0.11247604010105132,-0.011741766122169792
1783169447509161200,1.6851611328125,0.32482758192718025,0.10276800829619169,-0.0269367049055174
1783169447519110100,1.695110107421875,0.25928455791473387,0.11755261271297932,-0.019000030154734848
1783169447529059000,1.70505908203125,0.2252683065444231,0.1325523211851716,-0.01586059961784631
1783169447539038200,1.7150380859375,0.19692776272296905,0.12085399234592914,-0.019098814354091883
1783169447548987100,1.724987060546875,0.1434948632210493,0.1235202889457345,-0.034843057583272455
1783169447558936000,1.73493603515625,0.07482581614255905,0.09403846613466739,-0.03837985340729356
1783169447568884200,1.74488427734375,0.08103460765480995,0.06913198841512203,-0.020648820275068282
1783169447578863000,1.754863037109375,0.1470803204923868,0.09039455667436122,-0.004914367787539959
1783169447588812000,1.76481201171875,0.1315478203177452,0.11623919202685355,0.01568900591060519
1783169447598761200,1.77476123046875,0.09523205983340739,0.06395896969139575,0.0511062101200223
1783169447608740400,1.784740234375,0.06618132191598415,0.009595219080150126,0.090948646893166
1783169447618689300,1.794689208984375,0.002789338457584381,-0.005322364066541195,0.12133958390578627
1783169447628638200,1.80463818359375,-0.031070261046290397,0.0077013681575655935,0.10316471599619835
1783169447638586400,1.81458642578125,-0.036978023785352705,0.05273731845319271,0.042484512247145174
1783169447648566300,1.824566162109375,-0.014971359160542487,0.0813920427903533,-0.003919548063911498
1783169447658514200,1.83451416015625,0.0025210429102182387,0.08334493042379618,0.010066343723237513
1783169447668463000,1.844463134765625,0.028765491235256194,0.06126899995505809,0.04595174996629357
1783169447678412300,1.854412353515625,-0.028438743498921393,0.04161795854568481,0.08425824587643146
1783169447688391200,1.86439111328125,-0.091375968927145,0.017352116817235946,0.1003350820608437
1783169447698340000,1.874340087890625,-0.05359247397780418,0.032602292919158934,0.09550561607778071
1783169447708289000,1.8842890625,-0.09514555059373378,0.07309972300231456,0.08613675309941173
1783169447718268200,1.89426806640625,-0.11059563318192958,0.09688830260783433,0.06405453902035951
1783169447728217000,1.904217041015625,-0.11771277171075344,0.09730682028084993,0.057185201240144666
1783169447738165200,1.914165283203125,-0.06308803207576275,0.09644435823261738,0.06063640113994479
1783169447748114200,1.9241142578125,0.0029518355429172514,0.0990963340461254,0.07387304546236992
1783169447758093000,1.934093017578125,-0.021810849791765213,0.09821224468797445,0.10410291016176343
1783169447768042200,1.944042236328125,-0.01793137800991535,0.08588555481731891,0.11944792494028807
1783169447777991200,1.9539912109375,0.05476210227906703,0.08834230031967162,0.0942450946226716
1783169447787939300,1.963939208984375,0.109296825543046,0.0720785632610321,0.03594254325777292
1783169447797919200,1.973919189453125,0.12965396939516066,0.0302574833586812,-0.009818360311537981
1783169447807867400,1.983867431640625,0.17756430608332155,-0.033271862743794914,0.0006273381181061267
1783169447817816300,1.99381640625,0.24064123224318026,-0.06833879221081733,-0.01954860394820571
1783169447827795200,2.003795166015625,0.2806055783629417,-0.06452829401195048,-0.0593166968435049
1783169447837744000,2.013744140625,0.39984862838089463,-0.0007703998506069183,-0.056886400956660504
1783169447847693300,2.023693359375,0.47155309763252734,0.06869476604163646,-0.05561024354100227
1783169447857642200,2.033642333984375,0.3300847718030214,0.06480155799537897,-0.13042451537624
1783169447867621000,2.04362109375,0.1401665955811739,0.049517771884799,-0.22321897279918193
1783169447877570000,2.053570068359375,0.08602291746139526,0.10383797561526298,-0.21636296942457556
1783169447887518200,2.063518310546875,0.08620879542231559,0.15720160927325486,-0.15371712815836072
1783169447897467100,2.073467041015625,0.062491235226392744,0.15895312911570073,-0.10404825736507772
1783169447907446300,2.0834462890625,-0.0065092357635498045,0.13303075235188005,-0.09313976372927427
1783169447917395200,2.093395263671875,-0.05670329947471618,0.06441080511212348,-0.0992481636069715
1783169447927344400,2.103344482421875,-0.05219254405200481,0.007977554750442505,-0.059951779876649375
1783169447937323300,2.1133232421875,-0.03756254567503929,0.014278408460319041,-0.04259560793880373
1783169447947272200,2.123272216796875,0.011148001480102539,0.08081833455562591,-0.03661386664807796
1783169447957220400,2.133220458984375,0.0113718733638525,0.09875701908916235,-0.016494951998628674
1783169447967169300,2.143169189453125,-0.008832125753164291,0.05416735125631093,0.006898088950663805
1783169447977148400,2.1531484375,-0.005111059403419494,0.02713350611925125,0.0077810092650353905
1783169447987097300,2.163097412109375,-0.026278935116529463,0.054257659888267515,-0.003527151212841272
1783169447997046300,2.17304638671875,-0.03776303668320179,0.08747340853065252,-0.00013769143763929604
1783169448006995200,2.1829951171875,0.011141571739315986,0.09895254166126251,-0.0005094473594799637
1783169448016974300,2.192974365234375,0.08178338019549847,0.1140609712049365,-0.0009395093398168683
1783169448026923300,2.20292333984375,0.10503449192345142,0.1163265780493617,0.009354651789925991
1783169448036871200,2.21287109375,0.1271130527406931,0.11920330252945423,0.009357026410102843
1783169448046851000,2.22285107421875,0.14361527473032473,0.1304237847238779,0.03664104691594839
1783169448056799200,2.23279931640625,0.16008768610358237,0.1488780175641179,0.050995552819781
1783169448066748200,2.242748046875,0.16989362532496452,0.1466638486459851,0.037497919473610815
1783169448076697000,2.252697021484375,0.09382862277626991,0.13819178837686777,0.0009188684105873108
1783169448086676200,2.26267626953125,0.006781622964143753,0.1313189799979329,-0.06740925627574325
1783169448096625400,2.27262548828125,-0.017029460734128952,0.1392033035069704,-0.11728621686175465
1783169448106573000,2.282572998046875,0.004103343665599822,0.16979484112560747,-0.18573095366507766
1783169448116522200,2.292522216796875,0.07753449057936668,0.2267705278009176,-0.2336300383068621
1783169448126501400,2.30250146484375,0.12859189312160013,0.24462591796517372,-0.24753654471486805
1783169448136480300,2.312480224609375,0.1588099212527275,0.23086598042100667,-0.24444997687637804
1783169448146429400,2.322429443359375,0.13787936142683027,0.24109189862012861,-0.24299378671869634
1783169448156408300,2.332408203125,0.21944003878235815,0.17054741305857896,-0.08299933185651898
1783169448166357500,2.342357421875,0.40683483400642867,0.12109393858164548,0.14411487654922528
1783169448176306400,2.352306396484375,0.4106114299356937,0.1778635812908411,0.12304419586658477
1783169448186254600,2.362254638671875,0.377378437897563,0.2145452524781227,0.08539177995100616
1783169448196234500,2.372234375,0.32438860598802566,0.1529521351352334,0.1503507021988742
1783169448206182400,2.382182373046875,0.2533534143000841,0.049985973918437954,0.23849939790889618
1783169448216131300,2.39213134765625,0.21123627406060694,0.03827449333667755,0.25033669682741166
1783169448226080500,2.40208056640625,0.19392098212242126,0.09108779963552951,0.1881349460668862
1783169448236059400,2.412059326171875,0.18329086703658104,0.09375643432289361,0.161485277941823
1783169448246008300,2.42200830078125,0.15046704032123087,0.04735942480713129,0.1267766421268694
1783169448255956500,2.43195654296875,0.15107435856461524,-0.002480126377940178,0.14381415830329058
1783169448265936400,2.441936279296875,0.09025836307406425,-0.005256897614896297,0.1807921820886433
1783169448275884300,2.45188427734375,0.013666121780872344,0.013352525787055492,0.16407383313030002
1783169448285833500,2.46183349609375,-0.0158726919144392,0.03613017478436231,0.13111847072346136
1783169448295782400,2.471782470703125,-0.063682490837574,0.045234979999065394,0.10804667935147881
1783169448305761300,2.48176123046875,-0.10506313349604605,0.03995236342102289,0.09063945307983085
1783169448315710500,2.49171044921875,-0.10156476998627186,0.051071138806641096,0.07491201485497877
1783169448325659400,2.501659423828125,-0.0693991149187088,0.05108253698348999,0.057240036699920886
1783169448335607600,2.511607666015625,-0.09142682233154774,0.035414427730441095,0.02194017525985837
1783169448345587500,2.52158740234375,-0.12552549128830431,-0.0004053659304976463,-0.017479834850132464
1783169448355535600,2.53153564453125,-0.10633680669367312,-0.03733721248656511,-0.05715951880961656
1783169448365484500,2.541484619140625,-0.05028291103839874,-0.04346212510764599,-0.08236936338990926
1783169448375463400,2.55146337890625,0.033440497308969495,-0.04916179805397987,-0.12359700744375586
1783169448385412400,2.561412353515625,0.05478256054520607,-0.06701864952296019,-0.1273825173318386
1783169448395361500,2.571361572265625,-0.0032557869255542752,-0.1079454109340906,-0.11329787787795066
1783169448405310500,2.581310546875,-0.030147885504364966,-0.13580810811072588,-0.12997735613062977
1783169448415289300,2.591289306640625,-0.04276771310269832,-0.1047062828823924,-0.1667796032239683
1783169448425237500,2.601237548828125,-0.0014782558590173721,-0.057063364958763116,-0.19581718939887358
1783169448435186400,2.6111865234375,0.038996962392330164,-0.0086269585698843,-0.18606266983747483
1783169448445135400,2.62113525390625,0.07723229276239872,0.012088497200608252,-0.17189926605895162
1783169448455114200,2.6311142578125,0.08994447481930255,-0.016348200471699235,-0.12648615301400423
1783169448465063400,2.6410634765625,0.07013268989026546,-0.07708148611485957,-0.08040083979591726
1783169448475012600,2.6510126953125,0.1134486845254898,-0.07677870377600192,-0.03673164780884981
1783169448484991200,2.6609912109375,0.12132160985767841,-0.020299860706925393,-0.010146130961179733
1783169448494940400,2.6709404296875,0.10513912134170532,0.02202127767205238,0.006854542069882154
1783169448504888600,2.680888671875,0.0761959354519844,0.03495996196120977,-0.0033187874254770574
1783169448514837500,2.69083740234375,0.044207975038886065,0.04185089051872492,-0.009375018724519759
1783169448524816600,2.700816650390625,0.04647416640520095,0.0684796619862318,0.0032936347179114817
1783169448534765600,2.710765625,0.02543547002971172,0.09120236592590808,-0.03602598375752568
1783169448544714500,2.720714599609375,0.0043874213039875026,0.10286270084232091,-0.05742343044281006
1783169448554663400,2.730663330078125,-0.041112931632995606,0.1316334527745843,-0.06385170992463826
1783169448564642300,2.740642333984375,-0.022537995022535322,0.1456213538557291,-0.07202171850726008
1783169448574591500,2.750591552734375,-0.02054477537870407,0.17058862185180187,-0.0802213915757835
1783169448584539400,2.760539306640625,-0.06522738219201564,0.17819968137741088,-0.07367693836838006
1783169448594518500,2.7705185546875,-0.05164660060703754,0.14429156655669212,-0.07491731208460405
1783169448604467500,2.780467529296875,-0.05229483538269997,0.10661971528828143,-0.08299713989943265
1783169448614416400,2.79041650390625,-0.014278116199374198,0.07705226002037524,-0.08622486977428197
1783169448624365300,2.800365234375,0.04498772723972797,0.0702700525343418,-0.07629150478094816
1783169448634344400,2.810344482421875,0.04044774572253227,0.060306584663689135,-0.06607523119300604
1783169448644293400,2.82029345703125,0.04074176023304462,0.023885610239207742,-0.08472951664999127
1783169448654241300,2.8302412109375,0.09339081588089465,-0.002257423537969589,-0.0855377642929554
1783169448664190500,2.8401904296875,0.10865385146439074,0.01084638818502426,-0.06166705936193466
1783169448674169600,2.850169677734375,0.11799509578347206,0.026480010646581648,-0.049601796906441446
1783169448684118500,2.860118408203125,0.12150631877481936,0.00270136791318655,-0.058045800124853844
1783169448694067500,2.8700673828125,0.1274479837834835,-0.006292085881531238,-0.04119505695849657
1783169448704046600,2.880046630859375,0.14624737679958344,0.033493104279041286,-0.016571341703087092
1783169448713995500,2.88999560546875,0.16408055513203143,0.06708996119350194,0.011316197653859853
1783169448723944400,2.8999443359375,0.11643208425045012,0.07049684702754021,0.01802358633801341
1783169448733892400,2.909892333984375,0.0143652099609375,0.0657651423305273,-0.0008430266954004764
1783169448743872500,2.91987255859375,0.022216507983207703,0.09258709828257561,0.0065245794631540776
1783169448753820400,2.9298203125,0.010963292562961578,0.1489496214956045,0.013194120354950427
1783169448763769300,2.939769287109375,-0.045047348472476004,0.14358955576717852,0.019690935028344392
1783169448773718300,2.94971826171875,-0.08837678711116313,0.11076426774710416,0.025265812551230192
1783169448783697400,2.959697509765625,-0.04851648588776588,0.12422317651808261,0.026948632805328814
1783169448793646300,2.969646240234375,-0.042291912284493444,0.17052373992204664,0.05941854978278279
1783169448803594200,2.97959423828125,-0.06631634647250174,0.18336802392601967,0.10145910852155647
1783169448813574400,2.989574462890625,-0.02953764465153217,0.16220774699747562,0.13877923287600277
1783169448823522300,2.999522216796875,-0.0473784217685461,0.14686638548076153,0.13394684428349138
1783169448833471500,3.009471435546875,-0.07895663233697414,0.13783376871943473,0.12722002024650572
1783169448843420400,3.01942041015625,-0.10833645607829093,0.12433891185224055,0.12964870869815348
1783169448853399600,3.029399658203125,-0.07720657379925251,0.13290098849236964,0.14061491473740897
1783169448863348500,3.039348388671875,-0.06693067897856235,0.17551818720847367,0.1403700000656303
1783169448873297400,3.04929736328125,-0.08049743203818797,0.18078852882683277,0.10647314642444253
1783169448883245600,3.05924560546875,-0.051392333585023875,0.16809271338284015,0.07344371413439511
1783169448893225500,3.0692255859375,-0.04185118277966976,0.16907617146223783,0.05933510928303003
1783169448903173400,3.07917333984375,-0.01248947921693325,0.14864274750351905,0.07070318325459957
1783169448913122300,3.089122314453125,0.049013914015889164,0.13092413546144963,0.07610825716853141
1783169448923101400,3.099101318359375,0.07591770303249358,0.12181523859351873,0.04957549342140555
1783169448933050400,3.10905029296875,0.09418459660708904,0.09326865080595016,0.022693331714719534
1783169448942999300,3.118999267578125,0.09008709816038608,0.06013473522812128,0.02856426044157706
1783169448952947500,3.128947509765625,0.056985623547434805,0.02122282077074051,0.03995236342102289
1783169448962927400,3.13892724609375,0.02100187149643898,0.02502425888031721,0.013422668413817881
1783169448972875300,3.148875244140625,-0.0063636898130178445,0.05914777001738548,-0.008544102592021227
1783169448982824400,3.158824462890625,-0.03525952942967415,0.09011194034069776,0.004342120857536792
1783169448992773600,3.168773681640625,-0.010433131209015846,0.1023293246179819,-0.0026245124178472905
1783169449002752500,3.17875244140625,0.024055998370051384,0.13611205949336289,-0.01219838731586933
1783169449012701400,3.188701416015625,0.04859188921153545,0.1492810454070568,-0.021006986062973736
1783169449022650400,3.198650390625,0.09286474618017673,0.1502566124409437,-0.0027089666977524757
1783169449032629500,3.20862939453125,0.14236264432072637,0.1449105752378702,0.036072160986810924
1783169449042578400,3.218578369140625,0.12644026804566383,0.15705109488666058,0.054776130804419516
1783169449052526600,3.228526611328125,0.13966215319037437,0.13386311152279376,0.03357975964918732
1783169449062475500,3.2384755859375,0.19755203210115432,0.11067454363703727,0.024432576597481964
1783169449072454400,3.248454345703125,0.24106793322265146,0.13097849599719047,0.018876549905538557
1783169449082403300,3.2584033203125,0.38814942275881764,0.052911798237264156,0.0015589198797941208
1783169449092352500,3.2683525390625,0.5486252313971519,0.017660159853100776,-0.079933222284168
1783169449102300400,3.278300537109375,0.4687660972625017,0.0926937735274434,-0.15391338138282298
1783169449112280300,3.2882802734375,0.28589433242082596,0.10452771144509315,-0.19201850950196384
1783169449122228500,3.298228515625,0.21692659465670586,0.03963058412075043,-0.23788754962086675
1783169449132205000,3.308205078125,0.20049276172816752,0.051961365644633765,-0.2759790876060724
1783169449142184000,3.318183837890625,0.07429740835428238,0.11122253290861844,-0.23706454280018804
1783169449152132900,3.3281328125,-0.08529577223062515,0.14115385305285452,-0.20295564471036195
1783169449162082000,3.33808203125,-0.12428805844783783,0.1253510115042329,-0.19422522576600312
1783169449172031200,3.34803125,-0.1802811638265848,0.13870821346640586,-0.13935367176309227
1783169449182009900,3.358009765625,-0.2893769138395786,0.153801445440948,-0.05735197264179587
1783169449191959000,3.367958984375,-0.3299111688017845,0.11979805355221032,-0.006584200695902109
1783169449201907200,3.3779072265625,-0.29050913273990153,0.09063684099763632,0.017663950112229213
1783169449211856100,3.387856201171875,-0.27732757960557936,0.1099894839823246,0.034061551816761494
1783169449221835300,3.397835205078125,-0.2631763046562671,0.09598317046165465,0.06563903173282742
1783169449231784200,3.4077841796875,-0.22417525061070917,0.04833148470968008,0.0732059598557651
1783169449241733000,3.417733154296875,-0.1707183857113123,0.038292905776202674,0.058863541681948114
1783169449251712000,3.4277119140625,-0.09921323842406272,0.04575286639332771,0.05360387215465307
1783169449261661000,3.437660888671875,0.010118658432364463,0.030368834778666493,0.04920695236995816
1783169449271609000,3.447609130859375,0.09806289934515952,0.025022797575592993,0.05713379984647035
1783169449281558000,3.45755810546875,0.14185060314536094,0.03555938915908336,0.052619240464898756
1783169449291537200,3.467537109375,0.1372866562306881,0.02750467751920223,0.04095116520002484
1783169449301486000,3.477486083984375,0.17813596849143504,0.004557517173886299,0.022371401717397384
1783169449311435000,3.48743505859375,0.24193068753182886,0.01124590889662504,0.02415463187235873
1783169449321384000,3.497384033203125,0.28762393269240855,0.044787236231565476,-0.000803133076429367
1783169449331363000,3.507363037109375,0.2721165669590235,0.049720308719575404,-0.011132365519553423
1783169449341312000,3.51731201171875,0.22491700888872146,0.04318009329587221,0.0002447685413062572
1783169449351260000,3.527260009765625,0.20952479396760462,0.050286710430681704,-0.019226244692620822
1783169449361240000,3.537239990234375,0.18847966785132883,0.09117606244087219,-0.01939429016932845
1783169449371188200,3.547188232421875,0.1291997958868742,0.11892331654429435,-0.029111528193950652
1783169449381137200,3.55713720703125,0.1167424653738737,0.10041326186358929,-0.011745090590417385
1783169449391086000,3.567086181640625,0.15038871438801288,0.10526245546042919,0.02709244345650077
1783169449401065200,3.577065185546875,0.13126140459179877,0.10592471876144409,0.05223682158514857
1783169449411014100,3.58701416015625,0.09681026893556118,0.07873714436739683,0.04589504677641671
1783169449420963000,3.596963134765625,0.0718868400812149,0.07565291461646556,0.016935498840361832
1783169449430911000,3.606910888671875,0.004381576085090637,0.07629413512945175,-0.008515461019426584
1783169449440890000,3.61689013671875,-0.023401918375492093,0.07055237660706043,0.005514964029192924
1783169449450839000,3.626839111328125,-0.01470890883207321,0.04885375501811504,-0.00039046062231063843
1783169449460788000,3.6367880859375,-0.01261456690132618,0.030934651967883108,-0.010617693995684385
1783169449470767000,3.64676708984375,-0.021809680747985838,0.026170798566937443,0.0009673837274312972
1783169449480716000,3.656716064453125,-0.07404080324470996,0.015216858354210853,-0.019141484452039004
1783169449490665000,3.6666650390625,-0.12781214092075824,0.026748890715837477,-0.038717707059532404
1783169449500612900,3.67661279296875,-0.1582470266729593,0.061923664471507066,-0.06700374421477318
1783169449510593000,3.686593017578125,-0.1523439401090145,0.09424363331794738,-0.10193740269094705
1783169449520541000,3.696541015625,-0.097079149004817,0.10956570561230182,-0.1322559685871005
1783169449530490000,3.706489990234375,-0.046340310892462724,0.1377849611416459,-0.13257277945131063
1783169449540439000,3.71643896484375,-0.012882862448692321,0.13033435287475587,-0.11769377474933862
1783169449550418200,3.726418212890625,0.06375847868323326,0.10548018986433744,-0.10981281224116682
1783169449560367000,3.7363671875,0.1372299576073885,0.09828063374906777,-0.12866875775009393
1783169449570316000,3.74631591796875,0.19968086082339287,0.10394289729446173,-0.1397732123494148
1783169449580295200,3.756295166015625,0.3065758859217167,0.12308102074563503,-0.15389277698621154
1783169449590244000,3.766244140625,0.3849193547964096,0.10294482616782188,-0.16838380528390406
1783169449600192000,3.77619189453125,0.37475977983176706,0.09324760801792144,-0.15862988851070403
1783169449610141000,3.786140869140625,0.35715456503629683,0.07059095505177974,-0.14032660844847558
1783169449620120000,3.7961201171875,0.3795236332327127,0.06140548581629991,-0.1517944895327091
1783169449630069000,3.806069091796875,0.386153280505538,0.08181786698698996,-0.15638137893155216
1783169449640018000,3.816017822265625,0.3306166867226362,0.09243161545991897,-0.14293021507561207
1783169449649966000,3.825966064453125,0.3478314408957958,0.04078063093870878,-0.1159026535488665
1783169449659946000,3.835946044921875,0.3363432476758957,0.013173369827866554,-0.07100903433337807
1783169449669894000,3.845893798828125,0.256675252199173,0.014659808993339537,-0.06333426192179321
1783169449679843000,3.855843017578125,0.21834113762974738,0.0044929275050759315,-0.06879325798004865
1783169449689822000,3.865822021484375,0.1999573396772146,-0.0009390344157814979,-0.030966216149926184
1783169449699771100,3.875771240234375,0.10676818384826182,0.0001721416965126991,-0.03081935502514243
1783169449709720000,3.885719970703125,0.01910392892062664,-0.0030260698229074476,-0.04300196024999022
1783169449719669000,3.8956689453125,-0.01102291379570961,0.00880903713852167,-0.02309898990616202
1783169449729648000,3.905648193359375,-0.10359247642159461,0.022538579544425008,-0.0027044366531074047
1783169449739597000,3.91559716796875,-0.17604747177958488,0.02736439226567745,0.004549333867430686
1783169449749545200,3.925545166015625,-0.18843524418771265,0.007664251017570495,0.040216275054216384
1783169449759494100,3.935494140625,-0.2079962692260742,0.02063186914026737,0.07136734625175595
1783169449769473000,3.94547314453125,-0.23372809185385704,0.04495382497012615,0.07765987052470445
1783169449779422000,3.955421875,-0.24673662650883196,0.06323591611385346,0.07476531812697648
1783169449789371100,3.96537109375,-0.27625147480666634,0.0702139384329319,0.06540478458553552
1783169449799350000,3.97535009765625,-0.26136954749524594,0.07800912235379219,0.050936114250123496
1783169449809299000,3.985298828125,-0.1839016924113035,0.0995735961690545,0.05687821765020489
1783169449819247000,3.9952470703125,-0.10938216573894023,0.10529138929396867,0.030962416757643222
1783169449829196000,4.005196044921875,-0.05858955161273479,0.07748919013291597,-0.0023554770849645136
1783169449839175000,4.0151748046875,0.03593757482171058,0.07601414914429187,0.0027316169209778305
1783169449849123800,4.025123779296875,0.12815700883567333,0.1065714922323823,0.012942629811912774
1783169449859073300,4.0350732421875,0.18624562518894672,0.11998568507879971,-0.0065077750296477456
1783169449869022200,4.045022216796875,0.22976678700745104,0.09608926118463278,-0.048303573789447544
1783169449879001000,4.0550009765625,0.2961217119246721,0.09427899689227343,-0.08160100936591624
1783169449888950000,4.064949951171875,0.3424585156857967,0.12704349463582038,-0.06601107991561293
1783169449898898200,4.074898193359375,0.3545405831456184,0.13659312100857496,-0.06069017715379595
1783169449908878000,4.084878173828125,0.36788463336527344,0.12171762343794107,-0.07064385428279638
1783169449918826000,4.094825927734375,0.3069312752306461,0.14526070384979248,-0.04676876543760299
1783169449928775200,4.104775146484375,0.26224808389544485,0.1392161629885435,-0.04562324866428971
1783169449938724000,4.11472412109375,0.24171850608587264,0.11817220591604709,-0.08576412039473652
1783169449948703000,4.124702880859375,0.19863222855329513,0.09518237547278403,-0.11894260576665401
1783169449958652000,4.13465185546875,0.1664437771320343,0.08913841913342475,-0.14409326750561594
1783169449968600000,4.14460009765625,0.17908990821540355,0.09328881681114434,-0.15631927348077296
1783169449978549000,4.154549072265625,0.18626491441130638,0.08643734348118305,-0.16005787548720835
1783169449988528000,4.164528076171875,0.182194303971529,0.04322831635177135,-0.1578432681776583
1783169449998477000,4.17447705078125,0.16121873596012593,0.011119652168452739,-0.13724515517652033
1783169450008426000,4.184426025390625,0.10045476291775703,-0.0030731238350272176,-0.09952435019984841
1783169450018404900,4.19440478515625,0.0714385117918253,-0.011756781028211117,-0.06998232163414358
1783169450028354000,4.20435400390625,0.0046446109354496,-0.002500584644079208,-0.053662908865511415
1783169450038303200,4.21430322265625,-0.0989835213214159,0.02808335418999195,0.002801759547740221
1783169450048251100,4.224251220703125,-0.1659633001387119,0.04219020547568798,0.06740589527487754
1783169450058231000,4.23423095703125,-0.1923246528416872,0.0794572753354907,0.11250044388994573
1783169450068179200,4.24417919921875,-0.23748013786375521,0.12017448564916848,0.14645619724467396
1783169450078128000,4.254128173828125,-0.2538116794615984,0.1368207922846079,0.18135683023408053
1783169450088077000,4.2640771484375,-0.2917360441863537,0.13121814997196196,0.21168533300235867
1783169450098056200,4.27405615234375,-0.2897732196807861,0.1163683713644743,0.23570246066674588
1783169450108005000,4.284005126953125,-0.29081366864442826,0.13974632434248924,0.2291549387194216
1783169450117953000,4.293953125,-0.2797013229995966,0.17366729864478112,0.1985692463196814
1783169450127933000,4.303932861328125,-0.2212123091518879,0.16737112111002206,0.15507497250810265
1783169450137884200,4.31388427734375,-0.18660569067299365,0.1442664321154356,0.10758008475303649
1783169450147833000,4.3238330078125,-0.15029811349511146,0.12537234655320645,0.07851780252829194
1783169450157782000,4.333781982421875,-0.04505494725704193,0.12328852601647376,0.04662848018407821
1783169450167761200,4.34376123046875,0.08511573948860168,0.13638941513001918,0.03746858378127217
1783169450177710000,4.3537099609375,0.17677870866358278,0.1625628440454602,0.025907613019528798
1783169450187659300,4.3636591796875,0.25898469818532466,0.13032295469790697,0.0007962603776482865
1783169450197607200,4.373607177734375,0.2902852608561516,0.10701923599988221,0.006488334539416246
1783169450207587300,4.38358740234375,0.25915771666467186,0.09831541280150413,-0.017805851934105155
1783169450217535200,4.39353515625,0.23117080858647823,0.1026323992177844,-0.04716521740928292
1783169450227484200,4.403484130859375,0.215708451038599,0.1316688163489103,-0.07575067590251565
1783169450237463300,4.41346337890625,0.20229718080163,0.14246844278275966,-0.09406842288151383
1783169450247412200,4.423412109375,0.20061784941256045,0.13114800734519957,-0.09853840790241956
1783169450257361200,4.433361083984375,0.17796061192452906,0.1573003934726119,-0.09884849676489829
1783169450267310000,4.44331005859375,0.1548749198913574,0.14970599282085895,-0.08431070671603083
1783169450277289200,4.453289306640625,0.13671324025690554,0.11176759957075118,-0.07319647050821222
1783169450287237000,4.463237060546875,0.05950783550143242,0.07996259450912475,-0.07390709386244416
1783169450297186000,4.47318603515625,0.0021066168904304503,0.08357552430927753,-0.10368570766299963
1783169450307135200,4.48313525390625,-0.0013210194706916808,0.09797872819304465,-0.13602218925282358
1783169450317114000,4.493114013671875,0.04098141420781612,0.1057803418546915,-0.13668708290234208
1783169450327063000,4.50306298828125,0.07367547706365585,0.11887480122745037,-0.10129735122174024
1783169450337012200,4.51301220703125,0.05109422742128372,0.1335021692559123,-0.07327712539583445
1783169450346991000,4.5229912109375,0.025390461844205854,0.1161868773177266,-0.066883771096915
1783169450356940300,4.532940185546875,0.01717149955332279,0.11256371838450431,-0.018799246885627507
1783169450366888200,4.54288818359375,0.0198158765822649,0.1180818972840905,0.011055642454954795
1783169450376837400,4.55283740234375,0.02916296612024307,0.11852204226702451,-0.016760580664873122
1783169450386816300,4.562816162109375,0.03644727790951729,0.1396995625913143,-0.04725830252021551
1783169450396765200,4.57276513671875,0.01914192284345627,0.14503449387848377,-0.03172054164856672
1783169450406714000,4.582714111328125,0.03888122705817222,0.12366904976665972,-0.01807064035013318
1783169450416663300,4.592663330078125,0.07147767475843429,0.10254355189055203,-0.006375823208806104
1783169450426642200,4.60264208984375,0.09764496619403362,0.07474427533894777,-0.016400373616931026
1783169450436591000,4.612591064453125,0.11444412530362605,0.06104921972453594,0.00044510885241907087
1783169450446539300,4.622539306640625,0.09388707496523857,0.05024696294218301,0.029853140341490506
1783169450456518100,4.63251806640625,0.04772095159590244,0.04628536583483219,0.043778935971856114
1783169450466467000,4.642467041015625,0.019192776247859,0.03426876482665538,0.04257773892197292
1783169450476416000,4.652416015625,0.03771276780068874,0.03793956229388713,0.03584010579660535
1783169450486365200,4.662365234375,0.04037117335498333,0.05489654231369495,0.004804039280861616
1783169450496344000,4.672343994140625,0.04850304188430309,0.08795563908964395,0.028377948655816724
1783169450506293000,4.68229296875,0.02014379336237907,0.10467004252523184,0.06580825081989168
1783169450516241200,4.6922412109375,0.03718377549052238,0.11149170523881911,0.09182371269464493
1783169450526190300,4.7021904296875,0.024169980138540267,0.1453372762173414,0.0893716433674097
1783169450536169200,4.712169189453125,0.00907528685927391,0.156056238630414,0.09107143302261829
1783169450546118100,4.7221181640625,0.03581131809353828,0.15432985322922468,0.09062953447401523
1783169450556067300,4.7320673828125,0.05213000020980835,0.150304543235898,0.10155980155020952
1783169450566046200,4.742046142578125,0.058383215385675424,0.12697978174984453,0.0739417267844081
1783169450575995100,4.7519951171875,0.09757891522049904,0.12550327945649623,0.05438683922588825
1783169450585944000,4.761944091796875,0.08920505462884902,0.14634090030193328,0.047831133972108364
1783169450595892200,4.771892333984375,0.07880933282077313,0.13010054411888122,0.011610504425317048
1783169450605872000,4.7818720703125,0.08377426175177097,0.1033297338321805,-0.025729489106801336
1783169450615820300,4.7918203125,0.05869535007476806,0.10160042582154273,-0.05531725194379687
1783169450625769200,4.801769287109375,0.06508943502604961,0.09233400030434132,-0.09528934297859668
1783169450635718100,4.81171826171875,0.1046644895672798,0.08122107013761996,-0.11232888671532272
1783169450645697000,4.821697021484375,0.10791618483960629,0.062007835623621936,-0.1011316392660141
1783169450655646200,4.831646240234375,0.08965104483067989,0.01862812810242176,-0.10279942634776235
1783169450665594000,4.841593994140625,0.07123451365232467,-0.00951835445165634,-0.13991905056089163
1783169450675574000,4.851573974609375,0.06459142237603664,-0.02439385202229023,-0.17059505159258842
1783169450685522200,4.861522216796875,0.06931494376659393,-0.021637246790528294,-0.17045564312189818
1783169450695471400,4.871471435546875,0.09326397463083266,-0.03022650369852781,-0.17897578031644223
1783169450705420300,4.881420166015625,0.09924714069366454,-0.06608049189001321,-0.17594152718707917
1783169450715399200,4.891399169921875,0.046342648980021474,-0.0906219356894493,-0.14368950901031494
1783169450725348400,4.901348388671875,0.025420856982469556,-0.11819149513840675,-0.1344729139842093
1783169450735297300,4.91129736328125,-0.030653496938943862,-0.10474281550049781,-0.14734715473502874
1783169450745276200,4.921276123046875,-0.11826572941839694,-0.050718672107160086,-0.19153072598502038
1783169450755225000,4.93122509765625,-0.13490999022722244,-0.010632160912454128,-0.21863953605443237
1783169450765173200,4.94117333984375,-0.13979425513744353,0.01717325311899185,-0.22097134000286459
1783169450775122200,4.9511220703125,-0.15078326666355132,0.05057751007080078,-0.17783216323927042
1783169450785101000,4.96110107421875,-0.17912088787555694,0.05457096362113952,-0.12350640655085443
1783169450795050200,4.97105029296875,-0.12987725675702094,0.04636807568222284,-0.08118161491006612
1783169450804999200,4.980999267578125,-0.10210136108100414,0.07276771456897259,-0.04742854452058673
1783169450814947000,4.990947021484375,-0.030465865412354468,0.0730108756750822,-0.023087007207423446
1783169450824927000,5.000927001953125,0.05972761573195457,0.10138824437558651,0.004881196170300245
1783169450834875100,5.010875244140625,0.0817161601781845,0.11342267330139874,0.0013897007927298544
1783169450844824000,5.020823974609375,0.07290683077871798,0.10105243654996156,-0.010873577586049213
1783169450854803200,5.03080322265625,0.09024375002682208,0.09587328034639359,-0.008261340127885342
1783169450864752400,5.04075244140625,0.22745617197751997,0.14409867433309553,0.04362009214833378
1783169450874701300,5.050701416015625,0.20644728621840475,0.21770283972620963,0.07693783986046909
1783169450884650200,5.060650146484375,0.12933482044339178,0.18228315129876135,0.056532180691510434
1783169450894629000,5.070629150390625,0.16940730311274527,0.13340952253639698,0.0982815105319023
1783169450904578300,5.080578369140625,0.22373627467155455,0.17177227867841718,0.13809928778782485
1783169450914526200,5.090526123046875,0.19440613529086112,0.24659692577719686,0.1437899006448686
1783169450924475100,5.10047509765625,0.1850479398369789,0.22364041308164595,0.138594231697917
1783169450934454300,5.110454345703125,0.19311375739276407,0.1643511887669563,0.12970000049397348
1783169450944403200,5.1204033203125,0.2093470993131399,0.16008476349413395,0.14444177954918705
1783169450954352000,5.13035205078125,0.2331581830114126,0.16878244921267033,0.15115209997594356
1783169450964331300,5.140331298828125,0.25361761819422246,0.11591419785618781,0.19065847319513557
1783169450974280200,5.1502802734375,0.2634030991494655,0.05278466472625732,0.2571707806311548
1783169450984228000,5.16022802734375,0.22096680995821952,0.03386310663521289,0.26615400529280303
1783169450994177000,5.170177001953125,0.11035773277282714,0.01703647499680519,0.26299685643613335
1783169451004156200,5.18015625,0.02503331896960735,0.004174655336141586,0.24482056375443934
1783169451014105000,5.19010498046875,-0.07116203293800354,0.002286649632453918,0.1857148793131113
1783169451024054300,5.20005419921875,-0.16076923862695694,0.012718027275800705,0.1281271982192993
1783169451034003200,5.210003173828125,-0.24297698171436785,0.015692951433360577,0.07458527625179849
1783169451043982300,5.219982421875,-0.31826340110599993,0.020313304710388183,0.0317170345172286
1783169451053931300,5.22993115234375,-0.36310616691708564,0.029282208585739135,-0.007675941455364227
1783169451063879200,5.239879150390625,-0.3613005787998438,0.0355927069067955,-0.011149462784826755
1783169451073859300,5.249859375,-0.33684067580401894,0.03998158951550722,-0.021500039410078896
1783169451083807200,5.25980712890625,-0.30071956110894676,0.05562485658824443,-0.024728344673663378
1783169451093756200,5.269756103515625,-0.31238954063653945,0.07153554242551326,-0.013671382477879523
1783169451103705000,5.279705078125,-0.2687912219285965,0.058580199262499806,-0.05100874109491706
1783169451113684200,5.289684326171875,-0.17299802108108997,0.079167644739151,-0.10272929285415448
1783169451123633200,5.299633056640625,-0.10369242966473102,0.12838204976320267,-0.15534823649153112
1783169451133612000,5.309612060546875,-0.09122457775771617,0.14146715678572655,-0.20186565751656887
1783169451143561200,5.319561279296875,-0.026088380980491637,0.11120996568799019,-0.23317075023204087
1783169451153540000,5.3295400390625,0.0980553005605936,0.10041033925414085,-0.24368469159230588
1783169451163489000,5.339489013671875,0.23234102140963075,0.1297013156682253,-0.22024624059870837
1783169451173438000,5.34943798828125,0.3308569252192974,0.14405775780081748,-0.1831083500765264
1783169451183417000,5.3594169921875,0.3819412157684564,0.10128712208867073,-0.14838804209008813
1783169451193366300,5.3693662109375,0.35156302863955496,0.04085983365476131,-0.11839125549420713
1783169451203315200,5.379315185546875,0.3243050193578005,0.020443068569898606,-0.12435425555184483
1783169451213263400,5.389263427734375,0.360867448079586,0.05670739112794399,-0.16308379917964339
1783169451223243300,5.3992431640625,0.3373275825381279,0.08560381526648998,-0.22191958063840864
1783169451233191200,5.409191162109375,0.3634983811050653,0.0850321528583765,-0.2783049002051353
1783169451243140000,5.41914013671875,0.42575346948802467,0.07090016713142394,-0.2920587002694607
1783169451253089300,5.42908935546875,0.480904863345623,0.05890870056450367,-0.3004097645074129
1783169451263068200,5.439068115234375,0.5665110166996717,0.03774257841706276,-0.25289865626990793
1783169451273017000,5.44901708984375,0.6178267779171467,0.0023906945288181304,-0.17323241435885428
1783169451282966000,5.458966064453125,0.5950730943173169,-0.025564649367332458,-0.07030293189063667
1783169451292945200,5.468945068359375,0.5467728815287352,-0.026813188123703,0.009184437189018353
1783169451302893000,5.47889306640625,0.4782423661381006,-0.016436171016097068,0.06629997985959053
1783169451312842200,5.48884228515625,0.3862304373949766,0.0019335984110832214,0.11143661405071616
1783169451322791200,5.498791259765625,0.22815409111380575,-0.0017938976794481276,0.1459264742821455
1783169451332770000,5.50877001953125,0.08920096297562122,-0.02047463275194168,0.1690355471909046
1783169451342719000,5.518718994140625,-0.06762859811484813,-0.02294599130153656,0.16800401218608021
1783169451352668200,5.528668212890625,-0.2651075649797916,-0.029805940198898314,0.14944193505719303
1783169451362616000,5.538615966796875,-0.3131231156080961,-0.05774784009158611,0.13238237144574522
1783169451372596200,5.54859619140625,-0.23348843787908552,-0.033055297383666034,0.11533230631500482
1783169451382544400,5.55854443359375,-0.352943084821105,0.037601124119758605,0.10785291034504771
1783169451392493300,5.568493408203125,-0.48244566304683684,0.02401858896911144,0.06393880368620157
1783169451402472200,5.57847216796875,-0.4312999976992607,-0.01314823538661003,0.0161035780608654
1783169451412421000,5.588421142578125,-0.3618815935581922,0.012147533911466597,-0.016353607299178837
1783169451422370300,5.598370361328125,-0.2715998496085405,0.05567161833941936,-0.02198196857497096
1783169451432319200,5.6083193359375,-0.13804653468728065,0.037482466176152224,-0.05625833218619227
1783169451442298000,5.618298095703125,-0.03609890286326408,0.007747837647795677,-0.05492401484251022
1783169451452247000,5.6282470703125,0.021419804647564888,-0.017260931402444838,-0.021224574336409566
1783169451462195200,5.6381953125,0.09830372236371039,-0.055227966225147244,-0.029207535914331673
1783169451472144100,5.64814404296875,0.21055179892778395,-0.05164776965081692,-0.033998569583147766
1783169451482123300,5.658123291015625,0.2941355065435171,-0.00386252064704895,-0.04514204101860523
1783169451492072200,5.668072265625,0.3572445814073086,0.019008651852607725,-0.055040919220447536
1783169451502021000,5.678021240234375,0.391026439499855,0.0031961656928062437,-0.07699426448913291
1783169451512000000,5.688,0.4083247803032398,-0.030267712491750715,-0.07838672349452971
1783169451521949200,5.69794921875,0.39215105961561203,-0.03702127840518951,-0.0822676565811038
1783169451531897000,5.70789697265625,0.3379284710407257,-0.03774433198273182,-0.08526391578763723
1783169451541846300,5.71784619140625,0.2957821047067642,-0.04647124379575252,-0.1186029985487461
1783169451551825400,5.727825439453125,0.2623673263609409,-0.028733927053213117,-0.1443622937053442
1783169451561774300,5.7377744140625,0.22973113117218016,0.006162029761075973,-0.15907575084837153
1783169451571723300,5.74772314453125,0.2535667647898197,0.035925299862027166,-0.151547693431098
1783169451581672200,5.757672119140625,0.2448568041115999,0.0781435623884201,-0.09841361247897147
1783169451591651300,5.7676513671875,0.1813409020125866,0.12323825713396072,-0.03945464303195476
1783169451601600300,5.777600341796875,0.13845570001006124,0.1532721608698368,-0.026617081029713153
1783169451611548200,5.787548095703125,0.09005436493456363,0.1834673926472664,-0.023319208528101442
1783169451621528000,5.797528076171875,0.02074994256198406,0.20821780302226542,-0.018211217864602804
1783169451631476200,5.807476318359375,-0.045936406266689295,0.19066285710930822,-0.020383465603459626
1783169451641425200,5.817425048828125,-0.03564180674552917,0.19017887298464775,-0.004229892654716968
1783169451651374000,5.8273740234375,0.025129765081405638,0.21584522916078566,0.002026537391543388
1783169451661353200,5.837353271484375,0.052283729466795915,0.1957832688629627,0.00010696750581264495
1783169451671302100,5.84730224609375,0.12924480407238007,0.12352116572856903,0.002424012276530266
1783169451681250000,5.85725,0.19123218142986295,0.07463467748463154,0.022623335218429564
1783169451691199000,5.867198974609375,0.20052958660721779,0.077328738874197,0.028006179034244266
1783169451701178000,5.87717822265625,0.22555472227036952,0.05411386750340461,0.02540799750089645
1783169451711127300,5.887127197265625,0.25485095938146113,0.01377484285235405,0.03569792084693908
1783169451721076200,5.897076171875,0.2109644713819027,-0.03998538890779018,0.04764218727126717
1783169451731055400,5.907055419921875,0.10896364806592464,-0.06827800193428993,0.07549304787963629
1783169451741004300,5.91700439453125,0.02381517535150051,-0.08029051128923892,0.0911255012974143
1783169451750953200,5.926953125,-0.027060440883040427,-0.07201485037505627,0.05951645719930529
1783169451760901000,5.936901123046875,-0.09177344381213187,-0.05860182657241821,0.020039894596487282
1783169451770881300,5.94688134765625,-0.12389467521607875,-0.04549918389320373,-0.006210417213756591
1783169451780829200,5.9568291015625,-0.11602058084011077,-0.030025135907530785,-0.022985008137673138
1783169451790778000,5.966778076171875,-0.08287351351976394,-0.01481003111898899,-0.003393441830575466
1783169451800727000,5.97672705078125,-0.10984919872879981,-0.00539747512936592,0.01671060404330492
1783169451810706200,5.9867060546875,-0.18649696960151194,0.016387071177363394,0.02608063606545329
1783169451820655000,5.996655029296875,-0.24104805947840213,0.029856793603301048,-0.0010486322700977325
1783169451830603000,6.00660302734375,-0.1724386336326599,0.05964987432062625,-0.05526201462522149
1783169451840583200,6.016583251953125,-0.11214403166770934,0.11613865426182746,-0.0699655166298151
1783169451850531000,6.026531005859375,-0.0752197838962078,0.12255085939168929,-0.06271919876337051
1783169451860480000,6.03647998046875,0.024746903243660925,0.11542436851263045,-0.04079042168036103
1783169451870429200,6.04642919921875,0.11571721397936344,0.1477694718003273,0.0011230126805603503
1783169451880408300,6.056408203125,0.20423311730027197,0.15064298141002655,0.015421002624183892
1783169451890357200,6.066357177734375,0.24699790779352188,0.13037351584136486,0.05702157164365053
1783169451900306200,6.07630615234375,0.15085165572464465,0.11283201393187045,0.06778479332355782
1783169451910254300,6.08625439453125,0.061761167386174196,0.05327858572304248,0.0446281001470983
1783169451920234200,6.096234130859375,0.03963467577397823,-0.005713116949796676,0.03390753029882908
1783169451930182100,6.10618212890625,0.04550210650265216,0.009572130465507507,0.023872586360853165
1783169451940131000,6.116131103515625,0.0195499191224575,0.04956278007030487,-0.006389262645691633
1783169451950110200,6.126110107421875,-0.012033552142977714,0.05622106891572475,-0.0599735533170402
1783169451960059100,6.13605908203125,0.007359130591154098,0.019949732095003128,-0.08908785798996686
1783169451970008000,6.146008056640625,0.03325637291371822,-0.006256137785315513,-0.09436199900060892
1783169451979956200,6.155956298828125,-0.003965981021523475,0.011649521261453627,-0.13172799919024109
1783169451989936000,6.16593603515625,0.005645312410593032,0.010230886635184287,-0.16683233805820344
1783169451999884000,6.175884033203125,0.07243044543862343,0.023242928421497343,-0.2008450822971761
1783169452009833200,6.185833251953125,0.11574877816140651,0.03774199389517307,-0.19000718794586136
1783169452019782100,6.1957822265625,0.1570236223578453,0.06046060618162155,-0.15071122434064746
1783169452029761000,6.205760986328125,0.17127835768163202,0.07867372374236584,-0.11028948984220624
1783169452039710200,6.215710205078125,0.14685644860863684,0.07795125468671321,-0.09259849645942449
1783169452049659100,6.2256591796875,0.08470774320960045,0.0733159961014986,-0.1007695462216623
1783169452059638300,6.23563818359375,-0.019669161587953565,0.0641448476523161,-0.12987111927717923
1783169452069587200,6.245587158203125,-0.07334580671787262,0.06265139422416686,-0.1647926489241421
1783169452079535400,6.255535400390625,-0.09879062909781933,0.0977460884809494,-0.13952932059094308
1783169452089484300,6.265484375,-0.16264146223962306,0.06108487555980682,-0.11356032820641994
1783169452099463200,6.275463134765625,-0.1527367388188839,-0.005908347260951996,-0.13183715865314005
1783169452109412000,6.285412109375,-0.30147067173719405,-0.09713292501866817,-0.1480645092241466
1783169452119361300,6.295361328125,-0.4476251095563173,-0.14221300671696663,-0.16093158958181739
1783169452129309200,6.30530908203125,-0.48706864667236804,-0.13044424299001692,-0.15876491306722162
1783169452139304200,6.31530419921875,-0.41962826460599895,-0.05733925929069519,-0.24052856564894318
1783169452149252000,6.325252197265625,-0.33646190561950207,-0.010247253248095512,-0.2944597700618207
1783169452159201000,6.335200927734375,-0.2610778710722923,-0.029656887117028234,-0.2587653563462198
1783169452169180200,6.34518017578125,-0.2330319262832403,-0.09639701195955276,-0.23480288147851824
1783169452179129000,6.355129150390625,-0.1965770495891571,-0.11724924585223197,-0.2138613618671894
1783169452189078000,6.365078125,-0.20773440341949462,-0.11607318781018257,-0.21827128726392983
1783169452199027000,6.37502685546875,-0.0666454322963953,-0.09689093295633792,-0.2618642356770113
1783169452209006000,6.385006103515625,0.1696282523870468,-0.02937397852241993,-0.24657270465139297
1783169452218955300,6.394955322265625,0.3116705787122249,0.03395838370323181,-0.20905308480262755
1783169452228903200,6.404903076171875,0.43607729510366916,0.005840542721748352,-0.16135887508317828
1783169452238852400,6.414852294921875,0.5602221456885338,-0.043833881029486654,-0.12256079626381397
1783169452248831200,6.424831298828125,0.6204103646695613,-0.08434300155043602,-0.03271631122026592
1783169452258780200,6.4347802734375,0.5341133064419031,-0.10691489884257316,0.05377864419966936
1783169452268729000,6.44472900390625,0.4850865329444408,-0.11306406912207603,0.054988019989430904
1783169452278708200,6.454708251953125,0.5543284114748239,-0.07935469174385071,0.05949570667222142
1783169452288657200,6.4646572265625,0.5612585029989481,-0.03832943839430809,0.05471227178797126
1783169452298606000,6.474606201171875,0.4297586134761572,-0.02547814012765884,0.0364629138700664
1783169452308554200,6.48455419921875,0.2944885577648878,-0.07941782010793685,0.058957617740146816
1783169452318533000,6.494533203125,0.19941198075413702,-0.17023673967421055,0.12721022950485347
1783169452328482000,6.50448193359375,0.08922726646065711,-0.2390501636594534,0.1843742783591151
1783169452338431200,6.51443115234375,-0.017817980763316154,-0.2840010660201311,0.15783899386133998
1783169452348380200,6.524380126953125,-0.12084054834246635,-0.33108079710304733,0.10883735480513423
1783169452358359000,6.534359130859375,-0.20670506037175654,-0.38036826736330986,0.09573178951647132
1783169452368308000,6.544307861328125,-0.23687398866415021,-0.3921253406524658,0.14450429599191994
1783169452378256100,6.554256103515625,-0.3230442056417465,-0.41454935390651226,0.23349998218640683
1783169452388236300,6.564236328125,-0.47124680816233155,-0.44868660130798815,0.30667551037129015
1783169452398184000,6.574183837890625,-0.5870856026947499,-0.43611938067972655,0.3311522549040615
1783169452408133400,6.58413330078125,-0.6750579006582498,-0.3480968138337135,0.3030910760132596
1783169452418082300,6.594082275390625,-0.7510597748428582,-0.25031799212694167,0.23933610446136444
1783169452428061200,6.604061279296875,-0.8560580264091491,-0.1761772356390953,0.20994901072904468
1783169452438010000,6.614010009765625,-0.8272861054331063,-0.11516308722794055,0.19208408555146306
1783169452447959300,6.623959228515625,-0.6824211229026317,-0.04090250375270843,0.17878055000528692
1783169452457907200,6.6339072265625,-0.49371524507999415,0.06090893447101116,0.19326660986691713
1783169452467887000,6.64388720703125,-0.2845037548452616,0.15278350057005882,0.23089739847257731
1783169452477835300,6.653835205078125,-0.09194821585714817,0.18457915328145025,0.23456498106941578
1783169452487784200,6.6637841796875,0.12132745507657527,0.20085341173410415,0.2172287924736738
1783169452497763000,6.67376318359375,0.2581622758865356,0.2321300090074539,0.20996625412479042
1783169452507712000,6.6837119140625,0.18109248020946977,0.2318997073829174,0.16549681513812392
1783169452517661200,6.6936611328125,0.045023383074998855,0.30693069070875645,0.01641848922893405
1783169452527609000,6.703609130859375,0.18390403049886225,0.46050563391745086,-0.11728197907805442
1783169452537589000,6.713589111328125,0.33403613977730273,0.5889052193373442,-0.15852204422205685
1783169452547537200,6.723537109375,0.3300210589170456,0.6007014555931091,-0.11422785220444202
1783169452557486000,6.733486083984375,0.33385727607905863,0.5003916541039943,-0.07667586445603519
1783169452567435300,6.743435302734375,0.4375087892115116,0.4168178833603859,-0.03233805249240249
1783169452577414400,6.753414306640625,0.5482943920075893,0.44039340473711486,0.014821429295837879
1783169452587363300,6.76336328125,0.5352051933318376,0.47243689472973344,0.01999240219295025
1783169452597312300,6.773312255859375,0.5052081144750118,0.4483557619184255,-0.004081716355681419
1783169452607291100,6.783291015625,0.5110118323177099,0.4448381091862917,-0.04830287966970354
1783169452617240000,6.793239990234375,0.547561986079812,0.475779775416851,-0.10009853335861116
1783169452627188200,6.803188232421875,0.4630132328242063,0.47775955105721946,-0.12002897623125464
1783169452637137200,6.81313720703125,0.38656770652532574,0.4295078535854816,-0.13186083178967237
1783169452647116300,6.8231162109375,0.4155535625129938,0.3885656023442745,-0.10501666400581598
1783169452657065200,6.833065185546875,0.37123219022750853,0.39776246975660323,-0.10990998900532722
1783169452667014100,6.84301416015625,0.3165536745786667,0.37615912523567674,-0.12185440156012772
1783169452676962000,6.852962158203125,0.3251858938455581,0.3699573479861021,-0.11170037955343723
1783169452686942200,6.862942138671875,0.37367724529206753,0.4000117099881172,-0.07436462837159633
1783169452696890000,6.87289013671875,0.3207037799954414,0.45056759274899955,-0.004941255794465541
1783169452706839000,6.882839111328125,0.172138189381361,0.43430327116847034,0.018581658612191677
1783169452716818200,6.892818115234375,0.07776303863823414,0.36450843493044377,0.0030190555602312087
1783169452726767000,6.90276708984375,0.05222878440916538,0.3457973047196865,0.014874017999600617
1783169452736716300,6.91271630859375,-0.0011719663888216018,0.3596995733439922,-0.004990063372254372
1783169452746665200,6.922665283203125,-0.019101590833067894,0.3289192351549864,-0.028583704927563666
1783169452756644400,6.932644287109375,-0.019855624070763588,0.2645505156189203,-0.028970658418536185
1783169452766593300,6.94259326171875,-0.021774609434604644,0.21729308988153934,-0.0382221786275506
1783169452776541200,6.952541259765625,-0.0021691607326269147,0.16411328835785388,-0.0030459435671567913
1783169452786490000,6.962489990234375,-0.00005319149196147918,0.09504559735059738,0.07696310216588899
1783169452796469200,6.97246923828125,-0.048620530784130096,0.03622866672277451,0.12887684754282236
1783169452806418200,6.982418212890625,-0.09900339506566525,0.03356266238391399,0.10710896010994911
1783169452816367000,6.9923671875,-0.13507131826877594,0.051367783665657044,0.06079612174630165
1783169452826346200,7.00234619140625,-0.17355507044196128,0.06609305911064148,0.040977907076478005
1783169452836295200,7.012295166015625,-0.20215514198243617,0.0989829367995262,0.048798225438594814
1783169452846243000,7.0222431640625,-0.22299977709054947,0.1252653790473938,0.03901712839752435
1783169452856192000,7.03219189453125,-0.19374679459929464,0.12745499804615973,0.012032090838253497
1783169452866171100,7.042171142578125,-0.14358955576717852,0.13256605744957922,0.007313245622813701
1783169452876120000,7.0521201171875,-0.11097031171321868,0.13476210618913173,0.04622052043769508
1783169452886069000,7.062069091796875,-0.10342238055169582,0.12818623493015766,0.07959989867657423
1783169452896018200,7.07201806640625,-0.05977671557068824,0.11586334445178507,0.06787059017717838
1783169452905997300,7.081997314453125,-0.0031722002953290937,0.1317354518443346,0.03450109401149675
1783169452915946200,7.0919462890625,0.02541734985113144,0.1657376746892929,0.006935059960186481
1783169452925894100,7.10189404296875,0.0676823741286993,0.18747136759161948,0.030789690539240834
1783169452935874300,7.111874267578125,0.08527940561771392,0.18232874400615692,0.05936433537751436
1783169452945822200,7.121822265625,0.11955167757570744,0.18488310466408728,0.0761459588304162
1783169452955771100,7.131771240234375,0.10112345595955848,0.18818623786270616,0.0644628275603056
1783169452965720000,7.141719970703125,0.061332128319144245,0.17899696923494338,0.0362678296893835
1783169452975699200,7.15169921875,0.08226385718882083,0.17674539091587066,-0.003418886799085885
1783169452985648000,7.161648193359375,0.19284487732350825,0.1991121210247278,-0.011184552364517002
1783169452995596300,7.17159619140625,0.27474399285316464,0.21745675601065156,0.03136807494908571
1783169453005545200,7.181545166015625,0.3050631432712078,0.14323592002391813,0.09091010498106479
1783169453015524000,7.191524169921875,0.3379500983506441,0.029047230786085128,0.17476386170983313
1783169453025473000,7.20147314453125,0.31977322114706036,-0.035332010143995285,0.2879603250399232
1783169453035422200,7.211422119140625,0.2140928325355053,-0.0756383015692234,0.3683747549697757
1783169453045401000,7.221401123046875,0.07393383573889732,-0.10688333466053009,0.38177930320501324
1783169453055350000,7.23135009765625,-0.01570025795698166,-0.12982348074316977,0.3561208380743861
1783169453065299200,7.24129931640625,-0.07989011379480361,-0.10350246005058288,0.30841303822100163
1783169453075247400,7.251247314453125,-0.14613222598731518,-0.059086395218968385,0.23725390962613746
1783169453085227300,7.261227294921875,-0.18012801909148693,-0.05180734412670135,0.15045416257334873
1783169453095175200,7.271175048828125,-0.16861001525521277,-0.04114332677125931,0.08255816396027803
1783169453105124400,7.281124267578125,-0.15044541301131248,-0.008458031743764877,-0.042836686685681344
1783169453115073300,7.2910732421875,-0.11573884128928184,-0.010332008922100067,-0.08098989173024893
1783169453125052200,7.30105224609375,-0.08366027998328208,-0.043538697475194926,-0.15630524495542047
1783169453135020500,7.3110205078125,-0.03181728002130985,-0.06134849493205547,-0.1959408157785423
1783169453144968400,7.320968505859375,-0.05937281094491481,-0.051288873210549354,-0.18222093625012784
1783169453154948400,7.3309482421875,-0.11789748062789439,-0.06399521004855632,-0.21843641469776628
1783169453164896500,7.340896484375,-0.17778993153274059,-0.038622283861041065,-0.26958211657796055
1783169453174845700,7.350845703125,-0.19922902540266513,0.006264321091771125,-0.27483989097569134
1783169453184794600,7.360794677734375,-0.17030512873530387,0.052792263510823244,-0.25489158365279435
1783169453194773800,7.370773681640625,-0.13539748148322103,0.13892974726259708,-0.2988189881846309
1783169453204722700,7.38072265625,-0.14359715455174446,0.1795896744310856,-0.3373033248797059
1783169453214671600,7.390671630859375,-0.10227087242901324,0.1452630419373512,-0.30986820546537636
1783169453224619500,7.40061962890625,-0.07045476145148277,0.129604869556427,-0.3003548194497824
1783169453234599700,7.410599609375,-0.06398527317643166,0.1363531747728586,-0.2916057140712626
1783169453244547600,7.420547607421875,-0.07385434076189995,0.1384668059259653,-0.2943956187844276
1783169453254496500,7.43049658203125,-0.10333470226824283,0.12592588878273964,-0.3075657737419009
1783169453264475600,7.4404755859375,-0.03868950387835502,0.12357085008919239,-0.3216118347510695
1783169453274424600,7.450424560546875,0.03895253872871399,0.14205869293808937,-0.32235330076813695
1783169453284373500,7.46037353515625,0.02694178293943405,0.12066168464422225,-0.3003811229348182
1783169453294322400,7.470322509765625,0.04133271186351776,0.06001169337034225,-0.25035364796221254
1783169453304301600,7.480301513671875,0.12404197473227976,0.040511458608508105,-0.24385610263645646
1783169453314250800,7.490250732421875,0.1524392171770334,0.049341246274113654,-0.22667673030393196
1783169453324198400,7.500198486328125,0.1911608697593212,0.020348376023769377,-0.17830080366432666
1783169453334147600,7.510147705078125,0.24602584789097307,-0.014005144476890562,-0.10636953991949558
1783169453344126700,7.520126708984375,0.23738193818628786,-0.002242225968837738,-0.06819297226564958
1783169453354075600,7.53007568359375,0.21304069313406943,0.024829320830106735,-0.07196341244876385
1783169453364024600,7.540024658203125,0.21699206110835073,0.046292380097508426,-0.0409890312586911
1783169453374003700,7.550003662109375,0.16011808124184607,0.0412087932229042,0.024976035824418066
1783169453383952600,7.55995263671875,0.1461573604285717,0.035381694504618644,0.05677254705233499
1783169453393900500,7.569900634765625,0.1795499269425869,0.0687806907594204,0.051435003682971
1783169453403849700,7.579849609375,0.17712766823172568,0.11171148546934127,0.05048807822167873
1783169453413828600,7.58982861328125,0.1900023473739624,0.12170330265164375,0.10108195490539074
1783169453423777500,7.599777587890625,0.16658113977611064,0.10129530539512634,0.13414543559551237
1783169453433726500,7.6097265625,0.11362053396105766,0.11239186894893645,0.15077508335709572
1783169453443675400,7.61967529296875,0.13010755838155746,0.10339899967610836,0.14044979643672703
1783169453453654500,7.629654541015625,0.16766075170636177,0.07999415869116783,0.12507482491135596
1783169453463603500,7.639603515625,0.1568885978013277,0.08651508489251136,0.1305553021490574
1783169453473551600,7.649551513671875,0.14708148953616618,0.0795382316172123,0.1471370191156864
1783169453483531500,7.659531494140625,0.1458516554802656,0.06570727466344833,0.14449552816357464
1783169453493479400,7.6694794921875,0.14186580071449278,0.05660100814402103,0.13565525563657282
1783169453503428600,7.6794287109375,0.168303725785017,0.058761985570192334,0.1183721124023199
1783169453513377800,7.689377685546875,0.1919283470004797,0.04888648824393749,0.10682981437500566
1783169453523356700,7.699356689453125,0.22190730567872524,0.047885786768794056,0.09724482442792505
1783169453533305600,7.7093056640625,0.27650340374112126,0.04819207623898983,0.0729237453809008
1783169453543253800,7.719253662109375,0.2680845349639654,0.039596681851148605,0.03735036422908306
1783169453553202700,7.72920263671875,0.2128682591766119,0.00514087001979351,0.04126927297217771
1783169453563181600,7.739181640625,0.17589666513204574,-0.012670096480846405,0.03728840490877628
1783169453573130500,7.749130615234375,0.13831190762519835,0.004817044892907143,-0.013261048111319541
1783169453583079700,7.75907958984375,0.06702069534957408,0.00907879399061203,-0.0667220229302533
1783169453593058600,7.76905859375,0.004636427628993987,-0.009000468057394026,-0.08889467350542544
1783169453603007500,7.779007568359375,0.011771686336398125,0.021271336087584494,-0.08018823822485283
1783169453612956400,7.788956298828125,0.008948445609211922,0.07383563606142997,-0.08790273985862732
1783169453622904600,7.798904541015625,0.011234510719776153,0.061119946873188016,-0.10433277339488267
1783169453632884500,7.808884521484375,-0.008386720073223114,0.00490647674202919,-0.060909226731956
1783169453642832600,7.81883251953125,0.01624035618305206,-0.024423078116774556,-0.014979852994251995
1783169453652781600,7.828781494140625,0.0485287608474493,-0.027972879552841185,0.006911386823654175
1783169453662730800,7.838730712890625,0.03883563435077667,-0.0013268646895885467,-0.02479512629956007
1783169453672709600,7.848709716796875,0.03933832317590713,0.010340776750445365,-0.05483840065198019
1783169453682658600,7.858658447265625,0.06128595108985901,0.021501053190231323,-0.08609861304610968
1783169453692606700,7.868606689453125,0.09414192650914191,0.045987844192981714,-0.12785510327965022
1783169453702586600,7.878586669921875,0.07693184851109981,0.09041969111561775,-0.12019728200286627
1783169453712534800,7.88853466796875,0.13644845184087753,0.07924246354103089,-0.1155447800219059
1783169453722483700,7.898483642578125,0.2168938614308834,0.07562894921898841,-0.11842208902388811
1783169453732432600,7.9084326171875,0.2195470062881708,0.08848550818264483,-0.08573096704380587
1783169453742411500,7.91841162109375,0.1868517743885517,0.08992810820639133,-0.04177168780267238
1783169453752360700,7.928360595703125,0.20173487074375152,0.10140227290093898,-0.032331659284234045
1783169453762309600,7.9383095703125,0.15125906748175622,0.09588263269662857,-0.06701981856673955
1783169453772257500,7.948257568359375,0.11124445247948168,0.09293839593827724,-0.09661271880315617
1783169453782237400,7.958237548828125,0.1017851347386837,0.07694763060212134,-0.10216332040131092
1783169453792185600,7.968185546875,0.061465399309992785,0.05847732340991497,-0.10183805223600938
1783169453802134500,7.978134521484375,0.02517711135447025,0.023402502897381782,-0.07639615246551111
1783169453812113400,7.988113525390625,-0.012898060017824172,-0.014255319845676422,-0.06627513767927885
1783169453822062600,7.9980625,-0.027234043884277342,-0.029500819772481916,-0.05280512299239635
1783169453832011800,8.00801171875,-0.0439583841919899,-0.029622400325536726,-0.0459013349533081
1783169453841959400,8.01795947265625,-0.08936170649528503,-0.031079028874635695,-0.040049686315655704
1783169453851939600,8.027939697265625,-0.13307926766872405,-0.03267243554592132,-0.032882881692517546
1783169453861887700,8.0378876953125,-0.10944587862491607,-0.025876784056425094,-0.04071165735572576
1783169453871836700,8.047836669921875,-0.05800152259171009,-0.006603343787789344,-0.06010580139458179
1783169453881785600,8.05778564453125,-0.0592296030819416,0.013850246176123618,-0.05220043509751558
1783169453891764700,8.0677646484375,-0.03749824826717377,0.013455693900585174,0.002559018566738814
1783169453901713700,8.077713623046876,-0.018300211322307587,0.0055693245649337765,0.04919599258452654
1783169453911662600,8.08766259765625,-0.020157237365841865,0.01223930384814739,0.06871345247579738
1783169453921641500,8.097641357421875,0.011468319475650787,0.035194062978029246,0.06569470744282006
1783169453931590700,8.107590576171875,0.023536358410120008,0.03174596835076809,0.051018531836569306
1783169453941538600,8.11753857421875,0.03245090174973011,0.06270400119423866,0.060252516388893125
1783169453951487500,8.127487548828125,0.051642508953809736,0.09862871653437613,0.055640638679265976
1783169453961466600,8.137466552734375,0.059139586710929865,0.10354980632364749,0.04987637606412172
1783169453971415600,8.14741552734375,0.027526304829120635,0.09700666829049587,0.0416597518607974
1783169453981364500,8.157364501953126,0.038644495692849154,0.06897825915813445,0.010099369210004806
1783169453991312400,8.1673125,0.09845862066447734,0.050312721654772755,-0.011752999902237205
1783169454001292800,8.177292724609375,0.1444312672883272,0.03774667007029056,-0.016473598683346063
1783169454011240400,8.187240478515625,0.1965542532354593,0.02958966709971428,-0.02878390367478132
1783169454021189600,8.197189697265625,0.19048808506429193,0.011903203761577606,-0.01137362692952156
1783169454031168800,8.207168701171875,0.17872049038112162,-0.015680968734622002,-0.012357377269864082
1783169454041117700,8.21711767578125,0.1462660815000534,-0.014903554621338843,-0.017662790201604366
1783169454051066600,8.227066650390626,0.13234978435039518,-0.021134557965397833,-0.028735991146136074
1783169454061015600,8.237015625,0.1315741238027811,0.010606149688363075,-0.024742245334852486
1783169454070994700,8.24699462890625,0.08422843526005744,0.022343933755159376,-0.011263736814260482
1783169454080943600,8.256943603515625,0.03789981480538845,0.002360299390554428,-0.005501520025730133
1783169454090891500,8.2668916015625,0.004138999500870704,-0.0007797522008419036,-0.011354629968106746
1783169454100840400,8.27684033203125,-0.022985738790035248,0.012300678646564483,-0.03973667484372854
1783169454110819600,8.286819580078125,0.009553425765037536,0.027072715842723846,-0.0727843917091377
1783169454120768500,8.2967685546875,0.02292027233839035,0.057718029475212096,-0.08506400930136442
1783169454130717400,8.306717529296876,0.005543605601787567,0.06482756921947003,-0.0758820471972227
1783169454140742400,8.316742431640625,0.013642156383395195,0.01948211458325386,-0.08101707199811935
1783169454150691300,8.32669140625,0.06162555830776691,0.0037602293163537977,-0.10722646727608516
1783169454160639200,8.33663916015625,0.12501520367860794,0.0316015914440155,-0.09758359139561652
1783169454170588200,8.346588134765625,0.12049860303699969,0.0533779544442892,-0.053808180821407585
1783169454180567300,8.3565673828125,0.12904957376122475,0.012720365363359451,-0.04826426469236612
1783169454190516200,8.36651611328125,0.13552666082084178,-0.02549041508734226,-0.05410509967505932
1783169454200465200,8.376465087890624,0.1416167943894863,-0.009782558345794678,-0.05907470478117466
1783169454210414000,8.3864140625,0.2004986069470644,0.014682605347037315,-0.09249067043708636
1783169454220393200,8.396393310546875,0.17783961589336394,0.020121581530570982,-0.12867577201277017
1783169454230342100,8.406342041015625,0.12325696183443069,-0.004624152669310569,-0.12409896561652421
1783169454240290000,8.4162900390625,0.18372867393195627,0.008784779480099678,-0.1282391341611743
1783169454250270200,8.426270263671874,0.23919454056620595,0.06178630182743072,-0.14749971494823694
1783169454260218000,8.436218017578126,0.23564473913013934,0.05273264227807521,-0.15148588024126364
1783169454270167000,8.4461669921875,0.2442383799523115,-0.028569676402211187,-0.10863458050834014
1783169454280116200,8.4561162109375,0.27734979143738747,-0.11658055281043052,-0.05016425309479236
1783169454290095400,8.466095458984375,0.30260347515940667,-0.18798165520131588,-0.017147241894900796
1783169454300044300,8.476044189453125,0.3075415160834789,-0.260306302177906,-0.00011721490519121289
1783169454309993200,8.4859931640625,0.2565215229421854,-0.288234758067131,0.019559563733637333
1783169454319941400,8.49594140625,0.2347095041066408,-0.27702655083239075,-0.02755058075385168
1783169454329921300,8.50592138671875,0.16265139911174772,-0.2349713699132204,-0.10879795437650755
1783169454339869200,8.515869140625,0.07173252630233765,-0.19123685760498046,-0.18842735314220188
1783169454349818000,8.525818115234374,0.05851122567951679,-0.21236440130770204,-0.21829760901527479
1783169454359797200,8.53579736328125,0.0901905585348606,-0.2119090587556362,-0.2154945160269737
1783169454369746200,8.54574609375,0.1117845507055521,-0.1763075840204954,-0.17826487383442
1783169454379695000,8.555695068359375,0.07059738479256629,-0.1592149949222803,-0.13380085994154214
1783169454389643300,8.565643310546875,0.043159342768788335,-0.1808826368510723,-0.10091158504085615
1783169454399623200,8.575623046875,0.0520621956706047,-0.1662520539522171,-0.07766542348265647
1783169454409571000,8.585571044921876,-0.04350245711803436,-0.10521569370925427,-0.06326309638172388
1783169454419520300,8.595520263671874,-0.11391747108101843,-0.041180736172199243,-0.06296469795703888
1783169454429469200,8.60546923828125,-0.19001871398687362,0.01273907006382942,-0.06742898388952016
1783169454439448000,8.615447998046875,-0.24915596261024472,0.020609072786569593,-0.06510024868100882
1783169454449397200,8.625397216796875,-0.21292261971235274,0.07684417022764682,-0.025550036320090293
1783169454459346200,8.63534619140625,-0.27313655765652656,0.1377472594797611,-0.0215042680606246
1783169454469325300,8.6453251953125,-0.3182780141532421,0.13079670968949794,0.006812018102407455
1783169454479274200,8.655274169921874,-0.25139000527262684,0.11821195340454578,0.08575694173527881
1783169454489222400,8.665222412109374,-0.22371815449297427,0.18042437168955802,0.154202427457273
1783169454499171300,8.67517138671875,-0.2567524090886116,0.25971359698176383,0.1708548715725541
1783169454509150200,8.685150146484375,-0.2954442510545254,0.2772159359246492,0.15170094776405021
1783169454519099100,8.69509912109375,-0.2406616905093193,0.2894523171633482,0.13552985742492601
1783169454529048300,8.70504833984375,-0.17062895386219024,0.34733693537712096,0.12944237247109414
1783169454538996200,8.714996337890625,-0.0782353323251009,0.423425318801403,0.15972820514142513
1783169454548976000,8.72497607421875,-0.006167874979972839,0.44328971070051193,0.1866895695641637
1783169454558924300,8.73492431640625,0.05076631064116954,0.4204845891743898,0.21904110259264706
1783169454568873200,8.744873291015624,0.1102116023004055,0.38288931027352807,0.2351934882313013
1783169454578852000,8.75485205078125,0.1712929707288742,0.36904841644763947,0.2143354091197252
1783169454588801000,8.764801025390625,0.19683716183006764,0.3826140004634857,0.1849871495604515
1783169454598750200,8.774750244140625,0.23845512037575242,0.3758031514048576,0.15468085862398145
1783169454608699400,8.784699462890625,0.3079424980998039,0.3395686394631862,0.09928776496499776
1783169454618678300,8.79467822265625,0.34425416693091393,0.3065507514804601,0.10373071584850549
1783169454628627200,8.804627197265624,0.34025603720545766,0.2771130600720644,0.11788695923388004
1783169454638575400,8.814575439453124,0.29601591346263884,0.21389058796167373,0.061303486746549604
1783169454648524300,8.824524169921874,0.20361177053153515,0.15795242764055728,0.02186606884403154
1783169454658503200,8.834503173828125,0.18542612549960613,0.16129180119633674,-0.031355215467512604
1783169454668452400,8.844452392578125,0.14032909266650676,0.17701544002890585,-0.04379822519421577
1783169454678401300,8.8544013671875,0.06804886935353278,0.16167875468730925,-0.032305355799198146
1783169454688380200,8.864380126953124,0.07319441554844379,0.15958382823467254,-0.03229366536140442
1783169454698329000,8.8743291015625,0.07322539520859718,0.15863748729526997,-0.07163987958282232
1783169454708277200,8.88427734375,0.14571078570485113,0.14069909502267836,-0.1277186174184084
1783169454718226200,8.89422607421875,0.23927988076210022,0.11682955913543701,-0.1586938936576247
1783169454728205300,8.904205322265625,0.24151275438070297,0.12183774268627166,-0.09614508302509785
1783169454738154200,8.914154296875,0.23338790011405944,0.12560849339663982,-0.025942542769014833
1783169454748103200,8.924103271484375,0.29374095426797864,0.16315058080554007,0.0009875497326254845
1783169454758052000,8.934052001953125,0.2980254997193813,0.20401158350408077,0.04236673108637333
1783169454768031200,8.94403125,0.2140221053868532,0.17464111211299896,0.1168923952385783
1783169454777980400,8.95398046875,0.11612404121458529,0.12606149786114693,0.22268501205295324
1783169454787928000,8.963927978515626,0.11936170796155929,0.1092658458828926,0.2398468669950962
1783169454797908200,8.973908203125,0.1495943491399288,0.14287936167120932,0.22991993174254893
1783169454807856400,8.9838564453125,0.0846352624952793,0.1746212383687496,0.20343316256161778
1783169454817805300,8.993805419921875,0.03173369339108467,0.17080138781964777,0.21057722562998532
1783169454827754200,9.003754150390625,0.023037761238217352,0.12095394558906554,0.21183511673659086
1783169454837733400,9.0137333984375,-0.08693067995607852,0.08002046217620372,0.15322654989613219
1783169454847682300,9.023682373046874,-0.18704466661214827,0.0977285528242588,0.12002221769690513
1783169454857630200,9.033630126953126,-0.20366320845782757,0.13476853592991828,0.12624854486584663
1783169454867579100,9.0435791015625,-0.23317045797109603,0.1249205111324787,0.10473697028160095
1783169454877558300,9.053558349609375,-0.2588034963995218,0.11547580643892287,0.053663785648345945
1783169454887507200,9.063507080078125,-0.2956254528403282,0.12934884896874427,0.046375674466788766
1783169454897456000,9.0734560546875,-0.3226853092014789,0.14523381584286688,0.06985036581754685
1783169454907435300,9.083435302734374,-0.2861930231064558,0.15667174018025398,0.05006137724220752
1783169454917384200,9.09338427734375,-0.27819851722121236,0.18995266301333902,0.034900925250351426
1783169454927333000,9.1033330078125,-0.23161796783208846,0.19900982969403266,0.03574468259811401
1783169454937281000,9.113281005859376,-0.1519727687090635,0.18002923489212988,0.058929743352532385
1783169454947261400,9.123261474609375,-0.08256897761523724,0.13697802867293357,0.04554243851304054
1783169454957209000,9.133208984375,-0.010649988830089569,0.11962474281191825,0.008112579306960105
1783169454967158300,9.143158203125,0.060202832028269766,0.13636077355742454,-0.004881342300772667
1783169454977107200,9.153107177734375,0.11756371862888336,0.14272680145800112,-0.021133681182563303
1783169454987086300,9.16308642578125,0.11435001727938651,0.14113865548372267,-0.048368894110620016
1783169454997035300,9.17303515625,0.08649521114826202,0.14095160847902297,-0.09433628003746271
1783169455006983200,9.182983154296876,0.06748948190510272,0.13994564630687237,-0.1012228246808052
1783169455016963300,9.19296337890625,0.06705284405350685,0.13311667706966399,-0.07222557051628828
1783169455026911200,9.2029111328125,0.08046411429047584,0.10717384203970431,-0.022030337761342524
1783169455036860200,9.212860107421875,0.10460428381264208,0.08810556895434855,-0.022279928608238696
1783169455046809000,9.22280908203125,0.15916531056165695,0.05815642089247703,-0.04624649512916803
1783169455056788200,9.232788330078124,0.15734627844095228,0.044889527562260625,-0.066248852460552
1783169455066737200,9.242737060546874,0.14107611164152623,0.025180033963918685,-0.07878478290140628
1783169455076686000,9.25268603515625,0.11472001963555813,0.003435819667577743,-0.09847732536494731
1783169455086634200,9.26263427734375,0.10627776998281478,-0.0036252047598361965,-0.11822247479856013
1783169455096614100,9.2726142578125,0.09411036232709884,0.017937223228812218,-0.146587568539381
1783169455106562000,9.28256201171875,0.07574351550936699,0.02297814000546932,-0.16521131272763012
1783169455116511200,9.29251123046875,0.034143677142262456,-0.008088029387593268,-0.17634587020426987
1783169455126490000,9.302489990234376,-0.012477204257249831,-0.02935001312494278,-0.1620996104478836
1783169455136439300,9.312439208984374,-0.027184359523653983,-0.051399347847700116,-0.15058365243822336
1783169455146388200,9.32238818359375,0.013261632633209227,-0.044586745223402974,-0.13607757270187137
1783169455156337200,9.332337158203124,-0.030827099940180777,-0.0004559270739555359,-0.11710194633603095
1783169455166316300,9.34231640625,-0.08611527191996574,0.010333762487769127,-0.11463674353258684
1783169455176264200,9.35226416015625,-0.06327215647101402,-0.018247604352235793,-0.10455196910351514
1783169455186213400,9.36221337890625,-0.05053425545096397,-0.002230535531044006,-0.09773089091181754
1783169455196162300,9.372162353515625,-0.043158173725008964,0.02520633744895458,-0.12222966461330652
1783169455206141200,9.38214111328125,-0.0876812060624361,0.017714520388841627,-0.14986617008494213
1783169455216090000,9.392090087890624,-0.10760463467240333,-0.013341712132096289,-0.17763854036331175
1783169455226039300,9.402039306640624,-0.06519640253186225,-0.02571662505865097,-0.1768131954550743
1783169455236018400,9.412018310546875,-0.07893383598327636,-0.020496260061860082,-0.12616875762790442
1783169455245967400,9.42196728515625,-0.09029811056256294,-0.008564414727687835,-0.11067837956193834
1783169455255915500,9.43191552734375,-0.08164777111709118,-0.008840309059619904,-0.10783785890638828
1783169455265864400,9.441864501953125,-0.06064414605498313,0.026899112841486928,-0.08698712285105138
1783169455275843300,9.45184326171875,-0.06058861647546291,0.06866320185959339,-0.05931585659328848
1783169455285792300,9.461792236328124,-0.052550271448493,0.06463409247398376,-0.037760698595643044
1783169455295741400,9.471741455078124,-0.05084697466194629,0.04389467130601406,-0.002985774345137179
1783169455305690400,9.4816904296875,-0.030480478459596633,0.042377837002277374,0.0134916419968009
1783169455315669200,9.491669189453125,-0.022419337078928948,0.0632294863730669,0.04188417173381895
1783169455325618200,9.5016181640625,-0.028703531914949416,0.06066226623356342,0.054231356403231616
1783169455335566300,9.51156640625,0.005981412497162819,0.04647299736142158,0.06079436818063259
1783169455345546200,9.521546142578124,0.01892448070049286,0.04982113874554634,0.060844637063145635
1783169455355494100,9.531494140625,-0.020433716219663618,0.07178104161918163,0.045378480122983456
1783169455365443300,9.541443359375,-0.029646365723013875,0.10312485890984535,0.0048322424620389935
1783169455375392300,9.551392333984374,-0.03219546568393707,0.15323884312212466,-0.017252748095989225
1783169455385371100,9.56137109375,0.005597381615638733,0.19223814360201358,-0.0335296368971467
1783169455395320300,9.5713203125,0.10789221944212912,0.18512392768263816,-0.04125087879896164
1783169455405268200,9.581268310546875,0.17035305953025817,0.14118307914733885,-0.01965688662827015
1783169455415217400,9.591217529296875,0.19886603730916977,0.113679570671916,-0.0007818345600739121
1783169455425196300,9.6011962890625,0.20604981133341788,0.10433248113393782,0.0041422143712639805
1783169455435145500,9.6111455078125,0.20920389145016668,0.09569733925759792,0.00046060324907302855
1783169455445094400,9.621094482421874,0.2120224560022354,0.11708090354800224,-0.006305822145938873
1783169455455073300,9.6310732421875,0.16688567568063736,0.12398936776220798,-0.017442169720865784
1783169455465022200,9.641022216796875,0.13702712851166723,0.12890052067935465,-0.04316606477051973
1783169455474971400,9.650971435546875,0.12268062325119972,0.14075170199275017,-0.07531330739855766
1783169455484919300,9.660919189453125,0.12385843485891818,0.12316636094152926,-0.0846615659803152
1783169455494899200,9.670899169921874,0.08291910622715949,0.09074936146140097,-0.0742246353790164
1783169455504847400,9.680847412109374,0.055209261524677276,0.096003044205904,-0.06202946293354034
1783169455514796300,9.69079638671875,0.08014145820736884,0.1156704522281885,-0.05557020379155874
1783169455524745200,9.7007451171875,0.06625088002085686,0.12224398539960384,-0.04590834921598434
1783169455534724400,9.710724365234375,0.07439443898797035,0.12911504021286963,-0.055248753284849225
1783169455544673300,9.72067333984375,0.09891104060709476,0.13481295959353445,-0.05478723672032356
1783169455554621200,9.73062109375,0.11359773760735987,0.14202479066848753,-0.050122752040624614
1783169455564601000,9.74060107421875,0.12989362336993215,0.14472703536450862,-0.040683308044075966
1783169455574549200,9.75054931640625,0.11610942816734313,0.12696516870260238,-0.03150660663694143
1783169455584498400,9.76049853515625,0.1317968266427517,0.11161737744510174,-0.04838467620164156
1783169455594447400,9.770447265625,0.13781974019408225,0.11835691483318805,-0.04328589175790548
1783169455604426500,9.780426513671875,0.1602870080679655,0.11289163516461849,-0.03334492798000574
1783169455614375400,9.79037548828125,0.1376689335465431,0.1022287868529558,-0.03156272073835134
1783169455624324400,9.800324462890625,0.013807576078176497,0.09687515086531638,-0.03879968625456094
1783169455634272300,9.810272216796875,-0.049481531527638435,0.08024316501617432,-0.030957448321580885
1783169455644252400,9.82025244140625,0.002850713256001472,0.085066639649868,-0.029566578485071656
1783169455654200300,9.830200439453124,0.01515548355579376,0.13308452836573123,-0.030614626233279704
1783169455664149200,9.840149169921874,0.013660861083865165,0.13414251298606394,-0.0027618659287691116
1783169455674128400,9.85012841796875,0.03799392282962799,0.08339490704536437,0.030440730971097944
1783169455684077300,9.860077392578125,0.07664660182893276,0.05205693497359752,0.08457998864408582
1783169455694026200,9.870026123046875,0.096765845271945,0.06766366942822932,0.11997779403328895
1783169455703974100,9.87997412109375,0.11345102261304854,0.08071955035626888,0.09525014347936958
1783169455713954300,9.889954345703124,0.13393266962766648,0.0864133780837059,0.07885404874533414
1783169455723902200,9.899902099609376,0.1051227547287941,0.08903729684650898,0.06184738436490297
1783169455733851100,9.90985107421875,0.10466799669861793,0.0754465783894062,0.056093058621883386
1783169455743800300,9.91980029296875,0.03493687334656715,-0.0034369887113571166,0.030126550455391404
1783169455753779500,9.929779541015625,-0.0162649061024189,-0.0196153855741024,0.011000994224846362
1783169455763728400,9.939728271484375,0.02971592382788658,-0.005101707053184509,0.009316402138769626
1783169455773677300,9.94967724609375,0.0061608607172966,0.01776245118379593,0.007948913177847862
1783169455783656400,9.959656494140624,-0.03589548924565315,0.017812720066308973,0.02236117715090513
1783169455793605400,9.96960546875,-0.06670797613859177,0.012147533911466597,0.010390168850123881
1783169455803553300,9.97955322265625,-0.07982698543071746,0.02865150946676731,0.005539806209504604
1783169455813502200,9.989502197265624,-0.09769465055465698,0.05548515585660934,0.01880669953972101
1783169455823481300,9.9994814453125,-0.12053601243793964,0.04816752631962299,0.009535597847402094
1783169455833430300,10.00943017578125,-0.0988660324215889,0.0381067355543375,-0.009990355877578258
1783169455843379200,10.019379150390625,-0.07627718399465083,0.062142860180139536,-0.030237061625160277
1783169455853327400,10.029327392578125,-0.03164484606385231,0.09330664472877978,-0.03021510552167892
1783169455863307300,10.039307373046874,-0.022099603605270385,0.10779109715521334,-0.014843641127645968
1783169455873255200,10.049255126953126,-0.0316103592723608,0.08602467102706432,-0.0026899697363376614
1783169455883204000,10.0592041015625,-0.07237257777154445,0.06524491784870624,-0.027778270296193657
1783169455893183200,10.069183349609375,-0.0741436790972948,0.06124737264513969,-0.06023731881976127
1783169455903132200,10.079132080078125,-0.04861059391200542,0.07099485967755317,-0.05978402209430932
1783169455913081300,10.089081298828125,-0.009722352591156959,0.0625888503819704,-0.06995557975769043
1783169455923030300,10.0990302734375,0.042541503131389616,0.04434007698595523,-0.07577800230085849
1783169455933009400,10.109009521484374,0.00539747512936592,0.043784196668863296,-0.09561053775697946
1783169455942958300,10.118958251953124,0.001917231798171997,0.008663198927044868,-0.11673282076269388
1783169455952906500,10.128906494140624,0.04795885200500488,-0.00469078816473484,-0.14075608590692282
1783169455962855400,10.13885546875,0.07248655954003333,0.00289221431016922,-0.18225246389955282
1783169455972834300,10.148834228515625,0.1140372980684042,-0.03239946382343769,-0.19435119023323058
1783169455982783200,10.158783203125,0.17880290796756743,-0.04589548973441124,-0.17114830156117677
1783169455992732200,10.168732177734375,0.2223614791870117,-0.025510288831591604,-0.14996029637549071
1783169456002711300,10.178711181640624,0.24864158334732053,-0.02546118899285793,-0.1119493858784437
1783169456012660200,10.18866015625,0.23990473466217516,-0.030493922463059424,-0.08259703466594219
1783169456022608400,10.1986083984375,0.24516952332258224,-0.010291092389822006,-0.07668722610026597
1783169456032557300,10.208557373046874,0.24141630826890467,0.031200024905800816,-0.08429244040697813
1783169456042536200,10.2185361328125,0.1785433802485466,0.027950667721033096,-0.06972820074260234
1783169456052485000,10.228485107421875,0.13852233550548554,0.02397884148061275,-0.0814204651672393
1783169456062434300,10.238434326171875,0.10256196433007717,0.0794248343706131,-0.09600603988058865
1783169456072383500,10.248383544921875,0.07884440413415432,0.13229133216142655,-0.07485708806365728
1783169456082362400,10.2583623046875,0.08923544976711273,0.14471359136104583,-0.04665156879872084
1783169456092311300,10.268311279296874,0.07882862204313278,0.1540863998621702,-0.028856676650047302
1783169456102259500,10.278259521484374,0.04838438394069671,0.16279402245283126,-0.011604805336892603
1783169456112239400,10.2882392578125,0.028559155008196828,0.14809797310233117,0.01594078871458769
1783169456122187300,10.298187255859375,0.017502338942885397,0.11875322067439556,0.02748158890455961
1783169456132136400,10.308136474609375,0.027771804022789,0.1276046356499195,0.018752923525869845
1783169456142127900,10.3181279296875,0.031717326778173446,0.15025076722204683,0.010466448956727981
1783169456152106800,10.328106689453126,0.012390110495686531,0.1498258198082447,0.012531272532045841
1783169456162055700,10.3380556640625,-0.022264438778162,0.11533902831673622,0.02973813565969467
1783169456172004600,10.348004638671876,-0.014073533537983893,0.0817033006966114,0.030056115567684172
1783169456181952800,10.357952880859376,0.0455704955637455,0.09743044666051864,0.019575784216076135
1783169456191931600,10.367931640625,0.06156710611879825,0.12398995228409766,0.02611439220458269
1783169456201880600,10.377880615234375,0.05605448017716407,0.11212766505479813,0.04286591278016567
1783169456211829800,10.387829833984375,0.06421265219151974,0.095083591273427,0.07625599507614969
1783169456221808600,10.39780859375,0.08080956672728061,0.08350012098550796,0.06495156092531978
1783169456231757600,10.407757568359376,0.10707681140601634,0.09169511787891388,0.042389381309598684
1783169456241706500,10.41770654296875,0.13292086223661898,0.09391747010350227,0.03426920321807265
1783169456251654700,10.427654541015626,0.13872224199175834,0.05600479581654071,0.0161886259958148
1783169456261634600,10.437634521484375,0.13039572767317295,0.01507014335989952,-0.008201280503720045
1783169456271582700,10.447582763671875,0.1460311037003994,0.021854688933491705,-0.023003274446725844
1783169456281531600,10.45753173828125,0.14441723876297474,0.02389583937227726,-0.03092588413953781
1783169456291480800,10.467480712890625,0.15397183357179164,-0.006262567526102066,-0.023894743393734097
1783169456301459700,10.477459716796876,0.13127718668282032,-0.00898293240070343,-0.01812047084122896
1783169456311408600,10.48740869140625,0.10153028319478034,-0.018185645031929015,-0.022354455149173735
1783169456321357800,10.49735791015625,0.08205167574286461,-0.038138884258270264,-0.023844985967874526
1783169456331336700,10.507336669921875,0.07948913177847862,-0.0361111778229475,-0.033779373874515295
1783169456341285600,10.51728564453125,0.06878536693453788,-0.0007709843724966049,-0.046799160575866694
1783169456351233800,10.52723388671875,0.06120587159097194,0.010845803663134574,-0.04570113620609045
1783169456361182700,10.5371826171875,0.06212064834833145,0.004348258337378502,-0.017661109701171518
1783169456371161600,10.54716162109375,0.01686053390800953,-0.01583995868861675,-0.014337006779760122
1783169456381110800,10.55711083984375,0.013549801924824714,0.00023205519020557403,-0.010421659966930747
1783169456391059700,10.567059814453126,0.051202948492765424,0.04865443305373192,-0.013803776685893535
1783169456401007600,10.577007568359376,0.04550093745887279,0.08528583535850047,0.006530936138704419
1783169456410987500,10.586987548828125,0.012907412368059158,0.07986965552866458,0.045865459922328586
1783169456420935700,10.596935791015625,0.00904781433045864,0.07570669063031674,0.03863784675635397
1783169456430884600,10.606884521484375,0.03439619059860706,0.1143897647678852,0.03283405584841966
1783169456440863500,10.616863525390626,0.049426001948118206,0.15298106896877287,0.0586490267150104
1783169456450812700,10.626812744140626,0.05845569609999656,0.14508826989233492,0.0920828020222485
1783169456460761900,10.636761962890626,-0.0026934768676757813,0.0918593685299158,0.10024711151644587
1783169456470710800,10.646710693359376,-0.11226736578643322,0.07290975338816642,0.10406272428184747
1783169456480689700,10.656689697265625,-0.0682616353213787,0.02377718142867088,0.09131707834675908
1783169456490638800,10.666638916015625,0.0492518144249916,0.013584288716316222,0.10673705805763602
1783169456500586800,10.676586669921875,-0.002847790646553039,0.03351297802329063,0.10062149778679012
1783169456510535700,10.68653564453125,0.05014730195999145,-0.018487258327007292,0.12146949389576911
1783169456520514800,10.696514892578126,0.13837854312062262,-0.06189268481135368,0.15448621283471584
1783169456530463700,10.706463623046876,0.11789338897466659,-0.03425298273563385,0.16462620631605385
1783169456540412700,10.71641259765625,0.12115034494400023,-0.012756021198630332,0.13181465456038713
1783169456550391600,10.7263916015625,0.17142448815405367,0.004796002104878425,0.11130743471309543
1783169456560340700,10.7363408203125,0.20457564712762832,0.026151509344577786,0.1496307356275618
1783169456570288600,10.74628857421875,0.16822773793935775,0.03640402328968048,0.12907675402909516
1783169456580237600,10.756237548828125,0.15405658924579618,0.03504325633049011,0.09907499899715184
1783169456590216700,10.766216796875,0.15705577106177807,0.03577449321448803,0.0862149329021573
1783169456600165600,10.77616552734375,0.15533961479365824,0.03442541669309139,0.07827507981359959
1783169456610114600,10.786114501953126,0.15328209774196147,0.039683775612711907,0.06580752016752958
1783169456620063700,10.796063720703126,0.15141045865118502,0.05391337649524212,0.04441241156980395
1783169456630043000,10.80604296875,0.08493278413712978,0.06966273429095744,0.01297426705919206
1783169456639991800,10.81599169921875,0.06746376294195651,0.10256722502708435,0.00759454678222537
1783169456649939700,10.825939697265625,0.08406126199960708,0.12040040335953235,0.02151332814991474
1783169456659919600,10.835919677734376,0.09119827427268028,0.12559271130561828,0.026059885538369416
1783169456669867800,10.84586767578125,0.07291676765084266,0.12645546561479568,0.03886252235770225
1783169456679816700,10.855816650390626,0.07178805588185787,0.10878829149901867,0.05039323954507708
1783169456689765600,10.865765625,0.08236322591006755,0.08050619986653328,0.07041340652778744
1783169456699744800,10.875744873046875,0.04158580984175205,0.074139587444067,0.05651829829663038
1783169456709693700,10.885693603515625,0.05572539435327053,0.06719312930703163,0.017852686750516295
1783169456719641600,10.8956416015625,0.07941431297659873,0.08855331272184848,0.007119184355437755
1783169456729590500,10.905590576171875,0.038593057766556735,0.07312602648735046,-0.004645049326866865
1783169456739569700,10.915569580078126,0.038570261412858964,0.04549450771808624,-0.01983107415139675
1783169456749518600,10.9255185546875,0.0018757307440042494,0.04009703258872032,-0.014468816465884446
1783169456759467500,10.935467529296876,-0.025979075387120246,0.04819558337032795,-0.015096008453518151
1783169456769446700,10.94544677734375,0.02506780576109886,0.041675241690874096,-0.039013767396658655
1783169456779395600,10.9553955078125,0.05469722034931183,0.028746786534786222,-0.0638796208448708
1783169456789344800,10.9653447265625,0.040116906332969667,0.032575404912233354,-0.07702551814392208
1783169456799292700,10.975292724609375,0.04735211828351021,0.02364040330648422,-0.07638722024038433
1783169456809272800,10.98527294921875,0.06268237388432026,0.005087678527832031,-0.08299429035522043
1783169456819220700,10.995220703125,0.05517068307995796,0.0043313072025775905,-0.1035363623201847
1783169456829169700,11.005169677734376,0.10843933193087577,0.017882278171181678,-0.101603640691936
1783169456839118600,11.01511865234375,0.12479191631674766,0.02748947995007038,-0.09405717083513736
1783169456849097700,11.02509765625,0.11483224783837795,0.040727147185802455,-0.08664660231769085
1783169456859046700,11.035046630859375,0.10801730712652206,0.022190789020061493,-0.08900222553312778
1783169456868994800,11.044994873046875,0.10261924747526645,0.016506898164749144,-0.10118263880088925
1783169456878974700,11.054974609375,0.09697685767412186,0.025712533405423163,-0.09926716056838632
1783169456888922600,11.064922607421876,0.12545359509587287,0.015289923590421675,-0.0713028296481818
1783169456898871600,11.07487158203125,0.13860767570137977,0.013806991556286811,-0.0491343255251646
1783169456908820700,11.08482080078125,0.09870295081436634,0.01975216369628906,-0.027690701610594986
1783169456918799600,11.094799560546875,0.092295421859622,0.0025818331867456436,-0.014097718131169676
1783169456928748500,11.10474853515625,0.10049334136247634,0.02723053675293922,0.0005237316131591796
1783169456938697500,11.114697509765625,0.10753332300186157,0.037160979136824604,0.02244111051931977
1783169456948645600,11.124645751953125,0.09986498033106327,0.043294367325305935,0.02104527224674821
1783169456958625800,11.134625732421876,0.10611351933181286,0.05951368072032928,0.03319105259254575
1783169456968573700,11.14457373046875,0.0922211875796318,0.025156068566441533,0.0018801146581768988
1783169456978523000,11.15452294921875,0.10785305647552013,0.033110242441296574,-0.008048939486220479
1783169456988501800,11.164501708984375,0.07694646155834198,0.056311669808626175,-0.01043707673177123
1783169456998450700,11.17445068359375,0.09381985494792461,0.09144611155390739,0.03214242032244801
1783169457008399600,11.184399658203125,0.07625146503150462,0.14683072964549063,0.09317688086926937
1783169457018348800,11.194348876953125,0.055280573195219035,0.18633213442862032,0.14302286179512738
1783169457028327700,11.20432763671875,0.01291910280585289,0.1958615947961807,0.10414616478160023
1783169457038275800,11.21427587890625,-0.018622282883524893,0.15658932259380817,0.06205700852759182
1783169457048224800,11.224224853515626,-0.00675298139154911,0.16426234143972396,0.24080570208989083
1783169457058173700,11.234173583984376,0.006258475872874259,0.21907062094807622,0.22547208548821507
1783169457068152600,11.244152587890625,-0.023353987580537795,0.21631109310686586,0.05740691769942641
1783169457078101800,11.254101806640625,-0.06194879891276359,0.1562918009519577,-0.005194792164117098
1783169457088050700,11.26405078125,-0.029511341166496275,0.11206219860315322,-0.024724106889963147
1783169457098029600,11.274029541015626,0.006048632514476775,0.07310849083065986,-0.01763122601956129
1783169457107978500,11.283978515625,-0.0006032265901565551,0.03063303867280483,-0.03739478789269924
1783169457117926700,11.2939267578125,-0.034331893190741536,0.004140168544650077,-0.09075027477685361
1783169457127875600,11.30387548828125,-0.003496609944105148,0.00817336958348751,-0.12837591228336095
1783169457137862700,11.313862548828125,0.0004401449829339981,0.049698389148712156,-0.1296352646946907
1783169457147811600,11.3238115234375,-0.0915285291403532,0.06872516117990017,-0.132458541954495
1783169457157760500,11.333760498046875,-0.14463468090593815,0.0399321974158287,-0.14210107077509165
1783169457167709700,11.343709716796875,-0.11726561246514319,0.007183774024248123,-0.12118629304021596
1783169457177688600,11.3536884765625,-0.07826748102903365,0.01850479398369789,-0.10020400302708149
1783169457187637500,11.363637451171876,-0.01049041435420513,0.017284896799921987,-0.07820848085079342
1783169457197585700,11.373585693359376,0.03166355076432228,-0.009404372683167458,-0.06333440805226564
1783169457207564500,11.383564453125,0.022876433196663853,-0.042868835389614106,-0.04083561252895743
1783169457217513500,11.393513427734375,0.033168110108375545,-0.050125674650073046,-0.04217705373317003
1783169457227462700,11.403462646484375,0.07582885570526122,-0.024444705426692963,-0.05732059112284332
1783169457237411600,11.41341162109375,0.08858195429444313,0.01916530371904373,-0.06425181515812874
1783169457247390500,11.423390380859376,0.062388359373807906,0.04808978490829467,-0.03323533012568951
1783169457257339400,11.43333935546875,0.07713584665060043,0.07090893495976924,-0.03274403947740793
1783169457267287600,11.44328759765625,0.09154781836271285,0.08868541466891765,-0.022038228806853292
1783169457277236700,11.45323681640625,0.13260171328485013,0.10470599062144756,0.01688767764326185
1783169457287215600,11.463215576171875,0.1492114873021841,0.11699848596155643,0.050539771876297886
1783169457297164800,11.473164794921875,0.12582476649582386,0.09428338080644608,0.06002568536307663
1783169457307113700,11.48311376953125,0.11779226668775081,0.07437398072183132,0.0485523974513635
1783169457317092600,11.493092529296876,0.1202022504389286,0.08218903838694096,0.030724479815922676
1783169457327041500,11.50304150390625,0.13517068699002266,0.14658172332048416,0.00855330881178379
1783169457336990700,11.51299072265625,0.14014730635881423,0.19417758723199366,-0.012681531190313398
1783169457346938600,11.522938720703126,0.07331073540449141,0.16967793674767018,-0.017865327036380767
1783169457356918500,11.53291845703125,0.06511924564242362,0.15568623627424238,-0.009757423904538154
1783169457366866700,11.54286669921875,0.08993219985961913,0.1520779826492071,0.00828556125368923
1783169457376815600,11.552815673828125,0.05917991872131824,0.13552315368950366,0.027888087346218525
1783169457386764500,11.5627646484375,0.012644377517700195,0.12542846065461635,0.0498904045894742
1783169457396743400,11.572743408203126,0.01187163957953453,0.120263040715456,0.04795998451616615
1783169457406692600,11.582692626953126,-0.012806874603033066,0.1588841555327177,0.047096682217717165
1783169457416640500,11.592640625,-0.04068272352218628,0.18326280998587607,0.06733867525756358
1783169457426620400,11.602620361328125,-0.0384685546040535,0.1485527311325073,-0.015447744500637054
1783169457436568600,11.612568603515625,-0.05669628521203995,0.11654138984382152,-0.04049392295181751
1783169457446517800,11.622517822265625,-0.03944996685683727,0.07478957578539848,-0.019094576570391653
1783169457456466700,11.632466796875,0.027649054425954816,0.02805237452983856,-0.03136895173192024
1783169457466445600,11.642445556640626,0.0429646969795227,-0.008739186772704124,-0.056907589875161646
1783169457476394800,11.652394775390626,0.06333060865998268,-0.04328209236562252,-0.11123952057603746
1783169457486343700,11.66234375,0.12099018594622611,-0.042623920717835426,-0.10897446172088383
1783169457496291600,11.67229150390625,0.11636954040825366,-0.03955985697209835,-0.07397475227117538
1783169457506271500,11.682271484375,0.10919044255912304,-0.05880582471191883,-0.06370795407239348
1783169457516219600,11.6922197265625,0.10406535463035106,-0.08401450024843216,-0.07399057089481502
1783169457526168600,11.70216845703125,0.09727145670652389,-0.09821078338325023,-0.09306962110251188
1783169457536147700,11.712147705078126,0.09077274233698844,-0.11095452962219715,-0.05526453537587076
1783169457546096600,11.7220966796875,-0.012926117068529128,-0.11983400164842604,-0.04158288723230362
1783169457556045600,11.732045654296876,-0.10886018769145012,-0.1063771387040615,-0.14036971693783998
1783169457565993500,11.741993408203125,0.1239443595767021,0.03540449085831642,-0.2803130251571536
1783169457575973600,11.7519736328125,1.1212094305306672,0.35143092669248577,0.056557753524184226
1783169457585921500,11.761921630859375,0.20408932491540907,0.2775450217485428,0.40500907988399265
1783169457595870500,11.771870361328125,-0.44627194138169285,0.025672201395034788,0.0010465864434838295
1783169457605819600,11.781819580078125,-0.17521102095544336,0.10443184985518456,-0.07237140872776508
1783169457615798500,11.791798583984376,-0.2237432889342308,0.2083580882757902,-0.03156885821819305
1783169457625747700,11.801747802734376,-0.21594109075069426,0.26861937249302864,0.027964988507330417
1783169457635696600,11.811696533203126,-0.3208639389932155,0.2927981204599142,0.1593593718290329
1783169457645675800,11.82167578125,-0.24421616812050342,0.25554011068940163,0.14252426462322473
1783169457655624700,11.831624755859375,0.113356914588809,0.15455810902714728,0.009117372435331344
