time,seconds_elapsed,z,y,x
1783169445935893500,0.1118935546875,0.0543396919965744,0.09676219522953033,-0.047329701483249664
1783169445945841400,0.12184130859375,0.055540330708026886,0.07351576536893845,-0.037116579711437225
1783169445955790600,0.13179052734375,0.05612063407897949,0.030104108154773712,-0.022906487807631493
1783169445965739500,0.141739501953125,0.058829523622989655,0.009480170905590057,-0.004275118000805378
1783169445975718400,0.151718505859375,0.06330869346857071,0.017709603533148766,0.016458123922348022
1783169445985667600,0.16166748046875,0.07050817459821701,0.04301941394805908,0.035171352326869965
1783169445995616500,0.171616455078125,0.07988329976797104,0.04467536881566048,0.043785348534584045
1783169446005595400,0.181595458984375,0.09121116250753403,0.022125665098428726,0.03731054067611694
1783169446015544300,0.19154443359375,0.10150454193353653,0.005338961258530617,0.03297038376331329
1783169446025492500,0.201492431640625,0.09977341443300247,-0.0024245858658105135,0.030715778470039368
1783169446035441400,0.21144140625,0.09148486703634262,-0.007806035690009594,0.02898738719522953
1783169446045420300,0.221420166015625,0.07973715662956238,-0.0038558163214474916,0.01920846849679947
1783169446055369500,0.231369384765625,0.07604867964982986,0.00026728957891464233,-0.0004134373739361763
1783169446065318400,0.241318359375,0.07683314383029938,0.007336716167628765,-0.019374029710888863
1783169446075266300,0.251266357421875,0.07748375833034515,0.004464231431484222,-0.040336571633815765
1783169446085246200,0.26124609375,0.08741648495197296,0.0038435813039541245,-0.054286837577819824
1783169446095194400,0.2711943359375,0.09684620797634125,-0.0007027015089988708,-0.06124275177717209
1783169446105143300,0.281143310546875,0.11521743983030319,-0.013638464733958244,-0.057850465178489685
1783169446115122400,0.291122314453125,0.12722882628440857,-0.0340084508061409,-0.048272404819726944
1783169446125071600,0.301071533203125,0.12782181799411774,-0.04538602754473686,-0.02388693019747734
1783169446135053600,0.311053466796875,0.1150522381067276,-0.05048145353794098,-0.002165389247238636
1783169446145002500,0.32100244140625,0.0922648087143898,-0.055344175547361374,0.018932145088911057
1783169446154981600,0.330981689453125,0.07030518352985382,-0.037905264645814896,0.03688451275229454
1783169446164930800,0.340930908203125,0.050046905875205994,-0.021992210298776627,0.03845273703336716
1783169446174878700,0.350878662109375,0.03627117723226547,-0.004263279959559441,0.02782512456178665
1783169446184828000,0.360827880859375,0.03384603559970856,0.01994818076491356,0.018923141062259674
1783169446194806800,0.370806884765625,0.03084385208785534,0.020722363144159317,0.002683185040950775
1783169446204755700,0.380755615234375,0.018603278324007988,-0.013566292822360992,-0.0190010666847229
1783169446214704600,0.39070458984375,-0.0012503210455179214,-0.03627453371882439,-0.04048745334148407
1783169446224683800,0.400683837890625,-0.016192812472581863,-0.023852795362472534,-0.04484289884567261
1783169446234632700,0.4106328125,-0.03615080565214157,-0.010193174704909325,-0.04419495165348053
1783169446244580900,0.420580810546875,-0.050130248069763184,0.004896603990346193,-0.03981154039502144
1783169446254529800,0.43052978515625,-0.05586696416139603,0.026445303112268448,-0.028112541884183884
1783169446264508700,0.4405087890625,-0.058445461094379425,0.045821622014045715,-0.01006307639181614
1783169446274457600,0.45045751953125,-0.06022338569164276,0.05168084427714348,0.011451535858213902
1783169446284406800,0.46040673828125,-0.050132643431425095,0.05846023187041283,0.03959140554070473
1783169446294355700,0.470355712890625,-0.03832259029150009,0.06923511624336243,0.061476729810237885
1783169446304334600,0.48033447265625,-0.033233121037483215,0.05676573887467384,0.07801634818315506
1783169446314283500,0.490283447265625,-0.0388457328081131,0.009303146973252296,0.07018771767616272
1783169446324231700,0.500231689453125,-0.03874604403972626,-0.030385635793209076,0.046479351818561554
1783169446334211800,0.5102119140625,-0.03179892152547836,-0.03927047550678253,0.013904629275202751
1783169446344159500,0.520159423828125,-0.020958375185728073,-0.03846096247434616,-0.02804708667099476
1783169446354109000,0.53010888671875,-0.00246538408100605,-0.030081328004598618,-0.06348683685064316
1783169446364057900,0.540057861328125,0.02472999505698681,-0.023027315735816956,-0.08007305860519409
1783169446374036700,0.55003662109375,0.04694262892007828,-0.010595944710075855,-0.07810258865356445
1783169446383985700,0.559985595703125,0.05613083392381668,-0.0034258500672876835,-0.046949081122875214
1783169446393933800,0.569933837890625,0.051573097705841064,-0.010197203606367111,-0.0002375040203332901
1783169446403882800,0.5798828125,0.03324401378631592,-0.028915008530020714,0.046866681426763535
1783169446413861600,0.589861572265625,0.01100182719528675,-0.04566629230976105,0.08089255541563034
1783169446423810800,0.599810791015625,-0.022755080834031105,-0.05249478295445442,0.09631247818470001
1783169446433759700,0.609759765625,-0.05514444410800934,-0.04506349936127663,0.0786738246679306
1783169446443738600,0.619738525390625,-0.07598181813955307,-0.01980767771601677,0.042293183505535126
1783169446453687600,0.6296875,-0.08812209963798523,0.01586749590933323,-0.012430782429873943
1783169446463636700,0.63963671875,-0.082041434943676,0.05173790827393532,-0.07540767639875412
1783169446473584600,0.649584716796875,-0.06505978852510452,0.07327835261821747,-0.1255645900964737
1783169446483564500,0.659564453125,-0.04789938032627106,0.0759352520108223,-0.15603585541248322
1783169446493512700,0.6695126953125,-0.04155253618955612,0.05761802941560745,-0.1585131287574768
1783169446503461600,0.679461669921875,-0.04405117779970169,0.035595156252384186,-0.13983699679374695
1783169446513410800,0.689410888671875,-0.047509558498859406,0.021203165873885155,-0.11173612624406815
1783169446523389700,0.6993896484375,-0.04786119610071182,0.014100847765803337,-0.07943006604909897
1783169446533339000,0.7093388671875,-0.039210982620716095,0.014991410076618195,-0.053709257394075394
1783169446543287800,0.719287841796875,-0.026550525799393654,0.011270802468061447,-0.040700558573007584
1783169446553266700,0.7292666015625,0.0021690037101507187,0.006389761809259653,-0.049669284373521805
1783169446563214800,0.73921484375,0.030025547370314598,-0.005100145470350981,-0.06500435620546341
1783169446573163800,0.749163818359375,0.0542142391204834,-0.016932837665081024,-0.07886744290590286
1783169446583112700,0.75911279296875,0.06369632482528687,-0.026285523548722267,-0.09343647956848145
1783169446593091800,0.769091796875,0.0546325221657753,-0.029095957055687904,-0.09839528053998947
1783169446603040800,0.779040771484375,0.03272988647222519,-0.02684611827135086,-0.08941324055194855
1783169446612989700,0.78898974609375,0.009574232622981071,-0.01607895828783512,-0.07127604633569717
1783169446622937600,0.7989375,-0.008798519149422646,-0.007943827658891678,-0.050376832485198975
1783169446632917800,0.808917724609375,-0.014981047250330448,-0.009486064314842224,-0.024023789912462234
1783169446642865700,0.81886572265625,-0.016797494143247604,-0.016911273822188377,-0.004184219986200333
1783169446652814600,0.828814697265625,-0.019399669021368027,-0.024770261719822884,0.011331622488796711
1783169446662793700,0.838793701171875,-0.02554704248905182,-0.03557497262954712,0.015123696997761726
1783169446672742700,0.84874267578125,-0.030941808596253395,-0.042659513652324677,0.016029704362154007
1783169446682691800,0.85869189453125,-0.03839411213994026,-0.037356186658144,0.008837101049721241
1783169446692640800,0.868640869140625,-0.05260048061609268,-0.028565891087055206,-0.003421695902943611
1783169446702620000,0.878619873046875,-0.06568736582994461,-0.025731081143021584,-0.01803327351808548
1783169446712568800,0.88856884765625,-0.0733836367726326,-0.03616880625486374,-0.036174993962049484
1783169446722516700,0.898516845703125,-0.07094664126634598,-0.04303108528256416,-0.054554764181375504
1783169446732496000,0.908495849609375,-0.07103825360536575,-0.04318235442042351,-0.06928150355815887
1783169446742444800,0.91844482421875,-0.07159720361232758,-0.042833782732486725,-0.0782303586602211
1783169446752393700,0.928393798828125,-0.06551161408424377,-0.029762722551822662,-0.0833449587225914
1783169446762342700,0.9383427734375,-0.05601254105567932,-0.009334048256278038,-0.08098205924034119
1783169446772321800,0.94832177734375,-0.04394415766000748,0.004370045382529497,-0.0740213543176651
1783169446782270700,0.958270751953125,-0.036198198795318604,0.003200021106749773,-0.06672736257314682
1783169446792218600,0.968218505859375,-0.030844978988170624,-0.016307633370161057,-0.0563141405582428
1783169446802167600,0.97816748046875,-0.024812869727611542,-0.036808669567108154,-0.04604841023683548
1783169446812146700,0.988146728515625,-0.017972273752093315,-0.048837900161743164,-0.039330318570137024
1783169446822095600,0.998095703125,-0.0040716752409935,-0.029293591156601906,-0.046352531760931015
1783169446832044500,1.00804443359375,0.012772554531693459,-0.002070492133498192,-0.052125733345746994
1783169446842023700,1.018023681640625,0.02086242474615574,0.019268736243247986,-0.05783294141292572
1783169446851972900,1.027972900390625,0.02085763029754162,0.016507036983966827,-0.0628117173910141
1783169446861921800,1.037921875,0.01702304556965828,0.01109478622674942,-0.06005658954381943
1783169446871869700,1.04786962890625,0.019465964287519455,0.019119689241051674,-0.04289251193404198
1783169446881849900,1.057849853515625,0.01774332858622074,0.009513577446341515,-0.028676653280854225
1783169446891797800,1.0677978515625,0.019692232832312584,-0.007068328559398651,-0.018991269171237946
1783169446901746700,1.07774658203125,0.02923247404396534,-0.00946650467813015,-0.01720295660197735
1783169446911695600,1.087695556640625,0.0433749258518219,-0.009521367028355598,-0.019292738288640976
1783169446921674800,1.0976748046875,0.04974778741598129,0.0014835735782980919,-0.03355732187628746
1783169446931623700,1.107623779296875,0.049936071038246155,0.015115496702492237,-0.04846729338169098
1783169446941571800,1.11757177734375,0.04353871941566467,0.03645852208137512,-0.06071655452251434
1783169446951551700,1.1275517578125,0.027859626337885857,0.036848943680524826,-0.06622344255447388
1783169446961499600,1.137499755859375,0.01157023012638092,0.02831423468887806,-0.06413184851408005
1783169446971448600,1.147448486328125,-0.0011413060128688812,0.02320815622806549,-0.05639243870973587
1783169446981397500,1.1573974609375,-0.007915297523140907,0.015809830278158188,-0.04606209695339203
1783169446991376600,1.167376708984375,-0.005357332527637482,0.011428664438426495,-0.039246268570423126
1783169447001325600,1.17732568359375,0.005089204758405685,0.0007913680747151375,-0.0296804029494524
1783169447011274800,1.187274658203125,0.01348668523132801,-0.009840503334999084,-0.021104758605360985
1783169447021223000,1.197222900390625,0.017002055421471596,-0.018381260335445404,-0.013364814221858978
1783169447031202800,1.207202880859375,0.017298465594649315,-0.019667301326990128,-0.008097348734736443
1783169447041150700,1.217150634765625,0.017065556719899178,-0.003453353885561228,-0.00014514289796352386
1783169447051100000,1.227099853515625,0.006562845781445503,0.030319523066282272,0.006279200315475464
1783169447061078800,1.237078857421875,-0.010226240381598473,0.04824407771229744,0.010386914946138859
1783169447071027700,1.24702783203125,-0.024498919025063515,0.057483378797769547,0.01794043928384781
1783169447080976600,1.2569765625,-0.03363093361258507,0.04952327907085419,0.019149845466017723
1783169447090924800,1.2669248046875,-0.03863527998328209,0.03391608968377113,0.01516202837228775
1783169447100904700,1.27690478515625,-0.03862609714269638,0.021064311265945435,0.007139134220778942
1783169447110852600,1.2868525390625,-0.030935419723391533,0.020823560655117035,0.0005728444084525108
1783169447120801800,1.2968017578125,-0.021842319518327713,0.031368907541036606,0.0004137270152568817
1783169447130774300,1.306774169921875,-0.018732812255620956,0.032030969858169556,0.004269718192517757
1783169447140753200,1.316753173828125,-0.020967897027730942,0.023688554763793945,0.005328011699020863
1783169447150702300,1.326702392578125,-0.02216605469584465,0.013770677149295807,0.013960914686322212
1783169447160651300,1.3366513671875,-0.027283484116196632,0.004555547144263983,0.01971675455570221
1783169447170630100,1.346630126953125,-0.03148781508207321,-0.009216191247105598,0.027749646455049515
1783169447180579000,1.3565791015625,-0.03868427127599716,-0.011711442843079567,0.031532835215330124
1783169447190527200,1.36652734375,-0.04998140037059784,-0.012553268112242222,0.03277706354856491
1783169447200476200,1.37647607421875,-0.057271808385849,-0.009575321339070797,0.02495402842760086
1783169447210455300,1.386455322265625,-0.062398120760917664,-0.002623405773192644,0.017658831551671028
1783169447220404200,1.396404296875,-0.06657396256923676,-0.0012888959608972073,0.007383557036519051
1783169447230353200,1.406353271484375,-0.07256633788347244,-0.011862177401781082,0.003568578977137804
1783169447240301000,1.416301025390625,-0.07177536934614182,-0.0242619626224041,0.0031316103413701057
1783169447250281200,1.42628125,-0.0665459856390953,-0.03740492835640907,0.011519769206643105
1783169447260229000,1.43622900390625,-0.05537167936563492,-0.060919538140296936,0.020611627027392387
1783169447270178300,1.44617822265625,-0.033255189657211304,-0.08197768777608871,0.03416179120540619
1783169447280157400,1.456157470703125,-0.010134939104318619,-0.09522008895874023,0.06317353248596191
1783169447290106400,1.4661064453125,0.01116316020488739,-0.08662553131580353,0.10653963685035706
1783169447300055300,1.47605517578125,0.019562816247344017,-0.05656569078564644,0.1659940928220749
1783169447310004200,1.486004150390625,0.01013709045946598,-0.05466552823781967,0.2136649340391159
1783169447319983400,1.4959833984375,-0.017806774005293846,-0.07525743544101715,0.22243338823318481
1783169447329932300,1.505932373046875,-0.05283959209918976,-0.07065974920988083,0.21049469709396362
1783169447339880200,1.515880126953125,-0.08087297528982162,-0.008153950795531273,0.19125550985336304
1783169447349829000,1.5258291015625,-0.09967063367366791,0.06725132465362549,0.16203583776950836
1783169447359808300,1.535808349609375,-0.11018043756484985,0.11528217792510986,0.12787394225597382
1783169447369757200,1.545757080078125,-0.10433639585971832,0.1546013504266739,0.09895601868629456
1783169447379706000,1.5557060546875,-0.08751370012760162,0.18846139311790466,0.08574153482913971
1783169447389685200,1.565685302734375,-0.07327883690595627,0.20819967985153198,0.09763360768556595
1783169447399634200,1.57563427734375,-0.07064691931009293,0.19413389265537262,0.12448077648878098
1783169447409582000,1.58558203125,-0.07382193952798843,0.15326422452926636,0.15046310424804688
1783169447419531000,1.595531005859375,-0.06746073067188263,0.0826048031449318,0.16674722731113434
1783169447429510100,1.60551025390625,-0.04024215787649155,-0.004120765253901482,0.16627611219882965
1783169447439459300,1.615459228515625,0.008064603433012962,-0.048422425985336304,0.14752553403377533
1783169447449408300,1.625408203125,0.05364859849214554,-0.04894839972257614,0.12168276309967041
1783169447459357200,1.635357177734375,0.08472354710102081,-0.030534828081727028,0.08783483505249023
1783169447469336300,1.64533642578125,0.10013631731271744,-0.0219461340457201,0.04876599460840225
1783169447479285200,1.65528515625,0.101618692278862,-0.03408655524253845,0.006599097047001123
1783169447489233200,1.665233154296875,0.09611500054597855,-0.05243467167019844,-0.02544831857085228
1783169447499213300,1.67521337890625,0.0873490646481514,-0.054460808634757996,-0.05263180285692215
1783169447509161200,1.6851611328125,0.07591265439987183,-0.046689704060554504,-0.0714973732829094
1783169447519110100,1.695110107421875,0.0659649446606636,-0.03418806567788124,-0.07493618875741959
1783169447529059000,1.70505908203125,0.06512071937322617,-0.02864975854754448,-0.06560074537992477
1783169447539038200,1.7150380859375,0.07085759937763214,-0.03068830817937851,-0.06017569452524185
1783169447548987100,1.724987060546875,0.08271053433418274,-0.05085935443639755,-0.056400127708911896
1783169447558936000,1.73493603515625,0.0929238349199295,-0.06977565586566925,-0.05366136133670807
1783169447568884200,1.74488427734375,0.09130969643592834,-0.049645084887742996,-0.044548824429512024
1783169447578863000,1.754863037109375,0.07952467352151871,-0.025680096819996834,-0.03392547369003296
1783169447588812000,1.76481201171875,0.062110260128974915,-0.0339132584631443,-0.026640931144356728
1783169447598761200,1.77476123046875,0.048886604607105255,-0.06084873527288437,-0.025602830573916435
1783169447608740400,1.784740234375,0.043642304837703705,-0.10092877596616745,-0.034506842494010925
1783169447618689300,1.794689208984375,0.040750693529844284,-0.12760302424430847,-0.04738371819257736
1783169447628638200,1.80463818359375,0.04567141458392143,-0.11656608432531357,-0.06682159751653671
1783169447638586400,1.81458642578125,0.04993269592523575,-0.07672969996929169,-0.08262190967798233
1783169447648566300,1.824566162109375,0.04830257594585419,-0.03126900643110275,-0.10264887660741806
1783169447658514200,1.83451416015625,0.04489133507013321,0.004103780258446932,-0.10925479978322983
1783169447668463000,1.844463134765625,0.038067251443862915,0.011468218639492989,-0.103648841381073
1783169447678412300,1.854412353515625,0.034581154584884644,-0.02105966955423355,-0.08999306708574295
1783169447688391200,1.86439111328125,0.02884417213499546,-0.031095795333385468,-0.06388317048549652
1783169447698340000,1.874340087890625,0.02230842225253582,-0.046370118856430054,-0.024211544543504715
1783169447708289000,1.8842890625,0.01971396990120411,-0.05815700441598892,0.015870094299316406
1783169447718268200,1.89426806640625,0.021685535088181496,-0.06297649443149567,0.05064842477440834
1783169447728217000,1.904217041015625,0.016790376976132393,-0.04958318918943405,0.07193480432033539
1783169447738165200,1.914165283203125,0.007989795878529549,-0.013283711858093739,0.07524856925010681
1783169447748114200,1.9241142578125,-0.013582873158156872,0.01966411992907524,0.057274628430604935
1783169447758093000,1.934093017578125,-0.03292975202202797,0.04412245750427246,0.021002579480409622
1783169447768042200,1.944042236328125,-0.0466303825378418,0.08764836192131042,-0.02023620344698429
1783169447777991200,1.9539912109375,-0.044538673013448715,0.12534178793430328,-0.07279026508331299
1783169447787939300,1.963939208984375,-0.020648520439863205,0.13330011069774628,-0.1241072490811348
1783169447797919200,1.973919189453125,0.016273798421025276,0.09088592976331711,-0.1622866541147232
1783169447807867400,1.983867431640625,0.0547570064663887,0.02446962334215641,-0.1692950278520584
1783169447817816300,1.99381640625,0.07744049280881882,-0.04039550945162773,-0.14836730062961578
1783169447827795200,2.003795166015625,0.07751293480396271,-0.07685684412717819,-0.10171671956777573
1783169447837744000,2.013744140625,0.052615854889154434,-0.07684524357318878,-0.04174511134624481
1783169447847693300,2.023693359375,0.026521936058998108,-0.07513229548931122,0.01054338924586773
1783169447857642200,2.033642333984375,0.017583975568413734,-0.08374625444412231,0.03851788118481636
1783169447867621000,2.04362109375,0.022597642615437508,-0.09585032612085342,0.05979760363698006
1783169447877570000,2.053570068359375,0.023175979033112526,-0.08392249047756195,0.07603760808706284
1783169447887518200,2.063518310546875,0.01910960115492344,-0.049042001366615295,0.0838039219379425
1783169447897467100,2.073467041015625,0.018406661227345467,-0.029927847906947136,0.07028982043266296
1783169447907446300,2.0834462890625,0.022779302671551704,-0.028949404135346413,0.0401361808180809
1783169447917395200,2.093395263671875,0.03720608353614807,-0.025560714304447174,0.006979611236602068
1783169447927344400,2.103344482421875,0.041429854929447174,-0.022075170651078224,-0.013120329938828945
1783169447937323300,2.1133232421875,0.034540772438049316,-0.004063715226948261,-0.01927739754319191
1783169447947272200,2.123272216796875,0.01777750439941883,0.00038589397445321083,-0.008278276771306992
1783169447957220400,2.133220458984375,-0.0014099311083555222,-0.01654427871108055,0.012091975659132004
1783169447967169300,2.143169189453125,-0.013484170660376549,-0.025698894634842873,0.029553258791565895
1783169447977148400,2.1531484375,-0.01701466366648674,-0.031323228031396866,0.04659514129161835
1783169447987097300,2.163097412109375,-0.018972886726260185,-0.032457999885082245,0.05828508734703064
1783169447997046300,2.17304638671875,-0.024290140718221664,-0.025128556415438652,0.06587595492601395
1783169448006995200,2.1829951171875,-0.035242922604084015,-0.008147708140313625,0.06205804646015167
1783169448016974300,2.192974365234375,-0.04206345975399017,-0.0032296134158968925,0.051145099103450775
1783169448026923300,2.20292333984375,-0.04252338781952858,-0.002832003403455019,0.03078550286591053
1783169448036871200,2.21287109375,-0.03793295845389366,-0.002674350282177329,0.00679276417940855
1783169448046851000,2.22285107421875,-0.028456632047891617,-0.0008972226642072201,-0.008857036009430885
1783169448056799200,2.23279931640625,-0.007205380126833916,0.005039443727582693,-0.017682813107967377
1783169448066748200,2.242748046875,0.014996062964200974,-0.0022011587861925364,-0.017509177327156067
1783169448076697000,2.252697021484375,0.036461107432842255,-0.03679678216576576,-0.010628887452185154
1783169448086676200,2.26267626953125,0.046119324862957,-0.05953378602862358,0.0024735983461141586
1783169448096625400,2.27262548828125,0.03917859494686127,-0.06989534199237823,0.015944931656122208
1783169448106573000,2.282572998046875,0.01790446601808071,-0.05173897743225098,0.0329849012196064
1783169448116522200,2.292522216796875,-0.01476376038044691,-0.03449505195021629,0.05363760143518448
1783169448126501400,2.30250146484375,-0.04092425853013992,-0.026200637221336365,0.06975559145212173
1783169448136480300,2.312480224609375,-0.05401773750782013,-0.07829324901103973,0.08861476927995682
1783169448146429400,2.322429443359375,-0.040750935673713684,-0.20107349753379822,0.1358128935098648
1783169448156408300,2.332408203125,-0.04149016737937927,-0.2558104991912842,0.19023092091083527
1783169448166357500,2.342357421875,-0.04671475291252136,-0.24609263241291046,0.22563737630844116
1783169448176306400,2.352306396484375,-0.04435982182621956,-0.20397919416427612,0.22452344000339508
1783169448186254600,2.362254638671875,-0.03228158503770828,-0.16913118958473206,0.1904754489660263
1783169448196234500,2.372234375,-0.024630285799503326,-0.13298457860946655,0.12618829309940338
1783169448206182400,2.382182373046875,-0.021134354174137115,-0.08453849703073502,0.0428135022521019
1783169448216131300,2.39213134765625,-0.023885326460003853,-0.028135914355516434,-0.04880210757255554
1783169448226080500,2.40208056640625,-0.03253766894340515,0.034801505506038666,-0.14254429936408997
1783169448236059400,2.412059326171875,-0.02829204872250557,0.08062160760164261,-0.2114546298980713
1783169448246008300,2.42200830078125,-0.021408043801784515,0.09924748539924622,-0.25232216715812683
1783169448255956500,2.43195654296875,-0.014563903212547302,0.08648912608623505,-0.2614414393901825
1783169448265936400,2.441936279296875,-0.0077709779143333435,0.05252183601260185,-0.24363850057125092
1783169448275884300,2.45188427734375,-0.0005003660917282104,0.029661750420928,-0.19832471013069153
1783169448285833500,2.46183349609375,0.008381010964512825,0.022748185321688652,-0.14374667406082153
1783169448295782400,2.471782470703125,0.013575054705142975,0.022945834323763847,-0.08551916480064392
1783169448305761300,2.48176123046875,0.02156267687678337,0.0282061118632555,-0.03518834710121155
1783169448315710500,2.49171044921875,0.032401397824287415,0.027491817250847816,0.0037930752150714397
1783169448325659400,2.501659423828125,0.0482458733022213,0.001520402729511261,0.021478861570358276
1783169448335607600,2.511607666015625,0.05912303179502487,-0.02921900898218155,0.011940796859562397
1783169448345587500,2.52158740234375,0.07435604184865952,-0.04240778088569641,-0.013738468289375305
1783169448355535600,2.53153564453125,0.0814962238073349,-0.013039786368608475,-0.04566623643040657
1783169448365484500,2.541484619140625,0.07949645072221756,0.032515447586774826,-0.07007197290658951
1783169448375463400,2.55146337890625,0.07000087946653366,0.06520851701498032,-0.08465874940156937
1783169448385412400,2.561412353515625,0.05993971973657608,0.05422191321849823,-0.09173662960529327
1783169448395361500,2.571361572265625,0.05382773280143738,0.015718016773462296,-0.09081108123064041
1783169448405310500,2.581310546875,0.05237603932619095,-0.01602846011519432,-0.08040104806423187
1783169448415289300,2.591289306640625,0.051337435841560364,-0.019168555736541748,-0.0597236230969429
1783169448425237500,2.601237548828125,0.04546010494232178,0.006733614020049572,-0.028988614678382874
1783169448435186400,2.6111865234375,0.03501579165458679,0.035688720643520355,0.0026570349000394344
1783169448445135400,2.62113525390625,0.020526332780718803,0.043931737542152405,0.023114904761314392
1783169448455114200,2.6311142578125,0.0129935834556818,0.01712835393846035,0.031259384006261826
1783169448465063400,2.6410634765625,0.004247494041919708,-0.008944525383412838,0.031435687094926834
1783169448475012600,2.6510126953125,-0.005543883889913559,-0.027970680966973305,0.029872143641114235
1783169448484991200,2.6609912109375,-0.01204785518348217,-0.03168525919318199,0.0136545579880476
1783169448494940400,2.6709404296875,-0.01554087083786726,-0.03111656755208969,-0.0019201962277293205
1783169448504888600,2.680888671875,-0.013169858604669571,-0.023189667612314224,-0.02636774815618992
1783169448514837500,2.69083740234375,-0.01045242790132761,-0.004793612286448479,-0.05184945464134216
1783169448524816600,2.700816650390625,-0.007101371884346008,0.01289110817015171,-0.07925258576869965
1783169448534765600,2.710765625,-0.0006628409028053284,0.022687967866659164,-0.0887940526008606
1783169448544714500,2.720714599609375,0.003699149936437607,0.02230607159435749,-0.09155947715044022
1783169448554663400,2.730663330078125,0.0014071613550186157,0.022912584245204926,-0.07335980981588364
1783169448564642300,2.740642333984375,-0.0016235169023275375,0.021399375051259995,-0.03975444287061691
1783169448574591500,2.750591552734375,-0.004632622003555298,0.00570190604776144,-0.007823940366506577
1783169448584539400,2.760539306640625,0.0009488314390182495,-0.008402461186051369,0.020588792860507965
1783169448594518500,2.7705185546875,0.007345488294959068,-0.014587104320526123,0.04226621985435486
1783169448604467500,2.780467529296875,0.013380477204918861,-0.022280443459749222,0.05167809873819351
1783169448614416400,2.79041650390625,0.013676980510354042,-0.016608675941824913,0.05020775645971298
1783169448624365300,2.800365234375,0.008776234462857246,-0.022320622578263283,0.04020465910434723
1783169448634344400,2.810344482421875,-0.00012183748185634613,-0.027495095506310463,0.020020097494125366
1783169448644293400,2.82029345703125,-0.0009740497916936874,-0.015714868903160095,0.0023039504885673523
1783169448654241300,2.8302412109375,-0.004922272637486458,-0.0105869947001338,-0.011561693623661995
1783169448664190500,2.8401904296875,-0.0023342128843069077,-0.015774566680192947,-0.022569868713617325
1783169448674169600,2.850169677734375,0.0027915742248296738,-0.030026603490114212,-0.02897552214562893
1783169448684118500,2.860118408203125,0.010455884039402008,-0.04829882085323334,-0.031067969277501106
1783169448694067500,2.8700673828125,0.011096550151705742,-0.07205679267644882,-0.020200084894895554
1783169448704046600,2.880046630859375,0.0048948489129543304,-0.08053655922412872,-0.014071350917220116
1783169448713995500,2.88999560546875,-0.0011211428791284561,-0.08073025941848755,-0.010978680104017258
1783169448723944400,2.8999443359375,-0.003214653581380844,-0.08861401677131653,-0.020335163921117783
1783169448733892400,2.909892333984375,0.0024721678346395493,-0.07995959371328354,-0.029582714661955833
1783169448743872500,2.91987255859375,0.005707910284399986,-0.0617947019636631,-0.037117861211299896
1783169448753820400,2.9298203125,0.007985180243849754,-0.0620887354016304,-0.04411620274186134
1783169448763769300,2.939769287109375,0.011270986869931221,-0.06723183393478394,-0.048934660851955414
1783169448773718300,2.94971826171875,0.016155047342181206,-0.05828740447759628,-0.044720713049173355
1783169448783697400,2.959697509765625,0.007958637550473213,-0.04261896386742592,-0.030141238123178482
1783169448793646300,2.969646240234375,-0.005770841613411903,-0.03270273655653,-0.014282448217272758
1783169448803594200,2.97959423828125,-0.02204754948616028,-0.028694946318864822,-0.002275320701301098
1783169448813574400,2.989574462890625,-0.024517543613910675,-0.037125810980796814,0.013703586533665657
1783169448823522300,2.999522216796875,-0.012287242338061333,-0.054527971893548965,0.020857902243733406
1783169448833471500,3.009471435546875,0.007567763328552246,-0.07965084910392761,0.019299928098917007
1783169448843420400,3.01942041015625,0.024604272097349167,-0.07837945222854614,0.012526709586381912
1783169448853399600,3.029399658203125,0.03339465707540512,-0.05589860677719116,0.003608210477977991
1783169448863348500,3.039348388671875,0.03740137815475464,-0.031234007328748703,-0.001642744056880474
1783169448873297400,3.04929736328125,0.04566428065299988,-0.00808744877576828,0.0023193457163870335
1783169448883245600,3.05924560546875,0.049878738820552826,0.010134965181350708,0.018270881846547127
1783169448893225500,3.0692255859375,0.0505855455994606,0.010898631066083908,0.04118024557828903
1783169448903173400,3.07917333984375,0.04411779344081879,0.005945684853941202,0.0708630383014679
1783169448913122300,3.089122314453125,0.02829263173043728,0.00053030950948596,0.09427957236766815
1783169448923101400,3.099101318359375,0.015417313203215599,-0.0014002160169184208,0.10536710917949677
1783169448933050400,3.10905029296875,0.008871836587786674,0.0028622345998883247,0.09842552244663239
1783169448942999300,3.118999267578125,0.0038347337394952774,0.01505045872181654,0.07890589535236359
1783169448952947500,3.128947509765625,0.008274750784039497,0.03251160308718681,0.06003068387508392
1783169448962927400,3.13892724609375,0.013844752684235573,0.043953873217105865,0.03410667926073074
1783169448972875300,3.148875244140625,0.012514334172010422,0.04453835263848305,0.02317124232649803
1783169448982824400,3.158824462890625,0.005097163841128349,0.040073830634355545,0.016288569197058678
1783169448992773600,3.168773681640625,-0.001874459907412529,0.04731535166501999,0.02410871908068657
1783169449002752500,3.17875244140625,-0.001949826255440712,0.05129065364599228,0.03558534383773804
1783169449012701400,3.188701416015625,0.0008413251489400864,0.05011734366416931,0.049327123910188675
1783169449022650400,3.198650390625,0.004064016044139862,0.04855326935648918,0.05927642434835434
1783169449032629500,3.20862939453125,0.012082088738679886,0.03128978610038757,0.06705466657876968
1783169449042578400,3.218578369140625,0.030176937580108643,0.004743128549307585,0.06602588295936584
1783169449052526600,3.228526611328125,0.05362865328788757,-0.00655124057084322,0.07183972001075745
1783169449062475500,3.2384755859375,0.0655289888381958,-0.015509847551584244,0.07778869569301605
1783169449072454400,3.248454345703125,0.07370676100254059,-0.018160225823521614,0.09177641570568085
1783169449082403300,3.2584033203125,0.07621465623378754,0.005248693749308586,0.10553216934204102
1783169449092352500,3.2683525390625,0.06524978578090668,-0.0037563107907772064,0.10318619757890701
1783169449102300400,3.278300537109375,0.038673035800457,-0.06338129192590714,0.05779661238193512
1783169449112280300,3.2882802734375,0.019606858491897583,-0.11374316364526749,0.0007547899149358273
1783169449122228500,3.298228515625,0.011356119066476822,-0.09783291071653366,-0.053996339440345764
1783169449132205000,3.308205078125,-0.0035869646817445755,-0.06288428604602814,-0.09239634871482849
1783169449142184000,3.318183837890625,-0.03003241866827011,-0.04598946124315262,-0.1250360608100891
1783169449152132900,3.3281328125,-0.049268342554569244,-0.031224854290485382,-0.1335749626159668
1783169449162082000,3.33808203125,-0.06059156730771065,-0.01366396900266409,-0.1252371370792389
1783169449172031200,3.34803125,-0.06474042683839798,-0.014957709237933159,-0.1076352596282959
1783169449182009900,3.358009765625,-0.05298256874084473,-0.032570526003837585,-0.0766693502664566
1783169449191959000,3.367958984375,-0.017178937792778015,-0.042243074625730515,-0.027593521401286125
1783169449201907200,3.3779072265625,0.01792472042143345,-0.04324575513601303,0.01979317143559456
1783169449211856100,3.387856201171875,0.041742973029613495,-0.0437401607632637,0.06174803525209427
1783169449221835300,3.397835205078125,0.0545399934053421,-0.04461713880300522,0.09589561820030212
1783169449231784200,3.4077841796875,0.058061011135578156,-0.03936178609728813,0.12336630374193192
1783169449241733000,3.417733154296875,0.04906698316335678,-0.035817649215459824,0.13627783954143524
1783169449251712000,3.4277119140625,0.035188574343919754,-0.021685365587472916,0.1413065642118454
1783169449261661000,3.437660888671875,0.02035956084728241,-0.007288050837814808,0.13714857399463654
1783169449271609000,3.447609130859375,0.007933784276247025,0.0034117316827178,0.12072619050741196
1783169449281558000,3.45755810546875,0.0002252664417028427,-0.001704467460513115,0.09789038449525833
1783169449291537200,3.467537109375,-0.0016181785613298416,-0.002436964539811015,0.07197538018226624
1783169449301486000,3.477486083984375,-0.0016173794865608215,0.012643717229366302,0.05105412006378174
1783169449311435000,3.48743505859375,-0.009803755208849907,0.029538221657276154,0.039064764976501465
1783169449321384000,3.497384033203125,-0.0191530492156744,0.03180456906557083,0.024559857323765755
1783169449331363000,3.507363037109375,-0.030413784086704254,0.01700548455119133,0.010156918317079544
1783169449341312000,3.51731201171875,-0.0323277972638607,0.01029325369745493,0.0014486475847661495
1783169449351260000,3.527260009765625,-0.028187381103634834,0.017444904893636703,-0.002119988203048706
1783169449361240000,3.537239990234375,-0.023562802001833916,0.02121540904045105,-0.0069839851930737495
1783169449371188200,3.547188232421875,-0.020192302763462067,0.011415502056479454,-0.007260328158736229
1783169449381137200,3.55713720703125,-0.017951784655451775,-0.0029668996576219797,0.005364919546991587
1783169449391086000,3.567086181640625,-0.019404541701078415,-0.02215470001101494,0.016417743638157845
1783169449401065200,3.577065185546875,-0.015507538802921772,-0.04483817517757416,0.021522756665945053
1783169449411014100,3.58701416015625,0.0010883957147598267,-0.04854748025536537,0.022505925968289375
1783169449420963000,3.596963134765625,0.025268299505114555,-0.046207625418901443,0.010918778367340565
1783169449430911000,3.606910888671875,0.04503188282251358,-0.036211173981428146,0.0019925693050026894
1783169449440890000,3.61689013671875,0.056052036583423615,-0.026754554361104965,0.0019795200787484646
1783169449450839000,3.626839111328125,0.05395578593015671,-0.021895267069339752,0.009007486514747143
1783169449460788000,3.6367880859375,0.03911957889795303,-0.032257094979286194,0.02351638861000538
1783169449470767000,3.64676708984375,0.019452489912509918,-0.05256258696317673,0.037848085165023804
1783169449480716000,3.656716064453125,0.006329495459794998,-0.07178129255771637,0.040382616221904755
1783169449490665000,3.6666650390625,0.0017843600362539291,-0.0803007036447525,0.043070610612630844
1783169449500612900,3.67661279296875,0.006404677405953407,-0.06623974442481995,0.04600754380226135
1783169449510593000,3.686593017578125,0.015300797298550606,-0.023714082315564156,0.05303410813212395
1783169449520541000,3.696541015625,0.02358402870595455,0.01704932563006878,0.06625324487686157
1783169449530490000,3.706489990234375,0.027576640248298645,0.032012175768613815,0.0826907604932785
1783169449540439000,3.71643896484375,0.022657249122858047,0.020630888640880585,0.09959091246128082
1783169449550418200,3.726418212890625,0.00788673385977745,-0.002725208643823862,0.10933441668748856
1783169449560367000,3.7363671875,-0.014601531438529491,-0.02002137526869774,0.10826888680458069
1783169449570316000,3.74631591796875,-0.03408823162317276,-0.01347350887954235,0.09322479367256165
1783169449580295200,3.756295166015625,-0.043926749378442764,0.00798810739070177,0.07666552811861038
1783169449590244000,3.766244140625,-0.04711597412824631,0.01681138202548027,0.045817434787750244
1783169449600192000,3.77619189453125,-0.046985212713479996,0.007218942046165466,0.007522242143750191
1783169449610141000,3.786140869140625,-0.03633052483201027,-0.003214573720470071,-0.025940805673599243
1783169449620120000,3.7961201171875,-0.022236810997128487,-0.0001346278004348278,-0.05114256590604782
1783169449630069000,3.806069091796875,-0.011793047189712524,-0.00812868494540453,-0.07003839313983917
1783169449640018000,3.816017822265625,-0.004513297230005264,-0.01225312240421772,-0.06847831606864929
1783169449649966000,3.825966064453125,-0.00524788536131382,-0.01390165276825428,-0.05687596648931503
1783169449659946000,3.835946044921875,-0.013001413084566593,-0.029691003262996674,-0.0455990806221962
1783169449669894000,3.845893798828125,-0.01976095885038376,-0.058618757873773575,-0.03697764128446579
1783169449679843000,3.855843017578125,-0.02645454742014408,-0.063216432929039,-0.034068137407302856
1783169449689822000,3.865822021484375,-0.02818489260971546,-0.07405753433704376,-0.044384099543094635
1783169449699771100,3.875771240234375,-0.026533467695116997,-0.0786067470908165,-0.06221369653940201
1783169449709720000,3.885719970703125,-0.019752347841858864,-0.05690203607082367,-0.07334747165441513
1783169449719669000,3.8956689453125,-0.017281200736761093,-0.03306195139884949,-0.07855954021215439
1783169449729648000,3.905648193359375,-0.014010399580001831,-0.03111574798822403,-0.07615336775779724
1783169449739597000,3.91559716796875,-0.013386687263846397,-0.03659253567457199,-0.06608714908361435
1783169449749545200,3.925545166015625,-0.01595805399119854,-0.04261945188045502,-0.04740945249795914
1783169449759494100,3.935494140625,-0.018035318702459335,-0.046454936265945435,-0.026258623227477074
1783169449769473000,3.94547314453125,-0.016917236149311066,-0.04910074546933174,-0.0034676622599363327
1783169449779422000,3.955421875,-0.012366426177322865,-0.03965318202972412,0.016632013022899628
1783169449789371100,3.96537109375,-0.002651400864124298,-0.024160098284482956,0.032623521983623505
1783169449799350000,3.97535009765625,0.002309536561369896,-0.004317683167755604,0.05365876480937004
1783169449809299000,3.985298828125,-0.0026699453592300415,0.015831995755434036,0.07660228759050369
1783169449819247000,3.9952470703125,-0.011002710089087486,0.021363914012908936,0.09439379721879959
1783169449829196000,4.005196044921875,-0.03386444225907326,0.02383023500442505,0.10586804896593094
1783169449839175000,4.0151748046875,-0.05778362229466438,0.027367444708943367,0.10530904680490494
1783169449849123800,4.025123779296875,-0.08071576058864594,0.031853578984737396,0.09532199054956436
1783169449859073300,4.0350732421875,-0.07973012328147888,0.035815294831991196,0.07252106815576553
1783169449869022200,4.045022216796875,-0.060239143669605255,0.04092235490679741,0.04654916375875473
1783169449879001000,4.0550009765625,-0.04195201396942139,0.04248030483722687,0.024135734885931015
1783169449888950000,4.064949951171875,-0.029384030029177666,0.035486821085214615,0.004601535852998495
1783169449898898200,4.074898193359375,-0.020541537553071976,0.024491164833307266,-0.004986110143363476
1783169449908878000,4.084878173828125,-0.016869299113750458,-0.0018035371322184801,-0.015321125276386738
1783169449918826000,4.094825927734375,-0.02019798383116722,-0.033364392817020416,-0.02270234376192093
1783169449928775200,4.104775146484375,-0.017241785302758217,-0.05352887511253357,-0.03256142511963844
1783169449938724000,4.11472412109375,-0.010408381000161171,-0.05417735502123833,-0.03958018496632576
1783169449948703000,4.124702880859375,0.0012259017676115036,-0.04831773042678833,-0.04653587192296982
1783169449958652000,4.13465185546875,0.0024940986186265945,-0.0343284085392952,-0.040806084871292114
1783169449968600000,4.14460009765625,-0.005849942564964294,-0.019504789263010025,-0.03207791596651077
1783169449978549000,4.154549072265625,-0.02326541766524315,-0.02153118886053562,-0.02652362734079361
1783169449988528000,4.164528076171875,-0.0404670350253582,-0.03145398199558258,-0.024325761944055557
1783169449998477000,4.17447705078125,-0.060459382832050323,-0.049999434500932693,-0.035142455250024796
1783169450008426000,4.184426025390625,-0.07549098134040833,-0.05094202607870102,-0.04790385067462921
1783169450018404900,4.19440478515625,-0.08189002424478531,-0.03354359418153763,-0.06324232369661331
1783169450028354000,4.20435400390625,-0.08645912259817123,-0.025941969826817513,-0.0818011611700058
1783169450038303200,4.21430322265625,-0.09169942140579224,-0.012590744532644749,-0.0976237952709198
1783169450048251100,4.224251220703125,-0.09057299047708511,0.011577430181205273,-0.10456539690494537
1783169450058231000,4.23423095703125,-0.08322187513113022,0.03089679777622223,-0.09688590466976166
1783169450068179200,4.24417919921875,-0.06673592329025269,0.03158744424581528,-0.08065591752529144
1783169450078128000,4.254128173828125,-0.044352322816848755,0.022422973066568375,-0.05021439492702484
1783169450088077000,4.2640771484375,-0.023097898811101913,0.004784184508025646,-0.011781740933656693
1783169450098056200,4.27405615234375,-0.0019177794456481934,-0.005665260832756758,0.03167598694562912
1783169450108005000,4.284005126953125,0.006688309833407402,-0.010996589437127113,0.07527519762516022
1783169450117953000,4.293953125,0.012658586725592613,-0.003478218801319599,0.1020631343126297
1783169450127933000,4.303932861328125,0.024996479973196983,0.015512242913246155,0.1170286014676094
1783169450137884200,4.31388427734375,0.03553008288145065,0.02902458980679512,0.11846937239170074
1783169450147833000,4.3238330078125,0.04287179559469223,0.038628432899713516,0.12165914475917816
1783169450157782000,4.333781982421875,0.03691936284303665,0.05368461459875107,0.12033341825008392
1783169450167761200,4.34376123046875,0.02186478115618229,0.059136103838682175,0.12615162134170532
1783169450177710000,4.3537099609375,0.008403832092881203,0.055463872849941254,0.12451031804084778
1783169450187659300,4.3636591796875,-0.0009925104677677155,0.04670863226056099,0.11207196861505508
1783169450197607200,4.373607177734375,-0.010379087179899216,0.026720013469457626,0.08701428771018982
1783169450207587300,4.38358740234375,-0.014196469448506832,0.015550296753644943,0.05106990411877632
1783169450217535200,4.39353515625,-0.012932000681757927,0.02365882322192192,0.011972304433584213
1783169450227484200,4.403484130859375,-0.007508467882871628,0.045252833515405655,-0.02001110464334488
1783169450237463300,4.41346337890625,0.0008288230746984482,0.06367818266153336,-0.030043765902519226
1783169450247412200,4.423412109375,0.006449494510889053,0.06427629292011261,-0.02305467799305916
1783169450257361200,4.433361083984375,0.009271379560232162,0.046306878328323364,-0.006557196378707886
1783169450267310000,4.44331005859375,0.009774474427103996,0.015842381864786148,0.009483437053859234
1783169450277289200,4.453289306640625,0.009858628734946251,-0.01687455177307129,0.02031983807682991
1783169450287237000,4.463237060546875,0.01114518940448761,-0.033989131450653076,0.018800854682922363
1783169450297186000,4.47318603515625,0.016299206763505936,-0.025021735578775406,0.013470003381371498
1783169450307135200,4.48313525390625,0.017429020255804062,0.010050458833575249,0.005745543632656336
1783169450317114000,4.493114013671875,0.011621199548244476,0.045384481549263,0.0024474849924445152
1783169450327063000,4.50306298828125,0.0010469406843185425,0.049270737916231155,0.0011459398083388805
1783169450337012200,4.51301220703125,-0.0041116029024124146,0.022200772538781166,-0.0052054328843951225
1783169450346991000,4.5229912109375,-0.00606912188231945,-0.007307491730898619,-0.014176329597830772
1783169450356940300,4.532940185546875,0.0008710771799087524,-0.025663595646619797,-0.027779487892985344
1783169450366888200,4.54288818359375,0.015216371044516563,-0.025367526337504387,-0.0401112362742424
1783169450376837400,4.55283740234375,0.037265218794345856,-0.008049522526562214,-0.04300529509782791
1783169450386816300,4.562816162109375,0.05464625358581543,-0.0020270701497793198,-0.04096129909157753
1783169450396765200,4.57276513671875,0.059601329267024994,-0.011609923094511032,-0.03019493818283081
1783169450406714000,4.582714111328125,0.05549108609557152,-0.011916053481400013,-0.009763945825397968
1783169450416663300,4.592663330078125,0.04522166773676872,-0.009254490956664085,0.009919743984937668
1783169450426642200,4.60264208984375,0.02834167890250683,-0.007734224200248718,0.02732641063630581
1783169450436591000,4.612591064453125,0.010220730677247047,-0.013208352029323578,0.03204153850674629
1783169450446539300,4.622539306640625,-0.009992040693759918,-0.021323487162590027,0.02117333933711052
1783169450456518100,4.63251806640625,-0.014298106543719769,-0.027491632848978043,0.00013410020619630814
1783169450466467000,4.642467041015625,-0.006610535085201263,-0.009583570063114166,-0.02410631626844406
1783169450476416000,4.652416015625,-0.0007100366055965424,0.022194866091012955,-0.04628618806600571
1783169450486365200,4.662365234375,0.0010350383818149567,0.04567762464284897,-0.051691457629203796
1783169450496344000,4.672343994140625,-0.009362740442156792,0.04038511961698532,-0.04680749028921127
1783169450506293000,4.68229296875,-0.020554766058921814,0.029897812753915787,-0.03227877989411354
1783169450516241200,4.6922412109375,-0.027955692261457443,0.01884329505264759,-0.014653181657195091
1783169450526190300,4.7021904296875,-0.02255888842046261,0.010354951955378056,-0.004448113031685352
1783169450536169200,4.712169189453125,-0.006709085777401924,0.011340055614709854,0.001682750415056944
1783169450546118100,4.7221181640625,0.013124050572514534,0.019453024491667747,-0.0008014058694243431
1783169450556067300,4.7320673828125,0.032391756772994995,0.018589626997709274,-0.006079791113734245
1783169450566046200,4.742046142578125,0.04444572329521179,0.018341537564992905,-0.011066149920225143
1783169450575995100,4.7519951171875,0.04750809073448181,0.012568337842822075,-0.01152341440320015
1783169450585944000,4.761944091796875,0.046788595616817474,-0.0027238973416388035,-0.014772797003388405
1783169450595892200,4.771892333984375,0.05237004905939102,-0.0070478059351444244,-0.013322439044713974
1783169450605872000,4.7818720703125,0.05708843469619751,-0.007904162630438805,-0.01065127458423376
1783169450615820300,4.7918203125,0.06108584254980087,0.0018765628337860107,-0.006048798561096191
1783169450625769200,4.801769287109375,0.055503591895103455,0.016639795154333115,0.00441582640632987
1783169450635718100,4.81171826171875,0.049066729843616486,0.01997940056025982,0.01171208918094635
1783169450645697000,4.821697021484375,0.03824037313461304,0.004270478151738644,0.01862328313291073
1783169450655646200,4.831646240234375,0.0316288098692894,-0.01834082417190075,0.014802445657551289
1783169450665594000,4.841593994140625,0.029216419905424118,-0.02628258243203163,0.002249776851385832
1783169450675574000,4.851573974609375,0.024013135582208633,-0.009541420266032219,-0.013889244757592678
1783169450685522200,4.861522216796875,0.013049894943833351,0.02348778396844864,-0.02150111086666584
1783169450695471400,4.871471435546875,0.0037211086601018906,0.047589924186468124,-0.02287157252430916
1783169450705420300,4.881420166015625,-0.0070963092148303986,0.03697165101766586,-0.018010791391134262
1783169450715399200,4.891399169921875,-0.01691698282957077,-0.00025907624512910843,-0.007220729254186153
1783169450725348400,4.901348388671875,-0.021160462871193886,-0.03714092820882797,0.0063203792087733746
1783169450735297300,4.91129736328125,-0.02304438315331936,-0.06488467752933502,0.01612427458167076
1783169450745276200,4.921276123046875,-0.02669769525527954,-0.05499405413866043,0.01766478642821312
1783169450755225000,4.93122509765625,-0.03241496905684471,-0.0032384484075009823,0.02417168766260147
1783169450765173200,4.94117333984375,-0.0474335253238678,0.04915923625230789,0.032240331172943115
1783169450775122200,4.9511220703125,-0.06901898235082626,0.06451714783906937,0.046850431710481644
1783169450785101000,4.96110107421875,-0.08373242616653442,0.07361114770174026,0.05744452774524689
1783169450795050200,4.97105029296875,-0.09611239284276962,0.06614257395267487,0.08220286667346954
1783169450804999200,4.980999267578125,-0.0992518737912178,0.050012070685625076,0.10014889389276505
1783169450814947000,4.990947021484375,-0.09945694357156754,0.04878009110689163,0.11881738156080246
1783169450824927000,5.000927001953125,-0.09295636415481567,0.04767553135752678,0.12351521849632263
1783169450834875100,5.010875244140625,-0.08416366577148438,0.037647929042577744,0.11515235900878906
1783169450844824000,5.020823974609375,-0.080323725938797,0.03486587479710579,0.09466996788978577
1783169450854803200,5.03080322265625,-0.08301299065351486,0.05068851262331009,0.0767037495970726
1783169450864752400,5.04075244140625,-0.08994492888450623,0.06659678369760513,0.05650869011878967
1783169450874701300,5.050701416015625,-0.0801737904548645,0.05329082906246185,0.026309246197342873
1783169450884650200,5.060650146484375,-0.05384019389748573,0.030196664854884148,0.01007763110101223
1783169450894629000,5.070629150390625,-0.022131800651550293,0.01907610520720482,0.005842139944434166
1783169450904578300,5.080578369140625,0.0001400914043188095,0.0007013496942818165,0.007050094194710255
1783169450914526200,5.090526123046875,0.017329463735222816,-0.018928011879324913,0.004652450326830149
1783169450924475100,5.10047509765625,0.03846462070941925,-0.019865721464157104,0.0029571554623544216
1783169450934454300,5.110454345703125,0.04742962121963501,-0.004099808633327484,0.0013904180377721786
1783169450944403200,5.1204033203125,0.0447642058134079,0.013255340047180653,-0.0021798238158226013
1783169450954352000,5.13035205078125,0.03878754377365112,0.022278130054473877,-0.0020394744351506233
1783169450964331300,5.140331298828125,0.03776473551988602,0.023289326578378677,0.00034570321440696716
1783169450974280200,5.1502802734375,0.03859671205282211,0.004787548445165157,0.004021397791802883
1783169450984228000,5.16022802734375,0.047856420278549194,-0.031733110547065735,0.00012027379125356674
1783169450994177000,5.170177001953125,0.05924969166517258,-0.06435790657997131,-0.019155684858560562
1783169451004156200,5.18015625,0.07339809089899063,-0.06618253886699677,-0.044490933418273926
1783169451014105000,5.19010498046875,0.08358121663331985,-0.04283354431390762,-0.07186130434274673
1783169451024054300,5.20005419921875,0.08359210938215256,-0.009629851207137108,-0.09092786908149719
1783169451034003200,5.210003173828125,0.07506600022315979,0.023660460487008095,-0.09076222032308578
1783169451043982300,5.219982421875,0.06509966403245926,0.04685116931796074,-0.07170334458351135
1783169451053931300,5.22993115234375,0.05837970972061157,0.056241475045681,-0.029352953657507896
1783169451063879200,5.239879150390625,0.054943978786468506,0.06522314995527267,0.027661290019750595
1783169451073859300,5.249859375,0.05695652961730957,0.06309129297733307,0.09318330883979797
1783169451083807200,5.25980712890625,0.05335284024477005,0.04789699986577034,0.142440065741539
1783169451093756200,5.269756103515625,0.050319500267505646,0.02972332201898098,0.16623780131340027
1783169451103705000,5.279705078125,0.059552326798439026,0.03756428137421608,0.17217761278152466
1783169451113684200,5.289684326171875,0.07427029311656952,0.05657099559903145,0.16205838322639465
1783169451123633200,5.299633056640625,0.0871439203619957,0.06791654229164124,0.14217106997966766
1783169451133612000,5.309612060546875,0.09555098414421082,0.0665293037891388,0.11825801432132721
1783169451143561200,5.319561279296875,0.09944301098585129,0.07433611899614334,0.11090713739395142
1783169451153540000,5.3295400390625,0.09090171754360199,0.09700866788625717,0.11599830538034439
1783169451163489000,5.339489013671875,0.07060444355010986,0.1104159727692604,0.1302512288093567
1783169451173438000,5.34943798828125,0.05723430961370468,0.09485591948032379,0.1452419012784958
1783169451183417000,5.3594169921875,0.05544198304414749,0.04914289340376854,0.1567116379737854
1783169451193366300,5.3693662109375,0.06306927651166916,-0.018031882122159004,0.15546901524066925
1783169451203315200,5.379315185546875,0.07085784524679184,-0.050122473388910294,0.145083948969841
1783169451213263400,5.389263427734375,0.0758155882358551,-0.058068811893463135,0.12645141780376434
1783169451223243300,5.3992431640625,0.0701441615819931,-0.04121366888284683,0.09493964910507202
1783169451233191200,5.409191162109375,0.05118218809366226,0.0004914351738989353,0.06415563821792603
1783169451243140000,5.41914013671875,0.019734205678105354,0.04846375435590744,0.0336594358086586
1783169451253089300,5.42908935546875,-0.017913036048412323,0.09568799287080765,0.004218453541398048
1783169451263068200,5.439068115234375,-0.05748988315463066,0.11602950096130371,-0.017136046662926674
1783169451273017000,5.44901708984375,-0.08534201979637146,0.09589626640081406,-0.03812069073319435
1783169451282966000,5.458966064453125,-0.09944185614585876,0.05221287161111832,-0.05822661519050598
1783169451292945200,5.468945068359375,-0.08771835267543793,0.009420935995876789,-0.07915187627077103
1783169451302893000,5.47889306640625,-0.06185488402843475,-0.020639415830373764,-0.10281418263912201
1783169451312842200,5.48884228515625,-0.03208287060260773,-0.03583621233701706,-0.1316399723291397
1783169451322791200,5.498791259765625,-0.008785383775830269,-0.041187819093465805,-0.15888787806034088
1783169451332770000,5.50877001953125,0.002344498410820961,-0.030072050169110298,-0.185738667845726
1783169451342719000,5.518718994140625,0.0089790727943182,-0.01170822698622942,-0.20166894793510437
1783169451352668200,5.528668212890625,0.015548823401331902,0.010875377804040909,-0.1891944408416748
1783169451362616000,5.538615966796875,0.027093350887298584,0.05502362176775932,-0.1381731480360031
1783169451372596200,5.54859619140625,0.0255093052983284,0.05342599004507065,-0.06628671288490295
1783169451382544400,5.55854443359375,0.02437862567603588,-0.006681354716420174,-0.003339845687150955
1783169451392493300,5.568493408203125,0.036444611847400665,-0.05342249199748039,0.05186428874731064
1783169451402472200,5.57847216796875,0.04532577842473984,-0.053453437983989716,0.09136781096458435
1783169451412421000,5.588421142578125,0.042689248919487,-0.015772905200719833,0.1123519092798233
1783169451422370300,5.598370361328125,0.02757415361702442,0.04088178277015686,0.11685390025377274
1783169451432319200,5.6083193359375,0.014461016282439232,0.08488225936889648,0.11001569777727127
1783169451442298000,5.618298095703125,-0.0024146530777215958,0.09211175888776779,0.09459824860095978
1783169451452247000,5.6282470703125,-0.007836315780878067,0.06858379393815994,0.07813964039087296
1783169451462195200,5.6381953125,-0.004187338054180145,0.049865610897541046,0.06598077714443207
1783169451472144100,5.64814404296875,0.0010670777410268784,0.041071053594350815,0.06440845131874084
1783169451482123300,5.658123291015625,0.010572507977485657,0.04054480418562889,0.0751982182264328
1783169451492072200,5.668072265625,0.015132639557123184,0.034792643040418625,0.0869467556476593
1783169451502021000,5.678021240234375,0.01575528457760811,0.021600142121315002,0.09980928897857666
1783169451512000000,5.688,0.0029361601918935776,0.005981501657515764,0.10949680209159851
1783169451521949200,5.69794921875,-0.012728082947432995,-0.011069472879171371,0.11204642057418823
1783169451531897000,5.70789697265625,-0.028723295778036118,-0.020597465336322784,0.11055957525968552
1783169451541846300,5.71784619140625,-0.044747091829776764,-0.009809186682105064,0.10878872126340866
1783169451551825400,5.727825439453125,-0.05455498397350311,0.010954415425658226,0.10304348170757294
1783169451561774300,5.7377744140625,-0.05930056422948837,0.04076510667800903,0.09321150183677673
1783169451571723300,5.74772314453125,-0.0670788586139679,0.05523166432976723,0.08025815337896347
1783169451581672200,5.757672119140625,-0.07562308758497238,0.04452773183584213,0.06465259939432144
1783169451591651300,5.7676513671875,-0.07699354737997055,0.01418047584593296,0.04329084977507591
1783169451601600300,5.777600341796875,-0.06245259940624237,-0.011556793004274368,0.026608973741531372
1783169451611548200,5.787548095703125,-0.0332033671438694,-0.0255221426486969,0.0025063022039830685
1783169451621528000,5.797528076171875,-0.0015501901507377625,-0.026121672242879868,-0.016738396137952805
1783169451631476200,5.807476318359375,0.028162432834506035,-0.018876276910305023,-0.026910874992609024
1783169451641425200,5.817425048828125,0.04318804293870926,-0.008600389584898949,-0.0280056931078434
1783169451651374000,5.8273740234375,0.05090082436800003,-0.009398273192346096,-0.02092328481376171
1783169451661353200,5.837353271484375,0.052321307361125946,-0.009746270254254341,-0.011555392295122147
1783169451671302100,5.84730224609375,0.04755983501672745,-0.01720685139298439,-0.00026571936905384064
1783169451681250000,5.85725,0.03837362676858902,-0.03831235319375992,0.009864844381809235
1783169451691199000,5.867198974609375,0.029353762045502663,-0.05361407995223999,0.013173023238778114
1783169451701178000,5.87717822265625,0.027405016124248505,-0.05074063315987587,0.01159740798175335
1783169451711127300,5.887127197265625,0.024808701127767563,-0.036522284150123596,-0.0015034805983304977
1783169451721076200,5.897076171875,0.010402444750070572,-0.030816055834293365,-0.029691440984606743
1783169451731055400,5.907055419921875,-0.006210353225469589,-0.020833998918533325,-0.0638696476817131
1783169451741004300,5.91700439453125,-0.014580609276890755,-0.007270175497978926,-0.08875226974487305
1783169451750953200,5.926953125,-0.016753215342760086,0.013990637846291065,-0.10180362313985825
1783169451760901000,5.936901123046875,-0.013391228392720222,0.03052903339266777,-0.09578704088926315
1783169451770881300,5.94688134765625,-0.012670576572418213,0.04002586752176285,-0.06562807410955429
1783169451780829200,5.9568291015625,-0.023103686049580574,0.04106854647397995,-0.02737053483724594
1783169451790778000,5.966778076171875,-0.04276979714632034,0.03353952616453171,0.010753147304058075
1783169451800727000,5.97672705078125,-0.06519586592912674,0.012470334768295288,0.03123915195465088
1783169451810706200,5.9867060546875,-0.07602507621049881,0.0016496451571583748,0.020134037360548973
1783169451820655000,5.996655029296875,-0.0712452083826065,0.023632777854800224,0.004901220090687275
1783169451830603000,6.00660302734375,-0.051306385546922684,0.05922219529747963,-0.009884917177259922
1783169451840583200,6.016583251953125,-0.027993248775601387,0.06905250996351242,-0.019770141690969467
1783169451850531000,6.026531005859375,-0.006150534376502037,0.05265729874372482,-0.01646782085299492
1783169451860480000,6.03647998046875,0.005104873329401016,0.028488628566265106,-0.006323408335447311
1783169451870429200,6.04642919921875,0.006851110607385635,0.012484361417591572,0.002930810209363699
1783169451880408300,6.056408203125,0.0012914929538965225,0.020009122788906097,0.008368452079594135
1783169451890357200,6.066357177734375,-0.002347182482481003,0.016333427280187607,0.004183561075478792
1783169451900306200,6.07630615234375,0.0022292640060186386,-0.0014386516995728016,-0.00792000163346529
1783169451910254300,6.08625439453125,0.019635416567325592,-0.007828906178474426,-0.015590970404446125
1783169451920234200,6.096234130859375,0.035496167838573456,-0.006493916269391775,-0.013368143700063229
1783169451930182100,6.10618212890625,0.0450180321931839,-0.0035497918725013733,-0.0054060909897089005
1783169451940131000,6.116131103515625,0.044127196073532104,-0.008663480170071125,0.0023397523909807205
1783169451950110200,6.126110107421875,0.03548923507332802,-0.007053598761558533,0.010375574231147766
1783169451960059100,6.13605908203125,0.01673596352338791,0.010733597911894321,0.01769031584262848
1783169451970008000,6.146008056640625,-0.00907113216817379,0.012280096299946308,0.025257688015699387
1783169451979956200,6.155956298828125,-0.03104557655751705,0.0016345838084816933,0.03486835956573486
1783169451989936000,6.16593603515625,-0.03944332152605057,0.010399580001831055,0.04266849160194397
1783169451999884000,6.175884033203125,-0.04626874998211861,0.020459355786442757,0.04769901558756828
1783169452009833200,6.185833251953125,-0.06011985242366791,0.03253199905157089,0.04695173352956772
1783169452019782100,6.1957822265625,-0.0785466730594635,0.042724400758743286,0.03135060518980026
1783169452029761000,6.205760986328125,-0.09058575332164764,0.053669460117816925,0.010375546291470528
1783169452039710200,6.215710205078125,-0.09163889288902283,0.0643305703997612,-0.004239587113261223
1783169452049659100,6.2256591796875,-0.07913428544998169,0.08479243516921997,-0.008842593990266323
1783169452059638300,6.23563818359375,-0.05095139890909195,0.12491263449192047,0.012985280714929104
1783169452069587200,6.245587158203125,-0.022588733583688736,0.20858941972255707,0.06215229630470276
1783169452079535400,6.255535400390625,-0.012064973823726177,0.24140691757202148,0.14006303250789642
1783169452089484300,6.265484375,-0.00435006245970726,0.2271488904953003,0.22559285163879395
1783169452099463200,6.275463134765625,-0.003590090200304985,0.1841968446969986,0.2933397591114044
1783169452109412000,6.285412109375,-0.003602074459195137,0.1320180594921112,0.34123724699020386
1783169452119361300,6.295361328125,-0.014037057757377625,0.10881781578063965,0.3749709129333496
1783169452129309200,6.30530908203125,-0.03809978440403938,0.12750974297523499,0.4149918556213379
1783169452139304200,6.31530419921875,-0.05678947642445564,0.17257410287857056,0.45636072754859924
1783169452149252000,6.325252197265625,-0.07868838310241699,0.1847604662179947,0.4965806007385254
1783169452159201000,6.335200927734375,-0.09452798217535019,0.1554911583662033,0.5188000798225403
1783169452169180200,6.34518017578125,-0.09623001515865326,0.10321543365716934,0.512032151222229
1783169452179129000,6.355129150390625,-0.09507091343402863,0.04640919715166092,0.4663253128528595
1783169452189078000,6.365078125,-0.09187857806682587,0.039108674973249435,0.40288054943084717
1783169452199027000,6.37502685546875,-0.09375878423452377,0.09472383558750153,0.3348117768764496
1783169452209006000,6.385006103515625,-0.11471813172101974,0.15255464613437653,0.2731180787086487
1783169452218955300,6.394955322265625,-0.13856884837150574,0.1804969608783722,0.21791335940361023
1783169452228903200,6.404903076171875,-0.15376032888889313,0.16192513704299927,0.1720433384180069
1783169452238852400,6.414852294921875,-0.15417151153087616,0.10977676510810852,0.13170090317726135
1783169452248831200,6.424831298828125,-0.1538282185792923,0.03502636030316353,0.07371588796377182
1783169452258780200,6.4347802734375,-0.14860451221466064,-0.04883021116256714,0.008893237449228764
1783169452268729000,6.44472900390625,-0.13691803812980652,-0.08326861262321472,-0.03960505872964859
1783169452278708200,6.454708251953125,-0.12159136682748795,-0.061821989715099335,-0.06565484404563904
1783169452288657200,6.4646572265625,-0.10939968377351761,-0.039247170090675354,-0.07428668439388275
1783169452298606000,6.474606201171875,-0.1005178838968277,-0.05308693274855614,-0.07433071732521057
1783169452308554200,6.48455419921875,-0.09134756028652191,-0.09709273278713226,-0.06217125430703163
1783169452318533000,6.494533203125,-0.08537691086530685,-0.15098078548908234,-0.05957241356372833
1783169452328482000,6.50448193359375,-0.07717464119195938,-0.18678991496562958,-0.05682935565710068
1783169452338431200,6.51443115234375,-0.06402279436588287,-0.18021665513515472,-0.06202075630426407
1783169452348380200,6.524380126953125,-0.047840364277362823,-0.1593390703201294,-0.05824652314186096
1783169452358359000,6.534359130859375,-0.04247453808784485,-0.1312384009361267,-0.04549488052725792
1783169452368308000,6.544307861328125,-0.05156949907541275,-0.12491419166326523,-0.024542726576328278
1783169452378256100,6.554256103515625,-0.06512464582920074,-0.13862894475460052,-0.012985965237021446
1783169452388236300,6.564236328125,-0.07411974668502808,-0.14066866040229797,-0.0031690215691924095
1783169452398184000,6.574183837890625,-0.07620780915021896,-0.11723630875349045,0.01196017675101757
1783169452408133400,6.58413330078125,-0.06801939010620117,-0.09260553121566772,0.03627537190914154
1783169452418082300,6.594082275390625,-0.06451760232448578,-0.08346075564622879,0.06203710287809372
1783169452428061200,6.604061279296875,-0.054019153118133545,-0.07065494358539581,0.09181869775056839
1783169452438010000,6.614010009765625,-0.035750407725572586,-0.060012586414813995,0.14801685512065887
1783169452447959300,6.623959228515625,-0.011074621230363846,-0.06101500242948532,0.21755065023899078
1783169452457907200,6.6339072265625,0.015110110864043236,-0.07695455104112625,0.28130248188972473
1783169452467887000,6.64388720703125,0.03954780846834183,-0.11496292054653168,0.32329678535461426
1783169452477835300,6.653835205078125,0.06669802218675613,-0.1643420159816742,0.3324020802974701
1783169452487784200,6.6637841796875,0.08882409334182739,-0.2069866955280304,0.3081638514995575
1783169452497763000,6.67376318359375,0.10422825068235397,-0.222237229347229,0.2462550848722458
1783169452507712000,6.6837119140625,0.11163344234228134,-0.20649102330207825,0.17225755751132965
1783169452517661200,6.6936611328125,0.11411908268928528,-0.12283222377300262,0.12990477681159973
1783169452527609000,6.703609130859375,0.0977073460817337,0.009959379211068153,0.12889011204242706
1783169452537589000,6.713589111328125,0.0624973326921463,0.09878239035606384,0.14486020803451538
1783169452547537200,6.723537109375,0.0322805792093277,0.09369201958179474,0.1750122457742691
1783169452557486000,6.733486083984375,0.02365892380475998,0.03551563620567322,0.21215830743312836
1783169452567435300,6.743435302734375,0.02173745259642601,-0.038277093321084976,0.23555044829845428
1783169452577414400,6.753414306640625,0.01538032479584217,-0.1041344478726387,0.24286654591560364
1783169452587363300,6.76336328125,0.015774736180901527,-0.12785868346691132,0.21382956206798553
1783169452597312300,6.773312255859375,0.017463896423578262,-0.10309997200965881,0.170625701546669
1783169452607291100,6.783291015625,0.018697205930948257,-0.05332975089550018,0.12255537509918213
1783169452617240000,6.793239990234375,0.011154739186167717,-0.018013065680861473,0.06742522120475769
1783169452627188200,6.803188232421875,-0.001810859888792038,-0.018446097150444984,0.006142687983810902
1783169452637137200,6.81313720703125,-0.01363003347069025,-0.02703929878771305,-0.04273080825805664
1783169452647116300,6.8231162109375,-0.025779107585549355,-0.041999075561761856,-0.08812865614891052
1783169452657065200,6.833065185546875,-0.0402020700275898,-0.04782436043024063,-0.12720994651317596
1783169452667014100,6.84301416015625,-0.05446702614426613,-0.041651420295238495,-0.14891763031482697
1783169452676962000,6.852962158203125,-0.0652686208486557,-0.020475033670663834,-0.14726805686950684
1783169452686942200,6.862942138671875,-0.08218687772750854,-0.014592642895877361,-0.1305370181798935
1783169452696890000,6.87289013671875,-0.08588388562202454,-0.045951783657073975,-0.10560978204011917
1783169452706839000,6.882839111328125,-0.06796267628669739,-0.09664639085531235,-0.07964102923870087
1783169452716818200,6.892818115234375,-0.03907635062932968,-0.13097570836544037,-0.04987254738807678
1783169452726767000,6.90276708984375,-0.009024443104863167,-0.14718502759933472,-0.021967411041259766
1783169452736716300,6.91271630859375,0.013307051733136177,-0.1436658799648285,-0.004988531582057476
1783169452746665200,6.922665283203125,0.027842851355671883,-0.12107082456350327,0.012482604011893272
1783169452756644400,6.932644287109375,0.026168404147028923,-0.09310456365346909,0.02143019810318947
1783169452766593300,6.94259326171875,0.010553492233157158,-0.07550133019685745,0.0269131138920784
1783169452776541200,6.952541259765625,-0.017689114436507225,-0.06866652518510818,0.023206748068332672
1783169452786490000,6.962489990234375,-0.04640411585569382,-0.07861103862524033,0.004904440604150295
1783169452796469200,6.97246923828125,-0.05749648064374924,-0.09107325226068497,-0.015137333422899246
1783169452806418200,6.982418212890625,-0.05121834576129913,-0.09122638404369354,-0.0332108773291111
1783169452816367000,6.9923671875,-0.034856922924518585,-0.07841012626886368,-0.047133952379226685
1783169452826346200,7.00234619140625,-0.03097856044769287,-0.0528981052339077,-0.05542837083339691
1783169452836295200,7.012295166015625,-0.03866473585367203,-0.012421315535902977,-0.05830584093928337
1783169452846243000,7.0222431640625,-0.04907476529479027,0.031167704612016678,-0.04489176720380783
1783169452856192000,7.03219189453125,-0.0540032759308815,0.06713636964559555,-0.014129565097391605
1783169452866171100,7.042171142578125,-0.06266094744205475,0.0669398233294487,0.026756614446640015
1783169452876120000,7.0521201171875,-0.0713755264878273,0.028156369924545288,0.05444170907139778
1783169452886069000,7.062069091796875,-0.06783431768417358,-0.00805702805519104,0.07228249311447144
1783169452896018200,7.07201806640625,-0.05402743071317673,-0.02039838209748268,0.0742708072066307
1783169452905997300,7.081997314453125,-0.03792649134993553,-0.016981014981865883,0.057468660175800323
1783169452915946200,7.0919462890625,-0.02605075016617775,0.0011768927797675133,0.03522869944572449
1783169452925894100,7.10189404296875,-0.02287226729094982,0.0161606352776289,0.0035115182399749756
1783169452935874300,7.111874267578125,-0.01788242906332016,0.023734796792268753,-0.024832874536514282
1783169452945822200,7.121822265625,-0.006324842572212219,0.015269406139850616,-0.04299376904964447
1783169452955771100,7.131771240234375,0.011600112542510033,-0.008377688936889172,-0.04938086122274399
1783169452965720000,7.141719970703125,0.04046531766653061,-0.019990669563412666,-0.040987104177474976
1783169452975699200,7.15169921875,0.06098846346139908,-0.01682356745004654,-0.007543998770415783
1783169452985648000,7.161648193359375,0.06459997594356537,-0.0020984176080673933,0.03198317065834999
1783169452995596300,7.17159619140625,0.06152567267417908,0.0005339281633496284,0.06934039294719696
1783169453005545200,7.181545166015625,0.06258028000593185,0.005815775599330664,0.09300897270441055
1783169453015524000,7.191524169921875,0.06233300641179085,0.003547591157257557,0.09703467041254044
1783169453025473000,7.20147314453125,0.05488095059990883,-0.013713954016566277,0.07371310144662857
1783169453035422200,7.211422119140625,0.05592332035303116,-0.039724357426166534,0.02631891891360283
1783169453045401000,7.221401123046875,0.06949452310800552,-0.04667654633522034,-0.02565639652311802
1783169453055350000,7.23135009765625,0.09038719534873962,-0.03154280036687851,-0.06765244901180267
1783169453065299200,7.24129931640625,0.11139074712991714,-0.01142794732004404,-0.09330960363149643
1783169453075247400,7.251247314453125,0.124601811170578,0.015824172645807266,-0.10507676005363464
1783169453085227300,7.261227294921875,0.12813475728034973,0.08004123717546463,-0.10102342814207077
1783169453095175200,7.271175048828125,0.12250323593616486,0.14779964089393616,-0.08734379708766937
1783169453105124400,7.281124267578125,0.09606709331274033,0.23085802793502808,-0.08063289523124695
1783169453115073300,7.2910732421875,0.06677067279815674,0.2801729738712311,-0.07723376154899597
1783169453125052200,7.30105224609375,0.03965383768081665,0.28539809584617615,-0.07179638743400574
1783169453135020500,7.3110205078125,0.018271425738930702,0.23967212438583374,-0.07000420987606049
1783169453144968400,7.320968505859375,0.009684862568974495,0.1704120934009552,-0.07971382886171341
1783169453154948400,7.3309482421875,0.019760873168706894,0.10851667076349258,-0.09355562180280685
1783169453164896500,7.340896484375,0.0417117103934288,0.036380693316459656,-0.08544709533452988
1783169453174845700,7.350845703125,0.06152767315506935,-0.010930150747299194,-0.05644569545984268
1783169453184794600,7.360794677734375,0.07133395969867706,-0.005889053922146559,-0.015392270870506763
1783169453194773800,7.370773681640625,0.07461833208799362,0.002574519719928503,0.0314566008746624
1783169453204722700,7.38072265625,0.07020707428455353,0.013911062851548195,0.0774480551481247
1783169453214671600,7.390671630859375,0.05727875977754593,0.014896964654326439,0.12162244319915771
1783169453224619500,7.40061962890625,0.03877458721399307,-0.009597990661859512,0.15268635749816895
1783169453234599700,7.410599609375,0.014032777398824692,-0.047094352543354034,0.15880179405212402
1783169453244547600,7.420547607421875,-0.0023326147347688675,-0.07600829005241394,0.13875937461853027
1783169453254496500,7.43049658203125,-0.01104471180588007,-0.06899020075798035,0.11432088166475296
1783169453264475600,7.4404755859375,-0.01522986963391304,-0.025707976892590523,0.08627885580062866
1783169453274424600,7.450424560546875,-0.018175171688199043,0.009623799473047256,0.06154492869973183
1783169453284373500,7.46037353515625,-0.0217019971460104,0.021278589963912964,0.048173729330301285
1783169453294322400,7.470322509765625,-0.024018116295337677,0.028616348281502724,0.050913743674755096
1783169453304301600,7.480301513671875,-0.03626492992043495,0.017797520384192467,0.06579601764678955
1783169453314250800,7.490250732421875,-0.05663833022117615,-0.004918775521218777,0.08166637271642685
1783169453324198400,7.500198486328125,-0.08017268031835556,-0.01850142888724804,0.09832897782325745
1783169453334147600,7.510147705078125,-0.09866930544376373,-0.0335860475897789,0.09727027267217636
1783169453344126700,7.520126708984375,-0.10387605428695679,-0.04173585772514343,0.09247977286577225
1783169453354075600,7.53007568359375,-0.09729951620101929,-0.026922546327114105,0.07566889375448227
1783169453364024600,7.540024658203125,-0.08713264018297195,-0.02568763867020607,0.059078194200992584
1783169453374003700,7.550003662109375,-0.0831926017999649,-0.03413422405719757,0.042680226266384125
1783169453383952600,7.55995263671875,-0.07939732819795609,-0.031173590570688248,0.036840446293354034
1783169453393900500,7.569900634765625,-0.07574660331010818,-0.021157726645469666,0.0397387333214283
1783169453403849700,7.579849609375,-0.07468746602535248,-0.01997821219265461,0.055002905428409576
1783169453413828600,7.58982861328125,-0.07422306388616562,-0.025380780920386314,0.08078203350305557
1783169453423777500,7.599777587890625,-0.07875416427850723,-0.046678878366947174,0.09876076877117157
1783169453433726500,7.6097265625,-0.08048176020383835,-0.05892196297645569,0.09994986653327942
1783169453443675400,7.61967529296875,-0.07396367192268372,-0.04156001657247543,0.09582383185625076
1783169453453654500,7.629654541015625,-0.06254535913467407,-0.021699870005249977,0.08639700710773468
1783169453463603500,7.639603515625,-0.047701433300971985,-0.014781243167817593,0.07010218501091003
1783169453473551600,7.649551513671875,-0.031213851645588875,-0.011179186403751373,0.05562565103173256
1783169453483531500,7.659531494140625,-0.014134467579424381,-0.013117967173457146,0.04544518515467644
1783169453493479400,7.6694794921875,-0.0019166525453329086,-0.022244052961468697,0.03994627296924591
1783169453503428600,7.6794287109375,0.001673288643360138,-0.030668696388602257,0.03555072844028473
1783169453513377800,7.689377685546875,-0.00018172897398471832,-0.03285897523164749,0.03363123536109924
1783169453523356700,7.699356689453125,-0.0023522060364484787,-0.028477542102336884,0.029537957161664963
1783169453533305600,7.7093056640625,-0.003974532708525658,-0.023106256499886513,0.023179061710834503
1783169453543253800,7.719253662109375,-0.000005358830094337463,-0.025153961032629013,0.0046101706102490425
1783169453553202700,7.72920263671875,0.00007316656410694122,-0.035645414143800735,-0.018219992518424988
1783169453563181600,7.739181640625,0.0049531422555446625,-0.037440650165081024,-0.04166460037231445
1783169453573130500,7.749130615234375,0.010053535923361778,-0.03794079273939133,-0.06635311245918274
1783169453583079700,7.75907958984375,0.0113262590020895,-0.025778401643037796,-0.08535130321979523
1783169453593058600,7.76905859375,0.013771403580904007,-0.0011374480091035366,-0.08550720661878586
1783169453603007500,7.779007568359375,0.014186590909957886,0.024830501526594162,-0.06637585908174515
1783169453612956400,7.788956298828125,0.018248548731207848,0.042194537818431854,-0.030149277299642563
1783169453622904600,7.798904541015625,0.027910230681300163,0.02584645338356495,0.015205154195427895
1783169453632884500,7.808884521484375,0.034400250762701035,-0.010627622716128826,0.059721361845731735
1783169453642832600,7.81883251953125,0.03978436440229416,-0.04816168174147606,0.09463566541671753
1783169453652781600,7.828781494140625,0.04286136478185654,-0.07575539499521255,0.10945965349674225
1783169453662730800,7.838730712890625,0.043638475239276886,-0.07918927818536758,0.09665730595588684
1783169453672709600,7.848709716796875,0.04596303403377533,-0.06902476400136948,0.0698348730802536
1783169453682658600,7.858658447265625,0.04579019546508789,-0.03932439535856247,0.03651287406682968
1783169453692606700,7.868606689453125,0.03600621223449707,-0.016279498115181923,0.003783727064728737
1783169453702586600,7.878586669921875,0.019291149452328682,0.013850707560777664,-0.01726722903549671
1783169453712534800,7.88853466796875,0.00525105744600296,0.037611223757267,-0.017769336700439453
1783169453722483700,7.898483642578125,-0.012070940807461739,0.03484180197119713,-0.008151596412062645
1783169453732432600,7.9084326171875,-0.027882911264896393,-0.002124570310115814,0.009285416454076767
1783169453742411500,7.91841162109375,-0.034332290291786194,-0.04574049264192581,0.02331654727458954
1783169453752360700,7.928360595703125,-0.02786397561430931,-0.07911400496959686,0.028348885476589203
1783169453762309600,7.9383095703125,-0.012898341752588749,-0.09239599108695984,0.025099560618400574
1783169453772257500,7.948257568359375,-0.0007830187678337097,-0.06557096540927887,0.014084026217460632
1783169453782237400,7.958237548828125,0.0008377805352210999,-0.03746982663869858,0.0020156456157565117
1783169453792185600,7.968185546875,-0.005781995132565498,-0.018158532679080963,-0.00742868147790432
1783169453802134500,7.978134521484375,-0.014974961057305336,-0.01555316336452961,-0.011735545471310616
1783169453812113400,7.988113525390625,-0.028142929077148438,-0.018280694261193275,-0.009041823446750641
1783169453822062600,7.9980625,-0.035113751888275146,-0.03165934979915619,-0.0015974901616573334
1783169453832011800,8.00801171875,-0.04647478833794594,-0.04396245628595352,0.005875301547348499
1783169453841959400,8.01795947265625,-0.05360593646764755,-0.05945326387882233,0.004896057769656181
1783169453851939600,8.027939697265625,-0.06091514974832535,-0.057495370507240295,-0.004051237367093563
1783169453861887700,8.0378876953125,-0.06360360980033875,-0.02015145868062973,-0.020050710067152977
1783169453871836700,8.047836669921875,-0.06795701384544373,0.006241371855139732,-0.03413056582212448
1783169453881785600,8.05778564453125,-0.06897327303886414,0.016143538057804108,-0.04681200534105301
1783169453891764700,8.0677646484375,-0.06590009480714798,0.010378360748291016,-0.04715568572282791
1783169453901713700,8.077713623046876,-0.0545307956635952,-0.009971652179956436,-0.03897525370121002
1783169453911662600,8.08766259765625,-0.03676712512969971,-0.026432253420352936,-0.014772615395486355
1783169453921641500,8.097641357421875,-0.018030188977718353,-0.02688312530517578,0.011139941401779652
1783169453931590700,8.107590576171875,-0.009002333506941795,-0.029504844918847084,0.04163389652967453
1783169453941538600,8.11753857421875,-0.004780957475304604,-0.03406710922718048,0.06696268916130066
1783169453951487500,8.127487548828125,-0.004493527114391327,-0.035002149641513824,0.08151364326477051
1783169453961466600,8.137466552734375,-0.004568096250295639,-0.03716437146067619,0.07619290798902512
1783169453971415600,8.14741552734375,-0.003517651930451393,-0.033479828387498856,0.05704095587134361
1783169453981364500,8.157364501953126,-0.00044090114533901215,-0.02383412793278694,0.034185174852609634
1783169453991312400,8.1673125,0.0058945901691913605,-0.005668755155056715,0.01533358171582222
1783169454001292800,8.177292724609375,0.005032259970903397,0.0037247464060783386,0.009971306659281254
1783169454011240400,8.187240478515625,-0.001634545624256134,-0.002335658762603998,0.004357005003839731
1783169454021189600,8.197189697265625,-0.008727341890335083,-0.024019649252295494,0.0027069104835391045
1783169454031168800,8.207168701171875,-0.017848920077085495,-0.04773040488362312,-0.002894017845392227
1783169454041117700,8.21711767578125,-0.021647918969392776,-0.04689310863614082,-0.012430530972778797
1783169454051066600,8.227066650390626,-0.02659943699836731,-0.02605312317609787,-0.010483634658157825
1783169454061015600,8.237015625,-0.03636365011334419,-0.010708521120250225,-0.014984377659857273
1783169454070994700,8.24699462890625,-0.045444052666425705,-0.010135198011994362,-0.027056116610765457
1783169454080943600,8.256943603515625,-0.046413175761699677,-0.019185151904821396,-0.03478860482573509
1783169454090891500,8.2668916015625,-0.036584991961717606,-0.024063972756266594,-0.03700941056013107
1783169454100840400,8.27684033203125,-0.018359381705522537,-0.014605490490794182,-0.026665693148970604
1783169454110819600,8.286819580078125,-0.00860658846795559,-0.0011605564504861832,-0.008257498033344746
1783169454120768500,8.2967685546875,-0.01660912111401558,-0.010488543659448624,0.017824968323111534
1783169454130717400,8.306717529296876,-0.03072248212993145,-0.029587313532829285,0.041558533906936646
1783169454140742400,8.316742431640625,-0.04306117445230484,-0.042396582663059235,0.06019054353237152
1783169454150691300,8.32669140625,-0.058901652693748474,-0.03010023757815361,0.07478253543376923
1783169454160639200,8.33663916015625,-0.07300948351621628,-0.01987183466553688,0.06880400329828262
1783169454170588200,8.346588134765625,-0.08071845769882202,-0.02046903409063816,0.04586666449904442
1783169454180567300,8.3565673828125,-0.07602064311504364,-0.025806806981563568,0.010412001982331276
1783169454190516200,8.36651611328125,-0.05743742734193802,-0.03279608488082886,-0.029994282871484756
1783169454200465200,8.376465087890624,-0.037853602319955826,-0.03003758378326893,-0.06231360882520676
1783169454210414000,8.3864140625,-0.02178753726184368,-0.030091870576143265,-0.07452960312366486
1783169454220393200,8.396393310546875,-0.01960427686572075,-0.04800961911678314,-0.06763148307800293
1783169454230342100,8.406342041015625,-0.02922285720705986,-0.05283697694540024,-0.036659568548202515
1783169454240290000,8.4162900390625,-0.051871709525585175,-0.03805962949991226,0.007699106354266405
1783169454250270200,8.426270263671874,-0.07123328745365143,-0.036976408213377,0.05294451117515564
1783169454260218000,8.436218017578126,-0.08572781085968018,-0.04933374375104904,0.08322545140981674
1783169454270167000,8.4461669921875,-0.09008423238992691,-0.06523695588111877,0.08890141546726227
1783169454280116200,8.4561162109375,-0.08458906412124634,-0.08771111071109772,0.08150741457939148
1783169454290095400,8.466095458984375,-0.06851297616958618,-0.10753930360078812,0.05824476480484009
1783169454300044300,8.476044189453125,-0.05633647367358208,-0.13592647016048431,0.02858807146549225
1783169454309993200,8.4859931640625,-0.05950506776571274,-0.15837301313877106,0.0011911028996109962
1783169454319941400,8.49594140625,-0.07119421660900116,-0.15748324990272522,-0.020478505641222
1783169454329921300,8.50592138671875,-0.09214231371879578,-0.15273229777812958,-0.03651326894760132
1783169454339869200,8.515869140625,-0.11284013092517853,-0.13454928994178772,-0.04248380661010742
1783169454349818000,8.525818115234374,-0.12850114703178406,-0.10061189532279968,-0.023372095078229904
1783169454359797200,8.53579736328125,-0.14349927008152008,-0.06969738751649857,0.012413866817951202
1783169454369746200,8.54574609375,-0.1602601408958435,-0.07170674204826355,0.049248311668634415
1783169454379695000,8.555695068359375,-0.1750452071428299,-0.10690973699092865,0.08073167502880096
1783169454389643300,8.565643310546875,-0.179157555103302,-0.12974506616592407,0.10769710689783096
1783169454399623200,8.575623046875,-0.1808217614889145,-0.1498093158006668,0.12120918929576874
1783169454409571000,8.585571044921876,-0.1850942224264145,-0.16723944246768951,0.11296800523996353
1783169454419520300,8.595520263671874,-0.1881193071603775,-0.1644282191991806,0.0936579555273056
1783169454429469200,8.60546923828125,-0.1846916377544403,-0.14856676757335663,0.061724089086055756
1783169454439448000,8.615447998046875,-0.17853733897209167,-0.09923888742923737,0.03991493582725525
1783169454449397200,8.625397216796875,-0.18365556001663208,-0.055222734808921814,0.022150449454784393
1783169454459346200,8.63534619140625,-0.18929347395896912,-0.040359899401664734,0.011518578976392746
1783169454469325300,8.6453251953125,-0.19934286177158356,-0.02926590107381344,0.032810814678668976
1783169454479274200,8.655274169921874,-0.2128179371356964,-0.03468596562743187,0.0689975768327713
1783169454489222400,8.665222412109374,-0.2244439721107483,-0.05020938813686371,0.10541220009326935
1783169454499171300,8.67517138671875,-0.21968117356300354,-0.08317027240991592,0.1296248584985733
1783169454509150200,8.685150146484375,-0.20121152698993683,-0.09827278554439545,0.14355643093585968
1783169454519099100,8.69509912109375,-0.18109960854053497,-0.08100058883428574,0.13998432457447052
1783169454529048300,8.70504833984375,-0.16534286737442017,-0.047778401523828506,0.1323470026254654
1783169454538996200,8.714996337890625,-0.15531979501247406,-0.021340934559702873,0.12128528952598572
1783169454548976000,8.72497607421875,-0.14826098084449768,-0.021726340055465698,0.1116865873336792
1783169454558924300,8.73492431640625,-0.13799555599689484,-0.03537876904010773,0.09729912132024765
1783169454568873200,8.744873291015624,-0.1217053011059761,-0.06025533005595207,0.08409208059310913
1783169454578852000,8.75485205078125,-0.10187700390815735,-0.08450394123792648,0.06684065610170364
1783169454588801000,8.764801025390625,-0.08008211851119995,-0.1078290045261383,0.04863009601831436
1783169454598750200,8.774750244140625,-0.05541672185063362,-0.13079211115837097,0.02863561362028122
1783169454608699400,8.784699462890625,-0.04134807363152504,-0.15424744784832,0.003406753297895193
1783169454618678300,8.79467822265625,-0.043477535247802734,-0.17474979162216187,-0.02650453895330429
1783169454628627200,8.804627197265624,-0.045167580246925354,-0.19360551238059998,-0.06749165058135986
1783169454638575400,8.814575439453124,-0.05218713730573654,-0.19356529414653778,-0.11374596506357193
1783169454648524300,8.824524169921874,-0.06353268027305603,-0.16513502597808838,-0.15257276594638824
1783169454658503200,8.834503173828125,-0.08626915514469147,-0.1344439685344696,-0.18172159790992737
1783169454668452400,8.844452392578125,-0.1222807988524437,-0.12480218708515167,-0.20705537497997284
1783169454678401300,8.8544013671875,-0.15460091829299927,-0.11632534116506577,-0.22073310613632202
1783169454688380200,8.864380126953124,-0.19028240442276,-0.12092979997396469,-0.22991256415843964
1783169454698329000,8.8743291015625,-0.22545690834522247,-0.12519937753677368,-0.23305588960647583
1783169454708277200,8.88427734375,-0.26513034105300903,-0.1079639196395874,-0.2333269715309143
1783169454718226200,8.89422607421875,-0.3055472671985626,-0.0803338885307312,-0.2219962775707245
1783169454728205300,8.904205322265625,-0.33379924297332764,-0.05627468228340149,-0.20782069861888885
1783169454738154200,8.914154296875,-0.32911211252212524,-0.022899415343999863,-0.18218538165092468
1783169454748103200,8.924103271484375,-0.2926052212715149,0.0076276995241642,-0.1578642874956131
1783169454758052000,8.934052001953125,-0.2322675883769989,0.005629262886941433,-0.14471226930618286
1783169454768031200,8.94403125,-0.16611605882644653,-0.02555873617529869,-0.15069156885147095
1783169454777980400,8.95398046875,-0.09600461274385452,-0.0473892018198967,-0.1728930026292801
1783169454787928000,8.963927978515626,-0.024748291820287704,-0.03943556919693947,-0.1825099140405655
1783169454797908200,8.973908203125,0.03486230969429016,-0.03130653500556946,-0.1823921948671341
1783169454807856400,8.9838564453125,0.08055524528026581,-0.028968218713998795,-0.16941149532794952
1783169454817805300,8.993805419921875,0.11450442671775818,-0.011776449158787727,-0.14712882041931152
1783169454827754200,9.003754150390625,0.12948109209537506,-0.014605465345084667,-0.11646761745214462
1783169454837733400,9.0137333984375,0.11742762476205826,-0.051041506230831146,-0.0803663432598114
1783169454847682300,9.023682373046874,0.08267717808485031,-0.08921000361442566,-0.04092168062925339
1783169454857630200,9.033630126953126,0.03905539959669113,-0.10024374723434448,-0.0077530741691589355
1783169454867579100,9.0435791015625,0.012019982561469078,-0.07843877375125885,0.00708254799246788
1783169454877558300,9.053558349609375,-0.003836745396256447,-0.032432399690151215,-0.0002707066014409065
1783169454887507200,9.063507080078125,-0.011214044876396656,0.012221476063132286,-0.02994171530008316
1783169454897456000,9.0734560546875,-0.008190026506781578,0.051621079444885254,-0.056854553520679474
1783169454907435300,9.083435302734374,0.00674048438668251,0.08052710443735123,-0.07881931215524673
1783169454917384200,9.09338427734375,0.021699994802474976,0.09317925572395325,-0.08489078283309937
1783169454927333000,9.1033330078125,0.038882456719875336,0.08401840925216675,-0.06268538534641266
1783169454937281000,9.113281005859376,0.05038038641214371,0.05640968680381775,-0.027413681149482727
1783169454947261400,9.123261474609375,0.05085601657629013,0.013201862573623657,0.01707366481423378
1783169454957209000,9.133208984375,0.03830400109291077,-0.02679215744137764,0.04837140440940857
1783169454967158300,9.143158203125,0.01994132064282894,-0.043646346777677536,0.07882937788963318
1783169454977107200,9.153107177734375,0.012565428391098976,-0.033527664840221405,0.09172999858856201
1783169454987086300,9.16308642578125,0.015738585963845253,0.0031131687574088573,0.08311706781387329
1783169454997035300,9.17303515625,0.029655734077095985,0.04832032695412636,0.0602884478867054
1783169455006983200,9.182983154296876,0.047202348709106445,0.08792031556367874,0.029624104499816895
1783169455016963300,9.19296337890625,0.06063053756952286,0.09409885108470917,0.005069492384791374
1783169455026911200,9.2029111328125,0.06612425297498703,0.07727137953042984,-0.008444244042038918
1783169455036860200,9.212860107421875,0.06994375586509705,0.05830087885260582,-0.01068396307528019
1783169455046809000,9.22280908203125,0.07128793001174927,0.02659982442855835,-0.010992958210408688
1783169455056788200,9.232788330078124,0.06298951804637909,-0.005944002885371447,-0.010057923384010792
1783169455066737200,9.242737060546874,0.05279302969574928,-0.02727949619293213,-0.014003338292241096
1783169455076686000,9.25268603515625,0.03328324109315872,-0.026285070925951004,-0.021094538271427155
1783169455086634200,9.26263427734375,0.014098064973950386,0.0012399903498589993,-0.03347369655966759
1783169455096614100,9.2726142578125,0.005441727116703987,0.032762762159109116,-0.04415270686149597
1783169455106562000,9.28256201171875,0.0018084049224853516,0.05415548011660576,-0.051499903202056885
1783169455116511200,9.29251123046875,0.0048630498349666595,0.051302969455718994,-0.05180802941322327
1783169455126490000,9.302489990234376,0.007493767887353897,0.029904808849096298,-0.0463608019053936
1783169455136439300,9.312439208984374,0.003405814990401268,0.02702673152089119,-0.020400043576955795
1783169455146388200,9.32238818359375,-0.011794238351285458,0.025364678353071213,0.004588966257870197
1783169455156337200,9.332337158203124,-0.03131840378046036,0.009093297645449638,0.025488389655947685
1783169455166316300,9.34231640625,-0.04154583439230919,-0.00045872293412685394,0.03857845813035965
1783169455176264200,9.35226416015625,-0.0498434454202652,0.0006017475388944149,0.04315323382616043
1783169455186213400,9.36221337890625,-0.05448709428310394,0.012382999062538147,0.03801906108856201
1783169455196162300,9.372162353515625,-0.05179490149021149,0.022429240867495537,0.025392748415470123
1783169455206141200,9.38214111328125,-0.04565130174160004,0.036579422652721405,0.008831711485981941
1783169455216090000,9.392090087890624,-0.04129170998930931,0.054288916289806366,0.0031581134535372257
1783169455226039300,9.402039306640624,-0.05273856967687607,0.057009898126125336,0.0004566400311887264
1783169455236018400,9.412018310546875,-0.07275702059268951,0.047983646392822266,0.006215726025402546
1783169455245967400,9.42196728515625,-0.08815480023622513,0.038785502314567566,0.01650851033627987
1783169455255915500,9.43191552734375,-0.09893687069416046,0.03676735609769821,0.03496954217553139
1783169455265864400,9.441864501953125,-0.10559406131505966,0.0379568412899971,0.04940447211265564
1783169455275843300,9.45184326171875,-0.10397858172655106,0.03921491652727127,0.057028040289878845
1783169455285792300,9.461792236328124,-0.09603827446699142,0.03863707557320595,0.05530274286866188
1783169455295741400,9.471741455078124,-0.082928866147995,0.036029305309057236,0.050946611911058426
1783169455305690400,9.4816904296875,-0.07423746585845947,0.038822367787361145,0.04096890985965729
1783169455315669200,9.491669189453125,-0.06768529117107391,0.03725083917379379,0.026715675368905067
1783169455325618200,9.5016181640625,-0.06403777003288269,0.0410761758685112,0.010461566969752312
1783169455335566300,9.51156640625,-0.06000148504972458,0.047655776143074036,0.0006510135717689991
1783169455345546200,9.521546142578124,-0.05845540016889572,0.0430452898144722,-0.0021792585030198097
1783169455355494100,9.531494140625,-0.06045277416706085,0.040619682520627975,0.0013254620134830475
1783169455365443300,9.541443359375,-0.06258571892976761,0.04520813003182411,0.013479627668857574
1783169455375392300,9.551392333984374,-0.07533533871173859,0.048172496259212494,0.03294866532087326
1783169455385371100,9.56137109375,-0.08438274264335632,0.06768522411584854,0.054462872445583344
1783169455395320300,9.5713203125,-0.0830780565738678,0.08464796096086502,0.07050735503435135
1783169455405268200,9.581268310546875,-0.07855743914842606,0.08685939013957977,0.06850102543830872
1783169455415217400,9.591217529296875,-0.07209900766611099,0.05945199728012085,0.04922906309366226
1783169455425196300,9.6011962890625,-0.061983369290828705,0.030802320688962936,0.02202335000038147
1783169455435145500,9.6111455078125,-0.05316751077771187,0.015493405982851982,-0.0016497550532221794
1783169455445094400,9.621094482421874,-0.05056028813123703,0.01522025465965271,-0.021733418107032776
1783169455455073300,9.6310732421875,-0.04718393087387085,0.03741636872291565,-0.038226641714572906
1783169455465022200,9.641022216796875,-0.04216919094324112,0.056775595992803574,-0.03557789325714111
1783169455474971400,9.650971435546875,-0.03559837117791176,0.06681864708662033,-0.02154463343322277
1783169455484919300,9.660919189453125,-0.03269124776124954,0.05805564299225807,0.0023633837699890137
1783169455494899200,9.670899169921874,-0.036065474152565,0.028001070022583008,0.028066882863640785
1783169455504847400,9.680847412109374,-0.04328756034374237,0.007535645272582769,0.05110760033130646
1783169455514796300,9.69079638671875,-0.04930310696363449,-0.005239272024482489,0.0660729706287384
1783169455524745200,9.7007451171875,-0.04665914177894592,-0.002584015019237995,0.06858595460653305
1783169455534724400,9.710724365234375,-0.03520621731877327,0.015456770546734333,0.05908273160457611
1783169455544673300,9.72067333984375,-0.021350428462028503,0.030379092320799828,0.036769427359104156
1783169455554621200,9.73062109375,-0.009623730555176735,0.0350891575217247,0.01837923750281334
1783169455564601000,9.74060107421875,0.00019649043679237366,0.03014916181564331,-0.0011444613337516785
1783169455574549200,9.75054931640625,0.008677594363689423,0.014120129868388176,-0.01471992488950491
1783169455584498400,9.76049853515625,0.014254579320549965,0.0007002847269177437,-0.022566653788089752
1783169455594447400,9.770447265625,0.009010547772049904,-0.006441248115152121,-0.02165771648287773
1783169455604426500,9.780426513671875,0.003391733393073082,-0.007732500322163105,-0.015872467309236526
1783169455614375400,9.79037548828125,-0.0024621598422527313,-0.020273592323064804,-0.011813010089099407
1783169455624324400,9.800324462890625,-0.006122397258877754,-0.03715253993868828,-0.00956826750189066
1783169455634272300,9.810272216796875,-0.005104269832372665,-0.007375471293926239,-0.0009201839566230774
1783169455644252400,9.82025244140625,-0.0008091703057289124,0.032777559012174606,0.021196935325860977
1783169455654200300,9.830200439453124,0.00775475800037384,0.052497200667858124,0.043805044144392014
1783169455664149200,9.840149169921874,0.021776877343654633,0.036697980016469955,0.072193443775177
1783169455674128400,9.85012841796875,0.03067396581172943,-0.005819652695208788,0.08835164457559586
1783169455684077300,9.860077392578125,0.03447723388671875,-0.049131471663713455,0.09524396061897278
1783169455694026200,9.870026123046875,0.035342760384082794,-0.0781487375497818,0.08590532094240189
1783169455703974100,9.87997412109375,0.032723069190979004,-0.07445598393678665,0.06369366496801376
1783169455713954300,9.889954345703124,0.028259610757231712,-0.054134465754032135,0.02799052931368351
1783169455723902200,9.899902099609376,0.029904207214713097,-0.025753634050488472,-0.012650474905967712
1783169455733851100,9.90985107421875,0.034599095582962036,0.0051283822394907475,-0.053287114948034286
1783169455743800300,9.91980029296875,0.0364721342921257,0.01068165898323059,-0.0827089250087738
1783169455753779500,9.929779541015625,0.03389233350753784,0.019321219995617867,-0.08290813118219376
1783169455763728400,9.939728271484375,0.023851187899708748,0.024828201159834862,-0.07151225954294205
1783169455773677300,9.94967724609375,0.012023022398352623,0.011195480823516846,-0.05008552968502045
1783169455783656400,9.959656494140624,0.0036225486546754837,-0.006239952985197306,-0.02036914974451065
1783169455793605400,9.96960546875,-0.0004930999130010605,-0.014502143487334251,0.0020027360878884792
1783169455803553300,9.97955322265625,-0.004535369575023651,-0.010401010513305664,0.013556761667132378
1783169455813502200,9.989502197265624,-0.006909310817718506,-0.0015606479719281197,0.011470440775156021
1783169455823481300,9.9994814453125,-0.005710482597351074,0.012665076181292534,-0.005080016329884529
1783169455833430300,10.00943017578125,-0.0013639368116855621,0.02811327390372753,-0.02091650478541851
1783169455843379200,10.019379150390625,-0.001991046592593193,0.03908666968345642,-0.02737945318222046
1783169455853327400,10.029327392578125,-0.008491557091474533,0.04474295675754547,-0.02774803340435028
1783169455863307300,10.039307373046874,-0.017400149255990982,0.0443863570690155,-0.014987404458224773
1783169455873255200,10.049255126953126,-0.020484356209635735,0.038161750882864,0.0012882384471595287
1783169455883204000,10.0592041015625,-0.01819121092557907,0.03509709984064102,0.025463612750172615
1783169455893183200,10.069183349609375,-0.01325344480574131,0.03653627261519432,0.04272063076496124
1783169455903132200,10.079132080078125,-0.017180953174829483,0.03603380545973778,0.05850649252533913
1783169455913081300,10.089081298828125,-0.020451847463846207,0.03785168007016182,0.0705527663230896
1783169455923030300,10.0990302734375,-0.025319058448076248,0.027001509442925453,0.06820681691169739
1783169455933009400,10.109009521484374,-0.034990862011909485,0.015807444229722023,0.05066084861755371
1783169455942958300,10.118958251953124,-0.04275718331336975,0.017077049240469933,0.028535304591059685
1783169455952906500,10.128906494140624,-0.05340929329395294,0.033638183027505875,0.00617114407941699
1783169455962855400,10.13885546875,-0.06157541275024414,0.055362164974212646,-0.009221058338880539
1783169455972834300,10.148834228515625,-0.0693635568022728,0.07895032316446304,-0.01873759739100933
1783169455982783200,10.158783203125,-0.08112964779138565,0.08131086081266403,-0.012757232412695885
1783169455992732200,10.168732177734375,-0.0968867763876915,0.06667918711900711,-0.004305691458284855
1783169456002711300,10.178711181640624,-0.11259651184082031,0.039487600326538086,0.0013839155435562134
1783169456012660200,10.18866015625,-0.12568755447864532,0.008692666888237,0.00357622979208827
1783169456022608400,10.1986083984375,-0.13123869895935059,-0.0022559219505637884,-0.004420174285769463
1783169456032557300,10.208557373046874,-0.13142085075378418,-0.00810795184224844,-0.017474191263318062
1783169456042536200,10.2185361328125,-0.12422912567853928,-0.009785267524421215,-0.03726954013109207
1783169456052485000,10.228485107421875,-0.1113562062382698,-0.0020144295413047075,-0.04388749599456787
1783169456062434300,10.238434326171875,-0.09994921088218689,0.006774282548576593,-0.035961538553237915
1783169456072383500,10.248383544921875,-0.09414591640233994,0.012607404962182045,-0.017664289101958275
1783169456082362400,10.2583623046875,-0.08867935091257095,0.018391340970993042,0.002216555643826723
1783169456092311300,10.268311279296874,-0.0838766098022461,0.011208528652787209,0.018210701644420624
1783169456102259500,10.278259521484374,-0.08026304095983505,-0.00619537802413106,0.029988598078489304
1783169456112239400,10.2882392578125,-0.07380301505327225,-0.010912901721894741,0.03612186014652252
1783169456122187300,10.298187255859375,-0.06605731695890427,-0.003394500585272908,0.03739471733570099
1783169456132136400,10.308136474609375,-0.06723843514919281,0.017160842195153236,0.041404105722904205
1783169456142127900,10.3181279296875,-0.06817470490932465,0.03405040130019188,0.03916535526514053
1783169456152106800,10.328106689453126,-0.071212038397789,0.03495693951845169,0.03160836547613144
1783169456162055700,10.3380556640625,-0.07353677600622177,0.034789979457855225,0.026423757895827293
1783169456172004600,10.348004638671876,-0.06784746050834656,0.0502440370619297,0.02519976906478405
1783169456181952800,10.357952880859376,-0.06933322548866272,0.06461460143327713,0.03193999081850052
1783169456191931600,10.367931640625,-0.06714729964733124,0.05770236998796463,0.039983801543712616
1783169456201880600,10.377880615234375,-0.06843125820159912,0.04358402639627457,0.045807383954524994
1783169456211829800,10.387829833984375,-0.059901416301727295,0.027823971584439278,0.053518302738666534
1783169456221808600,10.39780859375,-0.04534411430358887,0.018762756139039993,0.05663129687309265
1783169456231757600,10.407757568359376,-0.03266001120209694,0.012886225245893002,0.05536070093512535
1783169456241706500,10.41770654296875,-0.019371934235095978,0.0025818408466875553,0.048736684024333954
1783169456251654700,10.427654541015626,-0.013528427109122276,-0.0007005049847066402,0.03781053423881531
1783169456261634600,10.437634521484375,-0.01746944710612297,0.006033946294337511,0.02288837917149067
1783169456271582700,10.447582763671875,-0.02974129281938076,0.011433504521846771,0.0046411980874836445
1783169456281531600,10.45753173828125,-0.03539590910077095,0.021344076842069626,-0.007601688615977764
1783169456291480800,10.467480712890625,-0.03991928696632385,0.02136884443461895,-0.014153865166008472
1783169456301459700,10.477459716796876,-0.036342471837997437,0.016227195039391518,-0.024789929389953613
1783169456311408600,10.48740869140625,-0.03269420564174652,0.0032346979714930058,-0.035930462181568146
1783169456321357800,10.49735791015625,-0.026459064334630966,-0.004251420032233,-0.039278194308280945
1783169456331336700,10.507336669921875,-0.024544518440961838,-0.002505451673641801,-0.043862827122211456
1783169456341285600,10.51728564453125,-0.02916320227086544,0.001645440235733986,-0.05083770304918289
1783169456351233800,10.52723388671875,-0.037969741970300674,0.013392644003033638,-0.05554111301898956
1783169456361182700,10.5371826171875,-0.04569374769926071,0.01386161521077156,-0.06360110640525818
1783169456371161600,10.54716162109375,-0.04563648998737335,0.01452154666185379,-0.0691111832857132
1783169456381110800,10.55711083984375,-0.04363516345620155,0.028765056282281876,-0.06287619471549988
1783169456391059700,10.567059814453126,-0.04084204137325287,0.029655884951353073,-0.049920178949832916
1783169456401007600,10.577007568359376,-0.041077010333538055,0.020366623997688293,-0.032607968896627426
1783169456410987500,10.586987548828125,-0.0389973483979702,0.00879225879907608,-0.010625974275171757
1783169456420935700,10.596935791015625,-0.02972632274031639,0.0013701817952096462,0.009775466285645962
1783169456430884600,10.606884521484375,-0.026571543887257576,-0.00430661253631115,0.03074786067008972
1783169456440863500,10.616863525390626,-0.024681633338332176,-0.005413534119725227,0.04325976222753525
1783169456450812700,10.626812744140626,-0.015535007230937481,-0.01307651400566101,0.04363872855901718
1783169456460761900,10.636761962890626,-0.0024122204631567,-0.031893908977508545,0.027385689318180084
1783169456470710800,10.646710693359376,0.009750435128808022,-0.029170293360948563,0.007184014189988375
1783169456480689700,10.656689697265625,0.015929747372865677,0.028478702530264854,-0.0012424653396010399
1783169456490638800,10.666638916015625,0.011288121342658997,0.06948073208332062,-0.006503806449472904
1783169456500586800,10.676586669921875,-0.002642489969730377,0.0783945769071579,-0.004551570862531662
1783169456510535700,10.68653564453125,-0.015822473913431168,0.0760003924369812,-0.0012282123789191246
1783169456520514800,10.696514892578126,-0.030182816088199615,0.0599006824195385,-0.001087806187570095
1783169456530463700,10.706463623046876,-0.03501245751976967,0.03993283212184906,-0.00421568937599659
1783169456540412700,10.71641259765625,-0.025786232203245163,0.028896119445562363,-0.004929936490952969
1783169456550391600,10.7263916015625,-0.016708316281437874,0.03488343581557274,0.005640416406095028
1783169456560340700,10.7363408203125,-0.00910419225692749,0.03250816464424133,0.011816819198429585
1783169456570288600,10.74628857421875,-0.0050929393619298935,0.02814430743455887,0.01305412407964468
1783169456580237600,10.756237548828125,-0.0014735329896211624,0.018105996772646904,0.014712306670844555
1783169456590216700,10.766216796875,-0.002503644675016403,0.012808436527848244,0.01254875399172306
1783169456600165600,10.77616552734375,-0.004107464104890823,0.011190000921487808,0.001907378900796175
1783169456610114600,10.786114501953126,-0.0038406159728765488,0.021895110607147217,-0.011058486066758633
1783169456620063700,10.796063720703126,-0.004921400919556618,0.03384990245103836,-0.02599608525633812
1783169456630043000,10.80604296875,-0.005306759849190712,0.04431452974677086,-0.04225654900074005
1783169456639991800,10.81599169921875,-0.0027730297297239304,0.047595810145139694,-0.04509681090712547
1783169456649939700,10.825939697265625,0.005120847374200821,0.05618530511856079,-0.04105919227004051
1783169456659919600,10.835919677734376,0.01306060515344143,0.056780923157930374,-0.029703546315431595
1783169456669867800,10.84586767578125,0.023978499695658684,0.04218147322535515,-0.02225974202156067
1783169456679816700,10.855816650390626,0.03232009708881378,0.021032363176345825,-0.01608765497803688
1783169456689765600,10.865765625,0.032949402928352356,-0.0032900189980864525,-0.010461193509399891
1783169456699744800,10.875744873046875,0.03189444914460182,-0.003471258096396923,-0.010968456976115704
1783169456709693700,10.885693603515625,0.028309036046266556,0.02101943828165531,-0.005463703535497189
1783169456719641600,10.8956416015625,0.025468559935688972,0.03781035169959068,-0.0021084267646074295
1783169456729590500,10.905590576171875,0.0278592798858881,0.036801282316446304,0.00273266714066267
1783169456739569700,10.915569580078126,0.03769244998693466,0.02970029041171074,0.003084198571741581
1783169456749518600,10.9255185546875,0.039749473333358765,0.01640898548066616,-0.0008338438346982002
1783169456759467500,10.935467529296876,0.04160530865192413,0.007264147512614727,-0.0036465292796492577
1783169456769446700,10.94544677734375,0.041297443211078644,0.014491965994238853,-0.010263152420520782
1783169456779395600,10.9553955078125,0.035239771008491516,0.027034547179937363,-0.021199369803071022
1783169456789344800,10.9653447265625,0.028624743223190308,0.026645991951227188,-0.0340251550078392
1783169456799292700,10.975292724609375,0.0235136728733778,0.02431574836373329,-0.04088260978460312
1783169456809272800,10.98527294921875,0.021966641768813133,0.015965405851602554,-0.0388607382774353
1783169456819220700,10.995220703125,0.021609151735901833,0.008254798129200935,-0.02587265893816948
1783169456829169700,11.005169677734376,0.017421597614884377,-0.0003581307828426361,-0.005834769457578659
1783169456839118600,11.01511865234375,0.007204452529549599,-0.012753769755363464,0.013649104163050652
1783169456849097700,11.02509765625,-0.0018212664872407913,-0.01856425404548645,0.02308068796992302
1783169456859046700,11.035046630859375,-0.00686662457883358,-0.023000281304121017,0.025702837854623795
1783169456868994800,11.044994873046875,-0.007862912490963936,-0.01807503029704094,0.017088577151298523
1783169456878974700,11.054974609375,-0.010725228115916252,-0.010819561779499054,-0.000636933371424675
1783169456888922600,11.064922607421876,-0.015147406607866287,0.0013654655776917934,-0.01703135296702385
1783169456898871600,11.07487158203125,-0.017059456557035446,-0.009589385241270065,-0.032845303416252136
1783169456908820700,11.08482080078125,-0.014599761925637722,-0.02219838835299015,-0.04356639087200165
1783169456918799600,11.094799560546875,-0.009520603343844414,-0.027809806168079376,-0.05023416876792908
1783169456928748500,11.10474853515625,-0.003589743748307228,-0.029107563197612762,-0.050760939717292786
1783169456938697500,11.114697509765625,-0.0021408256143331528,-0.03665199875831604,-0.057941220700740814
1783169456948645600,11.124645751953125,0.0015654955059289932,-0.04523323476314545,-0.07025142014026642
1783169456958625800,11.134625732421876,0.005203120410442352,-0.05737369880080223,-0.0927538126707077
1783169456968573700,11.14457373046875,0.014802217483520508,-0.053062304854393005,-0.11157064884901047
1783169456978523000,11.15452294921875,0.022509371861815453,-0.04838979244232178,-0.1199856624007225
1783169456988501800,11.164501708984375,0.02593020536005497,-0.04667338728904724,-0.10695081204175949
1783169456998450700,11.17445068359375,0.02353351004421711,-0.06155884638428688,-0.07164249569177628
1783169457008399600,11.184399658203125,0.026387086138129234,-0.08627990633249283,-0.02232901006937027
1783169457018348800,11.194348876953125,0.04709327965974808,-0.11337651312351227,0.025147302076220512
1783169457028327700,11.20432763671875,0.08500470966100693,-0.14122678339481354,0.06041101738810539
1783169457038275800,11.21427587890625,0.11181081086397171,-0.15468508005142212,0.07816461473703384
1783169457048224800,11.224224853515626,0.11466465145349503,-0.16495849192142487,0.08551600575447083
1783169457058173700,11.234173583984376,0.14309993386268616,-0.17791050672531128,0.07858062535524368
1783169457068152600,11.244152587890625,0.16857600212097168,-0.1946125328540802,0.05931132286787033
1783169457078101800,11.254101806640625,0.18595647811889648,-0.19835570454597473,0.03675319626927376
1783169457088050700,11.26405078125,0.18079927563667297,-0.19686007499694824,0.015449503436684608
1783169457098029600,11.274029541015626,0.1623694747686386,-0.17760607600212097,-0.004096566699445248
1783169457107978500,11.283978515625,0.13309919834136963,-0.14477035403251648,-0.02416934259235859
1783169457117926700,11.2939267578125,0.09651651233434677,-0.09726676344871521,-0.035403940826654434
1783169457127875600,11.30387548828125,0.051726676523685455,-0.03961332142353058,-0.0291801355779171
1783169457137862700,11.313862548828125,0.0098170917481184,-0.006304249633103609,-0.019312910735607147
1783169457147811600,11.3238115234375,-0.016342075541615486,0.008735952898859978,-0.006657568737864494
1783169457157760500,11.333760498046875,-0.026807310059666634,0.028577959164977074,0.02332543209195137
1783169457167709700,11.343709716796875,-0.03094479627907276,0.040851667523384094,0.06164885312318802
1783169457177688600,11.3536884765625,-0.03256823495030403,0.041952911764383316,0.09715117514133453
1783169457187637500,11.363637451171876,-0.040533483028411865,0.026406707242131233,0.12167062610387802
1783169457197585700,11.373585693359376,-0.05210570991039276,-0.002651243470609188,0.12397874891757965
1783169457207564500,11.383564453125,-0.06288538873195648,-0.027000792324543,0.10383139550685883
1783169457217513500,11.393513427734375,-0.06501404941082001,-0.032517530024051666,0.07631614804267883
1783169457227462700,11.403462646484375,-0.06257166713476181,-0.016691163182258606,0.047932446002960205
1783169457237411600,11.41341162109375,-0.05886198580265045,-0.0030662992503494024,0.02622383087873459
1783169457247390500,11.423390380859376,-0.044985584914684296,0.009148821234703064,0.012253953143954277
1783169457257339400,11.43333935546875,-0.024525800719857216,0.017092358320951462,0.006499609909951687
1783169457267287600,11.44328759765625,-0.005821090191602707,0.022949714213609695,0.0020302929915487766
1783169457277236700,11.45323681640625,0.011259742081165314,0.015881933271884918,-0.0020106490701436996
1783169457287215600,11.463215576171875,0.02579980343580246,-0.004946915432810783,-0.008032855577766895
1783169457297164800,11.473164794921875,0.033422909677028656,-0.029865704476833344,-0.026632972061634064
1783169457307113700,11.48311376953125,0.03851673752069473,-0.03517977520823479,-0.04431050270795822
1783169457317092600,11.493092529296876,0.029855679720640182,-0.014424288645386696,-0.06308585405349731
1783169457327041500,11.50304150390625,0.02124088630080223,0.02273027040064335,-0.07512734085321426
1783169457336990700,11.51299072265625,0.019219228997826576,0.040313031524419785,-0.08337590843439102
1783169457346938600,11.522938720703126,0.0312026534229517,0.030153337866067886,-0.06814635545015335
1783169457356918500,11.53291845703125,0.046646855771541595,0.017757389694452286,-0.044049277901649475
1783169457366866700,11.54286669921875,0.05856796354055405,-0.0053111775778234005,-0.0009342972189188004
1783169457376815600,11.552815673828125,0.06507880240678787,-0.0355580635368824,0.037447262555360794
1783169457386764500,11.5627646484375,0.06379089504480362,-0.05804792419075966,0.0625893697142601
1783169457396743400,11.572743408203126,0.06144288182258606,-0.05860685557126999,0.0726858451962471
1783169457406692600,11.582692626953126,0.061347007751464844,-0.05174894630908966,0.06748229265213013
1783169457416640500,11.592640625,0.06957849860191345,-0.03719118610024452,0.05929102003574371
1783169457426620400,11.602620361328125,0.09144943952560425,-0.03013274259865284,0.04109976440668106
1783169457436568600,11.612568603515625,0.09804952144622803,-0.02524268813431263,0.01914547197520733
1783169457446517800,11.622517822265625,0.08445967733860016,-0.006791244260966778,-0.005808614194393158
1783169457456466700,11.632466796875,0.060138531029224396,-0.009822513908147812,-0.022259924560785294
1783169457466445600,11.642445556640626,0.029136402532458305,-0.01679733395576477,-0.02994421124458313
1783169457476394800,11.652394775390626,-0.0008441265672445297,-0.008838897570967674,-0.028433650732040405
1783169457486343700,11.66234375,-0.03883012384176254,-0.003450789488852024,-0.01877356693148613
1783169457496291600,11.67229150390625,-0.06702876836061478,-0.007387233432382345,-0.00729878805577755
1783169457506271500,11.682271484375,-0.0832868292927742,-0.015246488153934479,-0.002265414223074913
1783169457516219600,11.6922197265625,-0.08417779952287674,-0.034743934869766235,0.0028626550920307636
1783169457526168600,11.70216845703125,-0.07651136070489883,-0.0539700947701931,0.0018871389329433441
1783169457536147700,11.712147705078126,-0.07357902824878693,-0.06419436633586884,-0.009732160717248917
1783169457546096600,11.7220966796875,-0.07122692465782166,-0.027260053902864456,-0.04836583882570267
1783169457556045600,11.732045654296876,-0.052990712225437164,0.07959480583667755,-0.08645006269216537
1783169457565993500,11.741993408203125,-0.0505528524518013,0.2565229833126068,-0.0039954036474227905
1783169457575973600,11.7519736328125,-0.10585588961839676,0.1930113136768341,0.1694640964269638
1783169457585921500,11.761921630859375,-0.09139332175254822,-0.022772375494241714,0.22946351766586304
1783169457595870500,11.771870361328125,-0.020883606746792793,-0.11483796685934067,0.2630162537097931
1783169457605819600,11.781819580078125,0.049620121717453,-0.20096272230148315,0.29671987891197205
1783169457615798500,11.791798583984376,0.08581394702196121,-0.23881013691425323,0.2992148995399475
1783169457625747700,11.801747802734376,0.08406104892492294,-0.23812037706375122,0.248758926987648
1783169457635696600,11.811696533203126,0.07412506639957428,-0.2104450762271881,0.15633417665958405
1783169457645675800,11.82167578125,0.09336986392736435,-0.1418580263853073,0.0592462494969368
1783169457655624700,11.831624755859375,0.10286346822977066,-0.05504520982503891,0.015389632433652878
