time,seconds_elapsed,z,y,x
1782667651734353200,0.253353271484375,0.22559618949890137,-0.0616132915019989,-0.6936310529708862
1782667651744302300,0.26330224609375,0.2581842243671417,-0.06868770718574524,-0.7015444040298462
1782667651754251300,0.273251220703125,0.2628014087677002,-0.09970453381538391,-0.6764317750930786
1782667651764200200,0.2832001953125,0.24148251116275787,-0.1264336109161377,-0.6212143301963806
1782667651774148400,0.2931484375,0.191817969083786,-0.11839839816093445,-0.5432986617088318
1782667651784127200,0.303127197265625,0.12981770932674408,-0.05019111931324005,-0.41213369369506836
1782667651794076200,0.313076171875,0.04447420686483383,0.05808321386575699,-0.2327086180448532
1782667651804025000,0.323025146484375,-0.03641531616449356,0.1937560886144638,-0.02964099496603012
1782667651813974000,0.33297412109375,-0.08315479010343552,0.39819779992103577,0.1776672601699829
1782667651823953200,0.342953125,-0.05391727760434151,0.5926519632339478,0.3989248275756836
1782667651833902000,0.352902099609375,0.04775198549032211,0.654464840888977,0.5973803997039795
1782667651843850200,0.362850341796875,0.2010219693183899,0.6294316649436951,0.7880065441131592
1782667651853799200,0.372799072265625,0.37053167819976807,0.5905413627624512,1.0107475519180298
1782667651863748000,0.382748046875,0.5306196212768555,0.6114884614944458,1.2736364603042603
1782667651873727000,0.39272705078125,0.6831154823303223,0.7722464203834534,1.6198168992996216
1782667651883676200,0.40267626953125,0.8044179677963257,1.0309977531433105,1.9804950952529907
1782667651893625300,0.412625244140625,0.8749980926513672,1.2748550176620483,2.2563247680664062
1782667651903573200,0.4225732421875,0.9287601113319397,1.4133535623550415,2.3938915729522705
1782667651913553200,0.43255322265625,0.9490106701850891,1.3885443210601807,2.362269878387451
1782667651923501300,0.442501220703125,0.9143410921096802,1.1477011442184448,2.179795742034912
1782667651933450200,0.4524501953125,0.8049641251564026,0.646450936794281,1.860731840133667
1782667651943399200,0.462399169921875,0.6046398282051086,-0.21904657781124115,1.4062458276748657
1782667651953378300,0.47237841796875,0.40224725008010864,-1.1545120477676392,0.8785858750343323
1782667651963327200,0.4823271484375,0.26050102710723877,-1.7122602462768555,0.4491786062717438
1782667651973275100,0.492275146484375,0.14345720410346985,-1.8705897331237793,0.15504907071590424
1782667651983224000,0.50222412109375,0.11478321254253387,-1.6781563758850098,0.05373390018939972
1782667651993173200,0.51217333984375,0.21767950057983398,-1.2408370971679688,0.15974102914333344
1782667652003152100,0.522152099609375,0.41063806414604187,-0.6861124038696289,0.4167405962944031
1782667652013101000,0.53210107421875,0.5972226858139038,-0.08935906738042831,0.7299482822418213
1782667652023050000,0.542050048828125,0.6516486406326294,0.3286096751689911,0.9358939528465271
1782667652032998100,0.551998046875,0.5273352861404419,0.4314471185207367,0.899556577205658
1782667652042978000,0.56197802734375,0.15901903808116913,0.1661858707666397,0.49419254064559937
1782667652052926000,0.571926025390625,-0.4181916415691376,-0.4154645800590515,-0.28921863436698914
1782667652062875400,0.58187548828125,-0.9744176268577576,-0.9588149189949036,-1.2274508476257324
1782667652072824300,0.59182421875,-1.279489517211914,-1.1170341968536377,-2.043654441833496
1782667652082773200,0.601773193359375,-1.320234775543213,-0.8854078054428101,-2.621365785598755
1782667652092744700,0.61174462890625,-1.1553802490234375,-0.3777967393398285,-2.954220771789551
1782667652102692600,0.621692626953125,-0.8702738881111145,0.17235693335533142,-3.0433497428894043
1782667652112641500,0.6316416015625,-0.6205574870109558,0.5248448252677917,-2.93061900138855
1782667652122590700,0.6415908203125,-0.5136286020278931,0.6240308284759521,-2.659881114959717
1782667652132569600,0.651569580078125,-0.5433541536331177,0.5869140625,-2.257485866546631
1782667652142518800,0.661518798828125,-0.6667184233665466,0.519292414188385,-1.8005714416503906
1782667652152467700,0.6714677734375,-0.8281728029251099,0.39378511905670166,-1.3939316272735596
1782667652162415600,0.68141552734375,-0.9783095717430115,0.1660321205854416,-1.1253910064697266
1782667652172395800,0.691395751953125,-1.069758415222168,-0.10548717528581619,-0.9937158823013306
1782667652182343700,0.70134375,-1.06285560131073,-0.2879869341850281,-0.9381285309791565
1782667652192292600,0.711292724609375,-0.9226534366607666,-0.30697670578956604,-0.8760532140731812
1782667652202241500,0.721241455078125,-0.6662663817405701,-0.17434516549110413,-0.765028715133667
1782667652212190700,0.731190673828125,-0.369082510471344,0.04046374559402466,-0.5930467247962952
1782667652222169600,0.741169677734375,-0.1149570420384407,0.2533177137374878,-0.369020015001297
1782667652232118500,0.751118408203125,0.019009819254279137,0.39677155017852783,-0.101755291223526
1782667652242066700,0.761066650390625,0.027962567284703255,0.49485495686531067,0.19002622365951538
1782667652252015600,0.771015625,-0.057522788643836975,0.5392788052558899,0.4811483919620514
1782667652261994500,0.780994384765625,-0.20773757994174957,0.4572118818759918,0.7491793036460876
1782667652271943700,0.790943603515625,-0.400831013917923,0.24147334694862366,0.9589612483978271
1782667652281892900,0.800892822265625,-0.6052275896072388,-0.06091926246881485,1.0843034982681274
1782667652291840500,0.810840576171875,-0.7750054001808167,-0.38259992003440857,1.1249659061431885
1782667652301789700,0.820789794921875,-0.8646513819694519,-0.6584123373031616,1.1017913818359375
1782667652311768800,0.830768798828125,-0.8624979853630066,-0.8176613450050354,1.0516794919967651
1782667652321717800,0.8407177734375,-0.768473744392395,-0.8242740035057068,0.9921523928642273
1782667652331666700,0.850666748046875,-0.6109377145767212,-0.6802746653556824,0.9221578240394592
1782667652341615600,0.86061572265625,-0.45519471168518066,-0.5215305089950562,0.8182370066642761
1782667652351594800,0.8705947265625,-0.3593185245990753,-0.5138020515441895,0.6329060792922974
1782667652361543700,0.880543701171875,-0.32558637857437134,-0.6665122509002686,0.3718387484550476
1782667652371491600,0.89049169921875,-0.3336370289325714,-0.8365488648414612,0.10502172261476517
1782667652381440500,0.9004404296875,-0.3239029049873352,-0.7620836496353149,-0.06106632202863693
1782667652391419600,0.910419677734375,-0.25406739115715027,-0.2568221092224121,-0.04100579395890236
1782667652401368600,0.92036865234375,-0.12610594928264618,0.5670539736747742,0.14911167323589325
1782667652411317500,0.9303173828125,-0.011212537996470928,1.2724984884262085,0.36579379439353943
1782667652421265700,0.940265625,-0.004367947578430176,1.4476194381713867,0.44433894753456116
1782667652431214600,0.950214599609375,-0.08248841762542725,1.3497956991195679,0.3327682912349701
1782667652441193500,0.960193359375,-0.22168785333633423,1.1378941535949707,0.07462329417467117
1782667652451142700,0.970142578125,-0.43117403984069824,0.8786351084709167,-0.2639710605144501
1782667652461091800,0.980091796875,-0.6520984172821045,0.7412412762641907,-0.5766743421554565
1782667652471040800,0.990040771484375,-0.7673512697219849,0.7534790635108948,-0.7906465530395508
1782667652481019600,1.00001953125,-0.7153999209403992,1.0044814348220825,-0.8832816481590271
1782667652490968800,1.00996875,-0.5279862284660339,1.3526856899261475,-0.8727236390113831
1782667652500916700,1.019916748046875,-0.32515671849250793,1.4307359457015991,-0.8466174602508545
1782667652510865700,1.02986572265625,-0.16528871655464172,1.2789455652236938,-0.7631971836090088
1782667652520814600,1.039814697265625,-0.054315853863954544,0.971246600151062,-0.5861244201660156
1782667652530793700,1.049793701171875,0.00923524983227253,0.3962429463863373,-0.38238680362701416
1782667652540742700,1.05974267578125,0.0009839795529842377,-0.4405997693538666,-0.26662132143974304
1782667652550691600,1.069691650390625,-0.10022804141044617,-1.2057185173034668,-0.31919097900390625
1782667652560639700,1.0796396484375,-0.2544482350349426,-1.5522605180740356,-0.520858645439148
1782667652570619600,1.08961962890625,-0.3805646002292633,-1.4885600805282593,-0.7896278500556946
1782667652580567600,1.099567626953125,-0.457134485244751,-1.1886603832244873,-1.0584607124328613
1782667652590516500,1.1095166015625,-0.4468185305595398,-0.702487587928772,-1.2267906665802002
1782667652600465700,1.119465576171875,-0.3613542318344116,-0.10522796213626862,-1.2341673374176025
1782667652610444500,1.129444580078125,-0.2491307258605957,0.418747216463089,-1.1016939878463745
1782667652620393700,1.139393798828125,-0.15170776844024658,0.7116155624389648,-0.8859124183654785
1782667652630342000,1.149341796875,-0.10703656822443008,0.7327808737754822,-0.6547315716743469
1782667652640290800,1.159290771484375,-0.11205103248357773,0.5328435301780701,-0.45365381240844727
1782667652650239700,1.16923974609375,-0.14444500207901,0.22261027991771698,-0.30865800380706787
1782667652660218600,1.179218505859375,-0.1773049533367157,-0.12418070435523987,-0.2390911877155304
1782667652670167800,1.189167724609375,-0.1980358362197876,-0.47982507944107056,-0.27287593483924866
1782667652680116700,1.19911669921875,-0.17187747359275818,-0.7626781463623047,-0.3697760999202728
1782667652690064600,1.209064697265625,-0.04296252876520157,-0.9145939350128174,-0.45666950941085815
1782667652700044500,1.21904443359375,0.23471860587596893,-0.9469201564788818,-0.4370792806148529
1782667652709992700,1.22899267578125,0.5978446006774902,-0.9652636051177979,-0.2823963463306427
1782667652719941600,1.238941650390625,0.9106712341308594,-1.0121726989746094,-0.006459037307649851
1782667652729890600,1.248890625,1.073281168937683,-1.1010938882827759,0.32429349422454834
1782667652739838700,1.258838623046875,1.0912936925888062,-1.1530455350875854,0.6921151876449585
1782667652749818600,1.268818603515625,0.9990113973617554,-1.0907471179962158,1.0853742361068726
1782667652759766500,1.2787666015625,0.8211854696273804,-0.9690494537353516,1.4637001752853394
1782667652769715500,1.288715576171875,0.6014328598976135,-0.8710129261016846,1.7354379892349243
1782667652779664600,1.29866455078125,0.39583444595336914,-0.8426747918128967,1.863444447517395
1782667652789643800,1.308643798828125,0.2224770188331604,-0.820992648601532,1.860206127166748
1782667652799592700,1.3185927734375,0.08383551985025406,-0.8113096356391907,1.7573394775390625
1782667652809541600,1.328541748046875,-0.017815694212913513,-0.8017258644104004,1.5975744724273682
1782667652819489800,1.33848974609375,-0.08149134367704391,-0.7921491265296936,1.4059644937515259
1782667652829469700,1.3484697265625,-0.09757739305496216,-0.7471144795417786,1.188117504119873
1782667652839417600,1.35841748046875,-0.05349648371338844,-0.560140073299408,0.9780624508857727
1782667652849366800,1.36836669921875,0.016883086413145065,-0.17162677645683289,0.812354326248169
1782667652859315700,1.378315673828125,0.04458369314670563,0.3136019706726074,0.6780279874801636
1782667652869264600,1.3882646484375,0.011581102386116982,0.7390671372413635,0.5381573438644409
1782667652879243500,1.398243408203125,-0.06974837929010391,0.9574625492095947,0.3769756555557251
1782667652889192700,1.408192626953125,-0.14149393141269684,0.8556210398674011,0.20812667906284332
1782667652899140600,1.418140625,-0.1435924917459488,0.5712563991546631,0.09148875623941422
1782667652909089500,1.428089599609375,-0.07799483090639114,0.3260243833065033,0.06564860045909882
1782667652919068700,1.438068603515625,0.05589558929204941,0.2714753746986389,0.10481331497430801
1782667652929017900,1.448017822265625,0.2460632026195526,0.4218381941318512,0.16668365895748138
1782667652938966800,1.457966796875,0.42638689279556274,0.6652876138687134,0.14993317425251007
1782667652948914700,1.467914794921875,0.531657338142395,0.7600781321525574,-0.01653141714632511
1782667652958863600,1.477863525390625,0.5527940392494202,0.6768700480461121,-0.319645494222641
1782667652968842800,1.4878427734375,0.47161582112312317,0.5299310684204102,-0.7229021787643433
1782667652978791700,1.497791748046875,0.24998356401920319,0.36763378977775574,-1.1988109350204468
1782667652988740600,1.50774072265625,-0.048155754804611206,0.1909056156873703,-1.66957426071167
1782667652998689500,1.517689453125,-0.33839210867881775,0.14358097314834595,-1.9982489347457886
1782667653008668700,1.527668701171875,-0.5809352397918701,0.21608801186084747,-2.103456735610962
1782667653018617600,1.53761767578125,-0.737940788269043,0.328105092048645,-1.9970872402191162
1782667653028565800,1.547565673828125,-0.7416801452636719,0.41450557112693787,-1.7177635431289673
1782667653038514700,1.5575146484375,-0.6276172399520874,0.3279275596141815,-1.384988784790039
1782667653048463600,1.567463623046875,-0.5262063145637512,0.03981561213731766,-1.1135268211364746
1782667653058442500,1.5774423828125,-0.5251138806343079,-0.32940956950187683,-0.9310004115104675
1782667653068391700,1.5873916015625,-0.5277161002159119,-0.64552241563797,-0.750996470451355
1782667653078339600,1.597339599609375,-0.4735303223133087,-0.8319599628448486,-0.5579652190208435
1782667653088288500,1.60728857421875,-0.32897624373435974,-0.8577097654342651,-0.3159755766391754
1782667653098305000,1.617304931640625,-0.1570095270872116,-0.7862513065338135,-0.03137633576989174
1782667653108254000,1.62725390625,-0.05196913704276085,-0.7752522230148315,0.21025066077709198
1782667653118203000,1.637202880859375,-0.03981393575668335,-0.9021185040473938,0.3492612838745117
1782667653128151800,1.64715185546875,-0.06346611678600311,-1.096956729888916,0.3920263946056366
1782667653138131000,1.657130859375,-0.06540330499410629,-1.241998314857483,0.37503063678741455
1782667653148079900,1.667079833984375,-0.03668968752026558,-1.3007302284240723,0.296979159116745
1782667653158027800,1.67702783203125,-0.0006243623793125153,-1.273784875869751,0.13482220470905304
1782667653167977000,1.68697705078125,0.0602005198597908,-1.2098214626312256,-0.10654771327972412
1782667653177926000,1.69692578125,0.1831860989332199,-1.089876413345337,-0.37741488218307495
1782667653187904800,1.70690478515625,0.3636370897293091,-0.9038990139961243,-0.5992479920387268
1782667653197853700,1.716853759765625,0.5567213296890259,-0.6615625619888306,-0.7183365225791931
1782667653207803100,1.72680322265625,0.7115757465362549,-0.37280794978141785,-0.7051624059677124
1782667653217751000,1.7367509765625,0.786444902420044,-0.07652779668569565,-0.5581777095794678
1782667653227730000,1.74672998046875,0.7622841000556946,0.20415465533733368,-0.31026461720466614
1782667653237679000,1.75667919921875,0.6792539358139038,0.42054954171180725,0.00496736541390419
1782667653247628000,1.7666279296875,0.5725319385528564,0.5245069265365601,0.344113826751709
1782667653257577000,1.776576904296875,0.46572378277778625,0.5211294889450073,0.661151647567749
1782667653267524900,1.78652490234375,0.34369516372680664,0.4569609761238098,0.9152608513832092
1782667653277505000,1.796505126953125,0.22600582242012024,0.35744422674179077,1.0848982334136963
1782667653287453000,1.806452880859375,0.11151538044214249,0.21045897901058197,1.1419514417648315
1782667653297401900,1.81640185546875,0.035283997654914856,0.07216235250234604,1.0873987674713135
1782667653307350800,1.826350830078125,0.018435416743159294,0.04477939009666443,0.9720447659492493
1782667653317330000,1.836329833984375,0.02321472577750683,0.1615523397922516,0.8260174989700317
1782667653327278800,1.84627880859375,0.033106476068496704,0.38588038086891174,0.6801791191101074
1782667653337227800,1.856227783203125,0.06348701566457748,0.5897448062896729,0.5505151152610779
1782667653347176000,1.866176025390625,0.12889046967029572,0.7240901589393616,0.4591180384159088
1782667653357155800,1.87615576171875,0.21928054094314575,0.7538677453994751,0.44661664962768555
1782667653367103700,1.886103759765625,0.30131247639656067,0.6779283285140991,0.5053883790969849
1782667653377053000,1.896052978515625,0.3398561477661133,0.49342188239097595,0.596533477306366
1782667653387002000,1.906002197265625,0.37348759174346924,0.1566619724035263,0.6571107506752014
1782667653396950000,1.915949951171875,0.44664597511291504,-0.2311217188835144,0.6387104392051697
1782667653406930000,1.925929931640625,0.5817169547080994,-0.377527117729187,0.5302433967590332
1782667653416878000,1.935878173828125,0.6863549947738647,-0.255331426858902,0.32635605335235596
1782667653426827000,1.945826904296875,0.6396074891090393,-0.09147344529628754,-0.026462875306606293
1782667653436776000,1.95577587890625,0.4289056360721588,0.12754544615745544,-0.4946146607398987
1782667653446754800,1.9657548828125,0.12874898314476013,0.4811278283596039,-0.9816156625747681
1782667653456704000,1.9757041015625,-0.14179062843322754,0.8331553936004639,-1.3437764644622803
1782667653466653000,1.98565283203125,-0.26255157589912415,1.0394761562347412,-1.4507182836532593
1782667653476600800,1.995600830078125,-0.22148215770721436,1.0958019495010376,-1.2805209159851074
1782667653486549800,2.0055498046875,-0.09277459979057312,0.9344022870063782,-0.8920818567276001
1782667653496529000,2.01552880859375,-0.006869811564683914,0.48710522055625916,-0.43979212641716003
1782667653506477800,2.025477783203125,-0.042919911444187164,-0.14553821086883545,-0.08259820193052292
1782667653516426800,2.0354267578125,-0.12831151485443115,-0.7527839541435242,0.1293894201517105
1782667653526375000,2.045375,-0.17181448638439178,-1.1183630228042603,0.22058504819869995
1782667653536355000,2.05535498046875,-0.17211516201496124,-1.2336409091949463,0.20696456730365753
1782667653546302700,2.065302734375,-0.15532077848911285,-1.1661386489868164,0.1166345551609993
1782667653556252000,2.075251953125,-0.11524845659732819,-0.9823842644691467,-0.02380778081715107
1782667653566201000,2.085201171875,-0.03153730556368828,-0.690546989440918,-0.1524890959262848
1782667653576150000,2.09514990234375,0.08062785118818283,-0.33664435148239136,-0.23901332914829254
1782667653586129000,2.10512890625,0.1553029865026474,0.008742270059883595,-0.3043557405471802
1782667653596077800,2.115077880859375,0.13407893478870392,0.3139650523662567,-0.34330153465270996
1782667653606026000,2.12502587890625,0.0051703862845897675,0.5750769376754761,-0.3800695538520813
1782667653615975000,2.134974853515625,-0.18878577649593353,0.6896277666091919,-0.44223520159721375
1782667653625953800,2.144953857421875,-0.3925110697746277,0.6415877938270569,-0.5035969018936157
1782667653635903000,2.154903076171875,-0.5696256756782532,0.4774966537952423,-0.5377375483512878
1782667653645852000,2.164851806640625,-0.6858733892440796,0.26494574546813965,-0.5460118651390076
1782667653655800800,2.17480078125,-0.7143524289131165,0.10588845610618591,-0.5146153569221497
1782667653665779700,2.18477978515625,-0.6709486246109009,0.07400524616241455,-0.4444318413734436
1782667653675729000,2.19472900390625,-0.5637441277503967,0.19919699430465698,-0.3261320888996124
1782667653685676800,2.2046767578125,-0.4117371737957001,0.4415949285030365,-0.13720601797103882
1782667653695626000,2.2146259765625,-0.24666912853717804,0.6879295706748962,0.10749160498380661
1782667653705575000,2.224574951171875,-0.11351533979177475,0.8454117178916931,0.400746613740921
1782667653715554000,2.234553955078125,-0.03339013829827309,0.9258772134780884,0.7244924306869507
1782667653725503000,2.2445029296875,-0.01325999666005373,0.9269329309463501,1.0489921569824219
1782667653735451000,2.254450927734375,-0.04951653629541397,0.8500075340270996,1.330832600593567
1782667653745400000,2.264400146484375,-0.14079301059246063,0.6616600751876831,1.5208947658538818
1782667653755379000,2.27437890625,-0.2609870731830597,0.39471864700317383,1.5871676206588745
1782667653765328000,2.284327880859375,-0.36846497654914856,0.13958320021629333,1.5444135665893555
1782667653775276800,2.29427685546875,-0.4484383761882782,-0.07715710252523422,1.3942961692810059
1782667653785226000,2.30422607421875,-0.4778091013431549,-0.2537137567996979,1.1425747871398926
1782667653795174000,2.314173828125,-0.44593584537506104,-0.36106523871421814,0.8373134732246399
1782667653805153800,2.32415380859375,-0.38474172353744507,-0.37885284423828125,0.511704683303833
1782667653815102000,2.33410205078125,-0.3231486678123474,-0.34307992458343506,0.2205130159854889
1782667653825051000,2.34405078125,-0.28681689500808716,-0.33059990406036377,-0.013650115579366684
1782667653834999800,2.353999755859375,-0.30816954374313354,-0.45117664337158203,-0.20953014492988586
1782667653844978700,2.363978759765625,-0.358047217130661,-0.6872041821479797,-0.33526745438575745
1782667653854928100,2.37392822265625,-0.3745122253894806,-0.8903104066848755,-0.3417684733867645
1782667653864876000,2.3838759765625,-0.34826213121414185,-0.8612305521965027,-0.19739700853824615
1782667653874825000,2.393824951171875,-0.3446812629699707,-0.5872206091880798,0.04470111057162285
1782667653884804000,2.40380419921875,-0.4065619707107544,-0.36790379881858826,0.27028024196624756
1782667653894753000,2.4137529296875,-0.4896659255027771,-0.5161787867546082,0.3678818941116333
1782667653904702000,2.423701904296875,-0.5196468830108643,-0.8933621644973755,0.35036584734916687
1782667653914651000,2.43365087890625,-0.47878706455230713,-1.146422028541565,0.26686403155326843
1782667653924599000,2.44359912109375,-0.4123331904411316,-1.105875015258789,0.17536093294620514
1782667653934579000,2.453578857421875,-0.32981035113334656,-0.8046917915344238,0.10952253639698029
1782667653944526800,2.46352685546875,-0.2273746132850647,-0.33238399028778076,0.07656048238277435
1782667653954475800,2.473475830078125,-0.09414731711149216,0.10477443784475327,0.056488245725631714
1782667653964425000,2.483425048828125,0.037917956709861755,0.34006187319755554,0.017322499305009842
1782667653974403800,2.49340380859375,0.10919266939163208,0.2972385287284851,-0.06065298616886139
1782667653984352800,2.503352783203125,0.11372774839401245,0.05168192833662033,-0.18783648312091827
1782667653994301700,2.5133017578125,0.10490256547927856,-0.2178821712732315,-0.32125338912010193
1782667654004249900,2.523249755859375,0.16159376502037048,-0.2973603904247284,-0.3968201279640198
1782667654014199000,2.533198974609375,0.2561575472354889,-0.1640143245458603,-0.40781286358833313
1782667654024178000,2.543177978515625,0.36159777641296387,0.06713926792144775,-0.362820565700531
1782667654034127000,2.553127197265625,0.47095462679862976,0.31045979261398315,-0.2904731333255768
1782667654044076000,2.563075927734375,0.5332772135734558,0.48271751403808594,-0.21237413585186005
1782667654054024000,2.57302392578125,0.5285335779190063,0.5507290363311768,-0.15034832060337067
1782667654064003800,2.58300390625,0.47224557399749756,0.5296871066093445,-0.1094779521226883
1782667654073952000,2.592951904296875,0.3667801320552826,0.47582441568374634,-0.07730323821306229
1782667654083901000,2.60290087890625,0.22045007348060608,0.4005777835845947,-0.06194048747420311
1782667654093849900,2.612849853515625,0.06524931639432907,0.3139882981777191,-0.05669965222477913
1782667654103828200,2.622828125,-0.06216704845428467,0.25374868512153625,-0.0656692311167717
1782667654113777200,2.632777099609375,-0.15164527297019958,0.2297016680240631,-0.11094536632299423
1782667654123726000,2.64272607421875,-0.173573300242424,0.23105666041374207,-0.17743773758411407
1782667654133674200,2.65267431640625,-0.11861684918403625,0.248772531747818,-0.23103545606136322
1782667654143623200,2.662623046875,-0.01846523955464363,0.28659722208976746,-0.23747891187667847
1782667654153602000,2.67260205078125,0.09786243736743927,0.3259129524230957,-0.1892775595188141
1782667654163551000,2.682551025390625,0.2001505047082901,0.30985313653945923,-0.08240504562854767
1782667654173500400,2.69250048828125,0.2626868486404419,0.23383264243602753,0.06434711068868637
1782667654183448300,2.7024482421875,0.23971563577651978,0.08719874173402786,0.21269723773002625
1782667654193428200,2.71242822265625,0.13545501232147217,-0.09149030596017838,0.3182801306247711
1782667654203376400,2.72237646484375,-0.0038150418549776077,-0.22782853245735168,0.37852469086647034
1782667654213325300,2.7323251953125,-0.1306198537349701,-0.30922964215278625,0.39393508434295654
1782667654223274200,2.742274169921875,-0.21281684935092926,-0.36337873339653015,0.35330575704574585
1782667654233223200,2.75222314453125,-0.25453928112983704,-0.338245153427124,0.26089006662368774
1782667654243202300,2.762202392578125,-0.27516427636146545,-0.26008307933807373,0.154217928647995
1782667654253151200,2.772151123046875,-0.2974746525287628,-0.16138897836208344,0.05001641809940338
1782667654263099100,2.78209912109375,-0.3299449384212494,-0.051858317106962204,-0.04940196871757507
1782667654273048000,2.792048095703125,-0.37254780530929565,0.12993650138378143,-0.11799488216638565
1782667654283027200,2.802027099609375,-0.4167042374610901,0.39961934089660645,-0.11748082935810089
1782667654292976000,2.81197607421875,-0.4551815986633301,0.7220074534416199,-0.048591237515211105
1782667654302925000,2.821925048828125,-0.47879156470298767,0.9925728440284729,0.06931588053703308
1782667654312874200,2.831874267578125,-0.4671271741390228,1.1516791582107544,0.2321852296590805
1782667654322822100,2.841822265625,-0.42328521609306335,1.1578000783920288,0.4167581796646118
1782667654332802300,2.85180224609375,-0.38583770394325256,0.9299774765968323,0.5598838925361633
1782667654342750200,2.861750244140625,-0.3395591974258423,0.4594517648220062,0.6281595230102539
1782667654352699400,2.871699462890625,-0.24225927889347076,-0.10305392742156982,0.6354528665542603
1782667654362648300,2.8816484375,-0.1189950704574585,-0.5881218910217285,0.6038992404937744
1782667654372627200,2.891627197265625,-0.01714034005999565,-0.9416354894638062,0.5186170935630798
1782667654382576000,2.901576171875,0.06287714093923569,-1.1702407598495483,0.36678367853164673
1782667654392524300,2.911524169921875,0.1019798070192337,-1.1842817068099976,0.13629882037639618
1782667654402473200,2.92147314453125,0.1530836522579193,-0.9049638509750366,-0.12693360447883606
1782667654412452000,2.9314521484375,0.21523863077163696,-0.5541350245475769,-0.3993728458881378
1782667654422401300,2.9414013671875,0.23404747247695923,-0.6076365113258362,-0.7219892740249634
1782667654432350200,2.95135009765625,0.18203328549861908,-1.0290226936340332,-1.0302547216415405
1782667654442299100,2.961299072265625,0.07763900607824326,-1.325081467628479,-1.193015217781067
1782667654452247000,2.9712470703125,-0.04019948095083237,-1.248131513595581,-1.1638737916946411
1782667654462227200,2.981227294921875,-0.1317257583141327,-0.8768516182899475,-0.9792554974555969
1782667654472175000,2.991175048828125,-0.18433624505996704,-0.35581719875335693,-0.7483882308006287
1782667654482124000,3.0011240234375,-0.21470224857330322,0.06242834031581879,-0.5665445923805237
1782667654492073200,3.0110732421875,-0.28008338809013367,0.22242653369903564,-0.5214143991470337
1782667654502052400,3.02105224609375,-0.35995998978614807,0.2072283923625946,-0.6220510601997375
1782667654512001300,3.031001220703125,-0.3809976279735565,0.16800588369369507,-0.7765346765518188
1782667654521949200,3.04094921875,-0.31696996092796326,0.16482722759246826,-0.9321981072425842
1782667654531898400,3.0508984375,-0.1760655790567398,0.1680331528186798,-1.0537035465240479
1782667654541847300,3.060847412109375,0.013372378423810005,0.1375751793384552,-1.1271295547485352
1782667654551826200,3.070826171875,0.23308344185352325,0.08822572976350784,-1.1495885848999023
1782667654561775000,3.080775146484375,0.45177584886550903,0.05152497440576553,-1.1039401292800903
1782667654571724300,3.090724365234375,0.6365707516670227,0.06026014685630798,-0.9888572096824646
1782667654581672200,3.100672119140625,0.7596300840377808,0.11876339465379715,-0.8268504738807678
1782667654591652000,3.110652099609375,0.8068380355834961,0.18794381618499756,-0.6300756335258484
1782667654601600300,3.120600341796875,0.7647929787635803,0.2853088080883026,-0.42186439037323
1782667654611549200,3.130549072265625,0.6391165256500244,0.3911273777484894,-0.2093670517206192
1782667654621498000,3.140498046875,0.43906068801879883,0.478444904088974,0.004915083758533001
1782667654631477000,3.15047705078125,0.2013210952281952,0.5356158018112183,0.20896755158901215
1782667654641426200,3.16042626953125,-0.003923686221241951,0.5895825624465942,0.4001644551753998
1782667654651374000,3.1703740234375,-0.13911452889442444,0.6305592656135559,0.5733279585838318
1782667654661323300,3.1803232421875,-0.20123471319675446,0.653610110282898,0.7225369215011597
1782667654671272200,3.190272216796875,-0.21216300129890442,0.6673911809921265,0.8479457497596741
1782667654681251300,3.200251220703125,-0.19123250246047974,0.6538757681846619,0.9463774561882019
1782667654691200300,3.2102001953125,-0.1705400049686432,0.5916110277175903,1.0203055143356323
1782667654701149200,3.220149169921875,-0.16813737154006958,0.4747224450111389,1.092149257659912
1782667654711097300,3.230097412109375,-0.23688526451587677,0.3049595057964325,1.1532386541366577
1782667654721077200,3.2400771484375,-0.3682931363582611,0.10319828987121582,1.1988017559051514
1782667654731025200,3.250025146484375,-0.5465195775032043,-0.11520595848560333,1.2202271223068237
1782667654740974000,3.25997412109375,-0.7585253715515137,-0.3419250249862671,1.183962345123291
1782667654750923300,3.26992333984375,-0.972201943397522,-0.6285144090652466,1.0583384037017822
1782667654760872200,3.2798720703125,-1.1254576444625854,-1.0231467485427856,0.8553115725517273
1782667654770851000,3.28985107421875,-1.2282159328460693,-1.4149222373962402,0.6378874182701111
1782667654780800000,3.299800048828125,-1.3171292543411255,-1.754000186920166,0.46091514825820923
1782667654790748200,3.309748046875,-1.4205992221832275,-1.8663232326507568,0.39056479930877686
1782667654800697000,3.319697021484375,-1.5712430477142334,-1.7416692972183228,0.4498012959957123
1782667654810676200,3.32967626953125,-1.7590103149414062,-1.433010220527649,0.5787262916564941
1782667654820625400,3.33962548828125,-1.9051824808120728,-0.8028760552406311,0.7341862916946411
1782667654830574300,3.34957421875,-1.8986729383468628,0.04701003432273865,0.9053527116775513
1782667654840522200,3.359522216796875,-1.7812546491622925,0.42029866576194763,0.9456508755683899
1782667654850502100,3.369502197265625,-1.7046499252319336,-0.01434279140084982,0.6783842444419861
1782667654860450300,3.3794501953125,-1.6463569402694702,-0.594386637210846,0.1636294424533844
1782667654870399200,3.389399169921875,-1.5270856618881226,-0.6043564081192017,-0.36002683639526367
1782667654880348200,3.39934814453125,-1.3137226104736328,-0.013519534841179848,-0.7024760246276855
1782667654890297000,3.409297119140625,-1.0199096202850342,0.7751505970954895,-0.8395582437515259
1782667654900276200,3.419276123046875,-0.6692262887954712,1.4143644571304321,-0.8535212278366089
1782667654910225200,3.42922509765625,-0.2987896203994751,1.728481411933899,-0.8063438534736633
1782667654920173000,3.439173095703125,0.041785821318626404,1.622443675994873,-0.7192577123641968
1782667654930122200,3.449122314453125,0.2841537296772003,1.0363898277282715,-0.6106953024864197
1782667654940101000,3.45910107421875,0.3725855350494385,0.14982111752033234,-0.513056755065918
1782667654950050000,3.469050048828125,0.33101627230644226,-0.6847131252288818,-0.4520610570907593
1782667654959999200,3.478999267578125,0.23936490714550018,-1.1038495302200317,-0.4242744743824005
1782667654969947100,3.488947021484375,0.17942461371421814,-1.0692780017852783,-0.4359774589538574
1782667654979896300,3.498896240234375,0.16672931611537933,-0.6917542815208435,-0.46784961223602295
1782667654989875200,3.508875244140625,0.21794083714485168,-0.08331626653671265,-0.4911717176437378
1782667654999824400,3.518824462890625,0.3484271764755249,0.6135644316673279,-0.48053476214408875
1782667655009773300,3.528773193359375,0.5139783620834351,1.1995749473571777,-0.4618273675441742
1782667655019722200,3.53872216796875,0.6599444150924683,1.510998010635376,-0.47264623641967773
1782667655029701000,3.548701171875,0.7629621624946594,1.473775863647461,-0.5153777599334717
1782667655039650300,3.558650390625,0.8204527497291565,1.0702213048934937,-0.5956804156303406
1782667655049598200,3.56859814453125,0.8410096764564514,0.4269714057445526,-0.6824970245361328
1782667655059547100,3.578547119140625,0.8586398363113403,-0.1419275403022766,-0.6978916525840759
1782667655069496000,3.58849609375,0.8905154466629028,-0.4441710114479065,-0.6117807626724243
1782667655079475200,3.59847509765625,0.9485878348350525,-0.5196965932846069,-0.45321324467658997
1782667655089424100,3.608424072265625,1.0474797487258911,-0.4746106266975403,-0.24565209448337555
1782667655099380700,3.618380615234375,1.1366571187973022,-0.40920624136924744,-0.02395392209291458
1782667655109328600,3.62832861328125,1.1684638261795044,-0.37682750821113586,0.18987341225147247
1782667655119308800,3.638308837890625,1.1271965503692627,-0.3632148504257202,0.40582188963890076
1782667655129256700,3.648256591796875,1.0085610151290894,-0.368722528219223,0.5878824591636658
1782667655139205600,3.65820556640625,0.8588212728500366,-0.3728344440460205,0.7406051754951477
1782667655149154800,3.66815478515625,0.7069931626319885,-0.3541017770767212,0.8726590871810913
1782667655159133700,3.6781337890625,0.5725713968276978,-0.2928328514099121,0.978961706161499
1782667655169083000,3.688082763671875,0.46371713280677795,-0.18819084763526917,1.0761455297470093
1782667655179030800,3.69803076171875,0.3793081045150757,-0.064915232360363,1.168269395828247
1782667655188980000,3.70797998046875,0.29945242404937744,0.03592003509402275,1.2354217767715454
1782667655198929000,3.717928955078125,0.22072170674800873,0.06991482526063919,1.2665880918502808
1782667655208907800,3.72790771484375,0.1327095627784729,0.04833976551890373,1.2484614849090576
1782667655218856700,3.737856689453125,0.01824469305574894,-0.02240576222538948,1.1621477603912354
1782667655228806000,3.747805908203125,-0.12810000777244568,-0.0976664274930954,0.9965395331382751
1782667655238753800,3.75775390625,-0.3074662685394287,-0.14255134761333466,0.7717339992523193
1782667655248733700,3.767733642578125,-0.4780428111553192,-0.11496899276971817,0.5508684515953064
1782667655258681900,3.777681884765625,-0.5818185210227966,0.04536615312099457,0.37988558411598206
1782667655268630800,3.787630859375,-0.5859823822975159,0.3073285222053528,0.2855052947998047
1782667655278579700,3.797579833984375,-0.4928637742996216,0.5725276470184326,0.2621862292289734
1782667655288527600,3.807527587890625,-0.3881285786628723,0.684884786605835,0.2798408567905426
1782667655298507800,3.8175078125,-0.31034067273139954,0.5353743433952332,0.34014013409614563
1782667655308455700,3.82745556640625,-0.2648072838783264,0.13367030024528503,0.4322255849838257
1782667655318404600,3.837404541015625,-0.21713688969612122,-0.2628593146800995,0.5764859318733215
1782667655328353800,3.847353759765625,-0.18954122066497803,-0.4707651138305664,0.7430073022842407
1782667655338333000,3.8573330078125,-0.22287483513355255,-0.577756941318512,0.8416011929512024
1782667655348281900,3.86728173828125,-0.2958845794200897,-0.6981949806213379,0.8122081756591797
1782667655358230800,3.877230712890625,-0.36295539140701294,-0.741841197013855,0.6368988156318665
1782667655368179000,3.887178955078125,-0.41003555059432983,-0.7590049505233765,0.300487756729126
1782667655378158800,3.897158935546875,-0.4293156564235687,-0.7406319975852966,-0.1438462734222412
1782667655388106800,3.907106689453125,-0.42894336581230164,-0.6270431280136108,-0.6442595720291138
1782667655398055700,3.9170556640625,-0.43482428789138794,-0.5456888675689697,-1.1591943502426147
1782667655408004900,3.9270048828125,-0.4419296085834503,-0.4686734676361084,-1.601228952407837
1782667655417953800,3.936953857421875,-0.4292756915092468,-0.19659267365932465,-1.844224452972412
1782667655427932700,3.9469326171875,-0.39812469482421875,0.2405332624912262,-1.8627312183380127
1782667655437881600,3.956881591796875,-0.34117352962493896,0.5370455384254456,-1.7537319660186768
1782667655447829800,3.966829833984375,-0.2214876115322113,0.5703797936439514,-1.5932389497756958
1782667655457778700,3.97677880859375,-0.0540473610162735,0.47590726613998413,-1.3779792785644531
1782667655467757800,3.9867578125,0.11651745438575745,0.29431483149528503,-1.1186652183532715
1782667655477706800,3.996706787109375,0.24898454546928406,0.013200412504374981,-0.8723500967025757
1782667655487656000,4.006656005859375,0.34308603405952454,-0.2768034338951111,-0.6767739057540894
1782667655497603800,4.016603759765625,0.4329897463321686,-0.48542338609695435,-0.5700775980949402
1782667655507552800,4.026552734375,0.5499970316886902,-0.6024365425109863,-0.5712986588478088
1782667655517532000,4.036531982421875,0.6954495906829834,-0.6025664806365967,-0.6865161061286926
1782667655527480800,4.046480712890625,0.8484269380569458,-0.4711407721042633,-0.9098506569862366
1782667655537429800,4.0564296875,1.003347635269165,-0.23200872540473938,-1.2019447088241577
1782667655547378700,4.066378662109375,1.1332666873931885,0.052637651562690735,-1.5062036514282227
1782667655557357800,4.07635791015625,1.1910887956619263,0.2757387161254883,-1.7589854001998901
1782667655567306800,4.086306640625,1.1364747285842896,0.402289479970932,-1.9042065143585205
1782667655577254700,4.096254638671875,0.9685501456260681,0.5264294743537903,-1.9084995985031128
1782667655587203800,4.106203857421875,0.7226474285125732,0.6864796280860901,-1.750171184539795
1782667655597182700,4.1161826171875,0.4361582100391388,0.8736722469329834,-1.4521851539611816
1782667655607131600,4.126131591796875,0.15043005347251892,1.0264465808868408,-1.081773042678833
1782667655617080600,4.13608056640625,-0.04460236430168152,1.0830271244049072,-0.6854397058486938
1782667655627028700,4.14602880859375,-0.11779801547527313,1.0356858968734741,-0.3024827539920807
1782667655636977700,4.155977783203125,-0.10820063203573227,0.9213603138923645,0.037462856620550156
1782667655646956800,4.165956787109375,-0.06882765889167786,0.7870821356773376,0.3153916597366333
1782667655656906000,4.175906005859375,-0.05374015122652054,0.6465771794319153,0.5015118718147278
1782667655666855000,4.18585498046875,-0.06761442124843597,0.5079902410507202,0.618291437625885
1782667655676803800,4.195803955078125,-0.10494252294301987,0.40073293447494507,0.6749663949012756
1782667655686782700,4.20578271484375,-0.15323787927627563,0.3499794900417328,0.6871706247329712
1782667655696732000,4.21573193359375,-0.19831152260303497,0.33867156505584717,0.6670315265655518
1782667655706679800,4.2256796875,-0.23973460495471954,0.3114069104194641,0.6388640999794006
1782667655716628700,4.235628662109375,-0.25627174973487854,0.3031805157661438,0.641677975654602
1782667655726577700,4.24557763671875,-0.2161930352449417,0.36420896649360657,0.7170006632804871
1782667655736556800,4.255556884765625,-0.14964266121387482,0.5121462941169739,0.8379788994789124
1782667655746505700,4.265505615234375,-0.12056758999824524,0.6158193945884705,0.9104472398757935
1782667655756454700,4.27545458984375,-0.1051785796880722,0.6373029351234436,0.9119576811790466
1782667655766402800,4.28540283203125,-0.04004484415054321,0.6717272400856018,0.888981282711029
1782667655776381700,4.295381591796875,0.07988202571868896,0.7054195404052734,0.8481791615486145
1782667655786330600,4.30533056640625,0.24940182268619537,0.6385624408721924,0.7892141342163086
1782667655796279800,4.31527978515625,0.40776750445365906,0.31126832962036133,0.6690682768821716
1782667655806229000,4.32522900390625,0.5007768273353577,-0.2340027093887329,0.43485119938850403
1782667655816177000,4.335177001953125,0.5741869807243347,-0.6656093001365662,0.11487169563770294
1782667655826156800,4.34515673828125,0.6007770299911499,-0.866915225982666,-0.2886946499347687
1782667655836105000,4.35510498046875,0.541327714920044,-0.937639594078064,-0.7118261456489563
1782667655846054000,4.365053955078125,0.4065275490283966,-0.8287179470062256,-1.0699058771133423
1782667655856002800,4.3750029296875,0.2503166198730469,-0.46103113889694214,-1.2678810358047485
1782667655865981700,4.384981689453125,0.0896449089050293,-0.15769311785697937,-1.3204251527786255
1782667655875931000,4.394930908203125,-0.06775360554456711,-0.24435296654701233,-1.2862908840179443
1782667655885879800,4.4048798828125,-0.22935527563095093,-0.6066735982894897,-1.2347149848937988
1782667655895827700,4.41482763671875,-0.36648258566856384,-0.8238775134086609,-1.1662203073501587
1782667655905807600,4.4248076171875,-0.4522382616996765,-0.7092132568359375,-1.0542572736740112
1782667655915755800,4.434755859375,-0.49062445759773254,-0.28314825892448425,-0.9638597369194031
1782667655925704700,4.44470458984375,-0.4860587418079376,0.26052114367485046,-0.9619912505149841
1782667655935653600,4.454653564453125,-0.4526091516017914,0.736190676689148,-1.0623620748519897
1782667655945601800,4.464601806640625,-0.36964210867881775,1.027072548866272,-1.2008962631225586
1782667655955582000,4.47458203125,-0.24751289188861847,1.0930407047271729,-1.2572579383850098
1782667655965529600,4.484529541015625,-0.1509629189968109,0.8745195269584656,-1.2022873163223267
1782667655975478800,4.494478759765625,-0.07551506161689758,0.4377497434616089,-1.0491267442703247
1782667655985428000,4.504427978515625,-0.029798172414302826,-0.019654277712106705,-0.8411460518836975
1782667655995406800,4.51440673828125,-0.027019910514354706,-0.38696298003196716,-0.6874863505363464
1782667656005355800,4.524355712890625,-0.014622095972299576,-0.5527769327163696,-0.6331261396408081
1782667656015304700,4.5343046875,0.03147956356406212,-0.6010090112686157,-0.6553404927253723
1782667656025252900,4.5442529296875,0.05628903955221176,-0.7205098867416382,-0.6979361772537231
1782667656035201800,4.554201904296875,0.03956783562898636,-0.8029512763023376,-0.6892701983451843
1782667656045180700,4.5641806640625,-0.0476355105638504,-0.6168591380119324,-0.5574328303337097
1782667656055129900,4.5741298828125,-0.22609509527683258,-0.5173649787902832,-0.2981242537498474
1782667656065078800,4.584078857421875,-0.46262750029563904,-0.762515127658844,0.1320585459470749
1782667656075027700,4.59402783203125,-0.6714544892311096,-0.938025951385498,0.7167296409606934
1782667656085006600,4.604006591796875,-0.8026391267776489,-1.049523949623108,1.3837257623672485
1782667656094954800,4.613954833984375,-0.8844446539878845,-1.0876041650772095,1.9820533990859985
1782667656104917200,4.623917236328125,-0.9279929399490356,-1.1071118116378784,2.4049227237701416
1782667656114866200,4.6338662109375,-0.9383803009986877,-1.1168142557144165,2.6096363067626953
1782667656124845300,4.64384521484375,-0.8973854780197144,-1.135838508605957,2.602288007736206
1782667656134794200,4.653794189453125,-0.8005250692367554,-1.1572422981262207,2.4146993160247803
1782667656144743200,4.6637431640625,-0.6661853790283203,-1.1234664916992188,2.0716264247894287
1782667656154691300,4.67369140625,-0.4933287501335144,-0.9331293702125549,1.6424833536148071
1782667656164640300,4.68364013671875,-0.28098055720329285,-0.5806213617324829,1.2164580821990967
1782667656174619100,4.693619140625,-0.04473109170794487,-0.04886914789676666,0.8523083329200745
1782667656184568300,4.703568359375,0.17846497893333435,0.6452350616455078,0.5911476016044617
1782667656194517200,4.713517333984375,0.36148127913475037,1.3894659280776978,0.4601041376590729
1782667656204466400,4.723466552734375,0.4860522449016571,2.04841685295105,0.4630005955696106
1782667656214445300,4.7334453125,0.5152251720428467,2.5547266006469727,0.5664224028587341
1782667656224394200,4.743394287109375,0.42441701889038086,2.6582796573638916,0.7226513624191284
1782667656234342400,4.75334228515625,0.20048335194587708,2.2189722061157227,0.8810247778892517
1782667656244291300,4.763291259765625,-0.10780418664216995,1.6232537031173706,1.061814308166504
1782667656254240300,4.773240234375,-0.4294218420982361,1.2501585483551025,1.2831493616104126
1782667656264219400,4.783219482421875,-0.7260061502456665,0.959105372428894,1.5104703903198242
1782667656274168300,4.793168212890625,-0.9456709027290344,0.4422166645526886,1.66141676902771
1782667656284116200,4.8031162109375,-1.0217225551605225,-0.2722492516040802,1.6883658170700073
1782667656294065200,4.813065185546875,-0.9138730764389038,-0.8064433932304382,1.6380783319473267
1782667656304044300,4.823044189453125,-0.6874445080757141,-0.9408978819847107,1.5674412250518799
1782667656313993200,4.8329931640625,-0.44457146525382996,-0.8291475772857666,1.4595834016799927
1782667656323942100,4.842942138671875,-0.2597363591194153,-0.7045888304710388,1.3024414777755737
1782667656333891300,4.852891357421875,-0.1899441033601761,-0.6256723999977112,1.104659914970398
1782667656343870500,4.862870361328125,-0.2812420427799225,-0.6166991591453552,0.8438487648963928
1782667656353819400,4.8728193359375,-0.5034464597702026,-0.7365977168083191,0.5251895785331726
1782667656363767300,4.882767333984375,-0.7850707173347473,-0.8699395656585693,0.19283349812030792
1782667656373716500,4.892716552734375,-1.0413055419921875,-0.9626864194869995,-0.1532934159040451
1782667656383665400,4.90266552734375,-1.2152653932571411,-1.005907654762268,-0.526759684085846
1782667656393644300,4.912644287109375,-1.275256633758545,-0.9693022966384888,-0.8962171673774719
1782667656403593200,4.92259326171875,-1.2391278743743896,-0.8597816228866577,-1.212335467338562
1782667656413541400,4.932541259765625,-1.1358084678649902,-0.703739583492279,-1.4504129886627197
1782667656423490300,4.942490234375,-1.0133401155471802,-0.5065218806266785,-1.5933400392532349
1782667656433469200,4.95246923828125,-0.9069772362709045,-0.2698293924331665,-1.6228641271591187
1782667656443418400,4.96241845703125,-0.8391387462615967,-0.03069217875599861,-1.5256112813949585
1782667656453367300,4.9723671875,-0.8246365785598755,0.13687877357006073,-1.33420991897583
1782667656463316200,4.982316162109375,-0.8660841584205627,0.20847812294960022,-1.0920624732971191
1782667656473264000,4.99226416015625,-0.933937668800354,0.19674281775951385,-0.8030686378479004
1782667656483244300,5.002244384765625,-0.9940449595451355,0.13299180567264557,-0.4925835132598877
1782667656493192200,5.012192138671875,-1.0464123487472534,0.055002838373184204,-0.21567751467227936
1782667656503141400,5.022141357421875,-1.067430019378662,-0.049994684755802155,-0.022304337471723557
1782667656513090300,5.03209033203125,-1.0409793853759766,-0.16727215051651,0.054928217083215714
1782667656523069400,5.0420693359375,-0.9608786702156067,-0.28822386264801025,0.032545413821935654
1782667656533018400,5.052018310546875,-0.8390701413154602,-0.37155479192733765,-0.05798466503620148
1782667656542967300,5.06196728515625,-0.6817936897277832,-0.391213983297348,-0.15126961469650269
1782667656552915500,5.07191552734375,-0.49803590774536133,-0.2946583330631256,-0.19390514492988586
1782667656562895400,5.081895263671875,-0.3132338225841522,-0.09296410530805588,-0.1635483056306839
1782667656572843300,5.09184326171875,-0.16343402862548828,0.14401383697986603,-0.061117321252822876
1782667656582792200,5.101792236328125,-0.07661550492048264,0.337738037109375,0.11848600208759308
1782667656592741400,5.111741455078125,-0.07134230434894562,0.4706922173500061,0.3534165024757385
1782667656602689300,5.121689208984375,-0.1358688324689865,0.5072365999221802,0.5941787958145142
1782667656612669200,5.131669189453125,-0.24596482515335083,0.42344537377357483,0.8012402653694153
1782667656622617300,5.141617431640625,-0.36052656173706055,0.24687674641609192,0.9686604142189026
1782667656632566300,5.151566162109375,-0.4467630982398987,0.037431538105010986,1.1093639135360718
1782667656642515200,5.16151513671875,-0.5000556111335754,-0.15599597990512848,1.2249317169189453
1782667656652494000,5.171494140625,-0.5133533477783203,-0.25265806913375854,1.3241441249847412
1782667656662443500,5.181443603515625,-0.4633072018623352,-0.26199617981910706,1.4551033973693848
1782667656672392400,5.191392333984375,-0.4145748019218445,-0.25599172711372375,1.5662436485290527
1782667656682340400,5.20134033203125,-0.40657708048820496,-0.3047637939453125,1.6831802129745483
1782667656692289300,5.211289306640625,-0.47432762384414673,-0.5051651000976562,1.7903451919555664
1782667656702268400,5.221268310546875,-0.6556606292724609,-0.8580448627471924,1.8745360374450684
1782667656712217300,5.23121728515625,-0.9927552938461304,-1.3183594942092896,1.9494240283966064
1782667656722166300,5.241166259765625,-1.214259386062622,-1.96068274974823,1.9124910831451416
1782667656732114400,5.251114501953125,-1.3432254791259766,-2.976287603378296,1.7193434238433838
1782667656742094300,5.26109423828125,-1.2509645223617554,-3.370129108428955,1.3800127506256104
1782667656752042200,5.271042236328125,-1.0171144008636475,-3.193943500518799,0.9254100322723389
1782667656761991200,5.2809912109375,-0.6698643565177917,-2.403719902038574,0.4728342592716217
1782667656771940400,5.2909404296875,-0.42171475291252136,-1.2864598035812378,0.07488556951284409
1782667656781889300,5.30088916015625,-0.44821029901504517,-0.09646748751401901,-0.25157085061073303
1782667656791868200,5.3108681640625,-0.7180199027061462,0.7716267704963684,-0.5569751858711243
1782667656801817000,5.320817138671875,-1.0256578922271729,0.9141064286231995,-0.8801279067993164
1782667656811765200,5.33076513671875,-1.2171576023101807,0.20386384427547455,-1.2868359088897705
1782667656821714400,5.34071435546875,-1.2881872653961182,-0.6631465554237366,-1.7338683605194092
1782667656831693000,5.350693115234375,-1.3174750804901123,-0.9696774482727051,-2.113400459289551
1782667656841642500,5.360642578125,-1.3077820539474487,-0.6534028053283691,-2.344327211380005
1782667656851591400,5.37059130859375,-1.2148423194885254,-0.10094095766544342,-2.4351987838745117
1782667656861540400,5.380540283203125,-1.0636762380599976,0.3493015766143799,-2.4367783069610596
1782667656871519200,5.390519287109375,-0.9121050238609314,0.5451182723045349,-2.3687586784362793
1782667656881468400,5.400468505859375,-0.7813235521316528,0.5409794449806213,-2.226614236831665
1782667656891416300,5.410416259765625,-0.663305401802063,0.4999369978904724,-1.9938019514083862
1782667656901365200,5.420365234375,-0.5452312231063843,0.5037644505500793,-1.658466100692749
1782667656911314200,5.430314208984375,-0.4109784662723541,0.522519052028656,-1.2145154476165771
1782667656921293300,5.440293212890625,-0.24409601092338562,0.4709271788597107,-0.6588383913040161
1782667656931242200,5.4502421875,-0.10463402420282364,0.26375293731689453,-0.06214175373315811
1782667656941190100,5.460190185546875,-0.06812740862369537,-0.10525946319103241,0.4617757797241211
1782667656951139300,5.470139404296875,-0.15145617723464966,-0.6252699494361877,0.8018991947174072
1782667656961118200,5.4801181640625,-0.3272485136985779,-1.279301404953003,0.8547794222831726
1782667656971067100,5.490067138671875,-0.48736679553985596,-1.8508507013320923,0.6235358119010925
1782667656981016300,5.500016357421875,-0.5385713577270508,-2.0568478107452393,0.26290038228034973
1782667656990965200,5.50996533203125,-0.47778794169425964,-1.8275339603424072,-0.11868428438901901
1782667657000913400,5.519913330078125,-0.34366899728775024,-1.2229363918304443,-0.43896135687828064
1782667657010893300,5.529893310546875,-0.19987104833126068,-0.3875824213027954,-0.6629160046577454
1782667657020841500,5.539841552734375,-0.0679982379078865,0.4545149505138397,-0.7526800036430359
1782667657030790400,5.549790283203125,0.05790497362613678,1.0813342332839966,-0.7104342579841614
1782667657040739300,5.5597392578125,0.16821469366550446,1.3672295808792114,-0.5640842318534851
1782667657050718200,5.56971826171875,0.23595230281352997,1.2958667278289795,-0.34721148014068604
1782667657060667400,5.57966748046875,0.261905312538147,0.9689575433731079,-0.08004717528820038
1782667657070615300,5.589615234375,0.26964741945266724,0.5599328875541687,0.20624442398548126
1782667657080564200,5.599564208984375,0.2729942202568054,0.19885461032390594,0.47307106852531433
1782667657090543400,5.60954345703125,0.28365033864974976,-0.06894372403621674,0.7061282992362976
1782667657100508000,5.6195078125,0.3126220703125,-0.19795389473438263,0.9154601693153381
1782667657110456800,5.629456787109375,0.34699922800064087,-0.21232201159000397,1.0877954959869385
1782667657120406300,5.63940625,0.37727081775665283,-0.1197366714477539,1.2567733526229858
1782667657130354000,5.64935400390625,0.3866409659385681,0.052001602947711945,1.4590927362442017
1782667657140334000,5.659333984375,0.33459827303886414,0.22515153884887695,1.6661993265151978
1782667657150282200,5.6692822265625,0.23137667775154114,0.3168964982032776,1.8077423572540283
1782667657160231200,5.679231201171875,0.09701327979564667,0.29326868057250977,1.8626402616500854
1782667657170180000,5.68918017578125,-0.10568168014287949,0.204161137342453,1.8470264673233032
1782667657180159000,5.699158935546875,-0.300701767206192,0.15423539280891418,1.8338695764541626
1782667657190108200,5.709108154296875,-0.39614832401275635,-0.06918030977249146,1.746625304222107
1782667657200057000,5.71905712890625,-0.35110947489738464,-0.30509135127067566,1.5364174842834473
1782667657210005000,5.7290048828125,-0.19781075417995453,-0.3759341537952423,1.2724676132202148
1782667657219954000,5.738953857421875,-0.03565754368901253,-0.22640058398246765,0.9725282192230225
1782667657229933000,5.74893310546875,0.06887440383434296,-0.060133568942546844,0.6237264275550842
1782667657239882000,5.758882080078125,0.14622512459754944,-0.29307758808135986,0.170758917927742
1782667657249831000,5.768830810546875,0.26112642884254456,-1.051483154296875,-0.4051368534564972
1782667657259779000,5.778779052734375,0.3876492381095886,-1.6796756982803345,-0.9326472878456116
1782667657269759000,5.788759033203125,0.43343687057495117,-1.6867201328277588,-1.2878762483596802
1782667657279707000,5.798706787109375,0.39912790060043335,-1.1406738758087158,-1.4222636222839355
1782667657289655800,5.80865576171875,0.4079744219779968,-0.3781951069831848,-1.360079288482666
1782667657299605200,5.818605224609375,0.3604034185409546,0.37511780858039856,-1.0690264701843262
1782667657309584100,5.828584228515625,0.2926526963710785,0.921209990978241,-0.5924777984619141
1782667657319533000,5.838532958984375,0.2549641728401184,1.1016535758972168,-0.02064543031156063
1782667657329482000,5.84848193359375,0.24526548385620117,0.8746203184127808,0.5270162224769592
1782667657339430100,5.85843017578125,0.15604345500469208,0.4060922861099243,0.9106400012969971
1782667657349379000,5.868379150390625,-0.034751906991004944,-0.15250279009342194,1.042917013168335
1782667657359358000,5.87835791015625,-0.2368623912334442,-0.6512089371681213,0.9468957185745239
1782667657369307100,5.88830712890625,-0.3538123667240143,-0.9944086074829102,0.7035953998565674
1782667657379256000,5.898256103515625,-0.3457845449447632,-1.081601858139038,0.39340320229530334
1782667657389204000,5.908203857421875,-0.24442599713802338,-0.9216740131378174,0.08647245168685913
1782667657399184000,5.918183837890625,-0.10418181121349335,-0.5970442891120911,-0.1788894385099411
1782667657409132000,5.928132080078125,0.043338268995285034,-0.15355053544044495,-0.383220374584198
1782667657419081000,5.9380810546875,0.14839890599250793,0.2850116491317749,-0.5236358046531677
1782667657429030000,5.94802978515625,0.16499774158000946,0.5474321842193604,-0.6168047785758972
1782667657438979000,5.95797900390625,0.11722356826066971,0.5872818827629089,-0.6773523092269897
1782667657448958000,5.9679580078125,0.056759972125291824,0.48173269629478455,-0.675508975982666
1782667657458907100,5.9779072265625,0.026451867073774338,0.3218311667442322,-0.6036396026611328
1782667657468855000,5.98785498046875,0.04870551824569702,0.18289703130722046,-0.45019081234931946
1782667657478804200,5.99780419921875,0.11188661307096481,0.09569688886404037,-0.23931880295276642
1782667657488783000,6.007783203125,0.18703746795654297,0.05455843359231949,-0.0001278049312531948
1782667657498732000,6.01773193359375,0.26278868317604065,0.05630599707365036,0.2514423727989197
1782667657508681000,6.027680908203125,0.31050390005111694,0.09826421737670898,0.48476114869117737
1782667657518630100,6.037630126953125,0.3120746314525604,0.1571086347103119,0.6858119368553162
1782667657528578000,6.047578125,0.26308390498161316,0.21716362237930298,0.84720778465271
1782667657538557000,6.057556884765625,0.17621131241321564,0.2874614894390106,0.9706250429153442
1782667657548506000,6.067506103515625,0.055772148072719574,0.3713775873184204,1.0535227060317993
1782667657558455000,6.077455078125,-0.07437094300985336,0.4416906237602234,1.0847620964050293
1782667657568404000,6.087404052734375,-0.19076679646968842,0.4878023564815521,1.0694189071655273
1782667657578382800,6.0973828125,-0.2775874733924866,0.5046817660331726,0.988130509853363
1782667657588332000,6.10733203125,-0.3430749475955963,0.5076497793197632,0.8670740723609924
1782667657598280000,6.117280029296875,-0.381757915019989,0.509902834892273,0.7053046226501465
1782667657608228900,6.127228759765625,-0.3975779116153717,0.4778052270412445,0.5368663668632507
1782667657618208000,6.1372080078125,-0.3778974115848541,0.40053895115852356,0.3549133837223053
1782667657628157200,6.1471572265625,-0.34342148900032043,0.2949204742908478,0.14805160462856293
1782667657638106000,6.157106201171875,-0.29970088601112366,0.20789262652397156,-0.08429349213838577
1782667657648055000,6.167054931640625,-0.22993554174900055,0.22221152484416962,-0.3050490617752075
1782667657658003200,6.177003173828125,-0.1402871459722519,0.32827699184417725,-0.48632243275642395
1782667657667983000,6.186983154296875,-0.02300654724240303,0.451621413230896,-0.5955645442008972
1782667657677931000,6.196930908203125,0.14185696840286255,0.5030921101570129,-0.6186800003051758
1782667657687880000,6.2068798828125,0.35357314348220825,0.38743120431900024,-0.5386034250259399
1782667657697829000,6.2168291015625,0.562501847743988,0.09758313745260239,-0.37544646859169006
1782667657707808000,6.22680810546875,0.694404661655426,-0.26933997869491577,-0.1617501974105835
1782667657717757000,6.2367568359375,0.6680625677108765,-0.7029632925987244,-0.00432249391451478
1782667657727705000,6.246705078125,0.4875325858592987,-1.1668826341629028,0.0028466065414249897
1782667657737654000,6.256654052734375,0.24472743272781372,-1.4572696685791016,-0.15085053443908691
1782667657747603000,6.26660302734375,0.012985892593860626,-1.4445112943649292,-0.4257148504257202
1782667657757581800,6.276581787109375,-0.1631702184677124,-1.140810251235962,-0.7610542178153992
1782667657767531300,6.28653125,-0.2306044101715088,-0.6160246133804321,-1.0549094676971436
1782667657777480200,6.296480224609375,-0.1705424040555954,0.034131258726119995,-1.2371492385864258
1782667657787428000,6.306427978515625,-0.009419332258403301,0.5575189590454102,-1.298506498336792
1782667657797408000,6.316407958984375,0.16807210445404053,0.7630598545074463,-1.2850141525268555
1782667657807356200,6.326356201171875,0.3059043884277344,0.6970242261886597,-1.2112826108932495
1782667657817305000,6.33630517578125,0.3803189694881439,0.5387347340583801,-1.0791621208190918
1782667657827254000,6.34625390625,0.39509934186935425,0.39835405349731445,-0.8966610431671143
1782667657837233200,6.356233154296875,0.3793656527996063,0.30293938517570496,-0.6909803152084351
1782667657847182000,6.36618212890625,0.3514559864997864,0.26281115412712097,-0.47961220145225525
1782667657857130000,6.3761298828125,0.31563061475753784,0.23029768466949463,-0.29755744338035583
1782667657867079000,6.386078857421875,0.29031774401664734,0.1785576194524765,-0.15542274713516235
1782667657877028000,6.396028076171875,0.2837775647640228,0.1084166094660759,-0.05887463316321373
1782667657887007000,6.406007080078125,0.27924489974975586,0.039602119475603104,-0.02467016503214836
1782667657896956000,6.415955810546875,0.26981011033058167,-0.022470304742455482,-0.03715905919671059
1782667657906904800,6.42590478515625,0.2549680173397064,-0.049929179251194,-0.0659259632229805
1782667657916853000,6.43585302734375,0.2220897078514099,-0.037868790328502655,-0.10774797201156616
1782667657926833200,6.445833251953125,0.17775654792785645,0.007259551435709,-0.15689437091350555
1782667657936781000,6.455781005859375,0.13455581665039062,0.058862559497356415,-0.20692530274391174
1782667657946730200,6.465730224609375,0.10723379999399185,0.0805903747677803,-0.25249239802360535
1782667657956679200,6.47567919921875,0.09187588840723038,0.06298581510782242,-0.2720690071582794
1782667657966628000,6.485628173828125,0.0829358622431755,-0.00034139538183808327,-0.2571253180503845
1782667657976607000,6.49560693359375,0.05880895256996155,-0.08083117753267288,-0.20569488406181335
1782667657986556200,6.50555615234375,0.01682155393064022,-0.11316568404436111,-0.10822052508592606
1782667657996504000,6.515504150390625,-0.02885405533015728,-0.030887853354215622,0.03314059600234032
1782667658006453000,6.525452880859375,-0.07555018365383148,0.14225490391254425,0.20184946060180664
1782667658016432000,6.53543212890625,-0.11633782833814621,0.3646925091743469,0.38982918858528137
1782667658026381000,6.545381103515625,-0.146360382437706,0.5706314444541931,0.5855673551559448
1782667658036330000,6.555330078125,-0.1734018474817276,0.7211000323295593,0.7642287015914917
1782667658046278000,6.56527783203125,-0.18746931850910187,0.7727171778678894,0.9205979108810425
1782667658056258000,6.575258056640625,-0.20420995354652405,0.7480757236480713,1.0528970956802368
1782667658066206000,6.5852060546875,-0.21208110451698303,0.6701482534408569,1.1570634841918945
1782667658076155000,6.59515478515625,-0.21916510164737701,0.5530527830123901,1.2123525142669678
1782667658086104000,6.60510400390625,-0.2063070833683014,0.39863190054893494,1.2114722728729248
1782667658096070000,6.61506982421875,-0.15825779736042023,0.2539207935333252,1.1724053621292114
1782667658106048800,6.625048828125,-0.08855199068784714,0.14216843247413635,1.0907111167907715
1782667658115998000,6.634998046875,-0.026786629110574722,0.03308935463428497,0.9500171542167664
1782667658125945900,6.64494580078125,0.03966914117336273,-0.10391662269830704,0.7476547956466675
1782667658135895000,6.65489501953125,0.11896156519651413,-0.2757458984851837,0.5031002163887024
1782667658145874000,6.6648740234375,0.20445914566516876,-0.4480375647544861,0.2509341537952423
1782667658155823000,6.674822998046875,0.27225735783576965,-0.6321938037872314,0.005174978636205196
1782667658165772000,6.68477197265625,0.3277454376220703,-0.7344394326210022,-0.17741774022579193
1782667658175720000,6.694719970703125,0.3836017847061157,-0.6555235981941223,-0.2148636430501938
1782667658185668900,6.7046689453125,0.4114455282688141,-0.4932844936847687,-0.11166734993457794
1782667658195648000,6.71464794921875,0.39129310846328735,-0.25312331318855286,0.08096840977668762
1782667658205597000,6.724596923828125,0.31034210324287415,-0.001428848598152399,0.29340311884880066
1782667658215545900,6.7345458984375,0.19996127486228943,0.07403581589460373,0.44332125782966614
1782667658225494800,6.744494873046875,0.09625305235385895,-0.09832540154457092,0.4779624044895172
1782667658235474000,6.754473876953125,0.024078452959656715,-0.3861153721809387,0.3757356107234955
1782667658245422800,6.7644228515625,-0.027908632531762123,-0.6516978740692139,0.14749540388584137
1782667658255370800,6.774370849609375,-0.06222612410783768,-0.836020290851593,-0.1749659925699234
1782667658265320000,6.78431982421875,-0.054973021149635315,-0.9049538969993591,-0.538485050201416
1782667658275269000,6.79426904296875,0.002120889723300934,-0.833008348941803,-0.8787177205085754
1782667658285247700,6.804247802734375,0.11171836405992508,-0.6097153425216675,-1.1564445495605469
1782667658295197000,6.814197021484375,0.2526176869869232,-0.33818182349205017,-1.3485183715820312
1782667658305145900,6.824145751953125,0.37834423780441284,-0.0990774855017662,-1.4432103633880615
1782667658315094000,6.834093994140625,0.4512504041194916,0.10806850343942642,-1.4089605808258057
1782667658325074000,6.844073974609375,0.45672497153282166,0.3024732768535614,-1.2515451908111572
1782667658335022000,6.85402197265625,0.40297093987464905,0.43564119935035706,-0.9928696751594543
1782667658344971000,6.863970947265625,0.31239402294158936,0.4773319959640503,-0.685034990310669
1782667658354920000,6.873919921875,0.21087540686130524,0.4684021472930908,-0.36275842785835266
1782667658364898800,6.88389892578125,0.09084177017211914,0.4381231367588043,-0.10751946270465851
1782667658374848000,6.893847900390625,-0.005170777440071106,0.3806840777397156,0.04827199876308441
1782667658384796000,6.9037958984375,-0.0626007467508316,0.3297766447067261,0.12928806245326996
1782667658394744800,6.913744873046875,-0.09931854158639908,0.30380868911743164,0.1408909261226654
1782667658404693800,6.92369384765625,-0.1198117583990097,0.29920557141304016,0.12558503448963165
1782667658414673000,6.9336728515625,-0.12167809903621674,0.3373976945877075,0.10432581603527069
1782667658424621800,6.943621826171875,-0.12140968441963196,0.3911811113357544,0.09343142807483673
1782667658434571000,6.953571044921875,-0.12317269295454025,0.42480379343032837,0.0726393312215805
1782667658444519000,6.963518798828125,-0.11945608258247375,0.4071400761604309,0.0482853502035141
1782667658454499000,6.9734990234375,-0.09752601385116577,0.3721866309642792,0.0440669022500515
1782667658464447000,6.983447021484375,-0.06269602477550507,0.39318525791168213,0.06311129778623581
1782667658474396000,6.99339599609375,-0.025212032720446587,0.43011903762817383,0.10654665529727936
1782667658484344800,7.0033447265625,0.007707221433520317,0.42991194128990173,0.17028452455997467
1782667658494293000,7.01329296875,0.041263848543167114,0.3805382549762726,0.25055673718452454
1782667658504273000,7.02327294921875,0.07781805098056793,0.32714518904685974,0.33954885601997375
1782667658514221000,7.033220947265625,0.1231064423918724,0.2996680438518524,0.4473232328891754
1782667658524170000,7.043169921875,0.15908390283584595,0.28786733746528625,0.5570754408836365
1782667658534119000,7.053118896484375,0.1795566827058792,0.28874698281288147,0.6453648209571838
1782667658544097800,7.063097900390625,0.18581342697143555,0.31455159187316895,0.7050195932388306
1782667658554047000,7.073046875,0.19026488065719604,0.37639549374580383,0.7187194228172302
1782667658563996000,7.082995849609375,0.1772187352180481,0.40673911571502686,0.6893444061279297
1782667658573943800,7.09294384765625,0.1454661339521408,0.3562655448913574,0.6233224868774414
1782667658583923700,7.102923828125,0.11506231129169464,0.33296912908554077,0.5569541454315186
1782667658593872000,7.112871826171875,0.10588692128658295,0.41407302021980286,0.5297417044639587
1782667658603820800,7.12282080078125,0.15139678120613098,0.5164912939071655,0.538628339767456
1782667658613770000,7.13277001953125,0.23761585354804993,0.5002028346061707,0.5521010160446167
1782667658623719000,7.142718994140625,0.34701839089393616,0.3631132245063782,0.5254419445991516
1782667658633698000,7.152697998046875,0.4856700003147125,0.13225789368152618,0.45853376388549805
1782667658643647000,7.16264697265625,0.6206604838371277,-0.1782803237438202,0.3459625542163849
1782667658653595000,7.172594970703125,0.7019673585891724,-0.49652644991874695,0.16257116198539734
1782667658663544000,7.1825439453125,0.7222118973731995,-0.750487208366394,-0.06002272292971611
1782667658673523000,7.19252294921875,0.7032523155212402,-0.8225033283233643,-0.2627289593219757
1782667658683472000,7.202471923828125,0.6467443704605103,-0.7583341002464294,-0.4032529294490814
1782667658693420800,7.2124208984375,0.5465490221977234,-0.6254122257232666,-0.5048900842666626
1782667658703369000,7.222368896484375,0.4169173836708069,-0.4192430078983307,-0.582229733467102
1782667658713318000,7.23231787109375,0.2767221927642822,-0.14461837708950043,-0.6394495964050293
1782667658723296800,7.242296875,0.1332854926586151,0.13311070203781128,-0.6909894943237305
1782667658733246000,7.252245849609375,-0.0022654086351394653,0.3366403579711914,-0.7385777831077576
1782667658743195000,7.26219482421875,-0.12376227974891663,0.44261234998703003,-0.7917565703392029
1782667658753144000,7.27214404296875,-0.23323842883110046,0.46960508823394775,-0.881330668926239
1782667658763122700,7.282122802734375,-0.32143720984458923,0.4388502538204193,-1.0312126874923706
1782667658773072100,7.292072021484375,-0.3715168833732605,0.39551717042922974,-1.2294563055038452
1782667658783020000,7.30202001953125,-0.3584687411785126,0.39787957072257996,-1.4288716316223145
1782667658792969000,7.311968994140625,-0.28511062264442444,0.45684728026390076,-1.5916788578033447
1782667658802918000,7.32191796875,-0.18638291954994202,0.5442625880241394,-1.6964915990829468
1782667658812897000,7.33189697265625,-0.0776713415980339,0.6159902811050415,-1.725029468536377
1782667658822846000,7.341845947265625,0.0280064195394516,0.6553783416748047,-1.666439175605774
1782667658832793900,7.3517939453125,0.1261897087097168,0.6656421422958374,-1.5049772262573242
1782667658842743000,7.361742919921875,0.2028287649154663,0.6689228415489197,-1.2514852285385132
1782667658852722000,7.371721923828125,0.24591150879859924,0.672039270401001,-0.9269888997077942
1782667658862670800,7.3816708984375,0.24484415352344513,0.6747675538063049,-0.5725864171981812
1782667658872619800,7.391619873046875,0.2079300880432129,0.6587888598442078,-0.2552798390388489
1782667658882569000,7.40156884765625,0.18273292481899261,0.6120659708976746,0.00484769232571125
1782667658892547800,7.4115478515625,0.18831489980220795,0.5203682780265808,0.20964105427265167
1782667658902496800,7.421496826171875,0.21467028558254242,0.423363596200943,0.35595646500587463
1782667658912445000,7.43144482421875,0.247076153755188,0.31334683299064636,0.444691926240921
1782667658922393900,7.441393798828125,0.29196998476982117,0.2119556963443756,0.4990761876106262
1782667658932343000,7.451343017578125,0.3379476070404053,0.14220750331878662,0.5293773412704468
1782667658942322000,7.461322021484375,0.3797203600406647,0.11024478077888489,0.5580825209617615
1782667658952271000,7.47127099609375,0.3978583514690399,0.07715766876935959,0.5942714214324951
1782667658962220000,7.481219970703125,0.38334622979164124,0.03437833860516548,0.6357656717300415
1782667658972168000,7.49116796875,0.33455151319503784,-0.007625303231179714,0.6657499074935913
1782667658982147000,7.50114697265625,0.26676949858665466,-0.03294183313846588,0.6759976148605347
1782667658992096000,7.511095947265625,0.1918901950120926,-0.06315752863883972,0.6722207069396973
1782667659002045000,7.521044921875,0.11714892834424973,-0.06407101452350616,0.6454408168792725
1782667659011993900,7.530993896484375,0.05057283490896225,0.006579188629984856,0.6079581379890442
1782667659021942000,7.54094189453125,-0.012045145966112614,0.09225444495677948,0.5348458886146545
1782667659031922000,7.550921875,-0.0647115558385849,0.14388275146484375,0.42889603972435
1782667659041869800,7.560869873046875,-0.0952918604016304,0.16566966474056244,0.3003230690956116
1782667659051818800,7.57081884765625,-0.0874914601445198,0.11694154143333435,0.19264401495456696
1782667659061768000,7.580767822265625,-0.014905482530593872,0.034314051270484924,0.14112965762615204
1782667659071746800,7.590746826171875,0.11893035471439362,-0.0478050522506237,0.17987917363643646
1782667659081695700,7.60069580078125,0.25662288069725037,-0.11851455271244049,0.29449358582496643
1782667659091645000,7.61064501953125,0.3629341423511505,-0.24618516862392426,0.42988842725753784
1782667659101606100,7.620606201171875,0.4216967225074768,-0.5002385377883911,0.49700552225112915
1782667659111586000,7.6305859375,0.428106427192688,-0.8334886431694031,0.47022053599357605
1782667659121534200,7.6405341796875,0.3612993657588959,-1.097551941871643,0.364386647939682
1782667659131483400,7.6504833984375,0.2137594372034073,-1.233455777168274,0.20351363718509674
1782667659141432300,7.660432373046875,0.01643676869571209,-1.163532018661499,0.022374657914042473
1782667659151380200,7.670380126953125,-0.18460632860660553,-0.7783412933349609,-0.1360810250043869
1782667659161360400,7.6803603515625,-0.372069388628006,-0.23774650692939758,-0.27601855993270874
1782667659171308300,7.690308349609375,-0.5138038992881775,0.1783875972032547,-0.4167346656322479
1782667659181257200,7.70025732421875,-0.5787709951400757,0.31787148118019104,-0.573074460029602
1782667659191206100,7.7102060546875,-0.5956075191497803,0.13851982355117798,-0.7493283152580261
1782667659201185300,7.720185302734375,-0.6049214601516724,-0.1908947080373764,-0.9299649596214294
1782667659211134200,7.73013427734375,-0.6027424931526184,-0.4139091372489929,-1.0677461624145508
1782667659221083100,7.740083251953125,-0.5667638778686523,-0.43234795331954956,-1.1454647779464722
1782667659231031300,7.75003125,-0.48647964000701904,-0.329576313495636,-1.1728206872940063
1782667659240980200,7.759980224609375,-0.3869386911392212,-0.20755396783351898,-1.1529030799865723
1782667659250959000,7.769958984375,-0.2694813013076782,-0.12401407212018967,-1.1108663082122803
1782667659260908000,7.779907958984375,-0.135874941945076,-0.11974835395812988,-1.0361416339874268
1782667659270857200,7.789857177734375,-0.003937683999538422,-0.16554780304431915,-0.926963746547699
1782667659280806400,7.799806396484375,0.10835336148738861,-0.2513609230518341,-0.8059378862380981
1782667659290785300,7.809785400390625,0.1904708594083786,-0.36376896500587463,-0.6808577179908752
1782667659300733200,7.819733154296875,0.23525620996952057,-0.46569037437438965,-0.5785174369812012
1782667659310682400,7.829682373046875,0.2620404064655304,-0.527737557888031,-0.4909231662750244
1782667659320631300,7.83963134765625,0.2831389605998993,-0.46332696080207825,-0.40755659341812134
1782667659330610200,7.849610107421875,0.3054828941822052,-0.28114011883735657,-0.33526480197906494
1782667659340559400,7.859559326171875,0.3292432725429535,-0.07272796332836151,-0.27739736437797546
1782667659350508300,7.86950830078125,0.3553992509841919,0.08202273398637772,-0.2293081134557724
1782667659360456200,7.879456298828125,0.37347614765167236,0.15768814086914062,-0.17845481634140015
1782667659370405000,7.889405029296875,0.3609217405319214,0.1307430863380432,-0.1174178197979927
1782667659380384300,7.89938427734375,0.3035467863082886,0.05574779585003853,-0.040615685284137726
1782667659390333200,7.909333251953125,0.202586367726326,-0.017919767647981644,0.05547036603093147
1782667659400282000,7.9192822265625,0.06464764475822449,-0.07536771893501282,0.14509950578212738
1782667659410231000,7.92923095703125,-0.07500959932804108,-0.09077756851911545,0.22535386681556702
1782667659420210200,7.939210205078125,-0.18834717571735382,-0.07351113855838776,0.2803526818752289
1782667659430159000,7.9491591796875,-0.2853584289550781,-0.05899744853377342,0.30091896653175354
1782667659440107000,7.95910693359375,-0.3616667091846466,-0.03777112811803818,0.30033472180366516
1782667659450056200,7.96905615234375,-0.3983762562274933,0.060804449021816254,0.31899070739746094
1782667659460005400,7.97900537109375,-0.39525651931762695,0.22385811805725098,0.37659308314323425
1782667659469984300,7.988984375,-0.3623105585575104,0.39832234382629395,0.4511946141719818
1782667659479933200,7.99893310546875,-0.3216370642185211,0.5174987316131592,0.5343992710113525
1782667659489881300,8.00888134765625,-0.26675331592559814,0.5471703410148621,0.6294373273849487
1782667659499830300,8.018830322265625,-0.22057825326919556,0.5078044533729553,0.714510977268219
1782667659509809200,8.02880908203125,-0.19691765308380127,0.4209979474544525,0.7809600234031677
1782667659519758300,8.03875830078125,-0.15853674709796906,0.2765912413597107,0.8214588165283203
1782667659529707300,8.048707275390624,-0.08183638006448746,0.07420405000448227,0.8328760862350464
1782667659539656200,8.05865625,0.02763485722243786,-0.2034389078617096,0.8006084561347961
1782667659549604000,8.06860400390625,0.16376526653766632,-0.43060362339019775,0.7337407469749451
1782667659559584300,8.078584228515625,0.2595745027065277,-0.5757800340652466,0.6266682744026184
1782667659569532200,8.0885322265625,0.28808310627937317,-0.7121538519859314,0.4845654368400574
1782667659579481000,8.098481201171875,0.26821818947792053,-0.8174751400947571,0.34923163056373596
1782667659589430000,8.108429931640625,0.21626175940036774,-0.8159446716308594,0.2617097795009613
1782667659599409200,8.1184091796875,0.13094496726989746,-0.7015171051025391,0.2078840732574463
1782667659609358300,8.1283583984375,-0.011094724759459496,-0.5883375406265259,0.13538536429405212
1782667659619306000,8.138305908203124,-0.19354331493377686,-0.62950599193573,-0.006603988353163004
1782667659629255200,8.148255126953124,-0.35153189301490784,-0.8733370304107666,-0.20187734067440033
1782667659639234300,8.158234375,-0.44290560483932495,-1.117295503616333,-0.44396430253982544
1782667659649183200,8.168183349609375,-0.4527877867221832,-1.1426689624786377,-0.6574579477310181
1782667659659132200,8.178132080078125,-0.392944872379303,-0.8563418388366699,-0.7926501035690308
1782667659669081000,8.1880810546875,-0.2936835289001465,-0.376281201839447,-0.8865848779678345
1782667659679029200,8.198029296875,-0.18700413405895233,0.090628482401371,-0.9730175733566284
1782667659689009200,8.208009033203124,-0.11468120664358139,0.437196284532547,-1.0648236274719238
1782667659698957300,8.217957275390624,-0.083941251039505,0.6364374160766602,-1.132140874862671
1782667659708906200,8.22790625,-0.0846235528588295,0.720497190952301,-1.1542526483535767
1782667659718855200,8.237855224609374,-0.07629512995481491,0.7111302614212036,-1.1322011947631836
1782667659728834000,8.247833984375,-0.03963831439614296,0.5730176568031311,-1.0552572011947632
1782667659738783200,8.257783203125,0.027400609105825424,0.3017686605453491,-0.9350889325141907
1782667659748732200,8.267732177734375,0.11220470815896988,-0.0096491239964962,-0.7888619899749756
1782667659758680000,8.27768017578125,0.1813957393169403,-0.2638746500015259,-0.6449103355407715
1782667659768629200,8.287629150390625,0.2340882420539856,-0.38243457674980164,-0.5147715210914612
1782667659778608400,8.2976083984375,0.28126487135887146,-0.35892242193222046,-0.3831121623516083
1782667659788557300,8.307557373046874,0.309803307056427,-0.24023067951202393,-0.256525456905365
1782667659798506200,8.31750634765625,0.3109096586704254,-0.10849878937005997,-0.13106827437877655
1782667659808454400,8.327454345703124,0.2855167090892792,0.00020079221576452255,0.006029924377799034
1782667659818434300,8.337434326171875,0.24667908251285553,0.09178458154201508,0.16681119799613953
1782667659828382200,8.34738232421875,0.21720826625823975,0.14829126000404358,0.35730046033859253
1782667659838331100,8.3573310546875,0.18906641006469727,0.1613164246082306,0.562176525592804
1782667659848280000,8.367280029296875,0.1450241208076477,0.1418686956167221,0.7481546998023987
1782667659858259200,8.37725927734375,0.07170122861862183,0.12660032510757446,0.8801514506340027
1782667659868208000,8.3872080078125,-0.01672637276351452,0.1223086342215538,0.9653196334838867
1782667659878157000,8.397156982421874,-0.10563770681619644,0.1396031379699707,0.991670548915863
1782667659888105200,8.407105224609374,-0.16869577765464783,0.19573351740837097,0.9689106345176697
1782667659898054100,8.41705419921875,-0.1996837556362152,0.2565184235572815,0.9017950296401978
1782667659908033000,8.427032958984375,-0.19655294716358185,0.34053343534469604,0.8109258413314819
1782667659917982200,8.436982177734375,-0.1488606482744217,0.4707058370113373,0.7295868396759033
1782667659927931400,8.446931396484375,-0.07312381267547607,0.6199568510055542,0.6683538556098938
1782667659937879300,8.45687939453125,0.00677865743637085,0.7278777360916138,0.622632622718811
1782667659947859200,8.466859130859374,0.10516542196273804,0.7431408762931824,0.6129211783409119
1782667659957807400,8.476807373046874,0.2412911355495453,0.6443929672241211,0.645770788192749
1782667659967756300,8.48675634765625,0.42042413353919983,0.4510596990585327,0.7229140400886536
1782667659977705200,8.496705322265624,0.5932811498641968,0.25837838649749756,0.8314018845558167
1782667659987654100,8.506654052734374,0.685555636882782,0.1183062493801117,0.9430336356163025
1782667659997633300,8.51663330078125,0.65633624792099,0.025973115116357803,0.9835942387580872
1782667660007582200,8.526582275390625,0.5118134021759033,-0.10403521358966827,0.8690460920333862
1782667660017530000,8.536530029296875,0.30200493335723877,-0.2770332992076874,0.5985140800476074
1782667660027479300,8.546479248046875,0.11202007532119751,-0.3422304093837738,0.26190465688705444
1782667660037458200,8.556458251953124,0.008598815649747849,-0.1675146073102951,-0.026658017188310623
1782667660047407000,8.566406982421874,-0.01877235434949398,0.12856817245483398,-0.22242271900177002
1782667660057356000,8.57635595703125,0.012038784101605415,0.2850615978240967,-0.3368571698665619
1782667660067305200,8.58630517578125,0.09322818368673325,0.11404989659786224,-0.4015762507915497
1782667660077253000,8.596253173828124,0.22334358096122742,-0.35579177737236023,-0.4234907627105713
1782667660087233300,8.6062333984375,0.35630056262016296,-0.8342115879058838,-0.411332368850708
1782667660097198600,8.616198486328125,0.40272969007492065,-1.133301019668579,-0.3800647258758545
1782667660107147800,8.626147705078125,0.30910786986351013,-1.249954104423523,-0.38325145840644836
1782667660117096700,8.6360966796875,0.15146495401859283,-1.2059675455093384,-0.4464932382106781
1782667660127075600,8.64607568359375,0.03917250037193298,-1.001379370689392,-0.5351086258888245
1782667660137024800,8.656024658203124,0.03500976413488388,-0.6536650061607361,-0.6363674402236938
1782667660146972700,8.66597265625,0.14022113382816315,-0.2924703359603882,-0.7486140727996826
1782667660156921600,8.675921630859374,0.3040785491466522,-0.07350773364305496,-0.8635463118553162
1782667660166900700,8.685900634765625,0.4365084767341614,-0.02907395549118519,-0.9804289937019348
1782667660176849700,8.695849609375,0.4993867576122284,-0.10109487920999527,-1.0856841802597046
1782667660186798600,8.705798583984375,0.49541327357292175,-0.2218516618013382,-1.1305440664291382
1782667660196747500,8.71574755859375,0.44204241037368774,-0.28972890973091125,-1.0866838693618774
1782667660206695700,8.72569580078125,0.3639260232448578,-0.23718927800655365,-0.9776884317398071
1782667660216675600,8.735675537109374,0.2716103494167328,-0.10576828569173813,-0.8494855761528015
1782667660226623500,8.74562353515625,0.1739644706249237,0.04807666689157486,-0.7583258748054504
1782667660236572400,8.755572509765624,0.10481013357639313,0.22080886363983154,-0.6845482587814331
1782667660246521600,8.765521484375,0.09241844713687897,0.46932652592658997,-0.5829737186431885
1782667660256500500,8.77550048828125,0.12165437638759613,0.7818994522094727,-0.4247145354747772
1782667660266449700,8.78544970703125,0.15687015652656555,1.0586998462677002,-0.22475777566432953
1782667660276397600,8.7953974609375,0.178628072142601,1.2291014194488525,-0.0005096183158457279
1782667660286346800,8.8053466796875,0.1631724089384079,1.2599804401397705,0.2096681147813797
1782667660296295700,8.815295654296875,0.1166573017835617,1.1845721006393433,0.40546801686286926
1782667660306274600,8.825274658203124,0.04757222905755043,1.0364576578140259,0.5781478881835938
1782667660316223700,8.8352236328125,-0.03319958969950676,0.8497198224067688,0.7148361802101135
1782667660326172700,8.845172607421874,-0.11014843732118607,0.6433839797973633,0.8028550148010254
1782667660336120600,8.85512060546875,-0.17198067903518677,0.4164196252822876,0.8239342570304871
1782667660346100500,8.8651005859375,-0.21000394225120544,0.1985352486371994,0.7843658328056335
1782667660356048600,8.875048583984375,-0.22175686061382294,0.02047223038971424,0.7090361714363098
1782667660365997600,8.88499755859375,-0.1983783096075058,-0.07694433629512787,0.6378474831581116
1782667660375946500,8.894946533203125,-0.1516364961862564,-0.08923326432704926,0.5856614708900452
1782667660385925600,8.904925537109374,-0.09727604687213898,-0.01974579691886902,0.5416399240493774
1782667660395874600,8.91487451171875,-0.038437649607658386,0.10569410026073456,0.5115036964416504
1782667660405823500,8.924823486328124,0.014308121055364609,0.24195925891399384,0.4890793263912201
1782667660415771400,8.934771484375,0.04102355241775513,0.30312055349349976,0.4447927176952362
1782667660425720600,8.944720458984374,0.059649430215358734,0.2470112144947052,0.3784938454627991
1782667660435699500,8.954699462890625,0.10150948166847229,0.1543004810810089,0.3301903009414673
1782667660445648600,8.964648681640625,0.1758345663547516,0.011859714053571224,0.31228506565093994
1782667660455597600,8.97459765625,0.2803243398666382,-0.16341619193553925,0.29171618819236755
1782667660465545700,8.984545654296875,0.39125218987464905,-0.36700689792633057,0.2393467277288437
1782667660475525600,8.994525634765624,0.4680062234401703,-0.5557997822761536,0.1510317623615265
1782667660485473500,9.0044736328125,0.46122926473617554,-0.6360003352165222,0.025199532508850098
1782667660495422700,9.014422607421874,0.38042670488357544,-0.5688456296920776,-0.1214585229754448
1782667660505371600,9.02437158203125,0.2374253273010254,-0.3590737581253052,-0.2450648993253708
1782667660515320600,9.034320556640624,0.08883097022771835,-0.07315213233232498,-0.2937374413013458
1782667660525299500,9.044299560546875,0.008069543167948723,0.2001829892396927,-0.24082283675670624
1782667660535248600,9.05424853515625,0.050544336438179016,0.3364705443382263,-0.07725987583398819
1782667660545196500,9.064196533203125,0.1780674159526825,0.22265395522117615,0.13610433042049408
1782667660555145500,9.0741455078125,0.311840295791626,-0.07903769612312317,0.3254164457321167
1782667660565124600,9.08412451171875,0.39845773577690125,-0.39288508892059326,0.47170335054397583
1782667660575073500,9.094073486328124,0.4101732671260834,-0.6770291924476624,0.5286701917648315
1782667660585022700,9.104022705078124,0.3298342227935791,-0.9083526730537415,0.4678340256214142
1782667660594970400,9.113970458984374,0.17810866236686707,-0.941940188407898,0.3110370635986328
1782667660604919600,9.12391943359375,0.004856981337070465,-0.7710770964622498,0.07037252932786942
1782667660614898700,9.133898681640625,-0.14717930555343628,-0.509101152420044,-0.24637068808078766
1782667660624847600,9.14384765625,-0.22493696212768555,-0.21547167003154755,-0.5964205861091614
1782667660634796500,9.153796630859375,-0.21612225472927094,0.0815335065126419,-0.9180858135223389
1782667660644745500,9.163745361328125,-0.12769971787929535,0.31882384419441223,-1.1410784721374512
1782667660654724600,9.173724609375,-0.003002915531396866,0.4558553099632263,-1.2520731687545776
1782667660664673500,9.183673583984374,0.1079355925321579,0.4970690608024597,-1.2553722858428955
1782667660674621700,9.19362158203125,0.16455838084220886,0.48300302028656006,-1.1607818603515625
1782667660684570600,9.203570556640624,0.18050432205200195,0.4424910247325897,-0.9948447942733765
1782667660694549500,9.213549560546875,0.1829880177974701,0.39886024594306946,-0.7748986482620239
1782667660704498400,9.22349853515625,0.17257186770439148,0.3735743463039398,-0.5380967259407043
1782667660714447600,9.233447509765625,0.11689066886901855,0.3587909936904907,-0.33943936228752136
1782667660724396500,9.243396484375,0.04964345321059227,0.3571169376373291,-0.18908607959747314
1782667660734344400,9.253344482421875,-0.007226061075925827,0.365633487701416,-0.07742434740066528
1782667660744323600,9.263323486328124,-0.0443824827671051,0.34975066781044006,-0.007033540401607752
1782667660754272800,9.273272705078124,-0.0564219132065773,0.31221458315849304,0.036073628813028336
1782667660764221700,9.2832216796875,-0.03973081707954407,0.24515272676944733,0.07343458384275436
1782667660774170600,9.293170654296874,-0.0010324064642190933,0.16589847207069397,0.12542423605918884
1782667660784149800,9.303149658203125,0.0502060130238533,0.1088077574968338,0.21079586446285248
1782667660794098700,9.3130986328125,0.09259528666734695,0.07142150402069092,0.3293225169181824
1782667660804046600,9.323046630859375,0.1179959774017334,0.04571933299303055,0.479977011680603
1782667660813995500,9.33299560546875,0.10883251577615738,0.051186732947826385,0.6544283628463745
1782667660823944400,9.3429443359375,0.07065077126026154,0.09507802128791809,0.8294957280158997
1782667660833923600,9.352923583984374,0.002324288710951805,0.14467358589172363,0.972021222114563
1782667660843872500,9.36287255859375,-0.0867355465888977,0.16093936562538147,1.0460789203643799
1782667660853821400,9.372821533203124,-0.175133615732193,0.14730118215084076,1.0506622791290283
1782667660863769600,9.38276953125,-0.24290786683559418,0.1434055119752884,0.9956738352775574
1782667660873749500,9.39274951171875,-0.28314316272735596,0.1361636519432068,0.8877233862876892
1782667660883697400,9.402697509765625,-0.2779252231121063,0.161383256316185,0.7498449087142944
1782667660893646600,9.412646484375,-0.22806626558303833,0.272316038608551,0.6264170408248901
1782667660903595800,9.422595703125,-0.15530896186828613,0.428587943315506,0.5256851315498352
1782667660913574700,9.43257470703125,-0.09053999185562134,0.560703456401825,0.44431743025779724
1782667660923523600,9.442523681640624,-0.03611350804567337,0.5729768872261047,0.36360421776771545
1782667660933471700,9.4524716796875,0.032028988003730774,0.346697598695755,0.2724861800670624
1782667660943420700,9.462420654296874,0.12825831770896912,-0.23962421715259552,0.13797684013843536
1782667660953369600,9.47236962890625,0.23055493831634521,-1.0423294305801392,-0.0187830850481987
1782667660963348700,9.4823486328125,0.2773407995700836,-1.5657333135604858,-0.14473861455917358
1782667660973297700,9.492297607421875,0.22663471102714539,-1.5703518390655518,-0.20233877003192902
1782667660983246600,9.50224658203125,0.06927251070737839,-1.263109564781189,-0.1837826520204544
1782667660993194500,9.512194580078125,-0.17408721148967743,-0.8241158723831177,-0.16055598855018616
1782667661003174700,9.522174560546874,-0.40496811270713806,-0.5570937395095825,-0.19663436710834503
1782667661013122600,9.53212255859375,-0.5123860239982605,-0.6978173851966858,-0.33775049448013306
1782667661023071500,9.542071533203124,-0.48179030418395996,-1.109356164932251,-0.5572367310523987
1782667661033020400,9.5520205078125,-0.3833032548427582,-1.4019181728363037,-0.7746045589447021
1782667661042969300,9.56196923828125,-0.27571821212768555,-1.3411937952041626,-0.9379873275756836
1782667661052948500,9.571948486328125,-0.20028451085090637,-0.96867835521698,-1.0496593713760376
1782667661062896400,9.581896484375,-0.15475697815418243,-0.5097906589508057,-1.117089033126831
1782667661072845800,9.591845703125,-0.10743115842342377,-0.040969010442495346,-1.1230523586273193
1782667661082794800,9.601794677734375,-0.06931493431329727,0.3875589072704315,-1.0567785501480103
1782667661092773600,9.611773681640624,-0.09016977250576019,0.6491592526435852,-0.9668496251106262
1782667661102741200,9.6217412109375,-0.15393996238708496,0.7032067775726318,-0.889306902885437
1782667661112690200,9.631690185546875,-0.2401164472103119,0.6152920126914978,-0.8278845548629761
1782667661122638300,9.641638427734375,-0.3256012499332428,0.4501611590385437,-0.7879614233970642
1782667661132618200,9.6516181640625,-0.3767901659011841,0.24345973134040833,-0.7722568511962891
1782667661142566100,9.661566162109375,-0.3594348728656769,0.06662555783987045,-0.7919413447380066
1782667661152515000,9.67151513671875,-0.2636685371398926,-0.00426784623414278,-0.8214827179908752
1782667661162464300,9.68146435546875,-0.0899880975484848,0.06218041479587555,-0.8441305160522461
1782667661172413200,9.6914130859375,0.12667664885520935,0.2236742079257965,-0.8358849883079529
1782667661182392000,9.70139208984375,0.33831673860549927,0.43096187710762024,-0.7881808876991272
1782667661192341000,9.711341064453125,0.5111607313156128,0.6014328598976135,-0.7058825492858887
1782667661202289200,9.7212890625,0.6279858350753784,0.6813170313835144,-0.6077405214309692
1782667661212238000,9.731238037109375,0.6844432353973389,0.6576407551765442,-0.5029197931289673
1782667661222217000,9.741217041015625,0.6936783194541931,0.5765469670295715,-0.38554123044013977
1782667661232166100,9.751166259765625,0.6436196565628052,0.48331499099731445,-0.24970746040344238
1782667661242115300,9.761115234375,0.5398546457290649,0.3934170603752136,-0.10481099784374237
1782667661252063200,9.771063232421875,0.40913039445877075,0.3313286304473877,0.05231694132089615
1782667661262012200,9.78101220703125,0.2808467149734497,0.28331902623176575,0.2061496526002884
1782667661271991300,9.7909912109375,0.1677914261817932,0.24776557087898254,0.335628479719162
1782667661281940200,9.800940185546875,0.08110074698925018,0.24414685368537903,0.44121429324150085
1782667661291889200,9.81088916015625,0.023086387664079666,0.29453375935554504,0.5151476860046387
1782667661301838000,9.820838134765625,-0.0007156152278184891,0.3772347569465637,0.5708552002906799
1782667661311817200,9.830817138671875,0.02195128984749317,0.4860093593597412,0.6299452781677246
1782667661321766100,9.84076611328125,0.054264217615127563,0.6028022766113281,0.7057281732559204
1782667661331714000,9.850714111328125,0.06126870587468147,0.6418797969818115,0.7842625379562378
1782667661341663200,9.860663330078125,0.031005606055259705,0.5614001154899597,0.848499059677124
1782667661351612200,9.870612060546875,-0.0027531106024980545,0.42457300424575806,0.8988749980926514
1782667661361591000,9.880591064453125,-0.041682932525873184,0.2809884250164032,0.9256868958473206
1782667661371540000,9.8905400390625,-0.10454502701759338,0.079865962266922,0.8788702487945557
1782667661381488000,9.900488037109374,-0.1591869741678238,-0.1460188329219818,0.7620820999145508
1782667661391437000,9.91043701171875,-0.13317324221134186,-0.305419385433197,0.6363774538040161
1782667661401416000,9.920416015625,-0.028080914169549942,-0.41820666193962097,0.5233041048049927
1782667661411365400,9.930365478515625,0.11695391684770584,-0.5919570922851562,0.3693723678588867
1782667661421314300,9.940314208984375,0.33512088656425476,-0.9358202219009399,0.13112999498844147
1782667661431263200,9.95026318359375,0.6579785943031311,-1.3793226480484009,-0.16167980432510376
1782667661441242000,9.9602421875,0.9935571551322937,-1.6831248998641968,-0.4184682071208954
1782667661451191300,9.97019140625,1.1780086755752563,-1.7748878002166748,-0.5607746243476868
1782667661461139200,9.98013916015625,1.1306729316711426,-1.7362219095230103,-0.5643557906150818
1782667661471088000,9.990088134765625,0.8610700368881226,-1.5650638341903687,-0.4457381069660187
1782667661481037000,10.000037109375,0.4823929965496063,-1.2084788084030151,-0.22707153856754303
1782667661491016200,10.01001611328125,0.09642060101032257,-0.7068945169448853,0.05257677659392357
1782667661500965000,10.019965087890625,-0.23615361750125885,-0.20798562467098236,0.2961774468421936
1782667661510914000,10.0299140625,-0.49792733788490295,0.1393532007932663,0.3951360285282135
1782667661520862200,10.0398623046875,-0.6656619906425476,0.2892684042453766,0.3253271281719208
1782667661530842000,10.049842041015625,-0.7551525235176086,0.3562588393688202,0.11151322722434998
1782667661540790000,10.0597900390625,-0.7763784527778625,0.37737610936164856,-0.1933492124080658
1782667661550739000,10.069739013671875,-0.7335587739944458,0.37847357988357544,-0.5170381665229797
1782667661560688400,10.0796884765625,-0.6598222255706787,0.42061781883239746,-0.818507730960846
1782667661570636300,10.08963623046875,-0.5871306657791138,0.5326599478721619,-1.0458732843399048
1782667661580616200,10.0996162109375,-0.538852870464325,0.6562809348106384,-1.1820316314697266
1782667661590564400,10.109564453125,-0.5044041872024536,0.7676165699958801,-1.2374165058135986
1782667661600513300,10.11951318359375,-0.47568628191947937,0.85011225938797,-1.218397855758667
1782667661610462200,10.129462158203125,-0.44438162446022034,0.8847039341926575,-1.1452529430389404
1782667661620441000,10.139441162109375,-0.4039148986339569,0.8737290501594543,-1.018553614616394
1782667661630390300,10.149390380859375,-0.35013195872306824,0.8444054126739502,-0.8504034876823425
1782667661640339200,10.159339111328125,-0.27524441480636597,0.7902044653892517,-0.662757396697998
1782667661650287000,10.169287109375,-0.15302443504333496,0.6857416033744812,-0.46506354212760925
1782667661660267000,10.17926708984375,0.011783145368099213,0.5718717575073242,-0.23524874448776245
1782667661670215200,10.189215087890625,0.19439376890659332,0.47282540798187256,0.05425510182976723
1782667661680164000,10.1991640625,0.33581745624542236,0.5123093724250793,0.3990441858768463
1782667661690113000,10.209113037109375,0.3990499973297119,0.6634982228279114,0.8001907467842102
1782667661700061200,10.219061279296875,0.4217507839202881,0.8730501532554626,1.2349480390548706
1782667661710041000,10.229041015625,0.42738211154937744,1.059343695640564,1.6501784324645996
1782667661719989000,10.238989013671874,0.4018029570579529,1.1597139835357666,1.9694887399673462
1782667661729938200,10.248938232421875,0.3522285521030426,1.1413919925689697,2.166611433029175
1782667661739887400,10.258887451171875,0.28973349928855896,1.052312970161438,2.244352102279663
1782667661749866200,10.2688662109375,0.21575362980365753,0.9314498901367188,2.1985623836517334
1782667661759815200,10.278815185546875,0.12916414439678192,0.7946182489395142,2.0403358936309814
1782667661769764000,10.28876416015625,0.045387107878923416,0.6659500002861023,1.7852197885513306
1782667661779712300,10.298712158203125,-0.03919142857193947,0.5596818923950195,1.4441996812820435
1782667661789661200,10.3086611328125,-0.10840405523777008,0.4606783092021942,1.0404337644577026
1782667661799640000,10.31864013671875,-0.1467655599117279,0.3543316125869751,0.6007767915725708
1782667661809589200,10.32858935546875,-0.15475615859031677,0.27581003308296204,0.18390822410583496
1782667661819538200,10.3385380859375,-0.12987342476844788,0.304281622171402,-0.13509932160377502
1782667661829487000,10.348487060546875,-0.056581221520900726,0.3750031292438507,-0.2779763340950012
1782667661839466000,10.358466064453125,0.04511318355798721,0.42604607343673706,-0.2352115660905838
1782667661849415200,10.368415283203126,0.12234761565923691,0.35952186584472656,-0.08016730099916458
1782667661859363000,10.378363037109375,0.16087262332439423,-0.06078857555985451,0.0826096311211586
1782667661869312000,10.38831201171875,0.1710253357887268,-0.8057420253753662,0.2036408632993698
1782667661879261200,10.39826123046875,0.15660670399665833,-1.540015459060669,0.28175589442253113
1782667661889240300,10.408240234375,0.10252466797828674,-2.0068774223327637,0.31405580043792725
1782667661899189200,10.418189208984375,0.007711341604590416,-2.233104705810547,0.281534343957901
1782667661909137200,10.42813720703125,-0.13092130422592163,-2.4427988529205322,0.14061124622821808
1782667661919086300,10.43808642578125,-0.30269813537597656,-2.5326106548309326,-0.13866087794303894
1782667661929065200,10.448065185546875,-0.46844425797462463,-2.1614201068878174,-0.50527024269104
1782667661939014100,10.45801416015625,-0.5525271892547607,-1.2661107778549194,-0.857332170009613
1782667661948963000,10.467963134765625,-0.49598386883735657,-0.14660075306892395,-1.0890426635742188
1782667661958912300,10.477912353515626,-0.33326098322868347,0.7921004295349121,-1.1855891942977905
1782667661968891100,10.48789111328125,-0.179759681224823,1.2114189863204956,-1.2141776084899902
1782667661978840000,10.497840087890625,-0.12157972902059555,1.153783917427063,-1.2223122119903564
1782667661988788200,10.507788330078125,-0.1611044704914093,0.8333395719528198,-1.1754934787750244
1782667661998737200,10.517737060546875,-0.2522256076335907,0.4990108609199524,-1.0476877689361572
1782667662008686000,10.52768603515625,-0.34098300337791443,0.237221822142601,-0.850644052028656
1782667662018665000,10.5376650390625,-0.3574770390987396,-0.001591017935425043,-0.607208788394928
1782667662028614400,10.547614501953126,-0.2927505671977997,-0.22932536900043488,-0.3493070900440216
1782667662038562000,10.55756201171875,-0.17471766471862793,-0.4486508071422577,-0.08640968054533005
1782667662048511200,10.56751123046875,-0.013461245223879814,-0.5615862011909485,0.18001346290111542
1782667662058490400,10.577490478515625,0.18469977378845215,-0.5064893960952759,0.4667147397994995
1782667662068439300,10.587439208984375,0.3899102210998535,-0.32803311944007874,0.757728099822998
1782667662078388200,10.59738818359375,0.5325563549995422,-0.12344321608543396,0.998695969581604
1782667662088337200,10.607337158203125,0.5708167552947998,0.056352511048316956,1.1600664854049683
1782667662098285300,10.617285400390625,0.5035410523414612,0.23183298110961914,1.2481553554534912
1782667662108273200,10.627273193359375,0.3578658103942871,0.40402859449386597,1.2566592693328857
1782667662118221000,10.637220947265625,0.18106812238693237,0.5502073764801025,1.2063544988632202
1782667662128170000,10.647169921875,0.028845563530921936,0.6574544906616211,1.136222243309021
1782667662138119000,10.657118896484375,-0.06176583096385002,0.7160267233848572,1.073089361190796
1782667662148098000,10.66709814453125,-0.10403558611869812,0.7173153162002563,1.02382230758667
1782667662158047000,10.677046875,-0.11349433660507202,0.6798738837242126,0.9832379817962646
1782667662167996000,10.686995849609374,-0.09954721480607986,0.6092798709869385,0.9524027705192566
1782667662177944000,10.696944091796874,-0.07026762515306473,0.5296992659568787,0.924636960029602
1782667662187923000,10.7069228515625,-0.022649168968200684,0.4447559714317322,0.8947803974151611
1782667662197871900,10.716871826171875,0.039734311401844025,0.37654924392700195,0.8725837469100952
1782667662207821000,10.726821044921875,0.08789275586605072,0.3160887658596039,0.8498525619506836
1782667662217770000,10.73677001953125,0.10763795673847198,0.24826468527317047,0.804985523223877
1782667662227718100,10.74671826171875,0.10262198746204376,0.20432312786579132,0.7398396730422974
1782667662237698000,10.756697998046874,0.07484015822410583,0.17409704625606537,0.6587083339691162
1782667662247646200,10.766646240234374,0.03542635589838028,0.1282496154308319,0.5598034262657166
1782667662257595100,10.77659521484375,0.00025425106287002563,0.02636852115392685,0.4447362422943115
1782667662267544000,10.7865439453125,-0.008401187136769295,-0.05117407813668251,0.3212847411632538
1782667662277523000,10.79652294921875,0.018807530403137207,-0.06444913893938065,0.21468879282474518
1782667662287472000,10.80647216796875,0.0789586678147316,-0.05253526195883751,0.12891753017902374
1782667662297421000,10.816421142578125,0.1653262972831726,-0.08728712052106857,0.03791997954249382
1782667662307369000,10.826368896484375,0.2904872000217438,-0.20457276701927185,-0.05418418347835541
1782667662317318000,10.83631787109375,0.4346081614494324,-0.40542492270469666,-0.11050338298082352
1782667662327297000,10.846297119140624,0.5397768020629883,-0.6010712385177612,-0.09212492406368256
1782667662337246000,10.856245849609374,0.5514907240867615,-0.633954644203186,-0.011078277602791786
1782667662347195100,10.866195068359374,0.4521544873714447,-0.5023226141929626,0.06514499336481094
1782667662357143000,10.87614306640625,0.25181660056114197,-0.4058472216129303,0.05462684482336044
1782667662367123200,10.886123291015625,0.0381958931684494,-0.46497809886932373,-0.09712319821119308
1782667662377071000,10.896071044921875,-0.09739495813846588,-0.5669041872024536,-0.3212697505950928
1782667662387020000,10.90602001953125,-0.1433165818452835,-0.5805192589759827,-0.5193403959274292
1782667662396969000,10.915968994140625,-0.15132470428943634,-0.5830886363983154,-0.6360289454460144
1782667662406918100,10.925918212890625,-0.14200104773044586,-0.6278716921806335,-0.6961714029312134
1782667662416897000,10.93589697265625,-0.10615836083889008,-0.5857734680175781,-0.7109562158584595
1782667662426846000,10.945845947265624,-0.03265857696533203,-0.35374611616134644,-0.6683656573295593
1782667662436794000,10.955794189453124,0.020756976678967476,-0.16714081168174744,-0.612514078617096
1782667662446743000,10.965742919921874,0.03983162343502045,-0.17453837394714355,-0.5530287623405457
1782667662456722000,10.975721923828125,0.0708095133304596,-0.2970363199710846,-0.46536436676979065
1782667662466671000,10.985671142578125,0.10653066635131836,-0.44881120324134827,-0.3718976080417633
1782667662476620000,10.9956201171875,0.13267572224140167,-0.5649660229682922,-0.3084526062011719
1782667662486569000,11.00556884765625,0.14394214749336243,-0.5801892876625061,-0.29306232929229736
1782667662496547800,11.0155478515625,0.14087311923503876,-0.48770084977149963,-0.3294307291507721
1782667662506496000,11.02549609375,0.11967873573303223,-0.31365424394607544,-0.3977855145931244
1782667662516445000,11.03544482421875,0.10267125070095062,-0.11349213123321533,-0.46631741523742676
1782667662526394000,11.04539404296875,0.06746850907802582,0.0845600813627243,-0.5295971035957336
1782667662536343000,11.055343017578124,0.017344357445836067,0.2816459834575653,-0.5731880068778992
1782667662546322200,11.065322265625,-0.03725143149495125,0.48832908272743225,-0.6023358702659607
1782667662556271000,11.07527099609375,-0.061307501047849655,0.68809574842453,-0.6093556880950928
1782667662566219000,11.085218994140625,-0.05843610316514969,0.8569074869155884,-0.5960626006126404
1782667662576168000,11.09516796875,-0.03858623281121254,0.9644813537597656,-0.5638551115989685
1782667662586147000,11.10514697265625,-0.004022521898150444,0.9882454872131348,-0.49931806325912476
1782667662596096000,11.115095947265624,0.02796151116490364,0.9215905666351318,-0.3775714039802551
1782667662606045000,11.125044921875,0.018788419663906097,0.7743542790412903,-0.2288309931755066
1782667662615993900,11.134993896484374,-0.024910857900977135,0.6242454648017883,-0.08415451645851135
1782667662625942000,11.14494189453125,-0.06501200050115585,0.5279931426048279,0.047854796051979065
1782667662635922000,11.154921875,-0.08819136023521423,0.431861013174057,0.15653547644615173
1782667662645870000,11.1648701171875,-0.09633409231901169,0.30897554755210876,0.24543894827365875
1782667662655819000,11.174819091796875,-0.09321792423725128,0.19434614479541779,0.31686413288116455
1782667662665768200,11.184768310546875,-0.08811295032501221,0.14253365993499756,0.3736603260040283
1782667662675747000,11.1947470703125,-0.09375511854887009,0.1647774577140808,0.42813849449157715
1782667662685696000,11.204696044921874,-0.10287192463874817,0.22479817271232605,0.4751129150390625
1782667662695644200,11.21464404296875,-0.09792216867208481,0.26608118414878845,0.5160262584686279
1782667662705593000,11.224593017578124,-0.07790395617485046,0.2631787657737732,0.5454237461090088
1782667662715572200,11.234572265625,-0.046883724629879,0.21041728556156158,0.5771164298057556
1782667662725521200,11.244521240234375,-0.017054934054613113,0.15360243618488312,0.6002911925315857
1782667662735470000,11.254469970703125,-0.014903365634381771,0.11784656345844269,0.5854827165603638
1782667662745419000,11.2644189453125,-0.03593735024333,0.08031857758760452,0.488905131816864
1782667662755367200,11.2743671875,-0.023729154840111732,0.052374035120010376,0.3310007154941559
1782667662765347000,11.28434716796875,0.03230113536119461,-0.084878109395504,0.1689121276140213
1782667662775295000,11.294294921875,0.14507748186588287,-0.4125875234603882,0.04846826195716858
1782667662785244000,11.304243896484374,0.318703293800354,-0.7981270551681519,0.001744843553751707
1782667662795192800,11.31419287109375,0.4910947382450104,-0.9115268588066101,0.06615472584962845
1782667662805172000,11.324171875,0.53895503282547,-0.5443466901779175,0.21708837151527405
1782667662815121000,11.334120849609375,0.42304712533950806,-0.06178002059459686,0.38049620389938354
1782667662825069000,11.344069091796875,0.091005839407444,-0.4897947609424591,0.29769256711006165
1782667662835018000,11.35401806640625,-0.3239806890487671,-1.8281031847000122,-0.1560584306716919
1782667662844967200,11.36396728515625,-0.64037024974823,-2.6737663745880127,-0.7398877143859863
1782667662854946000,11.373946044921874,-0.8414884805679321,-2.2437798976898193,-1.2315369844436646
1782667662864895200,11.383895263671874,-0.9502598643302917,-1.1380541324615479,-1.546921968460083
1782667662874844200,11.39384423828125,-0.8966739177703857,-0.11637550592422485,-1.6595253944396973
1782667662884792000,11.4037919921875,-0.6484415531158447,0.6055498123168945,-1.580743432044983
1782667662894772000,11.41377197265625,-0.29847633838653564,0.9469228386878967,-1.3463407754898071
1782667662904720100,11.42372021484375,-0.022410282865166664,0.8754612803459167,-1.0305620431900024
1782667662914669000,11.4336689453125,0.07236283272504807,0.6163895130157471,-0.7091728448867798
1782667662924618000,11.443617919921875,0.022472500801086426,0.35767754912376404,-0.4219687581062317
1782667662934567000,11.45356689453125,-0.06711357831954956,0.10557658225297928,-0.19812153279781342
1782667662944546000,11.463546142578124,-0.07569762319326401,-0.12517321109771729,-0.06930442154407501
1782667662954495000,11.473494873046874,0.04216908663511276,-0.2251317799091339,-0.017328841611742973
1782667662964443000,11.48344287109375,0.23462994396686554,-0.1888756901025772,0.014430811628699303
1782667662974392000,11.49339208984375,0.4214480519294739,-0.08711976557970047,0.029228132218122482
1782667662984371000,11.503370849609375,0.5651502013206482,0.008713687770068645,0.04709061235189438
1782667662994320100,11.513320068359375,0.6572684049606323,0.08018733561038971,0.08579566329717636
1782667663004269000,11.52326904296875,0.7103286981582642,0.13599875569343567,0.13788838684558868
1782667663014217200,11.53321728515625,0.6935845613479614,0.17114609479904175,0.181070476770401
1782667663024197000,11.543197021484374,0.5749654173851013,0.18335247039794922,0.18981541693210602
1782667663034145000,11.55314501953125,0.38209185004234314,0.1988949477672577,0.16689439117908478
1782667663044094200,11.56309423828125,0.19668015837669373,0.21894420683383942,0.14313262701034546
1782667663054043100,11.573043212890624,0.06869422644376755,0.19811215996742249,0.13636979460716248
1782667663063992000,11.582991943359374,0.0059516653418540955,0.09829086065292358,0.15139339864253998
1782667663073971000,11.592970947265625,-0.000631134957075119,-0.010035344399511814,0.18707843124866486
1782667663083920100,11.602920166015625,0.027134379372000694,-0.06276296079158783,0.22166843712329865
1782667663093868000,11.612867919921875,0.07084537297487259,-0.07552589476108551,0.23042596876621246
1782667663103823000,11.622822998046875,0.1309041827917099,-0.04021211341023445,0.24322032928466797
1782667663113802200,11.63280224609375,0.16748376190662384,0.06154913455247879,0.2744477391242981
1782667663123751200,11.642751220703126,0.15423205494880676,0.12873032689094543,0.2978134751319885
1782667663133700000,11.6527001953125,0.11052612215280533,0.15186308324337006,0.30534863471984863
1782667663143648300,11.662648193359376,0.06553535163402557,0.16259706020355225,0.3134177625179291
1782667663153597200,11.67259716796875,0.014483623206615448,0.16090142726898193,0.3078711926937103
1782667663163576000,11.682576171875,-0.04656042903661728,0.1343248039484024,0.29800179600715637
1782667663173525000,11.69252490234375,-0.10197042673826218,0.12034827470779419,0.30221784114837646
1782667663183474200,11.70247412109375,-0.1396999955177307,0.10574094206094742,0.3204195499420166
1782667663193423000,11.712423095703125,-0.1465110331773758,0.06905403733253479,0.3684861361980438
1782667663203402000,11.722402099609376,-0.1348939836025238,0.05187803506851196,0.4394395649433136
1782667663213351000,11.732350830078126,-0.10464394092559814,0.11522744596004486,0.5237533450126648
1782667663223299000,11.742299072265626,-0.06895143538713455,0.21676811575889587,0.6416727304458618
1782667663233248000,11.752248046875,-0.037126924842596054,0.25422385334968567,0.7655459046363831
1782667663243227000,11.762226806640625,-0.025089813396334648,0.15074267983436584,0.83160001039505
1782667663253176000,11.772176025390625,-0.02636733278632164,-0.06659337133169174,0.8293789625167847
1782667663263125200,11.782125244140625,-0.007785463705658913,-0.2660278081893921,0.7838020920753479
1782667663273074200,11.79207421875,0.024652637541294098,-0.3515951633453369,0.6988480091094971
1782667663283022000,11.80202197265625,0.054471611976623535,-0.29637613892555237,0.569573700428009
1782667663293002200,11.812002197265626,0.060614727437496185,-0.13658063113689423,0.3882492184638977
1782667663302950100,11.8219501953125,0.019691169261932373,0.11116556078195572,0.14863227307796478
1782667663312899000,11.831899169921876,-0.028122426941990852,0.38093897700309753,-0.09951840341091156
1782667663322848000,11.841847900390626,-0.06408542394638062,0.5760691165924072,-0.2763593792915344
1782667663332827100,11.8518271484375,-0.10529890656471252,0.6392204165458679,-0.3694043457508087
1782667663342776000,11.861776123046875,-0.15416301786899567,0.5964937210083008,-0.392191082239151
1782667663352724000,11.871723876953125,-0.19362546503543854,0.4748218357563019,-0.38069528341293335
1782667663362673200,11.881673095703125,-0.21069858968257904,0.284553587436676,-0.37000221014022827
1782667663372622000,11.8916220703125,-0.1970568150281906,0.05981607735157013,-0.376482754945755
1782667663382601000,11.90160107421875,-0.1456764042377472,-0.10793326050043106,-0.4039669334888458
1782667663392550000,11.9115498046875,-0.05971940979361534,-0.19656884670257568,-0.45856067538261414
1782667663402499000,11.9214990234375,0.059169065207242966,-0.15071417391300201,-0.5272631049156189
1782667663412447000,11.931447021484376,0.20235711336135864,0.014233237132430077,-0.5806334018707275
1782667663422427100,11.94142724609375,0.31660929322242737,0.21096010506153107,-0.6125988364219666
1782667663432375300,11.951375244140625,0.3859476149082184,0.4417719841003418,-0.629528284072876
1782667663442324200,11.96132421875,0.43911248445510864,0.7073480486869812,-0.6001044511795044
1782667663452273200,11.971273193359375,0.47008851170539856,0.9409821033477783,-0.48596611618995667
1782667663462221000,11.981220947265625,0.4640862047672272,1.0387871265411377,-0.32419100403785706
1782667663472201200,11.991201171875,0.27499884366989136,1.129927635192871,0.14684708416461945
1782667663482149000,12.001149169921876,-0.19040516018867493,0.35996243357658386,0.38532009720802307
1782667663492098000,12.01109814453125,-0.42104822397232056,-0.544395387172699,0.49907994270324707
1782667663502047000,12.021046875,-0.3155200183391571,-0.8794283866882324,0.5940225720405579
1782667663512026000,12.031026123046875,-0.07342696189880371,-0.7413850426673889,0.579144299030304
1782667663521975000,12.04097509765625,0.1256958246231079,-0.5209653973579407,0.37152037024497986
1782667663531924000,12.050924072265625,0.23438262939453125,-0.3408221900463104,0.056335240602493286
1782667663541872000,12.0608720703125,0.3025664687156677,-0.24991396069526672,-0.29652902483940125
1782667663551852000,12.07085205078125,0.31496214866638184,-0.12905465066432953,-0.6187555193901062
1782667663561800000,12.080800048828126,0.2213597595691681,0.06467628479003906,-0.7473649382591248
