time,seconds_elapsed,z,y,x
1782888763969023000,0.10202294921875,-0.07939229160547256,-0.2055230587720871,0.5527552962303162
1782888763978971000,0.111970947265625,-0.05209702253341675,-0.26982057094573975,0.5489962697029114
1782888763988920000,0.121920166015625,-0.03365569934248924,-0.28818652033805847,0.49329784512519836
1782888763998869000,0.131868896484375,-0.02695784717798233,-0.25511619448661804,0.4113883376121521
1782888764008848000,0.141847900390625,-0.025646241381764412,-0.17022313177585602,0.2963736057281494
1782888764018797000,0.151797119140625,-0.03292492777109146,-0.055208392441272736,0.18024061620235443
1782888764028746200,0.161746337890625,-0.049192581325769424,0.0316692478954792,0.08805742114782333
1782888764038694100,0.171694091796875,-0.07574296742677689,0.08146769553422928,0.021098626777529716
1782888764048674000,0.181674072265625,-0.11418462544679642,0.08194919675588608,-0.017297763377428055
1782888764058622200,0.191622314453125,-0.14873382449150085,0.05020218342542648,-0.03828693553805351
1782888764068571100,0.201571044921875,-0.1651756465435028,0.014009025879204273,-0.037695977836847305
1782888764078520000,0.21152001953125,-0.16052576899528503,-0.004887166898697615,-0.021088240668177605
1782888764088499000,0.2214990234375,-0.14696520566940308,-0.005015531089156866,-0.0025742114521563053
1782888764098448100,0.2314482421875,-0.12515738606452942,-0.006771087180823088,0.021154554560780525
1782888764108396000,0.24139599609375,-0.09349533170461655,-0.027057183906435966,0.029507026076316833
1782888764118345000,0.251344970703125,-0.06145031005144119,-0.05945267528295517,0.030487600713968277
1782888764128324000,0.261323974609375,-0.037521008402109146,-0.09298453480005264,0.037944719195365906
1782888764138273000,0.27127294921875,-0.031205588951706886,-0.11951041966676712,0.03157523646950722
1782888764148222000,0.281221923828125,-0.03677346184849739,-0.12738165259361267,0.020785439759492874
1782888764158171000,0.2911708984375,-0.04674380272626877,-0.10156816989183426,0.005823001731187105
1782888764168119000,0.301119140625,-0.0627928078174591,-0.055394548922777176,0.0021137509029358625
1782888764178099200,0.31109912109375,-0.0834735855460167,0.0016668725293129683,0.008933041244745255
1782888764188046800,0.321046875,-0.08978980779647827,0.03554654121398926,0.02424222230911255
1782888764197996000,0.33099609375,-0.08974533528089523,0.03562457114458084,0.03762087970972061
1782888764207945200,0.3409453125,-0.07543616741895676,0.016933176666498184,0.0462668314576149
1782888764217924000,0.350924072265625,-0.055145811289548874,-0.004602741450071335,0.054062437266111374
1782888764227873000,0.360873046875,-0.030529679730534554,-0.03857428953051567,0.05421290546655655
1782888764237822000,0.370822021484375,-0.012208995409309864,-0.0789845660328865,0.04914943501353264
1782888764247770000,0.38077001953125,0.0012801815755665302,-0.09941473603248596,0.04593260586261749
1782888764257750000,0.39075,0.003947603516280651,-0.08485789597034454,0.04500262811779976
1782888764267698200,0.4006982421875,0.0013872405979782343,-0.04887086898088455,0.04003476724028587
1782888764277647000,0.410647216796875,-0.0034791536163538694,0.00024341292737517506,0.047325171530246735
1782888764287596000,0.420595947265625,-0.0022272015921771526,0.05441317334771156,0.06484317779541016
1782888764297575000,0.430574951171875,-0.0018439727136865258,0.09708154201507568,0.08741000294685364
1782888764307523800,0.44052392578125,-0.005407548509538174,0.13416819274425507,0.1156134158372879
1782888764317472000,0.450471923828125,-0.005702094174921513,0.1618403047323227,0.13843803107738495
1782888764327421000,0.4604208984375,-0.010643056593835354,0.1551123559474945,0.15921708941459656
1782888764337400000,0.470400146484375,-0.02058064192533493,0.10818132758140564,0.16881884634494781
1782888764347349000,0.480348876953125,-0.03184421733021736,0.06251557916402817,0.15813983976840973
1782888764357298200,0.490298095703125,-0.04542873427271843,0.044250551611185074,0.14146019518375397
1782888764367247000,0.5002470703125,-0.05290129780769348,0.03196512162685394,0.10697785019874573
1782888764377226200,0.510226318359375,-0.05319957062602043,0.03838680312037468,0.06071474775671959
1782888764387175200,0.520175048828125,-0.04212907701730728,0.07384280115365982,0.007591873407363892
1782888764397123000,0.530123046875,-0.02930755540728569,0.10680580884218216,-0.028842300176620483
1782888764407072000,0.540072021484375,-0.016637032851576805,0.12674303352832794,-0.0570656843483448
1782888764417021000,0.55002099609375,-0.00748960766941309,0.13485342264175415,-0.07106459140777588
1782888764427000000,0.56,0.005360410548746586,0.15175969898700714,-0.05974802002310753
1782888764436949000,0.569948974609375,0.022779880091547966,0.1624743938446045,-0.018877550959587097
1782888764446897200,0.579897216796875,0.031926508992910385,0.16166692972183228,0.04099350422620773
1782888764456846000,0.58984619140625,0.04063104838132858,0.1567443460226059,0.11244665086269379
1782888764466825000,0.599824951171875,0.042569562792778015,0.15796060860157013,0.17625544965267181
1782888764476774000,0.60977392578125,0.04291817173361778,0.1384422928094864,0.2199573963880539
1782888764486723000,0.61972314453125,0.04875475540757179,0.10101449489593506,0.23293843865394592
1782888764496672300,0.62967236328125,0.06288335472345352,0.06412652134895325,0.21257618069648743
1782888764506651000,0.63965087890625,0.08595911413431168,0.04747696965932846,0.1738428920507431
1782888764516600000,0.64960009765625,0.11055607348680496,0.05958263576030731,0.11513777077198029
1782888764526548200,0.65954833984375,0.13760313391685486,0.09649670869112015,0.053460028022527695
1782888764536497200,0.6694970703125,0.16757887601852417,0.14538542926311493,0.009740511886775494
1782888764546476000,0.67947607421875,0.17369483411312103,0.17570871114730835,0.0059779975563287735
1782888764556425200,0.68942529296875,0.13269706070423126,0.14582617580890656,0.031926773488521576
1782888764566374100,0.6993740234375,0.0489310584962368,0.04869110509753227,0.08620759099721909
1782888764576323000,0.709322998046875,-0.06532201170921326,-0.0712968185544014,0.15258528292179108
1782888764586302000,0.719302001953125,-0.19654475152492523,-0.2003898173570633,0.20845547318458557
1782888764596251100,0.729251220703125,-0.3424856960773468,-0.34312379360198975,0.2417290061712265
1782888764606199000,0.739198974609375,-0.47623178362846375,-0.5064863562583923,0.24371306598186493
1782888764616148000,0.74914794921875,-0.584430456161499,-0.6493161916732788,0.197382852435112
1782888764626127000,0.759127197265625,-0.6624658703804016,-0.7628949880599976,0.12336747348308563
1782888764636076000,0.769075927734375,-0.7005482316017151,-0.7435585856437683,0.023373499512672424
1782888764646025000,0.77902490234375,-0.6614066958427429,-0.6070446372032166,-0.09452570974826813
1782888764655972900,0.788972900390625,-0.5482495427131653,-0.46225419640541077,-0.20555421710014343
1782888764665922000,0.798922119140625,-0.39428284764289856,-0.3730817139148712,-0.29619863629341125
1782888764675901000,0.80890087890625,-0.2648167610168457,-0.36627012491226196,-0.3645968735218048
1782888764685850000,0.81885009765625,-0.19509971141815186,-0.42409613728523254,-0.40600237250328064
1782888764695799000,0.828799072265625,-0.18651528656482697,-0.4717555344104767,-0.40991348028182983
1782888764705748000,0.838748046875,-0.25374892354011536,-0.47450074553489685,-0.3788815438747406
1782888764715727000,0.84872705078125,-0.3760031759738922,-0.40999898314476013,-0.3188115358352661
1782888764725676000,0.858676025390625,-0.5172138214111328,-0.30162563920021057,-0.24956588447093964
1782888764735624200,0.868624267578125,-0.6407525539398193,-0.14450179040431976,-0.20093123614788055
1782888764745573000,0.878572998046875,-0.702873170375824,0.08652450889348984,-0.19362139701843262
1782888764755552000,0.888552001953125,-0.6958283185958862,0.37034955620765686,-0.22266583144664764
1782888764765501000,0.8985009765625,-0.634123682975769,0.5799922943115234,-0.28211796283721924
1782888764775450000,0.9084501953125,-0.5344144105911255,0.5966807007789612,-0.37361541390419006
1782888764785398000,0.91839794921875,-0.4233728349208832,0.48621970415115356,-0.47816869616508484
1782888764795378000,0.9283779296875,-0.2907721698284149,0.3449467420578003,-0.5540198087692261
1782888764805326000,0.938326171875,-0.15657655894756317,0.2421250194311142,-0.5626761317253113
1782888764815275000,0.94827490234375,-0.0521169975399971,0.18858295679092407,-0.5240190029144287
1782888764825224000,0.958223876953125,0.012590892612934113,0.20180661976337433,-0.4562484920024872
1782888764835202800,0.968202880859375,0.04012718051671982,0.23428386449813843,-0.35546594858169556
1782888764845152300,0.97815234375,0.03281067684292793,0.24260225892066956,-0.24551229178905487
1782888764855101200,0.98810107421875,0.0020058928057551384,0.2467155009508133,-0.13964977860450745
1782888764865049600,0.998049560546875,-0.03183968737721443,0.21448859572410583,-0.044264666736125946
1782888764875029500,1.008029541015625,-0.04905515909194946,0.14005830883979797,0.03924300894141197
1782888764884977700,1.017977783203125,-0.05721694976091385,0.06744082272052765,0.1175500676035881
1782888764894926600,1.027926513671875,-0.06842300295829773,-0.0046450854279100895,0.18738506734371185
1782888764904875800,1.037875732421875,-0.07800345867872238,-0.09144123643636703,0.2295634150505066
1782888764914824700,1.04782470703125,-0.08494950830936432,-0.1686318963766098,0.2457599639892578
1782888764924803800,1.057803955078125,-0.09296509623527527,-0.2096341848373413,0.23519866168498993
1782888764934751700,1.067751708984375,-0.10410163551568985,-0.20784561336040497,0.21048639714717865
1782888764944700700,1.07770068359375,-0.10360895097255707,-0.18679144978523254,0.18408408761024475
1782888764954649600,1.087649658203125,-0.09054428339004517,-0.17629380524158478,0.1549706757068634
1782888764964628700,1.097628662109375,-0.07953104376792908,-0.16124215722084045,0.1262439489364624
1782888764974577700,1.10757763671875,-0.07295010983943939,-0.13540390133857727,0.09013015776872635
1782888764984526600,1.117526611328125,-0.06707996875047684,-0.12424764782190323,0.04489557072520256
1782888764994474800,1.127474853515625,-0.06629007309675217,-0.1291942000389099,-0.007930627092719078
1782888765004454700,1.13745458984375,-0.06800221651792526,-0.13443690538406372,-0.061358433216810226
1782888765014402600,1.147402587890625,-0.07954675704240799,-0.12172270566225052,-0.10574107617139816
1782888765024351500,1.1573515625,-0.09172166138887405,-0.068413145840168,-0.13111168146133423
1782888765034300700,1.16730078125,-0.09975002706050873,0.026931483298540115,-0.1433907151222229
1782888765044279600,1.177279541015625,-0.10368405282497406,0.11222107708454132,-0.13799089193344116
1782888765054228700,1.187228759765625,-0.10346540808677673,0.13099956512451172,-0.13432185351848602
1782888765064177700,1.197177734375,-0.09389373660087585,0.08124025911092758,-0.133014515042305
1782888765074125800,1.207125732421875,-0.08381553739309311,0.01635846681892872,-0.1303446888923645
1782888765084105700,1.217105712890625,-0.07189815491437912,-0.024083765223622322,-0.13172900676727295
1782888765094053600,1.2270537109375,-0.05628591030836105,-0.043532565236091614,-0.1540582776069641
1782888765104002800,1.2370029296875,-0.04746818169951439,-0.06619127094745636,-0.19916343688964844
1782888765113951700,1.24695166015625,-0.027367975562810898,-0.09931593388319016,-0.2476566731929779
1782888765123899600,1.256899658203125,0.002284459536895156,-0.07228271663188934,-0.2841017544269562
1782888765133879600,1.266879638671875,0.04710785672068596,0.006585198454558849,-0.3111424446105957
1782888765143827700,1.27682763671875,0.10997523367404938,0.08271751552820206,-0.322475790977478
1782888765153776600,1.286776611328125,0.1501048058271408,0.15766578912734985,-0.33222055435180664
1782888765163725600,1.2967255859375,0.17929838597774506,0.18995901942253113,-0.32792913913726807
1782888765173704700,1.30670458984375,0.19074225425720215,0.1773795783519745,-0.3076787292957306
1782888765183653600,1.316653564453125,0.19241152703762054,0.15889590978622437,-0.2641757130622864
1782888765193602600,1.3266025390625,0.18361403048038483,0.16620734333992004,-0.19956690073013306
1782888765203550500,1.336550537109375,0.16628378629684448,0.15236796438694,-0.11506826430559158
1782888765213531000,1.34653076171875,0.14678864181041718,0.10179613530635834,-0.0199808981269598
1782888765223478500,1.356478515625,0.12567830085754395,0.04297542944550514,0.07088322937488556
1782888765233427700,1.366427734375,0.10713231563568115,-0.01949753426015377,0.14657345414161682
1782888765243376600,1.376376708984375,0.10326620191335678,-0.07064807415008545,0.19550052285194397
1782888765253355800,1.386355712890625,0.10662977397441864,-0.09835213422775269,0.23366709053516388
1782888765263304700,1.3963046875,0.09136666357517242,-0.11369061470031738,0.25317901372909546
1782888765273252600,1.406252685546875,0.05264483392238617,-0.11701690405607224,0.2569423019886017
1782888765283201800,1.416201904296875,0.012201538309454918,-0.09876306354999542,0.25871703028678894
1782888765293180700,1.4261806640625,-0.02293567545711994,-0.05982311815023422,0.2503645718097687
1782888765303129600,1.436129638671875,-0.056407082825899124,-0.018862903118133545,0.22628720104694366
1782888765313078500,1.44607861328125,-0.07724498957395554,0.03002314642071724,0.1897137463092804
1782888765323027700,1.45602783203125,-0.0754750519990921,0.11933811008930206,0.13735465705394745
1782888765333006600,1.466006591796875,-0.0501108393073082,0.1740407645702362,0.09527511894702911
1782888765342955500,1.47595556640625,-0.0073082465678453445,0.18488197028636932,0.06450282782316208
1782888765352903700,1.485903564453125,0.026638003066182137,0.17379336059093475,0.029223399236798286
1782888765362852600,1.4958525390625,0.04765087738633156,0.1490294337272644,-0.007462976034730673
1782888765372801800,1.5058017578125,0.06285379827022552,0.12835104763507843,-0.03437608480453491
1782888765382780700,1.51578076171875,0.07534748315811157,0.1469700038433075,-0.050402987748384476
1782888765392729900,1.525729736328125,0.07779812812805176,0.1991831362247467,-0.05631280690431595
1782888765402678800,1.5356787109375,0.06963074207305908,0.23958303034305573,-0.05399612337350845
1782888765412626700,1.545626708984375,0.0540456585586071,0.2404264509677887,-0.054069891571998596
1782888765422605800,1.555605712890625,0.029348833486437798,0.22732636332511902,-0.05354871228337288
1782888765432554800,1.5655546875,0.011864116415381432,0.20930688083171844,-0.049067944288253784
1782888765442503700,1.575503662109375,0.01414564624428749,0.2011600136756897,-0.04303508624434471
1782888765452452600,1.58545263671875,0.024217721074819565,0.19500596821308136,-0.03092649020254612
1782888765462431700,1.595431640625,0.045395445078611374,0.19764463603496552,-0.016536898910999298
1782888765472380700,1.605380615234375,0.07251787930727005,0.2013014256954193,-0.005224589258432388
1782888765482328600,1.61532861328125,0.09017276763916016,0.17513452470302582,-0.0011853729374706745
1782888765492277500,1.625277587890625,0.11098217964172363,0.12725302577018738,-0.0076177059672772884
1782888765502256600,1.635256591796875,0.13363395631313324,0.08676578849554062,-0.017903100699186325
1782888765512205600,1.64520556640625,0.16467496752738953,0.050983820110559464,-0.030946198850870132
1782888765522154500,1.655154541015625,0.18978005647659302,0.04050960764288902,-0.04536215588450432
1782888765532103700,1.665103759765625,0.20400425791740417,0.049321211874485016,-0.046668436378240585
1782888765542082600,1.67508251953125,0.2086152583360672,0.052313536405563354,-0.035459987819194794
1782888765552031700,1.68503173828125,0.20367535948753357,0.05285229533910751,-0.03142743185162544
1782888765561979600,1.694979736328125,0.20238879323005676,0.05220727622509003,-0.031987227499485016
1782888765571928800,1.7049287109375,0.2166593372821808,0.04782824218273163,-0.04459942504763603
1782888765581877800,1.714877685546875,0.24879251420497894,0.043967459350824356,-0.059242818504571915
1782888765591856600,1.724856689453125,0.27840524911880493,0.03352014347910881,-0.08014490455389023
1782888765601805600,1.7348056640625,0.30819857120513916,0.02273673750460148,-0.099542036652565
1782888765611753700,1.744753662109375,0.3238893747329712,0.023141538724303246,-0.10198228806257248
1782888765621702700,1.75470263671875,0.32541725039482117,0.02882978320121765,-0.0919048860669136
1782888765631681800,1.764681884765625,0.3184661269187927,0.024056866765022278,-0.06645039469003677
1782888765641630700,1.774630615234375,0.30548587441444397,0.0032144354190677404,-0.040875259786844254
1782888765651579600,1.78457958984375,0.2931351959705353,-0.026747990399599075,-0.01600213535130024
1782888765661528600,1.794528564453125,0.2825491428375244,-0.05716315284371376,0.004939098376780748
1782888765671507700,1.8045078125,0.272197425365448,-0.06398563832044601,0.02069089747965336
1782888765681456600,1.81445654296875,0.2621176242828369,-0.05176679044961929,0.037940192967653275
1782888765691404500,1.824404541015625,0.24972008168697357,-0.031984563916921616,0.048711348325014114
1782888765701353500,1.834353515625,0.24657835066318512,-0.02701617032289505,0.0505843460559845
1782888765711332600,1.84433251953125,0.25039172172546387,-0.018155833706259727,0.04590277746319771
1782888765721281800,1.85428173828125,0.2519550025463104,0.010836668312549591,0.035764388740062714
1782888765731230700,1.864230712890625,0.2564336359500885,0.04746205732226372,0.015055648051202297
1782888765741178600,1.8741787109375,0.26133784651756287,0.05644996091723442,-0.008441155776381493
1782888765751158800,1.88415869140625,0.26477760076522827,0.0492280013859272,-0.04237648472189903
1782888765761106700,1.894106689453125,0.26889005303382874,0.03339790552854538,-0.07546093314886093
1782888765771055600,1.9040556640625,0.2673901617527008,0.012199941091239452,-0.1114620789885521
1782888765781004500,1.914004638671875,0.2641903758049011,-0.006376406643539667,-0.1415637880563736
1782888765790983700,1.923983642578125,0.25351136922836304,-0.007843275554478168,-0.16178783774375916
1782888765800932600,1.9339326171875,0.23402021825313568,-0.0005558017292059958,-0.17682191729545593
1782888765810881500,1.943881591796875,0.21204407513141632,0.02707875519990921,-0.19002799689769745
1782888765820829700,1.95382958984375,0.1908154934644699,0.09764666110277176,-0.20955535769462585
1782888765830778600,1.963778564453125,0.17420083284378052,0.15641650557518005,-0.2323397696018219
1782888765840757500,1.973757568359375,0.16752001643180847,0.16359132528305054,-0.26649001240730286
1782888765850706700,1.983706787109375,0.18081185221672058,0.14809225499629974,-0.297564834356308
1782888765860655900,1.99365576171875,0.2045622020959854,0.1267550140619278,-0.31573158502578735
1782888765870621700,2.00362158203125,0.22508504986763,0.09624983370304108,-0.3310796618461609
1782888765880600600,2.0136005859375,0.24702443182468414,0.057141583412885666,-0.3338213860988617
1782888765890550000,2.023550048828125,0.2683771252632141,0.02641403116285801,-0.3329784870147705
1782888765900497700,2.03349755859375,0.2915777862071991,0.009504023008048534,-0.3189159333705902
1782888765910446800,2.04344677734375,0.3227170705795288,0.017978467047214508,-0.2920401096343994
1782888765920426000,2.053426025390625,0.35302382707595825,0.031261783093214035,-0.2465599775314331
1782888765930375000,2.063375,0.36836257576942444,0.025371136143803596,-0.19211430847644806
1782888765940323800,2.07332373046875,0.37063878774642944,0.017136642709374428,-0.13355885446071625
1782888765950271700,2.083271728515625,0.3533809781074524,0.007947138510644436,-0.07855819165706635
1782888765960252000,2.093251953125,0.32755255699157715,-0.003605387406423688,-0.035285286605358124
1782888765970199800,2.10319970703125,0.300855427980423,-0.004825115203857422,0.001981924520805478
1782888765980148700,2.113148681640625,0.2773341238498688,0.011259579099714756,0.03827335312962532
1782888765990097700,2.12309765625,0.25940707325935364,0.0510844886302948,0.07251707464456558
1782888766000076800,2.133076904296875,0.2372026890516281,0.08815941959619522,0.09500134736299515
1782888766010025700,2.143025634765625,0.21756374835968018,0.11716897040605545,0.11257448047399521
1782888766019974700,2.152974609375,0.2016092836856842,0.14836150407791138,0.1242082342505455
1782888766029922800,2.1629228515625,0.18529555201530457,0.16012336313724518,0.1306869089603424
1782888766039871700,2.172871826171875,0.16561026871204376,0.1504049450159073,0.12763093411922455
1782888766049850600,2.1828505859375,0.14718998968601227,0.12617871165275574,0.11770878732204437
1782888766059799800,2.1927998046875,0.1449771672487259,0.09996041655540466,0.10441216081380844
1782888766069749000,2.2027490234375,0.14987178146839142,0.07595202326774597,0.08838019520044327
1782888766079697000,2.21269677734375,0.16597884893417358,0.05347893759608269,0.06977082788944244
1782888766089676800,2.2226767578125,0.19133959710597992,0.04575497284531593,0.051240816712379456
1782888766099625000,2.232625,0.21980905532836914,0.06204739212989807,0.029995182529091835
1782888766109574000,2.242573974609375,0.24219799041748047,0.06320000439882278,0.003099919529631734
1782888766119522800,2.252522705078125,0.25980520248413086,0.038477350026369095,-0.025110678747296333
1782888766129501700,2.262501708984375,0.26611343026161194,0.027574902400374413,-0.05474047735333443
1782888766139451000,2.272450927734375,0.26423218846321106,0.02665957435965538,-0.07937498390674591
1782888766149399800,2.28239990234375,0.2511241137981415,0.00902465358376503,-0.11080534011125565
1782888766159347700,2.29234765625,0.23989062011241913,-0.03267405554652214,-0.14006070792675018
1782888766169327600,2.30232763671875,0.23941124975681305,-0.04904956743121147,-0.15804237127304077
1782888766179275800,2.31227587890625,0.24944311380386353,-0.032715070992708206,-0.16596366465091705
1782888766189224700,2.322224609375,0.25536811351776123,-0.0035111114848405123,-0.17277763783931732
1782888766199173600,2.332173583984375,0.25526025891304016,0.009576461277902126,-0.18264810740947723
1782888766209152800,2.34215283203125,0.2576211392879486,0.006039782892912626,-0.1851821094751358
1782888766219102000,2.35210205078125,0.2507536709308624,-0.001960352761670947,-0.18231068551540375
1782888766229049600,2.362049560546875,0.23852922022342682,-0.027209250256419182,-0.17534439265727997
1782888766238998800,2.371998779296875,0.2208263874053955,-0.051600344479084015,-0.1659381091594696
1782888766248978000,2.38197802734375,0.20650577545166016,-0.07652407139539719,-0.15348036587238312
1782888766258926800,2.3919267578125,0.19353324174880981,-0.10044804215431213,-0.14689411222934723
1782888766268875800,2.401875732421875,0.19216731190681458,-0.1215919479727745,-0.1426439732313156
1782888766278824700,2.41182470703125,0.18945755064487457,-0.11063836514949799,-0.13013136386871338
1782888766288772900,2.42177294921875,0.17569325864315033,-0.0644809901714325,-0.10728012025356293
1782888766298752800,2.431752685546875,0.1528358906507492,0.002831739140674472,-0.08354948461055756
1782888766308700700,2.44170068359375,0.1263587325811386,0.047516919672489166,-0.06619419902563095
1782888766318649900,2.45164990234375,0.10505557805299759,0.05483102425932884,-0.054188668727874756
1782888766328598800,2.461598876953125,0.09206361323595047,0.06205564737319946,-0.039455264806747437
1782888766338577700,2.47157763671875,0.08770056068897247,0.06751725822687149,-0.023241672664880753
1782888766348526600,2.481526611328125,0.08345974236726761,0.052210208028554916,-0.007752195466309786
1782888766358475800,2.491475830078125,0.0818040519952774,0.029153624549508095,0.0038003309164196253
1782888766368423700,2.501423583984375,0.07660955935716629,0.002263420494273305,0.0070890686474740505
1782888766378403800,2.51140380859375,0.07416903227567673,-0.03014565259218216,0.009246495552361012
1782888766388351700,2.521351806640625,0.0709679126739502,-0.0498112328350544,0.00643686018884182
1782888766398301000,2.531301025390625,0.07637253403663635,-0.042454782873392105,-0.003757720347493887
1782888766408249900,2.541249755859375,0.09283886104822159,-0.024466993287205696,-0.00788428820669651
1782888766418229000,2.55122900390625,0.11573059111833572,0.0003099919413216412,0.0023076289799064398
1782888766428178000,2.561177978515625,0.1373986005783081,0.02634904906153679,0.02755279839038849
1782888766438125800,2.571125732421875,0.14954102039337158,0.02919011004269123,0.05856237933039665
1782888766448074800,2.58107470703125,0.14414837956428528,0.012047075666487217,0.09186281263828278
1782888766458054000,2.591053955078125,0.13046640157699585,-0.009706955403089523,0.1272868514060974
1782888766468002800,2.6010029296875,0.1116490364074707,-0.0442124679684639,0.15585830807685852
1782888766477951700,2.61095166015625,0.09297015517950058,-0.07884714752435684,0.17593933641910553
1782888766487900700,2.620900634765625,0.0813441276550293,-0.09768527746200562,0.18684737384319305
1782888766497848800,2.630848876953125,0.079227976500988,-0.11162586510181427,0.19078859686851501
1782888766507828700,2.640828857421875,0.08421740680932999,-0.12132482975721359,0.18534429371356964
1782888766517776600,2.650776611328125,0.09536673128604889,-0.1314680129289627,0.18033622205257416
1782888766527725800,2.660725830078125,0.11060240864753723,-0.1303023397922516,0.17840516567230225
1782888766537675000,2.670675048828125,0.11692928522825241,-0.12139620631933212,0.1785324662923813
1782888766547653600,2.680653564453125,0.10821515321731567,-0.1286727637052536,0.17378243803977966
1782888766557602800,2.690602783203125,0.09102284908294678,-0.15170830488204956,0.16513116657733917
1782888766567551000,2.700551025390625,0.0676613375544548,-0.16819380223751068,0.1584295928478241
1782888766577500000,2.7105,0.041063811630010605,-0.15656697750091553,0.15401460230350494
1782888766587478800,2.720478759765625,0.023092802613973618,-0.13771632313728333,0.1581355780363083
1782888766597428000,2.730427978515625,0.010191651061177254,-0.13855361938476562,0.17547062039375305
1782888766607377000,2.740376953125,0.0021113541442900896,-0.12293071299791336,0.1972837746143341
1782888766617325800,2.750325927734375,-0.012091283686459064,-0.08682224899530411,0.22422777116298676
1782888766627304700,2.7603046875,-0.027934694662690163,-0.05837782099843025,0.24379988014698029
1782888766637254000,2.77025390625,-0.036624591797590256,-0.03869786113500595,0.24752457439899445
1782888766647201800,2.780201904296875,-0.04024302586913109,-0.03123195469379425,0.23010137677192688
1782888766657150700,2.790150634765625,-0.03399445116519928,-0.06377871334552765,0.19561077654361725
1782888766667129900,2.8001298828125,-0.018691396340727806,-0.1336994767189026,0.1498158574104309
1782888766677078800,2.810078857421875,0.0017728663515299559,-0.1771974116563797,0.1074897050857544
1782888766687027700,2.82002783203125,0.019938288256525993,-0.18134555220603943,0.06238001957535744
1782888766696977000,2.829976806640625,0.040281910449266434,-0.16687926650047302,0.012369850650429726
1782888766706924800,2.8399248046875,0.06373343616724014,-0.13158093392848969,-0.05209622532129288
1782888766716903700,2.849903564453125,0.08768191188573837,-0.07271494716405869,-0.10979653894901276
1782888766726852900,2.859852783203125,0.10799916833639145,-0.03521258011460304,-0.14573056995868683
1782888766736801800,2.8698017578125,0.11505681276321411,0.007751396391540766,-0.14120133221149445
1782888766746750700,2.879750732421875,0.10797387361526489,0.08904651552438736,-0.10182037204504013
1782888766756729900,2.889729736328125,0.07781650125980377,0.13534744083881378,-0.0429711677134037
1782888766766678800,2.8996787109375,0.03144953399896622,0.10767080634832382,0.018726816400885582
1782888766776627000,2.909626953125,-0.01793026365339756,0.06315553188323975,0.07742821425199509
1782888766786576000,2.919575927734375,-0.04942267760634422,0.012437760829925537,0.11944250762462616
1782888766796554800,2.9295546875,-0.05866784229874611,-0.044080376625061035,0.13334234058856964
1782888766806503700,2.939503662109375,-0.04507160559296608,-0.0716017484664917,0.11815913021564484
1782888766816452900,2.949452880859375,-0.018432803452014923,-0.06790794432163239,0.07893050462007523
1782888766826401800,2.95940185546875,0.008156197145581245,-0.04913745075464249,0.02732137031853199
1782888766836380700,2.969380615234375,0.03365356847643852,-0.031436752527952194,-0.025828933343291283
1782888766846329600,2.97932958984375,0.0538637638092041,-0.001359277404844761,-0.07370831072330475
1782888766856277800,2.98927783203125,0.060390640050172806,0.022424349561333656,-0.10992170870304108
1782888766866256000,2.999255859375,0.052149221301078796,0.03771542012691498,-0.12223003804683685
1782888766876234800,3.00923486328125,0.04156981408596039,0.06138665974140167,-0.12262791395187378
1782888766886183700,3.01918359375,0.023780163377523422,0.06151209771633148,-0.1105123981833458
1782888766896132600,3.029132568359375,0.010996724478900433,0.028728051111102104,-0.09921473264694214
1782888766906080800,3.039080810546875,0.008506668731570244,-0.010803645476698875,-0.0803465023636818
1782888766916060700,3.049060791015625,0.015573101118206978,-0.04237861558794975,-0.06680672615766525
1782888766926008600,3.059008544921875,0.027530960738658905,-0.06504397839307785,-0.06084790453314781
1782888766935957800,3.068957763671875,0.043228428810834885,-0.07735151052474976,-0.0656525120139122
1782888766945906700,3.07890673828125,0.05759911239147186,-0.07836884260177612,-0.07472004741430283
1782888766955855600,3.088855712890625,0.06387671828269958,-0.048280712217092514,-0.08606324344873428
1782888766965834500,3.09883447265625,0.060497697442770004,0.00015659387281630188,-0.09817157685756683
1782888766975784000,3.108783935546875,0.042152248322963715,0.019842680543661118,-0.11107991635799408
1782888766985731600,3.118731689453125,0.027411118149757385,0.018577678129076958,-0.12319330126047134
1782888766995680800,3.1286806640625,0.022589998319745064,0.02027198113501072,-0.12764744460582733
1782888767005660000,3.138659912109375,0.02243713289499283,0.013132579624652863,-0.12647219002246857
1782888767015608800,3.14860888671875,0.03543921560049057,0.010342385619878769,-0.12010084092617035
1782888767025557800,3.158557861328125,0.04770813509821892,-0.01064944826066494,-0.11216329038143158
1782888767035505700,3.168505615234375,0.05446377396583557,-0.047575775533914566,-0.10552483052015305
1782888767045485800,3.17848583984375,0.05594342574477196,-0.0394723080098629,-0.10311014205217361
1782888767055433700,3.188433837890625,0.04424389451742172,0.004904477391391993,-0.09103430062532425
1782888767065382700,3.198382568359375,0.027051590383052826,0.05043894052505493,-0.08033771812915802
1782888767075331600,3.20833154296875,0.010894992388784885,0.07244384288787842,-0.07576986402273178
1782888767085310700,3.218310791015625,-0.004159324802458286,0.06870316714048386,-0.07797416299581528
1782888767095259600,3.228259765625,-0.010120810940861702,0.048295095562934875,-0.085233673453331
1782888767105208600,3.23820849609375,-0.007692806888371706,0.0329185351729393,-0.09213338792324066
1782888767115156700,3.24815673828125,-0.0017646105261519551,0.020548950880765915,-0.09474968165159225
1782888767125136600,3.25813671875,0.004138818476349115,0.012455071322619915,-0.10080491006374359
1782888767135084500,3.26808447265625,0.01143002137541771,0.0022184131667017937,-0.10290534049272537
1782888767145033500,3.278033447265625,0.023637419566512108,-0.019099924713373184,-0.1066604033112526
1782888767154983000,3.28798291015625,0.040229976177215576,-0.05222965031862259,-0.1115395799279213
1782888767164931800,3.297931884765625,0.05301181972026825,-0.07423880696296692,-0.108452707529068
1782888767174910700,3.30791064453125,0.06483998149633408,-0.06287270784378052,-0.0994136705994606
1782888767184859600,3.317859619140625,0.06716545671224594,-0.02659778855741024,-0.08629467338323593
1782888767194807800,3.327807861328125,0.06546928733587265,-0.009643572382628918,-0.07122863829135895
1782888767204756700,3.3377568359375,0.05265815183520317,0.010674215853214264,-0.05624542757868767
1782888767214736000,3.34773583984375,0.030003705993294716,0.05432262644171715,-0.03293078392744064
1782888767224684800,3.357684814453125,-0.0002234392159152776,0.0781983956694603,-0.002584864152595401
1782888767234633700,3.3676337890625,-0.031557127833366394,0.07028242200613022,0.03063700534403324
1782888767244581600,3.37758154296875,-0.04982614517211914,0.04843171313405037,0.059410061687231064
1782888767254561500,3.3875615234375,-0.0500812754034996,0.0241351630538702,0.07673153281211853
1782888767264509700,3.397509765625,-0.04142094403505325,0.00004713794987765141,0.08880151063203812
1782888767274458600,3.407458740234375,-0.0244936253875494,-0.01570546068251133,0.09041059017181396
1782888767284407600,3.417407470703125,-0.019770774990320206,-0.018673818558454514,0.08375508338212967
1782888767294386700,3.42738671875,-0.01818273216485977,-0.008533300831913948,0.055927447974681854
1782888767304335600,3.437335693359375,-0.01895291917026043,0.004004062619060278,0.02588432841002941
1782888767314284800,3.447284912109375,-0.02202514186501503,0.029150694608688354,-0.0077471355907619
1782888767324232700,3.457232666015625,-0.03169534355401993,0.05847236514091492,-0.036975327879190445
1782888767334212900,3.467212890625,-0.03786828741431236,0.08306878805160522,-0.04939737543463707
1782888767344160800,3.477160888671875,-0.04019961878657341,0.09561733901500702,-0.053582001477479935
1782888767354109700,3.487109619140625,-0.03551352024078369,0.07824686914682388,-0.052139632403850555
1782888767364058600,3.49705859375,-0.024518925696611404,0.028439629822969437,-0.05463315173983574
1782888767374037800,3.507037841796875,-0.009191634133458138,-0.019937222823500633,-0.05010604485869408
1782888767383986700,3.516986572265625,0.005335377063602209,-0.047562725841999054,-0.05349891260266304
1782888767393934800,3.526934814453125,0.009832390584051609,-0.024333301931619644,-0.051126834005117416
1782888767403883800,3.5368837890625,0.007326888851821423,0.0149813462048769,-0.04032212123274803
1782888767413832700,3.546832763671875,-0.0060211410745978355,0.05186665803194046,-0.03428367152810097
1782888767423811600,3.5568115234375,-0.013832191936671734,0.06662483513355255,-0.034266628324985504
1782888767433760800,3.5667607421875,-0.010271811857819557,0.06507141143083572,-0.03882915526628494
1782888767443709700,3.576709716796875,0.0020698087755590677,0.0435035340487957,-0.03809518739581108
1782888767453657600,3.58665771484375,0.01685594581067562,0.03154940530657768,-0.03958256170153618
1782888767463637500,3.596637451171875,0.030886543914675713,0.015215437859296799,-0.039559125900268555
1782888767473585700,3.606585693359375,0.03742460533976555,-0.005800365004688501,-0.043289415538311005
1782888767483534800,3.616534912109375,0.04664792865514755,-0.018388062715530396,-0.04385161027312279
1782888767493483800,3.62648388671875,0.05468881130218506,-0.019777433946728706,-0.05435511842370033
1782888767503463000,3.636462890625,0.06166922301054001,-0.028598621487617493,-0.06708928942680359
1782888767513411800,3.646411865234375,0.0655374675989151,-0.027532825246453285,-0.07848868519067764
1782888767523359700,3.65635986328125,0.07037855684757233,0.008590025827288628,-0.07522205263376236
1782888767533308700,3.66630859375,0.07023368030786514,0.05239929258823395,-0.06042472645640373
1782888767543287800,3.676287841796875,0.06280399858951569,0.07696589082479477,-0.03870638459920883
1782888767553236700,3.68623681640625,0.04743222892284393,0.06325806677341461,-0.021977471187710762
1782888767563185700,3.696185546875,0.03764830902218819,0.03311667591333389,-0.00797563511878252
1782888767573134600,3.706134521484375,0.02961142174899578,0.009738647378981113,0.001606685109436512
1782888767583113700,3.71611376953125,0.031325697898864746,0.0017411747248843312,0.003480218816548586
1782888767593062700,3.726062744140625,0.03567437455058098,-0.0044381581246852875,-0.004856273997575045
1782888767603010600,3.736010498046875,0.0466734953224659,0.0026290726382285357,-0.017249293625354767
1782888767612959700,3.745959716796875,0.06395314633846283,0.026852652430534363,-0.033371273428201675
1782888767622908700,3.75590869140625,0.08007778972387314,0.038784947246313095,-0.04057778790593147
1782888767632887600,3.765887451171875,0.08944572508335114,0.04737790301442146,-0.03633350506424904
1782888767642836700,3.775836669921875,0.08124851435422897,0.045641787350177765,-0.03145353123545647
1782888767652785700,3.78578564453125,0.07018867880105972,0.03886537253856659,-0.017062339931726456
1782888767662733800,3.79573388671875,0.054840344935655594,0.03693404793739319,0.004887699615210295
1782888767672713700,3.805713623046875,0.0448463000357151,0.03731488063931465,0.02309706248342991
1782888767682662000,3.815661865234375,0.03672099485993385,0.02803243324160576,0.03839026391506195
1782888767692610800,3.82561083984375,0.03244156390428543,0.023673105984926224,0.04351605102419853
1782888767702559700,3.835559814453125,0.03008972480893135,0.02070314809679985,0.04123079404234886
1782888767712538600,3.84553857421875,0.036848559975624084,0.026695793494582176,0.02461666241288185
1782888767722487800,3.85548779296875,0.04399515315890312,0.026993799954652786,0.0003712446487043053
1782888767732435700,3.865435791015625,0.051425106823444366,0.0417674221098423,-0.017975006252527237
1782888767742384600,3.875384521484375,0.05252499133348465,0.062429822981357574,-0.03578729182481766
1782888767752363800,3.88536376953125,0.05011776089668274,0.07553603500127792,-0.04084783047437668
1782888767762312700,3.895312744140625,0.042520564049482346,0.0819646418094635,-0.041012149304151535
1782888767772261600,3.90526171875,0.03303757682442665,0.0929749459028244,-0.03614548593759537
1782888767782210600,3.91521044921875,0.03556172177195549,0.09679711610078812,-0.022972960025072098
1782888767792189700,3.925189697265625,0.0447126105427742,0.09753001481294632,-0.009357815608382225
1782888767802139000,3.935138916015625,0.05362354591488838,0.0902758315205574,0.014356568455696106
1782888767812086800,3.945086669921875,0.06042339652776718,0.07267020642757416,0.0395205095410347
1782888767822035700,3.95503564453125,0.06521096080541611,0.05141019448637962,0.06418804079294205
1782888767832014800,3.965014892578125,0.06742804497480392,0.03031955659389496,0.08738657087087631
1782888767841963800,3.9749638671875,0.06440828740596771,0.017242902889847755,0.1056918054819107
1782888767851912700,3.98491259765625,0.06010248512029648,0.018910041078925133,0.1123875305056572
1782888767861860900,3.99486083984375,0.05141019448637962,0.02425101026892662,0.10990066826343536
1782888767871818500,4.004818603515625,0.042386606335639954,0.02955416403710842,0.09267693758010864
1782888767881797600,4.014797607421875,0.037462953478097916,0.043299537152051926,0.07350564002990723
1782888767891746600,4.02474658203125,0.03573456034064293,0.061817560344934464,0.05249037221074104
1782888767901695500,4.034695556640625,0.03922383487224579,0.06565357744693756,0.03398166969418526
1782888767911644400,4.04464453125,0.0447152741253376,0.061220746487379074,0.013787451200187206
1782888767921623600,4.05462353515625,0.05115985497832298,0.04795287922024727,-0.0038543930277228355
1782888767931572500,4.064572509765625,0.05598071217536926,0.035528168082237244,-0.01853613369166851
1782888767941520400,4.074520263671875,0.058877699077129364,0.03467355668544769,-0.02491760067641735
1782888767951469600,4.084469482421875,0.05342034623026848,0.0411469042301178,-0.017672736197710037
1782888767961448400,4.094448486328125,0.04114503785967827,0.044132307171821594,-0.009814547374844551
1782888767971397600,4.104397705078125,0.027057450264692307,0.043646279722452164,-0.0009081379394046962
1782888767981346600,4.1143466796875,0.013680391944944859,0.03545546159148216,0.005209143273532391
1782888767991295500,4.12429541015625,0.006866428069770336,0.02369946986436844,0.005139101762324572
1782888768001274600,4.134274658203125,0.005387042183429003,0.004628307651728392,-0.004671184346079826
1782888768011222500,4.144222412109375,0.011051319539546967,-0.004719121381640434,-0.01950099691748619
1782888768021171500,4.15417138671875,0.02292795293033123,0.0062421830371022224,-0.027355724945664406
1782888768031120600,4.16412060546875,0.03147377073764801,0.021028585731983185,-0.028438832610845566
1782888768041099500,4.174099609375,0.035165444016456604,0.015308648347854614,-0.028485437855124474
1782888768051048400,4.18404833984375,0.030349649488925934,-0.005033107940107584,-0.027959728613495827
1782888768060997400,4.193997314453125,0.015844210982322693,-0.02052205242216587,-0.033791251480579376
1782888768070945500,4.203945556640625,0.004715392831712961,-0.028388498350977898,-0.0450870506465435
1782888768080894500,4.21389453125,-0.005564408842474222,-0.034936677664518356,-0.06115283444523811
1782888768090873600,4.22387353515625,-0.000020240024241502397,-0.024958878755569458,-0.0766574963927269
1782888768100822500,4.233822509765625,0.010694722644984722,-0.0011760519118979573,-0.09034907072782516
1782888768110771700,4.243771728515625,0.03067801706492901,0.01236239355057478,-0.104827880859375
1782888768120720600,4.253720703125,0.04622768238186836,0.01239275373518467,-0.11282695084810257
1782888768130699500,4.263699462890625,0.055746886879205704,0.027057716622948647,-0.1026880294084549
1782888768140648700,4.273648681640625,0.050690341740846634,0.063817597925663,-0.07864394783973694
1782888768150596600,4.2835966796875,0.03687572479248047,0.09109635651111603,-0.040895234793424606
1782888768160545500,4.293545654296875,0.02748701721429825,0.08890723437070847,0.009229983203113079
1782888768170524700,4.303524658203125,0.021100224927067757,0.07912890613079071,0.05717087909579277
1782888768180473600,4.3134736328125,0.01552596315741539,0.04659653082489967,0.09515794366598129
1782888768190422500,4.323422607421875,0.015397598035633564,0.02070714347064495,0.1204233467578888
1782888768200370400,4.333370361328125,0.016586700454354286,0.017368869855999947,0.131968691945076
1782888768210350600,4.3433505859375,0.018435467034578323,0.028859611600637436,0.1265542060136795
1782888768220298500,4.353298583984375,0.024155670776963234,0.03843260928988457,0.10362173616886139
1782888768230247400,4.363247314453125,0.033189643174409866,0.03750289976596832,0.07168537378311157
1782888768240196400,4.3731962890625,0.04316478222608566,0.03298351541161537,0.03359577804803848
1782888768250175500,4.383175537109375,0.052614476531744,0.020253606140613556,0.0016024239594116807
1782888768260124400,4.39312451171875,0.0566859170794487,0.01125105656683445,-0.02093644067645073
1782888768270073600,4.403073486328125,0.055093612521886826,0.012783972546458244,-0.02996056154370308
1782888768280021500,4.413021484375,0.04634725674986839,0.007386277429759502,-0.035108186304569244
1782888768290001700,4.423001708984375,0.034263964742422104,-0.01278903242200613,-0.04164411500096321
1782888768299949600,4.432949462890625,0.022009694948792458,-0.024779116734862328,-0.045210886746644974
1782888768309898500,4.4428984375,0.016395218670368195,-0.011640144512057304,-0.0348498597741127
1782888768319847700,4.45284765625,0.010397247038781643,0.01389717310667038,-0.013065202161669731
1782888768329795600,4.462795654296875,0.0026082999538630247,0.040101878345012665,0.012102468870580196
1782888768339775500,4.472775390625,-0.005573729984462261,0.05257346108555794,0.036864541471004486
1782888768349723600,4.4827236328125,-0.008769256994128227,0.04151415452361107,0.05348799377679825
1782888768359672600,4.492672607421875,-0.008477640338242054,0.015899870544672012,0.06285033375024796
1782888768369621500,4.50262158203125,-0.0013821806060150266,-0.01254269015043974,0.05968250334262848
1782888768379600600,4.5126005859375,0.00035420042695477605,-0.037689320743083954,0.041192974895238876
1782888768389549600,4.522549560546875,0.00003781688792514615,-0.03473347797989845,0.017775801941752434
1782888768399498500,4.53249853515625,0.0010793792316690087,-0.02239079214632511,-0.007727694697678089
1782888768409446400,4.5424462890625,-0.0035502600949257612,0.007619570009410381,-0.036069322377443314
1782888768419426600,4.552426513671875,-0.0041675809770822525,0.029099294915795326,-0.05850885063409805
1782888768429374500,4.56237451171875,-0.0013195963110774755,0.04651530459523201,-0.06868638843297958
1782888768439323400,4.572323486328125,-0.002351038623601198,0.06495236605405807,-0.06403171271085739
1782888768449272600,4.5822724609375,-0.004604605492204428,0.05998237803578377,-0.05264989659190178
1782888768459251700,4.592251708984375,-0.0032445292454212904,0.043108854442834854,-0.037698641419410706
1782888768469200600,4.60220068359375,0.0036903421860188246,0.02839622087776661,-0.01013945322483778
1782888768479149600,4.612149658203125,0.013018064200878143,0.02020833268761635,0.01341807097196579
1782888768489097500,4.622097412109375,0.015165104530751705,0.014412228949368,0.028499018400907516
1782888768499076600,4.63207666015625,0.01661466248333454,0.036489300429821014,0.04620610922574997
1782888768509025500,4.642025634765625,0.021283717826008797,0.07870626449584961,0.05891871079802513
1782888768518974500,4.651974365234375,0.023244602605700493,0.10787320137023926,0.06721419095993042
1782888768528923400,4.66192333984375,0.02189997211098671,0.1038702055811882,0.06361040472984314
1782888768538871600,4.67187158203125,0.023010244593024254,0.08048392087221146,0.05036916583776474
1782888768548851500,4.6818515625,0.02690405212342739,0.08285413682460785,0.03891677409410477
1782888768558799600,4.691799560546875,0.03197551146149635,0.08387945592403412,0.02918478287756443
1782888768568748500,4.70174853515625,0.030907582491636276,0.08165624737739563,0.022529810667037964
1782888768578697500,4.711697509765625,0.03353026136755943,0.07659038156270981,0.009375392459332943
1782888768588676400,4.72167626953125,0.0371905118227005,0.0669872909784317,-0.005829127039760351
1782888768598625500,4.73162548828125,0.048743836581707,0.05685050040483475,-0.02203046716749668
1782888768608574700,4.74157470703125,0.06345780193805695,0.03380483388900757,-0.04137992858886719
1782888768618522600,4.751522705078125,0.07618185132741928,0.00947978813201189,-0.055935971438884735
1782888768628502500,4.76150244140625,0.08150631189346313,-0.00017070861940737814,-0.06309694051742554
1782888768638450700,4.77145068359375,0.08021840453147888,0.0003480751474853605,-0.05975600704550743
1782888768648399600,4.781399658203125,0.07951399683952332,0.0020072245970368385,-0.05053454637527466
1782888768658348500,4.7913486328125,0.08265333622694016,0.02089116722345352,-0.02274818904697895
1782888768668327700,4.80132763671875,0.08748137950897217,0.05503715202212334,0.011800467036664486
1782888768678276600,4.811276611328125,0.07705483585596085,0.06923553347587585,0.04941175878047943
1782888768688224500,4.821224609375,0.06373903155326843,0.06234673038125038,0.08562222868204117
1782888768698173400,4.83117333984375,0.05114174634218216,0.04452698677778244,0.11702435463666916
1782888768708152600,4.841152587890625,0.04011918976902962,0.016817329451441765,0.12590786814689636
1782888768718101500,4.8511015625,0.03659849241375923,-0.007764712441712618,0.12180259823799133
1782888768728050400,4.861050537109375,0.0380091667175293,-0.0054450989700853825,0.10865430533885956
1782888768737999400,4.870999267578125,0.04031439870595932,0.02376658283174038,0.08853652328252792
1782888768747978500,4.880978515625,0.04466520622372627,0.049967825412750244,0.06610631197690964
1782888768757927700,4.890927734375,0.05051031336188316,0.06912980228662491,0.040767136961221695
1782888768767875300,4.900875244140625,0.05578736588358879,0.08608721196651459,0.02317695878446102
1782888768777824800,4.91082470703125,0.05949661508202553,0.10287578403949738,0.01701999641954899
1782888768787773700,4.920773681640625,0.06142207980155945,0.10807826370000839,0.025679796934127808
1782888768797752600,4.930752685546875,0.06247776001691818,0.11037444323301315,0.045760296285152435
1782888768807701500,4.940701416015625,0.06101168692111969,0.1179114580154419,0.08032652735710144
1782888768817649700,4.950649658203125,0.0620974600315094,0.12331368029117584,0.1210920661687851
1782888768827598600,4.9605986328125,0.06161649152636528,0.11722249537706375,0.15684793889522552
1782888768837577500,4.970577392578125,0.06826160848140717,0.09310703724622726,0.1736021488904953
1782888768847526700,4.980526611328125,0.07550061494112015,0.06939558684825897,0.181413471698761
1782888768857475600,4.9904755859375,0.08373617380857468,0.063341423869133,0.1727941483259201
1782888768867424500,5.000424560546875,0.08267277479171753,0.07133037596940994,0.15063931047916412
1782888768877418200,5.010418212890625,0.0775243490934372,0.0869695171713829,0.12282605469226837
1782888768887367200,5.0203671875,0.06408391147851944,0.09793508797883987,0.08929392695426941
1782888768897315300,5.0303154296875,0.055635832250118256,0.09943684190511703,0.053814228624105453
1782888768907264300,5.04026416015625,0.04379834607243538,0.10514825582504272,0.02047038823366165
1782888768917243100,5.0502431640625,0.034212563186883926,0.10607210546731949,-0.013470268808305264
1782888768927192300,5.0601923828125,0.0334026962518692,0.09399227797985077,-0.03822221979498863
1782888768937141200,5.070141357421875,0.03855591267347336,0.08488373458385468,-0.06415661424398422
1782888768947090200,5.080090087890625,0.043769583106040955,0.07573071122169495,-0.082852803170681
1782888768957069000,5.090069091796875,0.054796136915683746,0.0717407688498497,-0.0807529017329216
1782888768967018200,5.100018310546875,0.06097147613763809,0.08786700665950775,-0.06199599429965019
1782888768976966100,5.109966064453125,0.06100156903266907,0.10807693749666214,-0.029617812484502792
1782888768986915000,5.1199150390625,0.05409359559416771,0.11765126883983612,0.01044491771608591
1782888768996864000,5.129864013671875,0.0462133027613163,0.10693630576133728,0.04952361062169075
1782888769006843100,5.139843017578125,0.037145502865314484,0.08238381892442703,0.08628668636083603
1782888769016792000,5.1497919921875,0.020128970965743065,0.04837871715426445,0.1082492396235466
1782888769026740000,5.159739990234375,0.0041044638492167,0.016804546117782593,0.12355416268110275
1782888769036689400,5.169689453125,-0.008795355446636677,0.00130947632715106,0.1305931657552719
1782888769046668000,5.17966796875,-0.008683502674102783,0.00464694993570447,0.1239674836397171
1782888769056617200,5.1896171875,0.007209177128970623,0.01847754418849945,0.10746893286705017
1782888769066566100,5.199566162109375,0.03323518484830856,0.04771878570318222,0.09075386822223663
1782888769076515000,5.20951513671875,0.052747368812561035,0.06675772368907928,0.07262520492076874
1782888769086494200,5.219494140625,0.059605274349451065,0.05176492780447006,0.047016244381666183
1782888769096443100,5.229443115234375,0.05680575966835022,0.015567773953080177,0.025465145707130432
1782888769106391300,5.239391357421875,0.03681953251361847,-0.020316990092396736,0.0009451558580622077
1782888769116340200,5.24934033203125,0.010232130996882915,-0.06449776887893677,-0.02846200205385685
1782888769126319000,5.259319091796875,-0.0051657333970069885,-0.08867047727108002,-0.053162019699811935
1782888769136268000,5.26926806640625,-0.0072869411669671535,-0.06192302331328392,-0.06722457706928253
1782888769146217200,5.27921728515625,-0.000669518718495965,-0.0036517265252768993,-0.0684024915099144
1782888769156165000,5.2891650390625,0.0073226275853812695,0.03989734873175621,-0.06383783370256424
1782888769166145000,5.29914501953125,0.001680454588495195,0.03737107291817665,-0.06198187917470932
1782888769176093200,5.30909326171875,-0.012178102508187294,-0.004826979245990515,-0.06657343357801437
1782888769186042000,5.3190419921875,-0.024271251633763313,-0.05313831940293312,-0.07398714125156403
1782888769195991300,5.3289912109375,-0.03467915207147598,-0.07733633369207382,-0.0787387564778328
1782888769205970200,5.33897021484375,-0.04339674115180969,-0.06323117017745972,-0.08033212274312973
1782888769215919400,5.34891943359375,-0.040892839431762695,-0.03496943414211273,-0.07846365123987198
1782888769225868300,5.358868408203125,-0.02870594710111618,-0.0031286815647035837,-0.0694725513458252
1782888769235816200,5.368816162109375,-0.014516890980303288,0.017305754125118256,-0.055798549205064774
1782888769245765000,5.37876513671875,-0.004658401478081942,0.011080880649387836,-0.03905605524778366
1782888769255744300,5.388744140625,-0.002543851500377059,-0.019030949100852013,-0.024211596697568893
1782888769265693200,5.398693115234375,-0.005824599415063858,-0.053098905831575394,-0.009830792434513569
1782888769275642000,5.40864208984375,-0.008863532915711403,-0.06737078726291656,0.006542321294546127
1782888769285591000,5.418591064453125,-0.01968289166688919,-0.07833661884069443,0.019289808347821236
1782888769295570200,5.428570068359375,-0.028383970260620117,-0.09463835507631302,0.021404623985290527
1782888769305519000,5.43851904296875,-0.025175927206873894,-0.09993857890367508,0.010586597956717014
1782888769315467000,5.448467041015625,-0.01643197052180767,-0.09351157397031784,-0.005528988782316446
1782888769325416200,5.458416259765625,-0.008814530447125435,-0.09626128524541855,-0.03051849454641342
1782888769335395000,5.46839501953125,-0.0015033544041216373,-0.10577862709760666,-0.05374738574028015
1782888769345344000,5.478343994140625,0.0038983351550996304,-0.10993209481239319,-0.06798411160707474
1782888769355293200,5.488293212890625,0.0035750274546444416,-0.10329017043113708,-0.06921795010566711
1782888769365241000,5.498240966796875,0.0014058827655389905,-0.08970565348863602,-0.062195729464292526
1782888769375221200,5.50822119140625,0.005061071366071701,-0.07831184566020966,-0.045405030250549316
1782888769385169200,5.518169189453125,0.00996128749102354,-0.07405398786067963,-0.02299186773598194
1782888769395118300,5.528118408203125,0.014449512585997581,-0.06633535027503967,0.005028314422816038
1782888769405067300,5.5380673828125,0.0060325926169753075,-0.06096907705068588,0.032465532422065735
1782888769415046100,5.548046142578125,-0.014601846225559711,-0.07592778652906418,0.05108688771724701
1782888769424995000,5.5579951171875,-0.04662316292524338,-0.08907048404216766,0.05411330237984657
1782888769434944300,5.5679443359375,-0.08117607980966568,-0.07267766445875168,0.05391436442732811
1782888769444892200,5.57789208984375,-0.1147737205028534,-0.031153125688433647,0.04770014435052872
1782888769454841000,5.587841064453125,-0.1382010132074356,0.01920325495302677,0.032530512660741806
1782888769464820200,5.5978203125,-0.13522227108478546,0.06389828771352768,0.011743208393454552
1782888769474769200,5.60776904296875,-0.10712964832782745,0.07326755672693253,-0.013019661419093609
1782888769484718000,5.617718017578125,-0.07951932400465012,0.06500802934169769,-0.038551121950149536
1782888769494666000,5.627666015625,-0.04896727576851845,0.036560941487550735,-0.05528722330927849
1782888769504646100,5.637646240234375,-0.030550718307495117,-0.004620318301022053,-0.06774388998746872
1782888769514594000,5.647593994140625,-0.01565459370613098,-0.07603751122951508,-0.08558520674705505
1782888769524543000,5.65754296875,-0.0006452839006669819,-0.15124304592609406,-0.10463932901620865
1782888769534492200,5.6674921875,0.019183015450835228,-0.1775987595319748,-0.11170362681150436
1782888769544471300,5.67747119140625,0.049004826694726944,-0.14168202877044678,-0.10460177809000015
1782888769554420200,5.687420166015625,0.0702374130487442,-0.07812782377004623,-0.0820530578494072
1782888769564369200,5.697369140625,0.07890227437019348,-0.030306773260235786,-0.05036117509007454
1782888769574317300,5.7073173828125,0.07478982210159302,-0.00669252360239625,-0.02008849009871483
1782888769584297200,5.717297119140625,0.06813298165798187,-0.0335686132311821,0.006499710958451033
1782888769594245000,5.7272451171875,0.053646717220544815,-0.10963515192270279,0.016879115253686905
1782888769604194000,5.737194091796875,0.04164118692278862,-0.18464894592761993,0.018001902848482132
1782888769614143200,5.747143310546875,0.041131459176540375,-0.22849948704242706,0.012073973193764687
1782888769624122000,5.7571220703125,0.05742654204368591,-0.22259019315242767,0.004848817363381386
1782888769634071000,5.767071044921875,0.07928337156772614,-0.1716761440038681,-0.005358812864869833
1782888769644019200,5.777019287109375,0.10269894450902939,-0.10122036188840866,-0.016835970804095268
1782888769653968100,5.786968017578125,0.11667894572019577,-0.03446423262357712,-0.023916251957416534
1782888769663917000,5.7969169921875,0.12032295018434525,0.007169229444116354,-0.024862471967935562
1782888769673896200,5.806896240234375,0.10308297723531723,0.028789304196834564,-0.028978921473026276
1782888769683845400,5.816845458984375,0.07023634761571884,0.03467781841754913,-0.030657777562737465
1782888769693794300,5.826794189453125,0.033843718469142914,0.023577231913805008,-0.03092489205300808
1782888769703742200,5.8367421875,0.013125921599566936,-0.0001840244367485866,-0.04252748563885689
1782888769713722000,5.84672216796875,0.007647000718861818,-0.04123079404234886,-0.07215116173028946
1782888769723670300,5.856670166015625,0.020595556125044823,-0.07978803664445877,-0.11853144317865372
1782888769733619200,5.866619140625,0.04284387081861496,-0.09457524120807648,-0.1676928550004959
1782888769743568100,5.876568115234375,0.06671804189682007,-0.050694070756435394,-0.2137381136417389
1782888769753547300,5.88654736328125,0.08357585221529007,0.015776565298438072,-0.24717596173286438
1782888769763496200,5.89649609375,0.0896313488483429,0.0532994419336319,-0.26746660470962524
1782888769773445000,5.906445068359375,0.09286176413297653,0.058886751532554626,-0.27319398522377014
1782888769783393000,5.91639306640625,0.10608702152967453,0.04214026406407356,-0.2559332549571991
1782888769793373200,5.926373291015625,0.12668684124946594,0.020927386358380318,-0.22313641011714935
1782888769803321000,5.936321044921875,0.14538942277431488,0.001002413802780211,-0.1756991147994995
1782888769813270000,5.94627001953125,0.1662779301404953,-0.019410183653235435,-0.12490518391132355
1782888769823219000,5.956218994140625,0.1858348399400711,-0.038789208978414536,-0.07705031335353851
1782888769833198000,5.966197998046875,0.20977267622947693,-0.019788619130849838,-0.028185032308101654
1782888769843147300,5.976147216796875,0.22208553552627563,0.05157717317342758,0.02418656274676323
1782888769853095200,5.98609521484375,0.20862378180027008,0.14365756511688232,0.07354611903429031
1782888769863044400,5.99604443359375,0.17161808907985687,0.20600029826164246,0.11393801867961884
1782888769873029000,6.006029052734375,0.13467951118946075,0.2131466269493103,0.12393179535865784
1782888769882978600,6.015978515625,0.10637836903333664,0.1636752188205719,0.11134303361177444
1782888769892927500,6.025927490234375,0.0968724861741066,0.1124437227845192,0.07889747619628906
1782888769902876400,6.03587646484375,0.0985364243388176,0.09178904443979263,0.03624162822961807
1782888769912824300,6.04582421875,0.09337256103754044,0.10402200371026993,-0.007890679873526096
1782888769922804500,6.055804443359375,0.08431541174650192,0.14917030930519104,-0.05404619127511978
1782888769932752400,6.06575244140625,0.07016710191965103,0.18642659485340118,-0.09930527955293655
1782888769942701300,6.075701416015625,0.060196228325366974,0.21642285585403442,-0.1322384625673294
1782888769952650200,6.085650146484375,0.06046653911471367,0.2504793405532837,-0.14930479228496552
1782888769962629400,6.09562939453125,0.07035671919584274,0.25101038813591003,-0.1541280448436737
1782888769972578300,6.105578369140625,0.08924785256385803,0.22550475597381592,-0.15117833018302917
1782888769982526200,6.115526123046875,0.12311367690563202,0.17673535645008087,-0.14043806493282318
1782888769992475400,6.125475341796875,0.15843944251537323,0.10905378311872482,-0.12313205003738403
1782888770002454300,6.135454345703125,0.1895608752965927,0.03690369054675102,-0.0985710471868515
1782888770012403200,6.1454033203125,0.2181919813156128,-0.02280837669968605,-0.06996843218803406
1782888770022352100,6.15535205078125,0.2446931004524231,-0.048061802983284,-0.0247839093208313
1782888770032301300,6.16530126953125,0.2560344338417053,-0.03880571946501732,0.024989506229758263
1782888770042280400,6.175280517578125,0.24581216275691986,0.01950286142528057,0.08918926119804382
1782888770052229400,6.1852294921875,0.21091116964817047,0.11328528076410294,0.15647482872009277
1782888770062177500,6.195177490234375,0.15589532256126404,0.1954089105129242,0.2162201851606369
1782888770072126500,6.20512646484375,0.09738487750291824,0.2471994012594223,0.26548200845718384
1782888770082105300,6.215105224609375,0.05074573680758476,0.27506592869758606,0.30998796224594116
1782888770092054300,6.22505419921875,0.020374780520796776,0.2809200882911682,0.35037824511528015
1782888770102003500,6.23500341796875,0.003754790872335434,0.25852715969085693,0.3690624535083771
1782888770111952400,6.244952392578125,-0.0035230957437306643,0.19594579935073853,0.3588588237762451
1782888770121900300,6.254900390625,0.009830792434513569,0.11844196170568466,0.3208938539028168
1782888770131879400,6.26487939453125,0.03357580304145813,0.050761181861162186,0.2581665813922882
1782888770141828400,6.274828369140625,0.06431454420089722,-0.010193781927227974,0.18631581962108612
1782888770151777300,6.28477734375,0.07925114780664444,-0.042027611285448074,0.10492774844169617
1782888770161726200,6.294726318359375,0.07525480538606644,-0.058637481182813644,0.021854165941476822
1782888770171705300,6.304705322265625,0.06338456273078918,-0.04505269601941109,-0.04620557650923729
1782888770181654300,6.314654296875,0.04379887878894806,-0.019096195697784424,-0.10594534128904343
1782888770191602200,6.324602294921875,0.017308415845036507,-0.004294081125408411,-0.14409086108207703
1782888770201551400,6.33455126953125,-0.012031895108520985,0.0059689427725970745,-0.15861573815345764
1782888770211530500,6.344530517578125,-0.038664039224386215,0.027821244671940804,-0.1414569914340973
1782888770221479400,6.3544794921875,-0.06756705790758133,0.05290262773633003,-0.10407260805368423
1782888770231428400,6.364428466796875,-0.08977995067834854,0.0535428524017334,-0.060145895928144455
1782888770241377300,6.374377197265625,-0.09032989293336868,0.015091068111360073,-0.032636504620313644
1782888770251356400,6.3843564453125,-0.07403907179832458,-0.03194967657327652,-0.011463843286037445
1782888770261305300,6.394305419921875,-0.055398277938365936,-0.06301944702863693,0.007851798087358475
1782888770271253200,6.404253173828125,-0.043900344520807266,-0.08036914467811584,0.019945744425058365
1782888770281202400,6.414202392578125,-0.04018284007906914,-0.08699828386306763,0.018065553158521652
1782888770291181300,6.424181396484375,-0.03899906575679779,-0.08478625863790512,0.01133654359728098
1782888770301130200,6.434130126953125,-0.031981635838747025,-0.07288725674152374,0.0064895907416939735
1782888770311079200,6.4440791015625,-0.030948327854275703,-0.04953000321984291,0.004479170776903629
1782888770321027300,6.45402734375,-0.03725682571530342,-0.013655624352395535,0.010784736834466457
1782888770331007200,6.46400732421875,-0.054427023977041245,0.014117949642241001,0.021952703595161438
1782888770340955100,6.473955078125,-0.07809000462293625,0.02514929510653019,0.026558106765151024
1782888770350904300,6.483904296875,-0.10155139118432999,0.035414714366197586,0.03676414117217064
1782888770360853500,6.493853515625,-0.11924383789300919,0.046366967260837555,0.04813823476433754
1782888770370802400,6.503802490234375,-0.12836329638957977,0.04085768386721611,0.04972095042467117
1782888770380781300,6.51378125,-0.12851136922836304,0.027416443452239037,0.05107756331562996
1782888770390730500,6.52373046875,-0.11583312600851059,0.02401718497276306,0.054916512221097946
1782888770400678400,6.533678466796875,-0.09760724753141403,0.029029253870248795,0.06540030986070633
1782888770410627300,6.54362744140625,-0.06927121430635452,0.047446612268686295,0.0792791098356247
1782888770420606500,6.5536064453125,-0.04695073142647743,0.04385587200522423,0.09382449835538864
1782888770430555400,6.563555419921875,-0.03362826630473137,0.036980122327804565,0.11125808209180832
1782888770440504300,6.57350439453125,-0.027426565065979958,0.04553552716970444,0.1276245415210724
1782888770450452200,6.5834521484375,-0.033250629901885986,0.04168592765927315,0.13879543542861938
1782888770460432400,6.593432373046875,-0.04181722179055214,0.025298697873950005,0.14944835007190704
1782888770470380300,6.60338037109375,-0.048957955092191696,0.004994226153939962,0.15038737654685974
1782888770480329200,6.6133291015625,-0.043706201016902924,-0.0013432984706014395,0.1450067162513733
1782888770490278100,6.623278076171875,-0.03585999459028244,-0.0010450243717059493,0.13260731101036072
1782888770500257300,6.63325732421875,-0.026024676859378815,-0.00965768750756979,0.11804940551519394
1782888770510206200,6.643206298828125,-0.01312166079878807,-0.01528787612915039,0.09190329164266586
1782888770520155400,6.6531552734375,-0.0016341155860573053,-0.022845394909381866,0.06986350566148758
1782888770530103600,6.663103515625,0.0007949535502120852,-0.01757100410759449,0.04879044368863106
1782888770540083500,6.67308349609375,-0.012397547252476215,-0.005612345412373543,0.027524035423994064
1782888770550031400,6.68303125,-0.030827954411506653,-0.0065047708339989185,0.0025398568250238895
1782888770559980300,6.692980224609375,-0.0411469042301178,-0.006097573786973953,-0.019748138263821602
1782888770569929500,6.702929443359375,-0.03700728714466095,0.010282198898494244,-0.03483760729432106
1782888770579878400,6.71287841796875,-0.02930915355682373,0.018432004377245903,-0.04971722140908241
1782888770589857300,6.722857177734375,-0.015294001437723637,0.0041699777357280254,-0.0652993768453598
1782888770599806200,6.73280615234375,0.0039009982720017433,-0.01985493116080761,-0.06625225394964218
1782888770609754400,6.74275439453125,0.024404142051935196,-0.036490634083747864,-0.0602516233921051
1782888770619703300,6.752703369140625,0.042930956929922104,-0.04885009676218033,-0.04760400578379631
1782888770629682200,6.76268212890625,0.058939214795827866,-0.06563334167003632,-0.030962975695729256
1782888770639631400,6.77263134765625,0.07492750138044357,-0.06874044984579086,-0.014936072751879692
1782888770649580300,6.782580322265625,0.08522461354732513,-0.05451730266213417,-0.004145476501435041
1782888770659528200,6.792528076171875,0.08836368471384048,-0.056719206273555756,0.0025486452504992485
1782888770669508000,6.802508056640625,0.09503889828920364,-0.07537571340799332,0.007484814152121544
1782888770679456300,6.812456298828125,0.10873686522245407,-0.08735008537769318,0.011599131859838963
1782888770689405400,6.822405517578125,0.1188661977648735,-0.07524175941944122,0.02207600697875023
1782888770699354400,6.832354248046875,0.12537044286727905,-0.03561791405081749,0.04525163397192955
1782888770709333500,6.84233349609375,0.1188156008720398,0.014713166281580925,0.08192123472690582
1782888770719282400,6.852282470703125,0.09477204829454422,0.03651806339621544,0.11522432416677475
1782888770729231400,6.8622314453125,0.05361529067158699,0.02570376545190811,0.13449229300022125
1782888770739179300,6.87217919921875,0.011671570129692554,-0.012041216716170311,0.12989887595176697
1782888770749159400,6.882159423828125,-0.019363578408956528,-0.04557147994637489,0.09982539713382721
1782888770759107300,6.892107421875,-0.041598841547966,-0.03509167581796646,0.048473794013261795
1782888770769056300,6.90205615234375,-0.04487453028559685,0.011964784003794193,-0.006323676090687513
1782888770779005200,6.912005126953125,-0.02857438661158085,0.07783301174640656,-0.05182697996497154
1782888770788953300,6.921953369140625,-0.001915878034196794,0.13996829092502594,-0.08474045246839523
1782888770798933200,6.931933349609375,0.027831897139549255,0.1608077883720398,-0.10952649265527725
1782888770808881400,6.94188134765625,0.05697300657629967,0.13198812305927277,-0.11805100739002228
1782888770818830300,6.951830322265625,0.08316945284605026,0.08404190838336945,-0.11636043339967728
1782888770828779300,6.961779296875,0.10348457843065262,0.026858778670430183,-0.10999467968940735
1782888770838758100,6.971758056640625,0.12293923646211624,-0.016175774857401848,-0.09810073673725128
1782888770848707300,6.981707275390625,0.13390906155109406,-0.01224335003644228,-0.07536905258893967
1782888770858656500,6.991656494140625,0.13951581716537476,0.03551085665822029,-0.04472885653376579
1782888770868604400,7.0016044921875,0.13578259944915771,0.08827713131904602,-0.013924071565270424
1782888770878600000,7.011599853515625,0.13296657800674438,0.13158759474754333,0.010460363700985909
1782888770888547800,7.0215478515625,0.14035844802856445,0.1538769155740738,0.03292492777109146
1782888770898496800,7.031496826171875,0.15837791562080383,0.14880944788455963,0.05007169023156166
1782888770908446000,7.041446044921875,0.18234317004680634,0.10361534357070923,0.046187203377485275
1782888770918424800,7.0514248046875,0.20647913217544556,0.041250232607126236,0.030126210302114487
1782888770928373800,7.061373779296875,0.22925369441509247,-0.012554408051073551,0.006833671126514673
1782888770938322000,7.071322021484375,0.2445165365934372,-0.03761821612715721,-0.018487131223082542
1782888770948270800,7.081270751953125,0.24994751811027527,-0.02780207060277462,-0.044625792652368546
1782888770958249700,7.091249755859375,0.24207282066345215,-0.00600383011624217,-0.0611371248960495
1782888770968198700,7.10119873046875,0.22900335490703583,0.040835846215486526,-0.0681401714682579
1782888770978147800,7.11114794921875,0.21537595987319946,0.13081713020801544,-0.052190233021974564
1782888770988096800,7.1210966796875,0.19699615240097046,0.2067377269268036,-0.02021072991192341
1782888770998075600,7.13107568359375,0.16921165585517883,0.23455631732940674,0.01630919799208641
1782888771008024800,7.14102490234375,0.14775590598583221,0.23654356598854065,0.060255616903305054
1782888771017973000,7.150972900390625,0.14854766428470612,0.24410507082939148,0.10544279962778091
1782888771027922000,7.160921875,0.1760368049144745,0.2516719102859497,0.16180381178855896
1782888771037870800,7.170870849609375,0.21358604729175568,0.2134813815355301,0.20439840853214264
1782888771047850000,7.18085009765625,0.23890924453735352,0.11881240457296371,0.22383949160575867
1782888771057799000,7.190798828125,0.25734472274780273,-0.00007243797881528735,0.22106660902500153
1782888771067747800,7.200747802734375,0.27141791582107544,-0.1005961149930954,0.20020179450511932
1782888771077695700,7.21069580078125,0.2793712019920349,-0.14867469668388367,0.1704319268465042
1782888771087676000,7.220676025390625,0.27472183108329773,-0.13343475759029388,0.1396961212158203
1782888771097623800,7.230623779296875,0.24998587369918823,-0.08468079566955566,0.10321506857872009
1782888771107572700,7.24057275390625,0.2178146243095398,-0.052556153386831284,0.06586450338363647
1782888771117521700,7.250521728515625,0.18073250353336334,-0.03290015831589699,0.027483556419610977
1782888771127500800,7.260500732421875,0.14404399693012238,-0.010431068949401379,-0.0025124261155724525
1782888771137449700,7.27044970703125,0.09865467250347137,-0.007907191291451454,-0.028871329501271248
1782888771147397600,7.280397705078125,0.04565403610467911,-0.015598933212459087,-0.0374901182949543
1782888771157346800,7.290346923828125,-0.013541375286877155,0.008045942522585392,-0.03410204499959946
1782888771167325700,7.30032568359375,-0.06685200333595276,0.07162491977214813,-0.00999271310865879
1782888771177275000,7.31027490234375,-0.11678840219974518,0.14633378386497498,0.01980060338973999
1782888771187223800,7.320223876953125,-0.15833690762519836,0.21303370594978333,0.06099517643451691
1782888771197173000,7.330173095703125,-0.1896844506263733,0.22290365397930145,0.09351024031639099
1782888771207151900,7.34015185546875,-0.2035382091999054,0.1677549183368683,0.10873473435640335
1782888771217100800,7.350100830078125,-0.19273535907268524,0.07171626389026642,0.10597623139619827
1782888771227049000,7.360049072265625,-0.16200727224349976,-0.020539630204439163,0.07872197777032852
1782888771236998000,7.369997802734375,-0.1269102841615677,-0.08378571271896362,0.040464334189891815
1782888771246946800,7.37994677734375,-0.09917425364255905,-0.10215593129396439,-0.006184658966958523
1782888771256925700,7.38992578125,-0.08551143854856491,-0.10332239419221878,-0.06193287670612335
1782888771266875000,7.399875,-0.0792146623134613,-0.10750196129083633,-0.11899776011705399
1782888771276822800,7.40982275390625,-0.06376326829195023,-0.09988158941268921,-0.1635042428970337
1782888771286771700,7.419771728515625,-0.045586127787828445,-0.06938599795103073,-0.19197982549667358
1782888771296750800,7.429750732421875,-0.04086221009492874,-0.03732366859912872,-0.19077368080615997
1782888771306699800,7.43969970703125,-0.06000368297100067,-0.02695305459201336,-0.17728689312934875
1782888771316648700,7.449648681640625,-0.08996131271123886,-0.04881307855248451,-0.15867114067077637
1782888771326598000,7.459597900390625,-0.114225372672081,-0.07998351752758026,-0.14168310165405273
1782888771336577000,7.469576904296875,-0.1244303435087204,-0.1125800758600235,-0.1314174085855484
1782888771346526000,7.47952587890625,-0.12046489864587784,-0.12119966000318527,-0.12925758957862854
1782888771356473900,7.489473876953125,-0.10926683247089386,-0.09285909682512283,-0.13030794262886047
1782888771366422800,7.4994228515625,-0.0904524028301239,-0.05232978239655495,-0.131633922457695
1782888771376402000,7.50940185546875,-0.06830182671546936,-0.02298014983534813,-0.13325420022010803
1782888771386350800,7.519350830078125,-0.04462845250964165,-0.01266918983310461,-0.1268434375524521
1782888771396299800,7.5292998046875,-0.026394322514533997,-0.026974892243742943,-0.11420007795095444
1782888771406248700,7.539248779296875,-0.016176041215658188,-0.03268098086118698,-0.088333860039711
1782888771416227800,7.549227783203125,-0.01817207969725132,-0.015539544634521008,-0.04051626846194267
1782888771426175700,7.55917578125,-0.03123168833553791,0.018386997282505035,0.022844595834612846
1782888771436125000,7.569125,-0.05657512694597244,0.04093598201870918,0.08920657634735107
1782888771446073900,7.579073974609375,-0.08199766278266907,0.03942756727337837,0.1467476338148117
1782888771456022800,7.589022705078125,-0.09422770142555237,0.028119252994656563,0.18965941667556763
1782888771466001700,7.599001708984375,-0.09018129110336304,0.023013440892100334,0.22207966446876526
1782888771475950600,7.60895068359375,-0.0724281296133995,0.005243764258921146,0.23487482964992523
1782888771485898800,7.618898681640625,-0.04843571037054062,-0.029992254450917244,0.2188447266817093
1782888771495848000,7.628847900390625,-0.026370886713266373,-0.0615437887609005,0.18522684276103973
1782888771505827000,7.6388271484375,-0.006713562645018101,-0.09095866978168488,0.12919101119041443
1782888771515776000,7.64877587890625,0.013315006159245968,-0.11737216264009476,0.06156855449080467
1782888771525725000,7.658724853515625,0.030411435291171074,-0.14475825428962708,-0.01005236804485321
1782888771535673900,7.668673828125,0.044444430619478226,-0.14566931128501892,-0.07371176779270172
1782888771545653000,7.678653076171875,0.04565297067165375,-0.12509746849536896,-0.12105212360620499
1782888771555602000,7.688601806640625,0.03379924222826958,-0.09066332131624222,-0.14700143039226532
1782888771565549800,7.6985498046875,0.009755158796906471,-0.058279551565647125,-0.15636111795902252
1782888771575498800,7.708498779296875,-0.025741050019860268,-0.02256336621940136,-0.14658784866333008
1782888771585478000,7.718477783203125,-0.0736268162727356,-0.008071241900324821,-0.12549373507499695
1782888771595426800,7.7284267578125,-0.11572153866291046,-0.01209767535328865,-0.10763564705848694
1782888771605375700,7.738375732421875,-0.13317403197288513,-0.03976818546652794,-0.09424341470003128
1782888771615324000,7.748323974609375,-0.1239408552646637,-0.04905329644680023,-0.08656764775514603
1782888771625303800,7.7583037109375,-0.09924323111772537,-0.04415441304445267,-0.08301818370819092
1782888771635251700,7.768251708984375,-0.06619606167078018,-0.04374827817082405,-0.08966756612062454
1782888771645200600,7.77820068359375,-0.040537040680646896,-0.05481717735528946,-0.0973057821393013
1782888771655149800,7.78814990234375,-0.00827737059444189,-0.052797168493270874,-0.10549367219209671
1782888771665129000,7.79812890625,0.021328192204236984,-0.055079229176044464,-0.0963132232427597
1782888771675078000,7.808077880859375,0.041725609451532364,-0.04837552085518837,-0.07981866598129272
1782888771685026800,7.81802685546875,0.044311538338661194,-0.04667456075549126,-0.05673731490969658
1782888771694975000,7.82797509765625,0.037400901317596436,-0.0684666782617569,-0.039871782064437866
1782888771704924000,7.837923828125,0.027775172144174576,-0.10360682010650635,-0.031013576313853264
1782888771714902800,7.84790283203125,0.02064482495188713,-0.11788535863161087,-0.027053721249103546
1782888771724852000,7.85785205078125,0.014160027727484703,-0.12453261017799377,-0.03160373121500015
1782888771734801000,7.86780078125,0.012212724424898624,-0.12445324659347534,-0.04602954164147377
1782888771744748800,7.877748779296875,0.016985908150672913,-0.08652982860803604,-0.05332527309656143
1782888771754728700,7.887728759765625,0.026636937633156776,-0.022228073328733444,-0.05126238986849785
1782888771764676900,7.8976767578125,0.025179654359817505,0.03056589886546135,-0.04231922701001167
1782888771774625800,7.907625732421875,0.01483354065567255,0.04850521683692932,-0.03248603641986847
1782888771784574700,7.91757470703125,-0.0008000136003829539,0.04444576054811478,-0.0160032007843256
1782888771794553900,7.927553955078125,-0.01161724142730236,0.04350939393043518,0.0023513049818575382
1782888771804502800,7.937502685546875,-0.012657205574214458,0.009797236882150173,0.017074324190616608
1782888771814452000,7.947451904296875,-0.004400607198476791,-0.0269506573677063,0.02486114203929901
1782888771824400000,7.95739990234375,0.008833705447614193,-0.039683498442173004,0.03466130793094635
1782888771834380000,7.967380126953125,0.017519338056445122,-0.05896797776222229,0.034143589437007904
1782888771844328000,7.977327880859375,0.00896526500582695,-0.06594599038362503,0.019146796315908432
1782888771854276900,7.98727685546875,-0.0073441993445158005,-0.056836917996406555,-0.002856240142136812
1782888771864225800,7.997225830078125,-0.02359534054994583,-0.043465450406074524,-0.032535307109355927
1782888771874236400,8.007236328125,-0.03314570337533951,-0.03199521824717522,-0.06829410046339035
1782888771884185300,8.017185302734376,-0.03515372797846794,-0.03723312169313431,-0.09855054318904877
1782888771894134300,8.02713427734375,-0.030301446095108986,-0.030588002875447273,-0.1234031617641449
1782888771904082200,8.037082275390626,-0.024657143279910088,0.0027233485598117113,-0.13843989372253418
1782888771914031400,8.04703125,-0.013777864165604115,0.05654183775186539,-0.12791268527507782
1782888771924010200,8.05701025390625,0.0008586031035520136,0.10559673607349396,-0.0927528366446495
1782888771933959200,8.066959228515625,0.013133378699421883,0.12112562358379364,-0.05221287161111832
1782888771943908000,8.076908203125,0.028436435386538506,0.08923347294330597,-0.015748336911201477
1782888771953856300,8.086856201171875,0.05150686576962471,0.015201057307422161,0.006159092765301466
1782888771963836400,8.09683642578125,0.08432766050100327,-0.06383650004863739,0.01599787548184395
1782888771973784300,8.106784423828126,0.12041296064853668,-0.10945618897676468,0.016234630718827248
1782888771983733500,8.1167333984375,0.15011413395404816,-0.11490767449140549,0.006509032100439072
1782888771993682400,8.126682373046876,0.17525836825370789,-0.09713773429393768,0.00014088122406974435
1782888772003661300,8.136661376953125,0.19506749510765076,-0.057074472308158875,-0.003960653208196163
1782888772013610200,8.1466103515625,0.20526500046253204,-0.03853114694356918,-0.010873686522245407
1782888772023559400,8.156559326171875,0.21506117284297943,-0.036494363099336624,-0.003032008884474635
1782888772033507300,8.16650732421875,0.22075848281383514,-0.06541842222213745,0.011346397921442986
1782888772043487200,8.1764873046875,0.21685640513896942,-0.11949257552623749,0.027036411687731743
1782888772053435400,8.186435302734376,0.20934763550758362,-0.17098452150821686,0.035293810069561005
1782888772063384300,8.19638427734375,0.19758711755275726,-0.20174510776996613,0.03933462128043175
1782888772073333200,8.206333251953126,0.18605029582977295,-0.19100163877010345,0.03588290140032768
1782888772083312400,8.2163125,0.15730918943881989,-0.13844123482704163,0.022780412808060646
1782888772093261300,8.22626123046875,0.1106700524687767,-0.06949731707572937,0.00905448105186224
1782888772103209200,8.236209228515625,0.04680665209889412,0.010902981273829937,-0.008330367505550385
1782888772113158100,8.246158203125,-0.023621706292033195,0.08696179836988449,-0.0269493255764246
1782888772123107300,8.256107421875,-0.08403604477643967,0.13982979953289032,-0.05428481101989746
1782888772133086500,8.26608642578125,-0.12376827746629715,0.16221553087234497,-0.0887322649359703
1782888772143035400,8.276035400390626,-0.13628806173801422,0.15749721229076385,-0.12157516926527023
1782888772152984300,8.285984375,-0.12859046459197998,0.1468280553817749,-0.14725948870182037
1782888772162932500,8.295932373046876,-0.10422733426094055,0.1312704086303711,-0.17025668919086456
1782888772172912400,8.305912353515625,-0.0729551687836647,0.10218815505504608,-0.1840215027332306
1782888772182860300,8.3158603515625,-0.03206019848585129,0.08351832628250122,-0.19500383734703064
1782888772192809200,8.325809326171875,0.017136109992861748,0.09611321985721588,-0.18805912137031555
1782888772202758400,8.33575830078125,0.06712763756513596,0.11320165544748306,-0.17007692158222198
1782888772212737300,8.3457373046875,0.10767213255167007,0.0949866995215416,-0.1596250832080841
1782888772222686200,8.355686279296876,0.13511280715465546,0.06627675890922546,-0.15251417458057404
1782888772232634400,8.36563427734375,0.16268078982830048,0.02900794893503189,-0.1399374008178711
1782888772242583300,8.375583251953126,0.18929748237133026,-0.00555189186707139,-0.11524776369333267
1782888772252562200,8.385562255859375,0.20946188271045685,-0.020425911992788315,-0.08153640478849411
1782888772262511400,8.395511474609375,0.21577224135398865,-0.011518704704940319,-0.03146098554134369
1782888772272460300,8.405460205078125,0.22311218082904816,0.008738097734749317,0.029947245493531227
1782888772282409500,8.415409423828125,0.22278566658496857,0.024521587416529655,0.09730710834264755
1782888772292388400,8.425388427734376,0.22102345526218414,0.021038439124822617,0.15666790306568146
1782888772302337500,8.435337646484374,0.20805679261684418,-0.021951371803879738,0.20046599209308624
1782888772312285400,8.445285400390626,0.18147072196006775,-0.04915529489517212,0.23191951215267181
1782888772322234400,8.455234375,0.13581056892871857,-0.024749288335442543,0.25155794620513916
1782888772332213500,8.465213623046875,0.08651544898748398,0.0009326389990746975,0.24423371255397797
1782888772342162400,8.475162353515625,0.04465428739786148,-0.03844192996621132,0.22083251178264618
1782888772352111400,8.485111328125,0.008533567190170288,-0.018870094791054726,0.1836867481470108
1782888772362060300,8.495060302734375,-0.018507104367017746,0.019702864810824394,0.1310083568096161
1782888772372008400,8.505008544921875,-0.03386795148253441,0.037944719195365906,0.0636274442076683
1782888772381988400,8.51498828125,-0.03630447760224342,0.07146459817886353,0.0043779704719781876
1782888772391936300,8.524936279296876,-0.026993533596396446,0.13140729069709778,-0.03701767325401306
1782888772401885200,8.53488525390625,-0.01203855313360691,0.178965225815773,-0.05951046571135521
1782888772411834000,8.544834228515626,0.007226221263408661,0.17720966041088104,-0.0705932080745697
1782888772421813200,8.554813232421875,0.04586948826909065,0.13729020953178406,-0.06852126866579056
1782888772431762200,8.56476220703125,0.09237547218799591,0.06394542753696442,-0.04968766123056412
1782888772441710300,8.57471044921875,0.13372690975666046,-0.03527463227510452,-0.027860127389431
1782888772451659500,8.584659423828125,0.1640310138463974,-0.12238956242799759,-0.0037004624027758837
1782888772461638400,8.594638427734376,0.175246924161911,-0.15317383408546448,0.027995415031909943
1782888772471587300,8.60458740234375,0.16306695342063904,-0.13229092955589294,0.05970034748315811
1782888772481536500,8.61453662109375,0.13444462418556213,-0.09530894458293915,0.08923054486513138
1782888772491485400,8.6244853515625,0.10441748797893524,-0.07562338560819626,0.10157483071088791
1782888772501464300,8.63446435546875,0.08575298637151718,-0.08373058587312698,0.09797929227352142
1782888772511413200,8.644413330078125,0.08075609803199768,-0.08871442079544067,0.08634740859270096
1782888772521361400,8.654361328125,0.0814352035522461,-0.07235994935035706,0.07318499684333801
1782888772531310300,8.664310302734375,0.07609636336565018,-0.04851320758461952,0.06372784823179245
1782888772541289200,8.674289306640626,0.06267669796943665,-0.023306654766201973,0.0543854758143425
1782888772551238400,8.68423828125,0.05186053365468979,0.017071394249796867,0.05560467392206192
1782888772561187300,8.694187255859376,0.04152081161737442,0.04174824431538582,0.0647646114230156
1782888772571135200,8.70413525390625,0.03339497372508049,0.0415000393986702,0.06794150173664093
1782888772581084200,8.714084228515626,0.020254138857126236,0.010693124495446682,0.06561842560768127
1782888772591063300,8.724063232421875,0.0025710156187415123,-0.025196433067321777,0.06089264526963234
1782888772601012200,8.73401220703125,-0.01625806652009487,-0.029775472357869148,0.061763763427734375
1782888772610961400,8.74396142578125,-0.04132453724741936,-0.004351605195552111,0.06966323405504227
1782888772620910300,8.753910400390625,-0.0623595155775547,0.03063487447798252,0.0829731822013855
1782888772630889500,8.763889404296876,-0.07514242082834244,0.031094536185264587,0.08107887208461761
1782888772640838400,8.77383837890625,-0.07885459810495377,0.006594785954803228,0.06875110417604446
1782888772650786300,8.783786376953126,-0.07293891906738281,-0.02191009186208248,0.04892999306321144
1782888772660735500,8.793735595703126,-0.0589115209877491,-0.032406143844127655,0.026644127443432808
1782888772670714400,8.80371435546875,-0.045587457716464996,-0.03622671216726303,0.010715494863688946
1782888772680663300,8.813663330078125,-0.03712739422917366,-0.031684957444667816,0.0018330537714064121
1782888772690612200,8.8236123046875,-0.028144020587205887,-0.014101704582571983,-0.0006836334359832108
1782888772700561400,8.8335615234375,-0.020728981122374535,-0.00421391986310482,0.008616391569375992
1782888772710540300,8.843540283203126,-0.023081617429852486,-0.015440208837389946,0.023260049521923065
1782888772720488200,8.85348828125,-0.027896346524357796,-0.04511155188083649,0.03766908124089241
1782888772730437400,8.863437255859376,-0.02539963275194168,-0.07261002063751221,0.05537563934922218
1782888772740386300,8.87338623046875,-0.018765166401863098,-0.08308876305818558,0.07939895242452621
1782888772750365200,8.883365234375,-0.021384917199611664,-0.09406231343746185,0.09060686826705933
1782888772760314000,8.893314208984375,-0.030346719548106194,-0.10044565051794052,0.08987955749034882
1782888772770263600,8.903263671875,-0.04203986003994942,-0.08381207287311554,0.08871015906333923
1782888772780211500,8.91321142578125,-0.06169372424483299,-0.04815820977091789,0.078099325299263
1782888772790160400,8.923160400390625,-0.08618202060461044,-0.01296373549848795,0.06216190755367279
1782888772800139500,8.933139404296876,-0.11351324617862701,0.012445750646293163,0.0429498627781868
1782888772810088400,8.94308837890625,-0.1354726105928421,0.02690245397388935,0.024932779371738434
1782888772820037400,8.953037353515626,-0.14716708660125732,0.02893923968076706,0.0027422569692134857
1782888772829986300,8.962986328125,-0.14023301005363464,0.04018044099211693,-0.009303753264248371
1782888772839965400,8.97296533203125,-0.12567271292209625,0.048955559730529785,-0.019474364817142487
1782888772849914400,8.982914306640625,-0.0983436107635498,0.040045153349637985,-0.027844946831464767
1782888772859862300,8.9928623046875,-0.07323213666677475,0.019342804327607155,-0.03946005925536156
1782888772869811200,9.002811279296875,-0.04775793477892876,-0.011837750673294067,-0.054794538766145706
1782888772879799600,9.012799560546876,-0.028052939102053642,-0.04446759819984436,-0.07435306161642075
1782888772889748500,9.02274853515625,-0.012250540778040886,-0.051478903740644455,-0.08940098434686661
1782888772899697700,9.03269775390625,0.007213970646262169,-0.01441169623285532,-0.08867686986923218
1782888772909645600,9.0426455078125,0.025236114859580994,0.03893567994236946,-0.07910573482513428
1782888772919625500,9.05262548828125,0.03638250753283501,0.05897969752550125,-0.06251184642314911
1782888772929573600,9.06257373046875,0.04326917603611946,0.053881607949733734,-0.037503432482481
1782888772939522600,9.0725224609375,0.04211203381419182,0.03305302560329437,-0.014023940078914165
1782888772949471500,9.082471435546875,0.03537849709391594,0.0036911412607878447,0.011242534033954144
1782888772959450400,9.092450439453126,0.020923923701047897,-0.019599800929427147,0.03051050566136837
1782888772969399600,9.102399658203124,0.011802330613136292,-0.034142255783081055,0.043646812438964844
1782888772979348700,9.1123486328125,0.008718390017747879,-0.03939800709486008,0.04272322729229927
1782888772989296400,9.12229638671875,0.00899589154869318,-0.02424089051783085,0.042754653841257095
1782888772999276500,9.132276611328125,0.011007643304765224,0.008065382950007915,0.041681401431560516
1782888773009224700,9.142224609375,0.002109223511070013,0.04392564669251442,0.04639732465147972
1782888773019173600,9.152173583984375,-0.07206273823976517,0.13189411163330078,0.12693744897842407
1782888773029122600,9.16212255859375,-0.0989481508731842,0.11288979649543762,0.15112853050231934
1782888773039070700,9.17207080078125,-0.09497445076704025,0.051002729684114456,0.1507226675748825
1782888773049050600,9.182050537109374,-0.08566084504127502,-0.004292216617614031,0.1354832649230957
1782888773058998500,9.19199853515625,-0.06931968778371811,-0.04701651260256767,0.10236605256795883
1782888773068947500,9.201947509765626,-0.05866571143269539,-0.057798851281404495,0.06565064936876297
1782888773078896600,9.211896728515624,-0.05891897529363632,-0.0389774926006794,0.029695311561226845
1782888773088875500,9.22187548828125,-0.06881474703550339,-0.01619441621005535,-0.007078415714204311
1782888773098824400,9.231824462890625,-0.08207036554813385,-0.005526325665414333,-0.03942463919520378
1782888773108773400,9.2417734375,-0.08843985199928284,-0.003325755475088954,-0.06720487028360367
1782888773118721500,9.251721435546875,-0.0914556160569191,0.004248274490237236,-0.09885973483324051
1782888773128701400,9.261701416015624,-0.09163031727075577,0.011579157784581184,-0.11582140624523163
1782888773138649300,9.2716494140625,-0.08339449018239975,0.02149171009659767,-0.11528824269771576
1782888773148598500,9.2815986328125,-0.0473368875682354,0.02870301716029644,-0.09295310825109482
1782888773158547700,9.291547607421874,0.029471073299646378,-0.002266349969431758,-0.04857952147722244
1782888773168526600,9.301526611328125,0.10276871919631958,-0.06319548189640045,0.007322094868868589
1782888773178475500,9.3114755859375,0.14352387189865112,-0.10729449987411499,0.05758819356560707
1782888773188424700,9.3214248046875,0.15022651851177216,-0.15815235674381256,0.08241444826126099
1782888773198372600,9.33137255859375,0.1339215785264969,-0.2145298719406128,0.08866648375988007
1782888773208351500,9.3413515625,0.11535588651895523,-0.25268417596817017,0.07503962516784668
1782888773218300700,9.35130078125,0.09125135093927383,-0.24777545034885406,0.05973257124423981
1782888773228249600,9.36124951171875,0.06552787870168686,-0.18679066002368927,0.04731132090091705
1782888773238198500,9.371198486328124,0.044009801000356674,-0.11135847866535187,0.037409424781799316
1782888773248146400,9.381146484375,0.03201518952846527,-0.05705316737294197,0.019104985520243645
1782888773258126600,9.391126708984375,0.03208549693226814,-0.015995211899280548,0.004220577888190746
1782888773268074500,9.401074462890625,0.04030641168355942,0.022729281336069107,-0.0056951697915792465
1782888773278023400,9.4110234375,0.050579022616147995,0.06360773742198944,-0.006473612040281296
1782888773287972400,9.420972412109375,0.06029316782951355,0.10149147361516953,-0.015386945568025112
1782888773297951500,9.430951416015626,0.0691380575299263,0.13756504654884338,-0.033726006746292114
1782888773307900400,9.440900390625,0.08055663108825684,0.13108478486537933,-0.052007272839546204
1782888773317849600,9.450849609375,0.08580411970615387,0.08440516144037247,-0.07287154346704483
1782888773327797800,9.4607978515625,0.0852496474981308,0.042456381022930145,-0.08058033138513565
1782888773337777700,9.470777587890625,0.06875509768724442,0.03804298862814903,-0.06711938232183456
1782888773347725600,9.4807255859375,0.03382188081741333,0.049196306616067886,-0.043708864599466324
1782888773357674500,9.490674560546875,-0.007778294384479523,0.05711814761161804,-0.014268684200942516
1782888773367623700,9.500623779296875,-0.0365726575255394,0.06650073081254959,0.023501064628362656
1782888773377602600,9.5106025390625,-0.05524461343884468,0.0838746577501297,0.07201533764600754
1782888773387551500,9.520551513671874,-0.06228521093726158,0.10284701734781265,0.12780003249645233
1782888773397499600,9.530499755859376,-0.062000520527362823,0.11149164289236069,0.18089282512664795
1782888773407448600,9.540448486328126,-0.06168413534760475,0.11510954797267914,0.21087734401226044
1782888773417427500,9.550427490234375,-0.05835917964577675,0.12484819442033768,0.212384432554245
1782888773427376400,9.56037646484375,-0.05222032591700554,0.11917619407176971,0.1923273652791977
1782888773437325600,9.57032568359375,-0.04795287922024727,0.09249158203601837,0.14766108989715576
1782888773447274500,9.5802744140625,-0.03500458970665932,0.06914950907230377,0.09782855957746506
1782888773457222400,9.590222412109375,-0.025289909914135933,0.06687916815280914,0.042821500450372696
1782888773467202300,9.600202392578124,-0.012765596620738506,0.06846507638692856,-0.013680391944944859
1782888773477150500,9.610150390625,-0.003485811408609152,0.06114910915493965,-0.0692318007349968
1782888773487099600,9.620099609375,0.0064986455254256725,0.04742823541164398,-0.12143215537071228
1782888773497048600,9.630048583984374,0.026610039174556732,0.041485127061605453,-0.16771575808525085
1782888773507027700,9.64002783203125,0.04622155800461769,0.04289047420024872,-0.20077304542064667
1782888773516976600,9.6499765625,0.05426563695073128,0.036559343338012695,-0.2191946655511856
1782888773526924500,9.659924560546875,0.04982135072350502,0.029109416529536247,-0.22402749955654144
1782888773536873500,9.66987353515625,0.04150350019335747,0.03074353188276291,-0.21240253746509552
1782888773546852600,9.6798525390625,0.029797842726111412,0.04313894733786583,-0.19313962757587433
1782888773556801500,9.689801513671876,0.02684413082897663,0.06642962247133255,-0.1725960075855255
1782888773566750500,9.69975048828125,0.02527952380478382,0.10118573904037476,-0.15353097021579742
1782888773576699400,9.709699462890624,0.026693396270275116,0.13357298076152802,-0.1463436335325241
1782888773586678500,9.719678466796875,0.022591594606637955,0.13732589781284332,-0.15826500952243805
1782888773596627500,9.72962744140625,0.010819890536367893,0.10612190514802933,-0.1798427402973175
1782888773606575600,9.73957568359375,0.0027622305788099766,0.09294219315052032,-0.19299368560314178
1782888773616524500,9.749524658203125,-0.004385427106171846,0.09384633600711823,-0.18977366387844086
1782888773626503400,9.75950341796875,-0.014733672142028809,0.11043623089790344,-0.1723422110080719
1782888773636452400,9.769452392578126,-0.013978932052850723,0.14074832201004028,-0.14621686935424805
1782888773646401500,9.779401611328124,0.0014524880098178983,0.19114598631858826,-0.10867960751056671
1782888773656350700,9.789350830078124,0.016140887513756752,0.23866130411624908,-0.07061025500297546
1782888773666329600,9.79932958984375,0.028436968103051186,0.25910505652427673,-0.029926739633083344
1782888773676278500,9.809278564453125,0.04205850511789322,0.26277729868888855,-0.004579039290547371
1782888773686226700,9.819226806640625,0.04181988537311554,0.2496393918991089,0.007383880205452442
1782888773696175600,9.829175537109375,0.0641893744468689,0.20141886174678802,0.025142904371023178
1782888773706124500,9.83912451171875,0.11013955622911453,0.10856536030769348,0.032820798456668854
1782888773716103700,9.849103759765624,0.12253870069980621,0.09721150249242783,0.0008740494376979768
1782888773726052600,9.859052490234374,0.10831315815448761,0.09066358953714371,-0.04159697890281677
1782888773736000500,9.86900048828125,0.10192742943763733,0.08001147955656052,-0.09835027158260345
1782888773745949400,9.878949462890626,0.08381873369216919,0.12052135169506073,-0.17104710638523102
1782888773755928600,9.888928466796875,0.0760236606001854,0.1646544635295868,-0.23391342163085938
1782888773765877500,9.89887744140625,0.07415199279785156,0.19670774042606354,-0.28427886962890625
1782888773775826400,9.908826416015625,0.06902487576007843,0.1672087013721466,-0.31037357449531555
1782888773785775400,9.918775390625,0.05794452503323555,0.1245131641626358,-0.3163244128227234
1782888773795754500,9.92875439453125,0.05120433121919632,0.08616285026073456,-0.3005169630050659
1782888773805703700,9.93870361328125,0.03641127049922943,0.04147261008620262,-0.2753024101257324
1782888773815651600,9.948651611328126,0.024467526003718376,0.006012884899973869,-0.24845269322395325
1782888773825600500,9.9586005859375,0.0075663067400455475,-0.0035691685043275356,-0.22648213803768158
1782888773835579600,9.96857958984375,0.0004695153038483113,-0.01133973989635706,-0.2065904587507248
1782888773845528600,9.978528564453125,-0.0019142802339047194,-0.03170280158519745,-0.19921456277370453
1782888773855477500,9.9884775390625,-0.0014650048688054085,-0.020411798730492592,-0.19291965663433075
1782888773865425700,9.99842578125,0.004141747951507568,0.013247362338006496,-0.18515387177467346
1782888773875408400,10.008408447265625,0.01925758458673954,0.04180683568120003,-0.16319584846496582
1782888773885356500,10.0183564453125,0.02845294587314129,0.05596499890089035,-0.13316604495048523
1782888773895305500,10.028305419921875,0.02780979312956333,0.0440974198281765,-0.09176347404718399
1782888773905254400,10.03825439453125,0.016415458172559738,0.0009992180857807398,-0.05006156861782074
1782888773915203300,10.048203369140625,-0.019450662657618523,-0.034149982035160065,-0.026934944093227386
1782888773925182500,10.058182373046876,-0.023513847962021828,0.02219824679195881,0.0205119326710701
1782888773935131400,10.06813134765625,0.007474428042769432,0.03934554010629654,0.03191026300191879
1782888773945079300,10.078079345703125,0.058888085186481476,-0.04099483788013458,0.009413741528987885
1782888773955028500,10.088028564453126,0.0830077975988388,-0.0636303722858429,-0.028493426740169525
1782888773965007400,10.09800732421875,0.080768883228302,-0.009327189065515995,-0.07277487218379974
1782888773974956500,10.10795654296875,0.06587541848421097,0.022164158523082733,-0.14028947055339813
1782888773984905500,10.117905517578125,0.05487310141324997,0.019883958622813225,-0.19311672449111938
1782888773994854400,10.1278544921875,0.041787393391132355,0.017018131911754608,-0.2155221700668335
1782888774004833500,10.13783349609375,0.029107019305229187,0.013488644734025002,-0.19867713749408722
1782888774014781400,10.147781494140625,0.019891150295734406,-0.004180896561592817,-0.15392085909843445
1782888774024730400,10.15773046875,0.008474977687001228,-0.03211372718214989,-0.10453999042510986
1782888774034679300,10.16767919921875,-0.0046964846551418304,-0.06166629493236542,-0.06792205572128296
1782888774044658400,10.177658447265625,-0.022843530401587486,-0.07813634723424911,-0.04621969163417816
1782888774054607400,10.187607421875,-0.04081134498119354,-0.0876893699169159,-0.03765736520290375
1782888774064556300,10.197556396484375,-0.04310006648302078,-0.10067334771156311,-0.033252496272325516
1782888774074504400,10.20750439453125,-0.0436987429857254,-0.10078759491443634,-0.03182237967848778
1782888774084484400,10.217484375,-0.0995340496301651,-0.026129871606826782,-0.040770597755908966
1782888774094432300,10.227432373046875,-0.13638074696063995,0.03235980495810509,-0.07074101269245148
1782888774104381400,10.23738134765625,-0.1167985200881958,0.01709083653986454,-0.07312134653329849
1782888774114330600,10.24733056640625,-0.056176185607910156,0.0005198490689508617,-0.05051031336188316
1782888774124279600,10.257279541015626,-0.0478852353990078,0.04170696809887886,-0.05554954335093498
1782888774134258400,10.267258544921875,-0.0628572627902031,0.045349638909101486,-0.08701186627149582
1782888774144207400,10.277207275390625,-0.03862755373120308,-0.029377063736319542,-0.07595628499984741
1782888774154155500,10.287155517578125,-0.0014421016676351428,-0.060262542217969894,-0.049852244555950165
1782888774164104400,10.2971044921875,0.02130209282040596,-0.06798864156007767,-0.04874756559729576
1782888774174083600,10.30708349609375,0.03855245187878609,-0.09764479845762253,-0.06833618134260178
1782888774184032500,10.317032470703126,0.052016861736774445,-0.11905874311923981,-0.09850580245256424
1782888774193981400,10.3269814453125,0.060880396515131,-0.12081403285264969,-0.13553066551685333
1782888774203929300,10.336929443359375,0.06136216223239899,-0.09753747284412384,-0.17702777683734894
1782888774213909500,10.346909423828125,0.059593554586172104,-0.068694107234478,-0.20625703036785126
1782888774223857400,10.356857421875,0.058589011430740356,-0.0441240519285202,-0.2123705893754959
1782888774233806300,10.366806396484375,0.05969076231122017,-0.031006118282675743,-0.19862841069698334
1782888774243755300,10.37675537109375,0.06315766274929047,-0.02737489901483059,-0.15999871492385864
1782888774253734400,10.386734375,0.06168093904852867,-0.029028987511992455,-0.10477647930383682
1782888774263683300,10.396683349609376,0.05679324269294739,-0.04020840674638748,-0.046792007982730865
1782888774273632500,10.406632568359376,0.04839363321661949,-0.04328222572803497,-0.005390770733356476
1782888774283580400,10.416580322265625,0.03785790130496025,-0.0456676185131073,0.0065740132704377174
1782888774293560600,10.426560546875,0.01549320574849844,-0.03729091212153435,-0.0007187871960923076
1782888774303508500,10.436508544921875,-0.009557019919157028,0.026512300595641136,-0.004247475415468216
1782888774313457400,10.44645751953125,-0.02263101004064083,0.0949358344078064,0.013878797180950642
1782888774323406300,10.45640625,-0.031675372272729874,0.1067592054605484,0.05476045235991478
1782888774333385500,10.466385498046876,-0.037204891443252563,0.06771966069936752,0.10079851746559143
1782888774343334400,10.47633447265625,-0.04869776591658592,0.016464194282889366,0.1469031572341919
1782888774353282600,10.486282470703125,-0.06440695375204086,-0.01588655449450016,0.1860063523054123
1782888774363231500,10.4962314453125,-0.07761676609516144,-0.0418664887547493,0.21100278198719025
1782888774373180400,10.506180419921876,-0.07799067348241806,-0.05113508924841881,0.21499912440776825
1782888774383159300,10.5161591796875,-0.06184179708361626,-0.03188469633460045,0.20770712196826935
1782888774393108500,10.5261083984375,-0.044313400983810425,-0.00977460015565157,0.1899329125881195
1782888774403057400,10.536057373046875,-0.026196183636784554,0.007215036079287529,0.16302327811717987
1782888774413005300,10.54600537109375,-0.010142115876078606,0.010568488389253616,0.12732306122779846
1782888774422985200,10.555985107421876,0.00672181835398078,0.02197267673909664,0.08966490626335144
1782888774432933400,10.565933349609375,0.019719641655683517,0.04393550008535385,0.05763746425509453
1782888774442882300,10.57588232421875,0.02672189101576805,0.05451943352818489,0.031385619193315506
1782888774452831500,10.58583154296875,0.031123297289013863,0.036199282854795456,0.011235344223678112
1782888774462810600,10.595810546875,0.03166711702942848,0.0057249972596764565,-0.012179434299468994
1782888774472759600,10.605759521484375,0.03329324349761009,-0.024635571986436844,-0.03143275901675224
1782888774482708500,10.61570849609375,0.03479047119617462,-0.036794766783714294,-0.04493391886353493
1782888774492656400,10.625656494140625,0.03642325475811958,-0.04080255702137947,-0.05366802215576172
1782888774502636500,10.635636474609376,0.04301084950566292,-0.04091227799654007,-0.05416017398238182
1782888774512584400,10.64558447265625,0.04717976227402687,-0.03392334654927254,-0.047079894691705704
1782888774522533400,10.655533447265626,0.04906022176146507,-0.015367238782346249,-0.02322090044617653
1782888774532482300,10.665482421875,0.041305627673864365,0.004727643448859453,0.008832640014588833
1782888774542461400,10.67546142578125,0.04111148416996002,0.006234992761164904,0.03759744390845299
1782888774552410400,10.685410400390625,0.04147820174694061,0.0067846691235899925,0.05379532277584076
1782888774562358300,10.695358154296875,0.04652329161763191,0.006485862657427788,0.056298691779375076
1782888774572307500,10.705307373046875,0.04677176475524902,0.01074079517275095,0.043426837772130966
1782888774582256400,10.71525634765625,0.0501348078250885,0.00606401776894927,0.029927805066108704
1782888774592235300,10.7252353515625,0.04874357208609581,-0.0005262406193651259,0.010728278197348118
1782888774602184400,10.735184326171876,0.04150722920894623,-0.011683288030326366,-0.009768474847078323
1782888774612133400,10.74513330078125,0.03135605901479721,-0.02580949291586876,-0.025856630876660347
1782888774622081500,10.75508154296875,0.02881460450589657,-0.028053471818566322,-0.03556092455983162
1782888774632061400,10.7650615234375,0.028737638145685196,-0.016886038705706596,-0.03609142452478409
1782888774642009600,10.775009521484375,0.031790684908628464,-0.008959406055510044,-0.03290868178009987
1782888774651958500,10.78495849609375,0.0406118743121624,-0.00010093380114994943,-0.02522306516766548
1782888774661907500,10.794907470703125,0.0490327887237072,0.007729825098067522,-0.003939880523830652
1782888774671886300,10.80488623046875,0.05353672802448273,0.011267301626503468,0.026249714195728302
1782888774681835500,10.81483544921875,0.052322592586278915,0.010265421122312546,0.055685367435216904
1782888774691783400,10.824783447265625,0.04980936646461487,-0.0013403689954429865,0.08176703751087189
1782888774701732400,10.834732421875,0.049602705985307693,-0.01894359663128853,0.09130407869815826
1782888774711711500,10.84471142578125,0.05056650564074516,-0.027356524020433426,0.09122791141271591
1782888774721660400,10.854660400390625,0.05363739654421806,-0.03075125440955162,0.0853511169552803
1782888774731609300,10.864609375,0.05561239644885063,-0.017651431262493134,0.07762768119573593
1782888774741558300,10.874558349609375,0.06041167676448822,-0.01966877654194832,0.06920463591814041
1782888774751537400,10.884537353515626,0.060395967215299606,-0.02118145115673542,0.06341519206762314
1782888774761486600,10.894486572265626,0.057744257152080536,-0.007941014133393764,0.05927477404475212
1782888774771434200,10.904434326171875,0.04837578907608986,0.00048176583368331194,0.06179092824459076
1782888774781383400,10.914383544921876,0.03700435534119606,0.012922722846269608,0.0686003640294075
1782888774791332600,10.92433251953125,0.02443663403391838,0.02545236237347126,0.08229167759418488
1782888774801311500,10.9343115234375,0.012702745385468006,0.028325913473963737,0.09097118675708771
1782888774811260400,10.944260498046875,0.0031164311803877354,0.01720881462097168,0.09426657855510712
1782888774821209300,10.954209228515625,0.0027515781112015247,0.00914263166487217,0.08763877302408218
1782888774831157500,10.964157470703125,0.00839827861636877,0.010240919888019562,0.07805325835943222
1782888774841136400,10.974136474609375,0.01110138650983572,0.011263839900493622,0.06517527252435684
1782888774851085300,10.984085205078125,0.013905695639550686,0.014518755488097668,0.05564462020993233
1782888774861034500,10.994034423828126,0.023020364344120026,0.01775209978222847,0.04508625343441963
1782888774870983400,11.0039833984375,0.03213396668434143,0.013688381761312485,0.034620027989149094
1782888774880979000,11.01397900390625,0.03864806145429611,0.012691027484834194,0.033124398440122604
1782888774890927900,11.023927978515625,0.04211070016026497,0.010186324827373028,0.029402896761894226
1782888774900875800,11.033875732421874,0.0433725081384182,0.007410778198391199,0.029135514050722122
1782888774910824700,11.04382470703125,0.041725873947143555,0.00917645450681448,0.027753867208957672
1782888774920803800,11.053803955078125,0.03965180367231369,0.018688200041651726,0.021513015031814575
1782888774930752800,11.063752685546875,0.03640301525592804,0.024229438975453377,0.017916683107614517
1782888774940701700,11.07370166015625,0.028661206364631653,0.015607988461852074,0.023245135322213173
1782888774950650600,11.083650634765625,0.02160116657614708,0.012076370418071747,0.025050757452845573
1782888774960629800,11.093629638671874,0.01555126253515482,0.013657488860189915,0.0324799120426178
1782888774970579000,11.103578857421875,0.010360228829085827,0.022825421765446663,0.03815297782421112
1782888774980526600,11.113526611328124,0.00902598537504673,0.03374091908335686,0.04749481379985809
1782888774990475800,11.123475830078124,0.0017688715597614646,0.03664429858326912,0.05637725442647934
1782888775000455000,11.133454833984375,-0.0029848709236830473,0.0350959338247776,0.06055016443133354
1782888775010403800,11.14340380859375,-0.004680239129811525,0.03666267171502113,0.060133643448352814
1782888775020352800,11.153352783203125,-0.0029057750944048166,0.03152783215045929,0.04957208037376404
1782888775030301000,11.163301025390625,-0.0028767467010766268,0.02227175049483776,0.023684823885560036
1782888775040249900,11.173249755859375,0.004540956113487482,0.017138773575425148,-0.00566880451515317
1782888775050228700,11.183228759765624,0.010614028200507164,0.014080132357776165,-0.02701910026371479
1782888775060178000,11.193177978515624,0.010217217728495598,0.01369264256209135,-0.022544989362359047
1782888775070126800,11.203126953125,0.009297894313931465,0.024934910237789154,-0.002403769176453352
1782888775080075800,11.21307568359375,0.0128761176019907,0.03567703813314438,0.03544427827000618
1782888775090054700,11.2230546875,0.014782940968871117,0.03205780312418938,0.06595771014690399
1782888775100003800,11.23300390625,0.020550282672047615,0.012459066696465015,0.08650719374418259
1782888775109951700,11.24295166015625,0.030842067673802376,0.00017896443023346364,0.09313447028398514
1782888775119900700,11.252900634765625,0.04039056599140167,-0.0005097290268167853,0.08632024377584457
1782888775129879800,11.2628798828125,0.048703357577323914,-0.0022479742765426636,0.06408178061246872
1782888775139828700,11.272828857421874,0.05007461830973625,-0.0025574336759746075,0.0417461134493351
1782888775149778000,11.28277783203125,0.04887113720178604,-0.011275824159383774,0.0253349170088768
1782888775159725800,11.292725830078124,0.045055091381073,-0.011033476330339909,0.011963185854256153
1782888775169706000,11.3027060546875,0.04369901120662689,0.0034882084000855684,0.009249424561858177
1782888775179654000,11.31265380859375,0.03850611299276352,0.017191236838698387,0.014152304269373417
1782888775189602800,11.322602783203125,0.039974313229322433,0.025586852803826332,0.02929637022316456
1782888775199551700,11.3325517578125,0.03915512561798096,0.022227007895708084,0.03474067151546478
1782888775209531000,11.34253076171875,0.03961292281746864,0.013060408644378185,0.04388303682208061
1782888775219479800,11.352479736328124,0.03639395907521248,-0.00010146643762709573,0.04181775450706482
1782888775229428700,11.3624287109375,0.030793864279985428,-0.012206066399812698,0.03567943349480629
1782888775239377000,11.372376953125,0.033007752150297165,-0.019233616068959236,0.024229438975453377
1782888775249325800,11.382325927734374,0.036433376371860504,-0.02225976623594761,0.010664628818631172
1782888775259304700,11.3923046875,0.043179962784051895,-0.024765800684690475,-0.0007669904152862728
1782888775269253600,11.402253662109375,0.04572141543030739,-0.02142992429435253,-0.005456284619867802
1782888775279202800,11.412202880859375,0.04541807994246483,-0.00755059439688921,-0.004622981417924166
1782888775289152000,11.422152099609375,0.042700592428445816,0.009735718369483948,-0.0015393070643767715
1782888775299130600,11.432130615234374,0.04003050550818443,0.010974886827170849,0.009136239998042583
1782888775309079800,11.442079833984375,0.03945393115282059,0.014036190696060658,0.021025655791163445
1782888775319028000,11.452028076171874,0.041012682020664215,0.009016131982207298,0.03429698571562767
1782888775328977000,11.461976806640624,0.03808879479765892,-0.0008024104172363877,0.038492798805236816
1782888775338955800,11.471955810546875,0.03668690845370293,-0.008385495282709599,0.030356308445334435
1782888775348905000,11.481905029296875,0.03405623883008957,-0.013019661419093609,0.015233281068503857
1782888775358854000,11.49185400390625,0.03187617287039757,-0.006788930390030146,-0.0035151063930243254
1782888775368801800,11.5018017578125,0.029676934704184532,0.004661597311496735,-0.01623809151351452
1782888775378781700,11.51178173828125,0.027166640385985374,0.010905112139880657,-0.025356488302350044
1782888775388729900,11.521729736328124,0.026606310158967972,0.0036250948905944824,-0.033601634204387665
1782888775398678800,11.5316787109375,0.025121597573161125,0.0001776328426785767,-0.037760693579912186
1782888775408627700,11.541627685546874,0.03490445390343666,0.003340935567393899,-0.04225797578692436
1782888775418606800,11.55160693359375,0.03790237382054329,0.00891067087650299,-0.041303765028715134
1782888775428555800,11.5615556640625,0.037207022309303284,0.007524229120463133,-0.036018721759319305
1782888775438504700,11.571504638671875,0.03207670897245407,0.008345814421772957,-0.03037894517183304
1782888775448452600,11.58145263671875,0.029559755697846413,0.016404805704951286,-0.02251409739255905
1782888775458401800,11.59140185546875,0.027936825528740883,0.018391257151961327,-0.018246915191411972
1782888775468380700,11.601380615234374,0.027126692235469818,0.015134744346141815,-0.012680641375482082
1782888775478329900,11.611329833984374,0.029155222699046135,0.002281263703480363,-0.019279954954981804
1782888775488278800,11.62127880859375,0.03189268708229065,0.00666322885081172,-0.02190503291785717
1782888775498227000,11.63122705078125,0.031006917357444763,0.005878395400941372,-0.02106533758342266
1782888775508206800,11.641206787109375,0.026977289468050003,0.005860285833477974,-0.02003948763012886
1782888775518154800,11.65115478515625,0.02328455075621605,0.011987953446805477,-0.014968296512961388
1782888775528104000,11.66110400390625,0.025597505271434784,0.013493970967829227,-0.0068238177336752415
1782888775538052900,11.671052978515625,0.02690538391470909,0.010913633741438389,-0.0007680556736886501
1782888775548031700,11.68103173828125,0.02395220473408699,0.016116918995976448,0.002531600883230567
1782888775557980700,11.690980712890624,0.02407151460647583,0.01667618192732334,0.007505586836487055
1782888775567929900,11.700929931640625,0.018679678440093994,0.012824985198676586,0.0060174125246703625
1782888775577877800,11.710877685546874,0.013470002450048923,0.013485714793205261,0.006200904026627541
1782888775587857700,11.720857666015625,0.011053450405597687,0.012914200313389301,0.01233150064945221
1782888775597805800,11.730805908203125,0.011639878153800964,0.015080948360264301,0.01918887533247471
1782888775607754800,11.740754638671875,0.012522982433438301,0.012350409291684628,0.03068201243877411
1782888775617703700,11.75070361328125,0.013568006455898285,0.014977618120610714,0.04193359985947609
1782888775627682600,11.7606826171875,0.014094780199229717,0.021976672112941742,0.04578506574034691
1782888775637632000,11.770632080078125,0.015955796465277672,0.027216972783207893,0.040651023387908936
1782888775647580000,11.780579833984374,0.016054866835474968,0.024044083431363106,0.03331960737705231
1782888775657528800,11.79052880859375,0.0167909637093544,0.0076147764921188354,0.014421016909182072
1782888775667508000,11.800508056640625,0.009502158500254154,-0.006626477465033531,-0.008096808567643166
1782888775677457000,11.810456787109375,0.0046512107364833355,-0.0121251055970788,-0.028658542782068253
1782888775687405800,11.82040576171875,0.0032618397381156683,-0.008227836340665817,-0.03922782838344574
1782888775697354800,11.830354736328125,-0.0015249260468408465,-0.0013164004776626825,-0.04014315828680992
1782888775707303000,11.840302978515625,-0.001466602785512805,0.018497250974178314,-0.03134753555059433
1782888775717282800,11.85028271484375,0.005179582163691521,0.032949961721897125,-0.017049023881554604
1782888775727230700,11.860230712890624,0.01537336315959692,0.026098977774381638,-0.006988667417317629
1782888775737179600,11.8701796875,0.021443506702780724,0.021144965663552284,-0.00035606464371085167
1782888775747128800,11.88012890625,0.020674917846918106,0.022610237821936607,0.0017044231062754989
1782888775757107700,11.890107666015625,0.012265454977750778,0.01932336390018463,-0.00025007082149386406
1782888775767056600,11.900056640625,0.007271228823810816,0.00996155384927988,-0.006075202953070402
1782888775777005600,11.910005615234375,0.008992962539196014,-0.01191018894314766,-0.02177640236914158
1782888775786953700,11.91995361328125,0.009906692430377007,-0.039924778044223785,-0.04854782670736313
1782888775796934000,11.929933837890625,0.010631605051457882,-0.046307045966386795,-0.08577162772417068
1782888775806881800,11.9398818359375,0.015111574903130531,-0.03966059535741806,-0.11174251139163971
1782888775816831000,11.9498310546875,0.02256869152188301,-0.02671363577246666,-0.12049951404333115
1782888775826780000,11.95977978515625,0.02202780358493328,-0.013451360166072845,-0.1127217561006546
1782888775836758800,11.9697587890625,0.0195476021617651,0.006598247680813074,-0.08819244056940079
1782888775846707700,11.979707763671875,0.015147261321544647,0.022536201402544975,-0.05818953737616539
1782888775856656000,11.98965576171875,0.012221246026456356,0.022943664342164993,-0.029086779803037643
1782888775866604800,11.999604736328125,0.013728328980505466,0.016112390905618668,-0.0021848573815077543
1782888775876604700,12.009604736328125,0.011247861199080944,0.010390855371952057,0.007386011071503162
1782888775886553900,12.019553955078125,0.0017888452857732773,0.03062342293560505,-0.0006793724023737013
1782888775896502800,12.029502685546875,0.005115932319313288,0.02913152053952217,-0.0018841864075511694
1782888775906451700,12.03945166015625,0.009639844298362732,0.01170352753251791,-0.0006756439688615501
1782888775916399600,12.049399658203125,0.01299542747437954,0.00869255792349577,0.00515854312106967
1782888775926379800,12.0593798828125,0.010424145497381687,0.004284759983420372,0.016172045841813087
1782888775936327700,12.06932763671875,0.012105132453143597,-0.002682602033019066,0.01798672415316105
1782888775946276900,12.07927685546875,0.013500096276402473,-0.003871171036735177,0.022778283804655075
1782888775956225800,12.089225830078124,0.017360614612698555,0.0014343785587698221,0.021766813471913338
1782888775966205000,12.099204833984375,0.0192546546459198,0.008403072133660316,0.02582041174173355
1782888775976153900,12.10915380859375,0.018093783408403397,0.017588846385478973,0.02359933592379093
1782888775986101800,12.119101806640625,0.017647171393036842,0.01774757169187069,0.022777751088142395
1782888775996051000,12.129051025390625,0.017299095168709755,0.018148377537727356,0.024602282792329788
