time,seconds_elapsed,z,y,x
1783169025484320000,0.094320068359375,-0.98602294921875,-0.035430908203125,-0.0052947998046875
1783169025494269000,0.10426904296875,-0.98712158203125,-0.03424072265625,-0.00799560546875
1783169025504247800,0.114247802734375,-0.986968994140625,-0.0336456298828125,-0.007293701171875
1783169025514197000,0.124197021484375,-0.9865570068359375,-0.0343170166015625,-0.0044708251953125
1783169025524145000,0.134144775390625,-0.9865264892578125,-0.0352325439453125,-0.00164794921875
1783169025534094000,0.144093994140625,-0.98602294921875,-0.03533935546875,0.002716064453125
1783169025544073200,0.1540732421875,-0.987396240234375,-0.0349578857421875,0.0052337646484375
1783169025554022100,0.164022216796875,-0.986907958984375,-0.033416748046875,0.005615234375
1783169025563971000,0.17397119140625,-0.9874420166015625,-0.032745361328125,0.0033416748046875
1783169025573920000,0.183919921875,-0.9869537353515625,-0.0319061279296875,-0.0002593994140625
1783169025583899100,0.193899169921875,-0.9861602783203125,-0.0311737060546875,-0.00384521484375
1783169025593848000,0.20384814453125,-0.9872283935546875,-0.031341552734375,-0.0062103271484375
1783169025603796000,0.2137958984375,-0.9859771728515625,-0.031646728515625,-0.006561279296875
1783169025613776000,0.22377587890625,-0.986785888671875,-0.0326385498046875,-0.0038299560546875
1783169025623724000,0.23372412109375,-0.9869384765625,-0.0341796875,0.0001678466796875
1783169025633673000,0.2436728515625,-0.9867095947265625,-0.0342864990234375,0.0012359619140625
1783169025643622000,0.253621826171875,-0.9869537353515625,-0.0334014892578125,0.002288818359375
1783169025653601000,0.26360107421875,-0.987762451171875,-0.0324249267578125,0.001678466796875
1783169025663550000,0.273550048828125,-0.9870452880859375,-0.032806396484375,-0.0005645751953125
1783169025673497900,0.283497802734375,-0.9866943359375,-0.033050537109375,-0.003662109375
1783169025683446800,0.29344677734375,-0.9871826171875,-0.0334930419921875,-0.00701904296875
1783169025693426000,0.303426025390625,-0.98638916015625,-0.0347442626953125,-0.0077056884765625
1783169025703375000,0.313375,-0.9865264892578125,-0.034912109375,-0.0057525634765625
1783169025713324000,0.323323974609375,-0.98699951171875,-0.0352325439453125,-0.0025787353515625
1783169025723273000,0.33327294921875,-0.9871063232421875,-0.0360260009765625,0.0004119873046875
1783169025733252000,0.343252197265625,-0.9875946044921875,-0.0358123779296875,0.0023040771484375
1783169025743201000,0.353200927734375,-0.9870147705078125,-0.03570556640625,0.0027618408203125
1783169025753149000,0.36314892578125,-0.9870147705078125,-0.0349578857421875,0.00262451171875
1783169025763129000,0.373129150390625,-0.9867401123046875,-0.033203125,0.000640869140625
1783169025773077000,0.383076904296875,-0.9868927001953125,-0.033905029296875,-0.001373291015625
1783169025783026000,0.39302587890625,-0.98681640625,-0.0334014892578125,-0.004119873046875
1783169025792974600,0.402974609375,-0.9869842529296875,-0.0325469970703125,-0.00445556640625
1783169025802953700,0.41295361328125,-0.986602783203125,-0.0328826904296875,-0.004150390625
1783169025812902700,0.422902587890625,-0.98614501953125,-0.0330810546875,-0.0023040771484375
1783169025822850800,0.432850830078125,-0.9861602783203125,-0.0328369140625,0.0003662109375
1783169025832799700,0.4427998046875,-0.9860382080078125,-0.0340728759765625,0.0010986328125
1783169025842778600,0.452778564453125,-0.9859619140625,-0.033355712890625,0.001708984375
1783169025852727600,0.4627275390625,-0.987030029296875,-0.0340423583984375,0.0009765625
1783169025862676700,0.4726767578125,-0.9868011474609375,-0.0333404541015625,-0.00177001953125
1783169025872656000,0.48265576171875,-0.98638916015625,-0.0325775146484375,-0.0033416748046875
1783169025882604800,0.492604736328125,-0.9864501953125,-0.0333404541015625,-0.0040283203125
1783169025892553700,0.5025537109375,-0.986114501953125,-0.0322418212890625,-0.0042572021484375
1783169025902502000,0.512501953125,-0.9863739013671875,-0.0333404541015625,-0.003265380859375
1783169025912481800,0.522481689453125,-0.98626708984375,-0.0344696044921875,-0.001373291015625
1783169025922429700,0.5324296875,-0.9874267578125,-0.0346221923828125,-0.0004730224609375
1783169025932379000,0.54237890625,-0.987640380859375,-0.035247802734375,0.0012664794921875
1783169025942327800,0.552327880859375,-0.9862213134765625,-0.0349273681640625,0.0012664794921875
1783169025952306700,0.562306640625,-0.9864501953125,-0.0347137451171875,-0.0001373291015625
1783169025962255600,0.572255615234375,-0.9873046875,-0.034912109375,-0.000396728515625
1783169025972204800,0.582204833984375,-0.986236572265625,-0.0343780517578125,-0.0019378662109375
1783169025982152700,0.592152587890625,-0.9857940673828125,-0.0335235595703125,-0.0024566650390625
1783169025992132600,0.602132568359375,-0.9866485595703125,-0.034759521484375,-0.0023345947265625
1783169026002080800,0.612080810546875,-0.98626708984375,-0.0332489013671875,-0.003021240234375
1783169026012029700,0.62202978515625,-0.986480712890625,-0.0334014892578125,-0.0023193359375
1783169026022008600,0.632008544921875,-0.9865875244140625,-0.033477783203125,-0.0010528564453125
1783169026031957800,0.641957763671875,-0.98626708984375,-0.0337066650390625,-0.00030517578125
1783169026041907000,0.651906982421875,-0.986572265625,-0.0338287353515625,0
1783169026051854800,0.661854736328125,-0.986297607421875,-0.033203125,0.0000152587890625
1783169026061834800,0.671834716796875,-0.98681640625,-0.0328521728515625,-0.000762939453125
1783169026071783000,0.681782958984375,-0.98583984375,-0.032745361328125,-0.00262451171875
1783169026081731800,0.69173193359375,-0.9862060546875,-0.032989501953125,-0.0030059814453125
1783169026091680800,0.7016806640625,-0.9850311279296875,-0.0333099365234375,-0.0021820068359375
1783169026101659600,0.71165966796875,-0.9857025146484375,-0.03448486328125,-0.0015869140625
1783169026111608800,0.72160888671875,-0.9857330322265625,-0.03387451171875,-0.001190185546875
1783169026121557800,0.731557861328125,-0.9860382080078125,-0.03350830078125,-0.001068115234375
1783169026131536600,0.74153662109375,-0.9851531982421875,-0.03338623046875,-0.000213623046875
1783169026141485600,0.751485595703125,-0.9870758056640625,-0.0335540771484375,0.0001678466796875
1783169026151433700,0.761433837890625,-0.98602294921875,-0.0343017578125,-0.0003204345703125
1783169026161382700,0.771382568359375,-0.9858551025390625,-0.034912109375,0.0009307861328125
1783169026171361800,0.78136181640625,-0.9857940673828125,-0.0345916748046875,-0.00067138671875
1783169026181310700,0.791310791015625,-0.9853515625,-0.035125732421875,-0.002197265625
1783169026191260000,0.801260009765625,-0.9865264892578125,-0.034698486328125,-0.0009918212890625
1783169026201207600,0.81120751953125,-0.9859466552734375,-0.0346832275390625,-0.0017852783203125
1783169026211187700,0.821187744140625,-0.986907958984375,-0.03472900390625,-0.0024261474609375
1783169026221136000,0.831135986328125,-0.986175537109375,-0.03350830078125,-0.00262451171875
1783169026231084800,0.841084716796875,-0.9864044189453125,-0.032684326171875,-0.0019683837890625
1783169026241033700,0.85103369140625,-0.9864044189453125,-0.0329437255859375,-0.000701904296875
1783169026251012900,0.861012939453125,-0.9861602783203125,-0.03302001953125,-0.000244140625
1783169026260961800,0.8709619140625,-0.987335205078125,-0.03240966796875,-0.0010833740234375
1783169026270910700,0.88091064453125,-0.9866485595703125,-0.0335235595703125,-0.001495361328125
1783169026280889900,0.890889892578125,-0.985443115234375,-0.034393310546875,-0.0021514892578125
1783169026290838800,0.9008388671875,-0.986053466796875,-0.033172607421875,-0.0019378662109375
1783169026300786700,0.91078662109375,-0.9853515625,-0.033233642578125,-0.00238037109375
1783169026310735600,0.920735595703125,-0.98590087890625,-0.033050537109375,-0.0016021728515625
1783169026320714800,0.93071484375,-0.985137939453125,-0.033294677734375,0
1783169026330663700,0.94066357421875,-0.9855804443359375,-0.032806396484375,-0.000823974609375
1783169026340612600,0.950612548828125,-0.986846923828125,-0.0332794189453125,-0.0003509521484375
1783169026350560800,0.960560791015625,-0.987213134765625,-0.03436279296875,0.0001678466796875
1783169026360541000,0.970541015625,-0.9864349365234375,-0.0343170166015625,-0.00103759765625
1783169026370488600,0.980488525390625,-0.986053466796875,-0.034698486328125,-0.002105712890625
1783169026380437800,0.990437744140625,-0.9865264892578125,-0.03558349609375,-0.00274658203125
1783169026390387000,1.000386962890625,-0.9864349365234375,-0.0344390869140625,-0.0019073486328125
1783169026400365800,1.01036572265625,-0.9865264892578125,-0.0337982177734375,-0.0019683837890625
1783169026410314800,1.020314697265625,-0.9864654541015625,-0.034454345703125,-0.0016632080078125
1783169026420263700,1.030263671875,-0.985931396484375,-0.0339508056640625,-0.001953125
1783169026430242800,1.040242919921875,-0.986175537109375,-0.0344390869140625,-0.0022735595703125
1783169026440191700,1.050191650390625,-0.98626708984375,-0.03375244140625,-0.001800537109375
1783169026450139600,1.0601396484375,-0.9873504638671875,-0.033843994140625,-0.0015869140625
1783169026460088800,1.0700888671875,-0.986968994140625,-0.0332794189453125,-0.00189208984375
1783169026470067700,1.080067626953125,-0.9862213134765625,-0.03369140625,-0.0019073486328125
1783169026480016600,1.0900166015625,-0.98565673828125,-0.0338287353515625,-0.0015411376953125
1783169026489965600,1.099965576171875,-0.98675537109375,-0.0329437255859375,-0.0000762939453125
1783169026499913700,1.109913818359375,-0.9860076904296875,-0.03228759765625,-0.0003509521484375
1783169026509893600,1.1198935546875,-0.9856414794921875,-0.0334625244140625,-0.0005950927734375
1783169026519841800,1.129841796875,-0.9862518310546875,-0.03399658203125,-0.0002288818359375
1783169026529790700,1.139790771484375,-0.9871826171875,-0.0340118408203125,-0.000244140625
1783169026539769600,1.14976953125,-0.986907958984375,-0.03485107421875,-0.00140380859375
1783169026549718800,1.15971875,-0.9859619140625,-0.033355712890625,-0.002197265625
1783169026559667700,1.169667724609375,-0.986480712890625,-0.0337982177734375,-0.0020751953125
1783169026569617000,1.179616943359375,-0.987060546875,-0.0349273681640625,-0.0027313232421875
1783169026579595800,1.189595703125,-0.985260009765625,-0.0344696044921875,-0.0015106201171875
1783169026589544700,1.199544677734375,-0.9866180419921875,-0.03436279296875,-0.00079345703125
1783169026599492900,1.209492919921875,-0.9864349365234375,-0.03521728515625,-0.0009613037109375
1783169026609441800,1.21944189453125,-0.9856109619140625,-0.0346832275390625,-0.0008544921875
1783169026619420700,1.229420654296875,-0.9866180419921875,-0.0348052978515625,-0.000518798828125
1783169026629369900,1.239369873046875,-0.9864349365234375,-0.033782958984375,-0.00115966796875
1783169026639318800,1.24931884765625,-0.9867401123046875,-0.033477783203125,-0.00238037109375
1783169026649267700,1.259267822265625,-0.9857940673828125,-0.0333251953125,-0.0030059814453125
1783169026659246600,1.26924658203125,-0.9855194091796875,-0.0334625244140625,-0.0025634765625
1783169026669194800,1.27919482421875,-0.9855499267578125,-0.033538818359375,-0.001983642578125
1783169026679143700,1.289143798828125,-0.9868621826171875,-0.03363037109375,-0.00091552734375
1783169026689122600,1.29912255859375,-0.986358642578125,-0.0335693359375,-0.0010528564453125
1783169026699071700,1.30907177734375,-0.9868621826171875,-0.033355712890625,-0.0006866455078125
1783169026709021000,1.31902099609375,-0.9867095947265625,-0.033294677734375,-0.0006256103515625
1783169026718969900,1.328969970703125,-0.9861297607421875,-0.0338592529296875,-0.0010833740234375
1783169026728948700,1.33894873046875,-0.9868316650390625,-0.0333251953125,-0.0007171630859375
1783169026738898000,1.34889794921875,-0.9861907958984375,-0.0342254638671875,-0.0016326904296875
1783169026748845800,1.358845703125,-0.9863128662109375,-0.0339813232421875,-0.00189208984375
1783169026758794800,1.368794677734375,-0.9870452880859375,-0.033935546875,-0.002227783203125
1783169026768774000,1.37877392578125,-0.9865875244140625,-0.03436279296875,-0.0016021728515625
1783169026778722800,1.388722900390625,-0.986602783203125,-0.035003662109375,-0.0018310546875
1783169026788671700,1.398671630859375,-0.9862060546875,-0.0346221923828125,-0.0018157958984375
1783169026798698000,1.408697998046875,-0.9856109619140625,-0.0341796875,-0.0015411376953125
1783169026808647000,1.41864697265625,-0.985870361328125,-0.0343780517578125,-0.0019073486328125
1783169026818595800,1.428595947265625,-0.98663330078125,-0.0340576171875,-0.0016937255859375
1783169026828544000,1.4385439453125,-0.98651123046875,-0.0337982177734375,-0.001953125
1783169026838523000,1.44852294921875,-0.9865875244140625,-0.033843994140625,-0.0019073486328125
1783169026848471800,1.458471923828125,-0.9871826171875,-0.034271240234375,-0.002197265625
1783169026858420700,1.468420654296875,-0.987060546875,-0.034088134765625,-0.002227783203125
1783169026868370000,1.478369873046875,-0.9864349365234375,-0.0338134765625,-0.002105712890625
1783169026878348800,1.488348876953125,-0.986175537109375,-0.0338592529296875,-0.0020599365234375
1783169026888297700,1.498297607421875,-0.98663330078125,-0.0333251953125,-0.00152587890625
1783169026898246000,1.508245849609375,-0.987091064453125,-0.03289794921875,-0.0010986328125
1783169026908194800,1.51819482421875,-0.98626708984375,-0.03363037109375,-0.0007476806640625
1783169026918173700,1.528173583984375,-0.9864501953125,-0.0335845947265625,-0.0008392333984375
1783169026928123000,1.538122802734375,-0.9862518310546875,-0.0338134765625,-0.001251220703125
1783169026938072000,1.548072021484375,-0.9871368408203125,-0.0345916748046875,-0.001312255859375
1783169026948051000,1.558051025390625,-0.98675537109375,-0.03369140625,-0.0012969970703125
1783169026957999900,1.567999755859375,-0.987274169921875,-0.034149169921875,-0.0010223388671875
1783169026967948800,1.57794873046875,-0.9874420166015625,-0.0350799560546875,-0.0009918212890625
1783169026977897000,1.58789697265625,-0.986785888671875,-0.0342559814453125,-0.0016632080078125
1783169026987876900,1.597876953125,-0.9869537353515625,-0.0343170166015625,-0.0012664794921875
1783169026997825000,1.607824951171875,-0.986846923828125,-0.0352630615234375,-0.001800537109375
1783169027007774000,1.61777392578125,-0.986846923828125,-0.0348968505859375,-0.0013885498046875
1783169027017723000,1.627722900390625,-0.9871063232421875,-0.0340728759765625,-0.00146484375
1783169027027701800,1.63770166015625,-0.986968994140625,-0.035003662109375,-0.00225830078125
1783169027037651000,1.64765087890625,-0.986114501953125,-0.0348052978515625,-0.001861572265625
1783169027047598800,1.657598876953125,-0.98675537109375,-0.03399658203125,-0.002349853515625
1783169027057547800,1.6675478515625,-0.98724365234375,-0.0343780517578125,-0.00225830078125
1783169027067527000,1.67752685546875,-0.98675537109375,-0.0341339111328125,-0.000823974609375
1783169027077475800,1.687475830078125,-0.98651123046875,-0.0334930419921875,-0.0018157958984375
1783169027087425000,1.697425048828125,-0.9868927001953125,-0.033050537109375,-0.000946044921875
1783169027097403600,1.707403564453125,-0.98724365234375,-0.0326385498046875,-0.000732421875
1783169027107353000,1.71735302734375,-0.986846923828125,-0.0331573486328125,-0.001251220703125
1783169027117302000,1.727302001953125,-0.9862213134765625,-0.0341949462890625,-0.0016632080078125
1783169027127250000,1.73725,-0.9872894287109375,-0.03363037109375,-0.0011749267578125
1783169027137229800,1.747229736328125,-0.987060546875,-0.033355712890625,-0.00146484375
1783169027147178000,1.757177978515625,-0.986602783203125,-0.0338592529296875,-0.001495361328125
1783169027157127000,1.767126953125,-0.9863433837890625,-0.0345306396484375,-0.0013427734375
1783169027167075800,1.777075927734375,-0.9864959716796875,-0.0338287353515625,-0.0023956298828125
1783169027177055000,1.787054931640625,-0.9868621826171875,-0.0335540771484375,-0.002349853515625
1783169027187004000,1.79700390625,-0.9864044189453125,-0.03363037109375,-0.0012359619140625
1783169027196951800,1.806951904296875,-0.9871826171875,-0.03350830078125,-0.00164794921875
1783169027206900700,1.816900634765625,-0.98675537109375,-0.0342559814453125,-0.0019073486328125
1783169027216879900,1.8268798828125,-0.9863128662109375,-0.03466796875,-0.001861572265625
1783169027226828800,1.836828857421875,-0.986602783203125,-0.0345611572265625,-0.001129150390625
1783169027236777700,1.84677783203125,-0.9867706298828125,-0.034820556640625,-0.001556396484375
1783169027246756900,1.8567568359375,-0.986480712890625,-0.03448486328125,-0.0013885498046875
1783169027256705800,1.866705810546875,-0.9859619140625,-0.0344390869140625,-0.001220703125
1783169027266655000,1.876655029296875,-0.9853668212890625,-0.0343780517578125,-0.0012969970703125
1783169027276603000,1.886602783203125,-0.9864501953125,-0.034149169921875,-0.00079345703125
1783169027286583000,1.8965830078125,-0.9869232177734375,-0.034210205078125,-0.00152587890625
1783169027296531000,1.906531005859375,-0.9868621826171875,-0.034027099609375,-0.001220703125
1783169027306479900,1.91647998046875,-0.986846923828125,-0.03411865234375,-0.0005645751953125
1783169027316428800,1.9264287109375,-0.986358642578125,-0.0333709716796875,-0.0008697509765625
1783169027326408000,1.936407958984375,-0.9865875244140625,-0.0338592529296875,-0.0010833740234375
1783169027336356900,1.94635693359375,-0.986785888671875,-0.0331573486328125,-0.0010528564453125
1783169027346304800,1.9563046875,-0.9873504638671875,-0.03424072265625,-0.001434326171875
1783169027356285000,1.966284912109375,-0.98638916015625,-0.033966064453125,-0.0009002685546875
1783169027366232800,1.97623291015625,-0.9856719970703125,-0.033966064453125,-0.00128173828125
1783169027376181800,1.986181640625,-0.985992431640625,-0.034393310546875,-0.0021514892578125
1783169027386130700,1.996130615234375,-0.9874267578125,-0.0343170166015625,-0.0011749267578125
1783169027396109800,2.00610986328125,-0.9859771728515625,-0.033660888671875,-0.00177001953125
1783169027406058800,2.016058837890625,-0.9864959716796875,-0.0337066650390625,-0.0018768310546875
1783169027416007700,2.026007568359375,-0.9867706298828125,-0.033477783203125,-0.001312255859375
1783169027425955800,2.035955810546875,-0.9873504638671875,-0.0341644287109375,-0.00128173828125
1783169027435936000,2.04593603515625,-0.987518310546875,-0.03436279296875,-0.00103759765625
1783169027445884000,2.0558837890625,-0.9866790771484375,-0.0337371826171875,-0.0024566650390625
1783169027455832800,2.065832763671875,-0.9868621826171875,-0.034271240234375,-0.0015106201171875
1783169027465782000,2.075781982421875,-0.9862823486328125,-0.0340423583984375,-0.0013580322265625
1783169027475761000,2.085760986328125,-0.9867401123046875,-0.033294677734375,-0.001922607421875
1783169027485709800,2.095709716796875,-0.9864959716796875,-0.0347137451171875,-0.0012969970703125
1783169027495658800,2.10565869140625,-0.9870452880859375,-0.0342864990234375,-0.0008087158203125
1783169027505638000,2.115637939453125,-0.98651123046875,-0.0338287353515625,-0.0009918212890625
1783169027515585800,2.125585693359375,-0.98687744140625,-0.034210205078125,-0.00091552734375
1783169027525535000,2.135534912109375,-0.987152099609375,-0.03375244140625,-0.00152587890625
1783169027535484000,2.14548388671875,-0.9874725341796875,-0.033599853515625,-0.00189208984375
1783169027545462800,2.155462890625,-0.9866485595703125,-0.0337066650390625,-0.001708984375
1783169027555411700,2.16541162109375,-0.9871368408203125,-0.03369140625,-0.0010986328125
1783169027565361000,2.17536083984375,-0.987396240234375,-0.0344085693359375,-0.001708984375
1783169027575308800,2.185308837890625,-0.986602783203125,-0.0345458984375,-0.001251220703125
1783169027585288700,2.195288818359375,-0.98663330078125,-0.033416748046875,-0.00103759765625
1783169027595236900,2.20523681640625,-0.9862823486328125,-0.0340576171875,-0.001220703125
1783169027605186000,2.21518603515625,-0.9864501953125,-0.034210205078125,-0.0010986328125
1783169027615135000,2.225135009765625,-0.9865264892578125,-0.0329742431640625,-0.00164794921875
1783169027625113900,2.23511376953125,-0.9854583740234375,-0.0337066650390625,-0.00238037109375
1783169027635063000,2.24506298828125,-0.9871978759765625,-0.0345306396484375,-0.000579833984375
1783169027645012000,2.255011962890625,-0.9865570068359375,-0.034210205078125,-0.0004730224609375
1783169027654990800,2.264990966796875,-0.9868011474609375,-0.03369140625,-0.0004730224609375
1783169027664939800,2.274939697265625,-0.986572265625,-0.033843994140625,-0.0007781982421875
1783169027674888000,2.284887939453125,-0.9875030517578125,-0.034423828125,-0.0008544921875
1783169027684836900,2.2948369140625,-0.9875946044921875,-0.034576416015625,-0.0006866455078125
1783169027694816000,2.30481591796875,-0.987518310546875,-0.0334320068359375,-0.00201416015625
1783169027704765000,2.314764892578125,-0.98638916015625,-0.033721923828125,-0.001708984375
1783169027714713900,2.3247138671875,-0.9862518310546875,-0.03424072265625,-0.00177001953125
1783169027724661800,2.334661865234375,-0.9866180419921875,-0.0338134765625,-0.0008697509765625
1783169027734641700,2.3446416015625,-0.9867706298828125,-0.033660888671875,-0.0017242431640625
1783169027744589800,2.35458984375,-0.9866790771484375,-0.0338287353515625,-0.002655029296875
1783169027754538800,2.364538818359375,-0.9866943359375,-0.0343780517578125,-0.0019073486328125
1783169027764518000,2.374517822265625,-0.9871063232421875,-0.0352020263671875,-0.0016937255859375
1783169027774467000,2.384467041015625,-0.9874267578125,-0.033172607421875,-0.0011444091796875
1783169027784416000,2.394416015625,-0.986328125,-0.0347137451171875,-0.0013275146484375
1783169027794365000,2.404364990234375,-0.9859619140625,-0.0342864990234375,-0.0013427734375
1783169027804361200,2.414361328125,-0.9877777099609375,-0.0342254638671875,-0.0011749267578125
1783169027814310100,2.42431005859375,-0.9870452880859375,-0.0337982177734375,-0.0020294189453125
1783169027824258000,2.434258056640625,-0.9864959716796875,-0.034423828125,-0.001708984375
1783169027834207000,2.44420703125,-0.986297607421875,-0.0347137451171875,-0.0012359619140625
1783169027844186000,2.45418603515625,-0.9871978759765625,-0.0340576171875,-0.001434326171875
1783169027854135000,2.464135009765625,-0.987091064453125,-0.03399658203125,-0.0018310546875
1783169027864084200,2.474084228515625,-0.98748779296875,-0.0339202880859375,-0.0013580322265625
1783169027874032000,2.4840322265625,-0.9871063232421875,-0.034454345703125,-0.001129150390625
1783169027884012300,2.49401220703125,-0.9863128662109375,-0.0340576171875,-0.0013275146484375
1783169027893960200,2.503960205078125,-0.98760986328125,-0.034088134765625,-0.0019378662109375
1783169027903909000,2.5139091796875,-0.9867706298828125,-0.0330963134765625,-0.00189208984375
1783169027913888300,2.52388818359375,-0.9867401123046875,-0.0336151123046875,-0.00213623046875
1783169027923837200,2.533837158203125,-0.9869537353515625,-0.0345611572265625,-0.0009918212890625
1783169027933786000,2.5437861328125,-0.9857330322265625,-0.034210205078125,-0.00152587890625
1783169027943735000,2.553735107421875,-0.986663818359375,-0.0342254638671875,-0.001495361328125
1783169027953714200,2.563714111328125,-0.98712158203125,-0.0339508056640625,-0.0013580322265625
1783169027963663000,2.5736630859375,-0.987640380859375,-0.0341796875,-0.0020751953125
1783169027973611000,2.583611083984375,-0.9863739013671875,-0.0342864990234375,-0.0020751953125
1783169027983560200,2.593560302734375,-0.985870361328125,-0.0333404541015625,-0.002166748046875
1783169027993539000,2.6035390625,-0.9873504638671875,-0.033233642578125,-0.00054931640625
1783169028003488000,2.613488037109375,-0.9868621826171875,-0.0341339111328125,-0.0011444091796875
1783169028013437000,2.62343701171875,-0.987274169921875,-0.03472900390625,-0.00189208984375
1783169028023385000,2.633385009765625,-0.9864501953125,-0.0340118408203125,-0.0018463134765625
1783169028033365000,2.643364990234375,-0.9871978759765625,-0.03363037109375,-0.000762939453125
1783169028043313200,2.653313232421875,-0.986297607421875,-0.0351104736328125,-0.00146484375
1783169028053262300,2.663262451171875,-0.98626708984375,-0.0343780517578125,-0.0014801025390625
1783169028063241200,2.6732412109375,-0.9862518310546875,-0.033782958984375,-0.0020751953125
1783169028073190100,2.683190185546875,-0.9866485595703125,-0.0345306396484375,-0.0010833740234375
1783169028083139000,2.69313916015625,-0.9864501953125,-0.0335845947265625,-0.000823974609375
1783169028093088300,2.703088134765625,-0.9866180419921875,-0.0341949462890625,-0.00140380859375
1783169028103067100,2.713067138671875,-0.986907958984375,-0.0341644287109375,-0.002166748046875
1783169028113016000,2.72301611328125,-0.987823486328125,-0.03338623046875,-0.00146484375
1783169028122964200,2.732964111328125,-0.986907958984375,-0.0341949462890625,-0.001495361328125
1783169028132913200,2.7429130859375,-0.986602783203125,-0.03460693359375,-0.001129150390625
1783169028142892000,2.75289208984375,-0.9872894287109375,-0.0341339111328125,-0.0011749267578125
1783169028152841200,2.76284130859375,-0.9857330322265625,-0.0335693359375,-0.001129150390625
1783169028162790100,2.7727900390625,-0.986358642578125,-0.033782958984375,-0.00091552734375
1783169028172738000,2.782738037109375,-0.987274169921875,-0.0341644287109375,-0.001220703125
1783169028182718000,2.792718017578125,-0.9868316650390625,-0.03375244140625,-0.0022735595703125
1783169028192666000,2.802666015625,-0.9869232177734375,-0.033935546875,-0.0016632080078125
1783169028202615000,2.812614990234375,-0.987030029296875,-0.0335845947265625,-0.0009613037109375
1783169028212594000,2.822593994140625,-0.9868316650390625,-0.033782958984375,-0.0014495849609375
1783169028222543400,2.83254345703125,-0.9868011474609375,-0.0339508056640625,-0.001129150390625
1783169028232492300,2.8424921875,-0.98614501953125,-0.0339202880859375,-0.0011138916015625
1783169028242441200,2.852441162109375,-0.986236572265625,-0.0339813232421875,-0.001708984375
1783169028252420000,2.862420166015625,-0.9866943359375,-0.0341033935546875,-0.0015869140625
1783169028262369300,2.872369384765625,-0.9872283935546875,-0.03399658203125,-0.0018310546875
1783169028272317200,2.882317138671875,-0.9862518310546875,-0.0328521728515625,-0.0015869140625
1783169028282266000,2.89226611328125,-0.98675537109375,-0.0338897705078125,-0.00189208984375
1783169028292245200,2.902245361328125,-0.9871673583984375,-0.0343017578125,-0.00146484375
1783169028302194200,2.912194091796875,-0.986602783203125,-0.0335235595703125,-0.0019989013671875
1783169028312143000,2.92214306640625,-0.9878997802734375,-0.0340423583984375,-0.001373291015625
1783169028322122000,2.9321220703125,-0.986175537109375,-0.0340728759765625,-0.00042724609375
1783169028332071200,2.9420712890625,-0.9867401123046875,-0.0331878662109375,-0.0008697509765625
1783169028342020000,2.95202001953125,-0.9863433837890625,-0.033905029296875,-0.001068115234375
1783169028351968000,2.961968017578125,-0.986053466796875,-0.0340728759765625,-0.001556396484375
1783169028361947100,2.971947021484375,-0.98638916015625,-0.0343475341796875,-0.0009613037109375
1783169028371896000,2.98189599609375,-0.9864501953125,-0.0346832275390625,-0.0011444091796875
1783169028381845200,2.99184521484375,-0.98687744140625,-0.035247802734375,-0.0010833740234375
1783169028391794200,3.001794189453125,-0.9866180419921875,-0.0341644287109375,-0.00067138671875
1783169028401773300,3.011773193359375,-0.986328125,-0.0346832275390625,-0.001495361328125
1783169028411722200,3.02172216796875,-0.9862060546875,-0.0343017578125,-0.0018157958984375
1783169028421670100,3.031670166015625,-0.985931396484375,-0.0333099365234375,-0.00115966796875
1783169028431619000,3.041619140625,-0.9851531982421875,-0.0333099365234375,-0.0016632080078125
1783169028441598200,3.05159814453125,-0.9867401123046875,-0.0335540771484375,-0.0017242431640625
1783169028451547100,3.061547119140625,-0.9868621826171875,-0.03387451171875,-0.0017242431640625
1783169028461496000,3.07149609375,-0.98675537109375,-0.03424072265625,-0.00115966796875
1783169028471475200,3.08147509765625,-0.98681640625,-0.0342254638671875,-0.0010223388671875
1783169028481424100,3.091424072265625,-0.9867095947265625,-0.034332275390625,-0.001495361328125
1783169028491373000,3.101373046875,-0.9864044189453125,-0.0338287353515625,-0.0008087158203125
1783169028501321000,3.111321044921875,-0.9861602783203125,-0.0344390869140625,-0.00079345703125
1783169028511301000,3.121301025390625,-0.9860992431640625,-0.03326416015625,-0.001251220703125
1783169028521249000,3.1312490234375,-0.9869842529296875,-0.034393310546875,-0.00079345703125
1783169028531198000,3.141197998046875,-0.9864654541015625,-0.034515380859375,-0.00146484375
1783169028541147100,3.151147216796875,-0.9871368408203125,-0.0333099365234375,-0.0019073486328125
1783169028551126300,3.161126220703125,-0.9869842529296875,-0.03399658203125,-0.001739501953125
1783169028561075200,3.1710751953125,-0.986907958984375,-0.0338897705078125,-0.0011444091796875
1783169028571023000,3.181023193359375,-0.9863128662109375,-0.034393310546875,-0.00152587890625
1783169028580972300,3.19097216796875,-0.986083984375,-0.0337066650390625,-0.0019378662109375
1783169028590951200,3.200951171875,-0.9866943359375,-0.033660888671875,-0.0011749267578125
1783169028600900000,3.210900146484375,-0.988128662109375,-0.033905029296875,-0.0007171630859375
1783169028610849000,3.22084912109375,-0.987457275390625,-0.0336456298828125,-0.0012664794921875
1783169028620828200,3.230828125,-0.9863433837890625,-0.033050537109375,-0.0018463134765625
1783169028630777000,3.240777099609375,-0.986541748046875,-0.03387451171875,-0.0009765625
1783169028640726000,3.25072607421875,-0.9869384765625,-0.0339813232421875,-0.002410888671875
1783169028650674200,3.260674072265625,-0.9868316650390625,-0.03369140625,-0.0015106201171875
1783169028660654000,3.270654052734375,-0.9867401123046875,-0.03363037109375,-0.0012054443359375
1783169028670602000,3.28060205078125,-0.9862823486328125,-0.03375244140625,-0.0016021728515625
1783169028680551200,3.29055126953125,-0.986358642578125,-0.0334320068359375,-0.0013427734375
1783169028690500000,3.3005,-0.986572265625,-0.0339813232421875,-0.001800537109375
1783169028700479000,3.31047900390625,-0.98602294921875,-0.034423828125,-0.0012969970703125
1783169028710428200,3.32042822265625,-0.9873809814453125,-0.0346527099609375,-0.001708984375
1783169028720376000,3.3303759765625,-0.986846923828125,-0.033538818359375,-0.0009918212890625
1783169028730356200,3.340356201171875,-0.9866943359375,-0.03387451171875,-0.0020294189453125
1783169028740304100,3.35030419921875,-0.986785888671875,-0.034027099609375,-0.001739501953125
1783169028750253300,3.36025341796875,-0.9864959716796875,-0.0333404541015625,-0.0015716552734375
1783169028760202200,3.3702021484375,-0.9871826171875,-0.033721923828125,-0.00238037109375
1783169028770181000,3.38018115234375,-0.9868316650390625,-0.033447265625,-0.0013427734375
1783169028780130000,3.390130126953125,-0.9870452880859375,-0.03448486328125,-0.00054931640625
1783169028790079200,3.400079345703125,-0.9862213134765625,-0.034881591796875,-0.0013427734375
1783169028800052500,3.410052490234375,-0.9862518310546875,-0.0341033935546875,-0.00189208984375
1783169028810032600,3.42003271484375,-0.9867095947265625,-0.0334930419921875,-0.001373291015625
1783169028819980300,3.429980224609375,-0.9874114990234375,-0.0342864990234375,-0.0016326904296875
1783169028829929500,3.439929443359375,-0.987274169921875,-0.0337371826171875,-0.0018157958984375
1783169028839878700,3.449878662109375,-0.9870758056640625,-0.0339202880859375,-0.0008392333984375
1783169028849857500,3.459857421875,-0.9875946044921875,-0.035430908203125,-0.000885009765625
1783169028859806500,3.469806396484375,-0.98675537109375,-0.0343170166015625,-0.0015411376953125
1783169028869754600,3.479754638671875,-0.986724853515625,-0.03363037109375,-0.001312255859375
1783169028879734500,3.489734619140625,-0.9863128662109375,-0.033355712890625,-0.0014801025390625
1783169028889682400,3.499682373046875,-0.9868011474609375,-0.0336151123046875,-0.001312255859375
1783169028899631600,3.509631591796875,-0.9872894287109375,-0.034210205078125,-0.0011444091796875
1783169028909580500,3.51958056640625,-0.986419677734375,-0.0339813232421875,-0.0012664794921875
1783169028919559400,3.529559326171875,-0.9859771728515625,-0.0337982177734375,-0.001220703125
1783169028929508400,3.53950830078125,-0.9873504638671875,-0.034423828125,-0.001800537109375
1783169028939457500,3.54945751953125,-0.98699951171875,-0.0339508056640625,-0.0013885498046875
1783169028949405400,3.559405517578125,-0.986968994140625,-0.0334320068359375,-0.0017852783203125
1783169028959385300,3.56938525390625,-0.9874420166015625,-0.033935546875,-0.0020904541015625
1783169028969333500,3.57933349609375,-0.9867401123046875,-0.033721923828125,-0.001983642578125
1783169028979282700,3.58928271484375,-0.98687744140625,-0.0340118408203125,-0.002044677734375
1783169028989231600,3.599231689453125,-0.9866790771484375,-0.0345306396484375,-0.002197265625
1783169028999210500,3.60921044921875,-0.986663818359375,-0.03302001953125,-0.0018157958984375
1783169029009159700,3.61915966796875,-0.986053466796875,-0.0337982177734375,-0.001800537109375
1783169029019107600,3.629107666015625,-0.98699951171875,-0.03375244140625,-0.0015106201171875
1783169029029087500,3.63908740234375,-0.9862213134765625,-0.0338287353515625,-0.0007781982421875
1783169029039035600,3.64903564453125,-0.9869537353515625,-0.03436279296875,-0.000885009765625
1783169029048984600,3.658984619140625,-0.9861907958984375,-0.035125732421875,-0.000762939453125
1783169029058933500,3.66893359375,-0.9865570068359375,-0.0340728759765625,-0.0009613037109375
1783169029068912400,3.678912353515625,-0.9868011474609375,-0.0346221923828125,-0.0012664794921875
1783169029078861600,3.688861572265625,-0.9862213134765625,-0.0339813232421875,-0.0009307861328125
1783169029088810500,3.698810546875,-0.987030029296875,-0.0339813232421875,-0.0014190673828125
1783169029098758400,3.70875830078125,-0.987152099609375,-0.0348358154296875,-0.0012359619140625
1783169029108738300,3.71873828125,-0.986968994140625,-0.034088134765625,-0.00152587890625
1783169029118686500,3.7286865234375,-0.98675537109375,-0.0341949462890625,-0.00189208984375
1783169029128635400,3.738635498046875,-0.9871978759765625,-0.0339813232421875,-0.001708984375
1783169029138614500,3.748614501953125,-0.9864654541015625,-0.033538818359375,-0.0009307861328125
1783169029148563500,3.7585634765625,-0.9873809814453125,-0.0338287353515625,-0.00128173828125
1783169029158512600,3.7685126953125,-0.9869537353515625,-0.0334930419921875,-0.001617431640625
1783169029168461600,3.778461669921875,-0.9862213134765625,-0.0337066650390625,-0.002288818359375
1783169029178440400,3.7884404296875,-0.986663818359375,-0.0341339111328125,-0.0013580322265625
1783169029188388600,3.798388671875,-0.9879608154296875,-0.0338287353515625,-0.000762939453125
1783169029198337500,3.808337646484375,-0.987640380859375,-0.033599853515625,-0.0014495849609375
1783169029208286500,3.818286376953125,-0.9872589111328125,-0.0339508056640625,-0.0001373291015625
1783169029218265600,3.828265625,-0.985809326171875,-0.0340728759765625,-0.0011138916015625
1783169029228214500,3.838214599609375,-0.986114501953125,-0.0336151123046875,-0.0018463134765625
1783169029238163500,3.84816357421875,-0.98687744140625,-0.034332275390625,-0.0012664794921875
1783169029248111400,3.858111328125,-0.986297607421875,-0.033721923828125,-0.0010528564453125
1783169029258091500,3.868091552734375,-0.9862060546875,-0.0332794189453125,-0.0011749267578125
1783169029268039400,3.878039306640625,-0.9872589111328125,-0.033538818359375,-0.0018157958984375
1783169029277988400,3.88798828125,-0.9868011474609375,-0.0344390869140625,-0.001251220703125
1783169029287967500,3.897967529296875,-0.986572265625,-0.0340728759765625,-0.0016632080078125
1783169029297916400,3.90791650390625,-0.9860992431640625,-0.034423828125,-0.002227783203125
1783169029307865600,3.917865478515625,-0.9857025146484375,-0.034088134765625,-0.0012969970703125
1783169029317814500,3.927814453125,-0.9864044189453125,-0.0341644287109375,-0.001434326171875
1783169029327793700,3.937793701171875,-0.9861907958984375,-0.033599853515625,-0.00067138671875
1783169029337742600,3.94774267578125,-0.9864654541015625,-0.0349578857421875,0.0000152587890625
1783169029347690500,3.9576904296875,-0.98651123046875,-0.0336456298828125,-0.00030517578125
1783169029357639400,3.967639404296875,-0.98687744140625,-0.0342864990234375,-0.00115966796875
1783169029367618600,3.97761865234375,-0.9872283935546875,-0.034637451171875,-0.0015716552734375
1783169029377567500,3.9875673828125,-0.9869232177734375,-0.0348968505859375,-0.0019683837890625
1783169029387516400,3.997516357421875,-0.9867706298828125,-0.034149169921875,-0.00030517578125
1783169029397464600,4.007464599609375,-0.9871368408203125,-0.033935546875,-0.000762939453125
1783169029407444500,4.017444580078125,-0.98651123046875,-0.034515380859375,-0.00152587890625
1783169029417392400,4.027392333984375,-0.987579345703125,-0.0335235595703125,-0.001861572265625
1783169029427341600,4.037341552734375,-0.9867095947265625,-0.0340576171875,-0.00048828125
1783169029437320400,4.047320556640625,-0.9866790771484375,-0.0337371826171875,-0.00201416015625
1783169029447269400,4.057269287109375,-0.9861907958984375,-0.0336761474609375,-0.001983642578125
1783169029457218300,4.06721826171875,-0.9865570068359375,-0.033294677734375,-0.0012969970703125
1783169029467167500,4.07716748046875,-0.9871978759765625,-0.0333099365234375,-0.0009002685546875
1783169029477146400,4.087146484375,-0.98602294921875,-0.0337982177734375,-0.001434326171875
1783169029487095600,4.097095458984375,-0.9864349365234375,-0.0341796875,-0.0014495849609375
1783169029497043700,4.107043701171875,-0.9869384765625,-0.0334625244140625,-0.0011749267578125
1783169029506992600,4.11699267578125,-0.9862060546875,-0.0335235595703125,-0.001129150390625
1783169029516971500,4.126971435546875,-0.98663330078125,-0.0337677001953125,-0.0012664794921875
1783169029526920400,4.13692041015625,-0.986297607421875,-0.03466796875,-0.00140380859375
1783169029536869600,4.14686962890625,-0.986175537109375,-0.0346832275390625,-0.0008087158203125
1783169029546848500,4.1568486328125,-0.9870452880859375,-0.033050537109375,-0.001922607421875
1783169029556797400,4.16679736328125,-0.987884521484375,-0.0337677001953125,-0.0019073486328125
1783169029566745600,4.17674560546875,-0.98663330078125,-0.0338897705078125,-0.001251220703125
1783169029576694500,4.186694580078125,-0.986053466796875,-0.0334014892578125,-0.001678466796875
1783169029586673400,4.19667333984375,-0.98663330078125,-0.032501220703125,-0.001190185546875
1783169029596622600,4.20662255859375,-0.9872283935546875,-0.0333404541015625,-0.001007080078125
1783169029606571500,4.216571533203125,-0.9867095947265625,-0.0340118408203125,-0.0013885498046875
1783169029616520400,4.2265205078125,-0.987030029296875,-0.0341949462890625,-0.001495361328125
1783169029626499300,4.236499267578125,-0.9866943359375,-0.0339508056640625,-0.000732421875
1783169029636448300,4.2464482421875,-0.9861602783203125,-0.0341339111328125,-0.001129150390625
1783169029646396400,4.256396484375,-0.986419677734375,-0.0342864990234375,-0.0010986328125
1783169029656345600,4.266345703125,-0.98724365234375,-0.0343170166015625,-0.0014495849609375
1783169029666324700,4.27632470703125,-0.9867095947265625,-0.0336456298828125,-0.001922607421875
1783169029676273700,4.286273681640625,-0.987640380859375,-0.03326416015625,-0.0017852783203125
1783169029686222600,4.29622265625,-0.986968994140625,-0.03369140625,-0.0021514892578125
1783169029696201500,4.306201416015625,-0.9860382080078125,-0.03448486328125,-0.0013275146484375
1783169029706150700,4.316150634765625,-0.9861907958984375,-0.0335693359375,-0.000701904296875
1783169029716098600,4.3260986328125,-0.98675537109375,-0.0340423583984375,-0.00146484375
1783169029726047500,4.336047607421875,-0.986785888671875,-0.0341796875,-0.0009002685546875
1783169029736026600,4.346026611328125,-0.98638916015625,-0.033416748046875,-0.0006103515625
1783169029745975600,4.3559755859375,-0.9865264892578125,-0.03350830078125,-0.0012054443359375
1783169029755924500,4.365924560546875,-0.9866790771484375,-0.034515380859375,-0.0013275146484375
1783169029765873400,4.375873291015625,-0.9859619140625,-0.03411865234375,-0.0017547607421875
1783169029775852500,4.3858525390625,-0.986419677734375,-0.0341644287109375,-0.0012054443359375
1783169029785801500,4.395801513671875,-0.986785888671875,-0.034576416015625,-0.001495361328125
1783169029795749400,4.405749267578125,-0.9868316650390625,-0.033447265625,-0.001190185546875
1783169029805706200,4.415706298828125,-0.9869842529296875,-0.0329132080078125,-0.0010986328125
1783169029815685400,4.425685302734375,-0.9867706298828125,-0.0338592529296875,-0.0015869140625
1783169029825634300,4.43563427734375,-0.986785888671875,-0.03363037109375,-0.001007080078125
1783169029835583200,4.445583251953125,-0.9868316650390625,-0.03466796875,-0.0008697509765625
1783169029845562000,4.45556201171875,-0.986114501953125,-0.0332183837890625,-0.001068115234375
1783169029855511300,4.46551123046875,-0.9867706298828125,-0.034637451171875,-0.0015106201171875
1783169029865459200,4.475459228515625,-0.9869384765625,-0.03485107421875,-0.001617431640625
1783169029875408100,4.485408203125,-0.9868011474609375,-0.033966064453125,-0.00103759765625
1783169029885387300,4.49538720703125,-0.98681640625,-0.0332183837890625,-0.001251220703125
1783169029895336200,4.505336181640625,-0.98663330078125,-0.0334014892578125,-0.001190185546875
1783169029905285000,4.51528515625,-0.9864349365234375,-0.033538818359375,-0.0015869140625
1783169029915234000,4.525234130859375,-0.9869232177734375,-0.0336151123046875,-0.00115966796875
1783169029925213200,4.535213134765625,-0.987152099609375,-0.0337371826171875,-0.000701904296875
1783169029935162000,4.545162109375,-0.9864501953125,-0.0346527099609375,-0.001495361328125
1783169029945110000,4.555110107421875,-0.9867401123046875,-0.035064697265625,-0.0014801025390625
1783169029955090200,4.565090087890625,-0.986663818359375,-0.03424072265625,-0.0009765625
1783169029965038000,4.5750380859375,-0.986907958984375,-0.033905029296875,-0.001708984375
1783169029974987300,4.5849873046875,-0.9868316650390625,-0.03448486328125,-0.0013580322265625
1783169029984936200,4.594936279296875,-0.9862213134765625,-0.0344085693359375,-0.0013275146484375
1783169029994915300,4.604915283203125,-0.9862213134765625,-0.0340728759765625,-0.0016021728515625
1783169030004864300,4.6148642578125,-0.9865875244140625,-0.0338287353515625,-0.0008087158203125
1783169030014813200,4.624813232421875,-0.98590087890625,-0.034515380859375,-0.001312255859375
1783169030024761000,4.634760986328125,-0.986572265625,-0.0345611572265625,-0.00213623046875
1783169030034740200,4.644740234375,-0.986419677734375,-0.033905029296875,-0.000701904296875
1783169030044689200,4.654689208984375,-0.9862823486328125,-0.03424072265625,-0.000640869140625
1783169030054638000,4.66463818359375,-0.986419677734375,-0.032867431640625,-0.0017547607421875
1783169030064587000,4.6745869140625,-0.9872589111328125,-0.0336761474609375,-0.002044677734375
1783169030074566100,4.684566162109375,-0.9870452880859375,-0.0344696044921875,-0.001678466796875
1783169030084515000,4.69451513671875,-0.986297607421875,-0.0339202880859375,-0.00140380859375
1783169030094463200,4.704463134765625,-0.986724853515625,-0.0343475341796875,-0.001708984375
1783169030104443100,4.714443115234375,-0.9864044189453125,-0.0345611572265625,-0.001678466796875
1783169030114391000,4.72439111328125,-0.986663818359375,-0.0338287353515625,-0.00213623046875
1783169030124340000,4.734340087890625,-0.987335205078125,-0.033905029296875,-0.0006561279296875
1783169030134289200,4.7442890625,-0.987030029296875,-0.03399658203125,-0.000152587890625
1783169030144268300,4.754268310546875,-0.9869232177734375,-0.0341644287109375,-0.000946044921875
1783169030154217200,4.76421728515625,-0.9858551025390625,-0.0339813232421875,-0.0005645751953125
1783169030164166100,4.774166259765625,-0.9865264892578125,-0.0338592529296875,-0.00006103515625
1783169030174114300,4.7841142578125,-0.98577880859375,-0.0335235595703125,-0.00006103515625
1783169030184094200,4.79409423828125,-0.9869537353515625,-0.0341033935546875,-0.001251220703125
1783169030194042000,4.8040419921875,-0.9866943359375,-0.034423828125,-0.0012969970703125
1783169030203991300,4.8139912109375,-0.9866790771484375,-0.034423828125,-0.00128173828125
1783169030213940200,4.823940185546875,-0.9858856201171875,-0.034088134765625,-0.0013885498046875
1783169030223919000,4.833919189453125,-0.9859161376953125,-0.0331878662109375,-0.0016937255859375
1783169030233868000,4.843867919921875,-0.9872894287109375,-0.0332794189453125,-0.0007476806640625
1783169030243816200,4.853816162109375,-0.987091064453125,-0.0332489013671875,-0.0003509521484375
1783169030253796000,4.863796142578125,-0.98712158203125,-0.033966064453125,-0.0018463134765625
1783169030263744000,4.873743896484375,-0.9875640869140625,-0.034515380859375,-0.001708984375
1783169030273693200,4.883693115234375,-0.986785888671875,-0.0352630615234375,-0.0007781982421875
1783169030283642000,4.89364208984375,-0.98651123046875,-0.0342864990234375,-0.00128173828125
1783169030293621000,4.90362109375,-0.9873809814453125,-0.03387451171875,-0.000885009765625
1783169030303570200,4.913570068359375,-0.9877471923828125,-0.0340118408203125,-0.0009765625
1783169030313519400,4.923519287109375,-0.9871063232421875,-0.033782958984375,-0.00189208984375
1783169030323467300,4.93346728515625,-0.9860076904296875,-0.034393310546875,-0.0011444091796875
1783169030333447200,4.943447265625,-0.986846923828125,-0.034332275390625,-0.0013580322265625
1783169030343395300,4.953395263671875,-0.98724365234375,-0.033477783203125,-0.0015716552734375
1783169030353344300,4.96334423828125,-0.98724365234375,-0.03369140625,-0.0008697509765625
1783169030363323100,4.9733232421875,-0.9869842529296875,-0.03375244140625,-0.0010833740234375
1783169030373272000,4.98327197265625,-0.986053466796875,-0.0338897705078125,-0.0015716552734375
1783169030383221200,4.99322119140625,-0.986572265625,-0.03411865234375,-0.0015869140625
1783169030393169200,5.003169189453125,-0.9874725341796875,-0.0339202880859375,-0.00115966796875
1783169030403149000,5.013149169921875,-0.9865264892578125,-0.0342864990234375,-0.00128173828125
1783169030413097200,5.02309716796875,-0.9860687255859375,-0.0344085693359375,-0.0015716552734375
1783169030423046100,5.033046142578125,-0.986968994140625,-0.0330352783203125,-0.001220703125
1783169030432995000,5.0429951171875,-0.9863433837890625,-0.0337371826171875,-0.0023040771484375
1783169030442974200,5.05297412109375,-0.986541748046875,-0.0335693359375,-0.0015411376953125
1783169030452923100,5.062923095703125,-0.9874114990234375,-0.035064697265625,-0.001953125
1783169030462872300,5.072872314453125,-0.9877471923828125,-0.0338287353515625,-0.001495361328125
1783169030472820200,5.0828203125,-0.9865875244140625,-0.0329742431640625,-0.0013427734375
1783169030482800000,5.092800048828125,-0.9864501953125,-0.033782958984375,-0.00115966796875
1783169030492748300,5.102748291015625,-0.9868316650390625,-0.03424072265625,-0.00146484375
1783169030502697200,5.112697265625,-0.9860076904296875,-0.03466796875,-0.0009765625
1783169030512676400,5.12267626953125,-0.9870147705078125,-0.034027099609375,-0.000823974609375
1783169030522625300,5.132625244140625,-0.986541748046875,-0.034393310546875,-0.001220703125
1783169030532574200,5.14257421875,-0.9866180419921875,-0.034149169921875,-0.001251220703125
1783169030542522000,5.152522216796875,-0.987152099609375,-0.0339508056640625,-0.001312255859375
1783169030552502300,5.162502197265625,-0.987213134765625,-0.0337066650390625,-0.001007080078125
1783169030562450200,5.1724501953125,-0.986358642578125,-0.0330810546875,-0.001068115234375
1783169030572399000,5.182399169921875,-0.9864654541015625,-0.0331573486328125,-0.000885009765625
1783169030582348000,5.19234814453125,-0.986480712890625,-0.03350830078125,-0.0009918212890625
1783169030592327200,5.2023271484375,-0.9866180419921875,-0.0335693359375,-0.0015716552734375
1783169030602276000,5.212276123046875,-0.9866485595703125,-0.0344390869140625,-0.001678466796875
1783169030612225000,5.22222509765625,-0.9866485595703125,-0.0344085693359375,-0.0007476806640625
1783169030622173200,5.232173095703125,-0.9869384765625,-0.0342254638671875,-0.0008544921875
1783169030632153300,5.2421533203125,-0.9873504638671875,-0.03411865234375,-0.0021209716796875
1783169030642101000,5.25210107421875,-0.9865875244140625,-0.03363037109375,-0.0005645751953125
1783169030652050200,5.26205029296875,-0.9869842529296875,-0.033416748046875,0.0000457763671875
1783169030662029300,5.272029296875,-0.98712158203125,-0.0343017578125,-0.0003662109375
1783169030671978200,5.281978271484375,-0.986663818359375,-0.0343780517578125,-0.0017547607421875
1783169030681927200,5.29192724609375,-0.9869384765625,-0.034027099609375,-0.0032806396484375
1783169030691876000,5.3018759765625,-0.9867095947265625,-0.032958984375,-0.003814697265625
1783169030701855200,5.311855224609375,-0.9869384765625,-0.03363037109375,-0.0032196044921875
1783169030711803100,5.32180322265625,-0.986328125,-0.03375244140625,-0.001373291015625
1783169030721752000,5.331751953125,-0.9864654541015625,-0.0345306396484375,0.000579833984375
1783169030731701200,5.341701171875,-0.98583984375,-0.0348358154296875,0.00201416015625
1783169030741680000,5.35168017578125,-0.985992431640625,-0.0351715087890625,0.0011444091796875
1783169030751629000,5.361629150390625,-0.9867401123046875,-0.0352783203125,-0.00006103515625
1783169030761578000,5.371577880859375,-0.9863433837890625,-0.034332275390625,-0.001983642578125
1783169030771526100,5.381526123046875,-0.9867401123046875,-0.0334625244140625,-0.0045013427734375
1783169030781506000,5.391506103515625,-0.986541748046875,-0.032379150390625,-0.0055389404296875
1783169030791454000,5.401453857421875,-0.98651123046875,-0.0333709716796875,-0.0028228759765625
1783169030801433300,5.411433349609375,-0.9878997802734375,-0.035247802734375,-0.0003204345703125
1783169030811412200,5.421412109375,-0.98699951171875,-0.036163330078125,0.0023345947265625
1783169030821361400,5.431361328125,-0.9870147705078125,-0.0355682373046875,0.003997802734375
1783169030831310300,5.441310302734375,-0.9865264892578125,-0.035552978515625,0.0033416748046875
1783169030841259300,5.45125927734375,-0.9870758056640625,-0.034637451171875,0.0018310546875
1783169030851238100,5.461238037109375,-0.986053466796875,-0.0329437255859375,0.0000152587890625
1783169030861187300,5.471187255859375,-0.9855499267578125,-0.032012939453125,-0.004302978515625
1783169030871135200,5.48113525390625,-0.9871673583984375,-0.0312652587890625,-0.005828857421875
1783169030881084200,5.491084228515625,-0.9865570068359375,-0.0306243896484375,-0.006439208984375
1783169030891063300,5.501063232421875,-0.9856719970703125,-0.031524658203125,-0.00628662109375
1783169030901012200,5.51101220703125,-0.98602294921875,-0.031005859375,-0.004241943359375
1783169030910961200,5.520961181640625,-0.9860076904296875,-0.0324859619140625,-0.001129150390625
1783169030920940300,5.530940185546875,-0.986785888671875,-0.0327911376953125,0.0005035400390625
1783169030930889500,5.540889404296875,-0.985870361328125,-0.0342864990234375,0.001922607421875
1783169030940837000,5.550837158203125,-0.9865570068359375,-0.0338134765625,0.0026702880859375
1783169030950786300,5.560786376953125,-0.9873504638671875,-0.033599853515625,0.0001678466796875
1783169030960765400,5.570765380859375,-0.9868621826171875,-0.033966064453125,-0.0027313232421875
1783169030970714400,5.58071435546875,-0.986236572265625,-0.032867431640625,-0.0053863525390625
1783169030980663300,5.590663330078125,-0.9871368408203125,-0.033660888671875,-0.0063934326171875
1783169030990612200,5.6006123046875,-0.98724365234375,-0.034332275390625,-0.006317138671875
1783169031000591400,5.61059130859375,-0.98565673828125,-0.03411865234375,-0.0047607421875
1783169031010540300,5.620540283203125,-0.986328125,-0.0345611572265625,-0.0023193359375
1783169031020488200,5.63048828125,-0.98687744140625,-0.03497314453125,-0.000946044921875
1783169031030437000,5.64043701171875,-0.9862518310546875,-0.034088134765625,0.0002593994140625
1783169031040416300,5.650416259765625,-0.986419677734375,-0.03399658203125,0.0005340576171875
1783169031050365200,5.660365234375,-0.9866180419921875,-0.0339202880859375,0.00042724609375
1783169031060314000,5.670314208984375,-0.9862060546875,-0.034820556640625,0.0004119873046875
1783169031070293200,5.680293212890625,-0.986236572265625,-0.0339813232421875,-0.000091552734375
1783169031080242200,5.6902421875,-0.9867095947265625,-0.0341796875,-0.0012969970703125
1783169031090190000,5.700190185546875,-0.9880218505859375,-0.034332275390625,-0.0012359619140625
1783169031100139300,5.71013916015625,-0.988037109375,-0.0328369140625,-0.0016937255859375
1783169031110118100,5.7201181640625,-0.986724853515625,-0.0332794189453125,-0.0002288818359375
1783169031120067300,5.7300673828125,-0.9872894287109375,-0.0338134765625,0.0000152587890625
1783169031130016300,5.740016357421875,-0.9875946044921875,-0.033294677734375,-0.001922607421875
1783169031139965200,5.749965087890625,-0.9864349365234375,-0.0330352783203125,-0.00018310546875
1783169031149944300,5.7599443359375,-0.986419677734375,-0.0334014892578125,-0.001373291015625
1783169031159893200,5.769893310546875,-0.9864044189453125,-0.0329437255859375,-0.00213623046875
1783169031169841400,5.77984130859375,-0.9869384765625,-0.0340118408203125,-0.0012969970703125
1783169031179790300,5.789790283203125,-0.9871826171875,-0.0350341796875,0.000335693359375
1783169031189769200,5.799769287109375,-0.98760986328125,-0.0340576171875,-0.0004425048828125
1783169031199718100,5.80971826171875,-0.9873809814453125,-0.0342254638671875,-0.0016326904296875
1783169031209667300,5.819667236328125,-0.9870147705078125,-0.0337982177734375,-0.0012969970703125
1783169031219646200,5.829646240234375,-0.9863739013671875,-0.033782958984375,-0.00238037109375
1783169031229595100,5.83959521484375,-0.9864959716796875,-0.0335235595703125,-0.0018310546875
1783169031239543300,5.849543212890625,-0.9864654541015625,-0.034332275390625,-0.001617431640625
1783169031249492200,5.8594921875,-0.986663818359375,-0.0348052978515625,-0.002227783203125
1783169031259471000,5.86947119140625,-0.987335205078125,-0.03460693359375,-0.0028533935546875
1783169031269420000,5.879419921875,-0.987060546875,-0.0349884033203125,-0.002685546875
1783169031279369500,5.889369384765625,-0.98626708984375,-0.034271240234375,-0.0020751953125
1783169031289318400,5.899318359375,-0.9865570068359375,-0.0340728759765625,-0.0022125244140625
1783169031299297300,5.90929736328125,-0.98724365234375,-0.034332275390625,-0.0020294189453125
1783169031309246200,5.91924609375,-0.986968994140625,-0.0341033935546875,-0.000518798828125
1783169031319194400,5.9291943359375,-0.9865875244140625,-0.0340423583984375,0.000091552734375
1783169031329174300,5.93917431640625,-0.9856719970703125,-0.0333404541015625,-0.0006256103515625
1783169031339122200,5.9491220703125,-0.9872283935546875,-0.0345001220703125,-0.001617431640625
1783169031349071400,5.9590712890625,-0.9872283935546875,-0.034210205078125,-0.002044677734375
1783169031359020300,5.969020263671875,-0.9868621826171875,-0.0335540771484375,-0.00213623046875
1783169031368999200,5.978999267578125,-0.986572265625,-0.032501220703125,-0.0031890869140625
1783169031378948000,5.988947998046875,-0.9860992431640625,-0.0331878662109375,-0.00311279296875
1783169031388896300,5.998896240234375,-0.986480712890625,-0.0337371826171875,-0.00189208984375
1783169031398845200,6.00884521484375,-0.9865264892578125,-0.0336456298828125,-0.0008697509765625
1783169031408824300,6.01882421875,-0.986663818359375,-0.0342864990234375,0.0015411376953125
1783169031418773200,6.028773193359375,-0.986846923828125,-0.0345306396484375,0.0009765625
1783169031428722200,6.03872216796875,-0.9862060546875,-0.034515380859375,-0.000335693359375
1783169031438671400,6.04867138671875,-0.9870452880859375,-0.0330963134765625,-0.00128173828125
1783169031448650200,6.058650146484375,-0.9863128662109375,-0.0343475341796875,-0.003082275390625
1783169031458599400,6.068599365234375,-0.985809326171875,-0.034759521484375,-0.004119873046875
1783169031468547300,6.07854736328125,-0.9866180419921875,-0.03472900390625,-0.0024871826171875
1783169031478527200,6.08852734375,-0.9866180419921875,-0.0343017578125,-0.0020904541015625
1783169031488475400,6.098475341796875,-0.9875335693359375,-0.0344696044921875,0.000396728515625
1783169031498424300,6.10842431640625,-0.9871368408203125,-0.0355072021484375,-0.00042724609375
1783169031508373200,6.118373291015625,-0.9869537353515625,-0.0354156494140625,-0.0005035400390625
1783169031518352400,6.128352294921875,-0.987518310546875,-0.0340118408203125,-0.000244140625
1783169031528301300,6.13830126953125,-0.9875335693359375,-0.033111572265625,-0.001678466796875
1783169031538249200,6.148249267578125,-0.9869384765625,-0.033935546875,-0.0023956298828125
1783169031548198100,6.1581982421875,-0.986236572265625,-0.0334625244140625,-0.00341796875
1783169031558177300,6.16817724609375,-0.98638916015625,-0.032745361328125,-0.0037078857421875
1783169031568126200,6.178126220703125,-0.98638916015625,-0.03369140625,-0.00250244140625
1783169031578075100,6.1880751953125,-0.9857940673828125,-0.03326416015625,-0.0024261474609375
1783169031588024000,6.198024169921875,-0.9868316650390625,-0.032989501953125,-0.0007171630859375
1783169031598003200,6.208003173828125,-0.9868621826171875,-0.0340118408203125,-0.00042724609375
1783169031607952400,6.217952392578125,-0.9870452880859375,-0.0330047607421875,-0.0009613037109375
1783169031617900000,6.227900146484375,-0.9873046875,-0.032806396484375,-0.0003509521484375
1783169031627880400,6.23788037109375,-0.9870452880859375,-0.033203125,-0.00140380859375
1783169031637828400,6.247828369140625,-0.9857635498046875,-0.033660888671875,-0.00177001953125
1783169031647777300,6.25777734375,-0.9861907958984375,-0.0338897705078125,-0.002410888671875
1783169031657726200,6.267726318359375,-0.9864501953125,-0.03472900390625,-0.0012664794921875
1783169031667705300,6.277705322265625,-0.987335205078125,-0.034912109375,-0.0007781982421875
1783169031677654300,6.287654296875,-0.985931396484375,-0.034423828125,-0.000762939453125
1783169031687603200,6.297603271484375,-0.98638916015625,-0.0346832275390625,-0.001434326171875
1783169031697551400,6.30755126953125,-0.9860076904296875,-0.0343475341796875,-0.0017852783203125
1783169031707531300,6.31753125,-0.9863739013671875,-0.03369140625,-0.0016326904296875
1783169031717479200,6.327479248046875,-0.9863739013671875,-0.0343780517578125,-0.00115966796875
1783169031727428000,6.337427978515625,-0.986358642578125,-0.0344696044921875,-0.0008544921875
1783169031737407200,6.3474072265625,-0.986297607421875,-0.034637451171875,-0.000885009765625
1783169031747356200,6.357356201171875,-0.9860382080078125,-0.0349273681640625,-0.0007476806640625
1783169031757305000,6.36730517578125,-0.9872894287109375,-0.035125732421875,-0.0006103515625
1783169031767253200,6.377253173828125,-0.986968994140625,-0.0345458984375,-0.001190185546875
1783169031777233400,6.3872333984375,-0.9860076904296875,-0.032684326171875,-0.0023651123046875
1783169031787181000,6.39718115234375,-0.986480712890625,-0.032623291015625,-0.0030364990234375
1783169031797130200,6.407130126953125,-0.986785888671875,-0.0328521728515625,-0.0043182373046875
1783169031807078400,6.417078369140625,-0.9871673583984375,-0.0313568115234375,-0.0046234130859375
1783169031817057000,6.42705712890625,-0.98590087890625,-0.0325775146484375,-0.0039520263671875
1783169031827006500,6.43700634765625,-0.9858856201171875,-0.033660888671875,-0.0013580322265625
1783169031836955400,6.446955322265625,-0.986053466796875,-0.0330657958984375,0.000579833984375
1783169031846903300,6.4569033203125,-0.9864959716796875,-0.033203125,-0.00030517578125
1783169031856883200,6.46688330078125,-0.986328125,-0.0329132080078125,-0.0013580322265625
1783169031866831400,6.476831298828125,-0.98663330078125,-0.0329742431640625,-0.001556396484375
1783169031876780300,6.4867802734375,-0.987030029296875,-0.0330352783203125,-0.0020751953125
1783169031886759200,6.49675927734375,-0.9864501953125,-0.0333251953125,-0.0027313232421875
1783169031896708400,6.506708251953125,-0.98736572265625,-0.0338134765625,-0.0023193359375
1783169031906657300,6.5166572265625,-0.986907958984375,-0.0340118408203125,0
1783169031916605200,6.526605224609375,-0.9871826171875,-0.034393310546875,0.000396728515625
1783169031926585000,6.536585205078125,-0.98681640625,-0.035003662109375,0.0003204345703125
1783169031936533200,6.546533203125,-0.9860382080078125,-0.034393310546875,0.000091552734375
1783169031946482200,6.556482177734375,-0.9863128662109375,-0.03375244140625,-0.0011444091796875
1783169031956431000,6.56643115234375,-0.9863739013671875,-0.0342864990234375,-0.0028228759765625
1783169031966410200,6.57641015625,-0.9869842529296875,-0.035491943359375,-0.001922607421875
1783169031976359400,6.586359375,-0.9864349365234375,-0.0346221923828125,-0.000946044921875
1783169031986308400,6.596308349609375,-0.98602294921875,-0.035247802734375,-0.000274658203125
1783169031996256300,6.60625634765625,-0.9864349365234375,-0.035247802734375,0.0007171630859375
1783169032006236400,6.616236328125,-0.98675537109375,-0.0345001220703125,0.0003204345703125
1783169032016184300,6.626184326171875,-0.9868316650390625,-0.033721923828125,-0.0008392333984375
1783169032026133200,6.63613330078125,-0.9877471923828125,-0.033905029296875,-0.0017242431640625
1783169032036112400,6.6461123046875,-0.986358642578125,-0.033203125,-0.0023651123046875
1783169032046061300,6.656061279296875,-0.9871063232421875,-0.03314208984375,-0.0020599365234375
1783169032056010200,6.66601025390625,-0.987335205078125,-0.0341949462890625,-0.00115966796875
1783169032065958100,6.675958251953125,-0.9872894287109375,-0.0344696044921875,0.000152587890625
1783169032075938300,6.685938232421875,-0.9873046875,-0.0341796875,0.000091552734375
1783169032085886200,6.69588623046875,-0.9874267578125,-0.0332794189453125,-0.000701904296875
1783169032095835100,6.705835205078125,-0.9860382080078125,-0.032928466796875,-0.00146484375
1783169032105784000,6.7157841796875,-0.98687744140625,-0.0330657958984375,-0.001190185546875
1783169032115763200,6.72576318359375,-0.9866485595703125,-0.03338623046875,-0.0020904541015625
1783169032125712100,6.735712158203125,-0.9866943359375,-0.0342864990234375,-0.002685546875
1783169032135661300,6.745661376953125,-0.98651123046875,-0.0343017578125,-0.002716064453125
1783169032145640200,6.75564013671875,-0.98590087890625,-0.0341796875,-0.0027618408203125
1783169032155589400,6.76558935546875,-0.986572265625,-0.0341949462890625,-0.0006866455078125
1783169032165537300,6.775537353515625,-0.98565673828125,-0.0355224609375,0.000030517578125
1783169032175486200,6.785486328125,-0.986541748046875,-0.03558349609375,0.0004730224609375
1783169032185465300,6.79546533203125,-0.98583984375,-0.0354156494140625,0.0007781982421875
1783169032195414300,6.805414306640625,-0.9866180419921875,-0.0355224609375,0.0006256103515625
1783169032205363200,6.81536328125,-0.986907958984375,-0.0350341796875,-0.0016326904296875
1783169032215311400,6.825311279296875,-0.986175537109375,-0.033721923828125,-0.0037689208984375
1783169032225291300,6.835291259765625,-0.987091064453125,-0.0331878662109375,-0.0037689208984375
1783169032235239200,6.8452392578125,-0.98663330078125,-0.03277587890625,-0.0048828125
1783169032245188400,6.855188232421875,-0.98681640625,-0.0316925048828125,-0.00494384765625
1783169032255137300,6.86513720703125,-0.986480712890625,-0.0303955078125,-0.0034637451171875
1783169032265116200,6.8751162109375,-0.986297607421875,-0.0319976806640625,-0.0018157958984375
1783169032275065000,6.885065185546875,-0.985992431640625,-0.0328826904296875,0.001007080078125
1783169032285014300,6.89501416015625,-0.9862823486328125,-0.0331878662109375,0.002777099609375
1783169032294993200,6.9049931640625,-0.9867095947265625,-0.033538818359375,0.002227783203125
1783169032304942300,6.9149423828125,-0.9864044189453125,-0.0333404541015625,0.001251220703125
1783169032314890200,6.92489013671875,-0.9867401123046875,-0.0330963134765625,-0.0014801025390625
1783169032324839400,6.93483935546875,-0.98712158203125,-0.0325775146484375,-0.0038909912109375
1783169032334818300,6.944818359375,-0.9866790771484375,-0.0323944091796875,-0.0056304931640625
1783169032344767200,6.954767333984375,-0.9863433837890625,-0.0334930419921875,-0.004364013671875
1783169032354716400,6.96471630859375,-0.986236572265625,-0.03387451171875,-0.0023956298828125
1783169032364665300,6.974665283203125,-0.987091064453125,-0.03497314453125,-0.000701904296875
1783169032374644200,6.984644287109375,-0.9867706298828125,-0.0347747802734375,0.0001068115234375
1783169032384592400,6.99459228515625,-0.985870361328125,-0.0354156494140625,0.0012969970703125
1783169032394541300,7.004541259765625,-0.986602783203125,-0.0356597900390625,0.0001373291015625
1783169032404490200,7.014490234375,-0.9862823486328125,-0.0347747802734375,-0.0008544921875
1783169032414469000,7.02446923828125,-0.9867095947265625,-0.034912109375,-0.0016021728515625
1783169032424418300,7.034418212890625,-0.9860687255859375,-0.0354461669921875,-0.0024566650390625
1783169032434367200,7.0443671875,-0.986602783203125,-0.0343780517578125,-0.0021514892578125
1783169032444346000,7.05434619140625,-0.9865570068359375,-0.0347747802734375,-0.00225830078125
1783169032454295000,7.064294921875,-0.9877777099609375,-0.0341339111328125,-0.0012664794921875
1783169032464243200,7.0742431640625,-0.9865264892578125,-0.0336456298828125,-0.00146484375
1783169032474192100,7.084192138671875,-0.9866180419921875,-0.033172607421875,-0.001007080078125
1783169032484171300,7.094171142578125,-0.9861602783203125,-0.03369140625,-0.00048828125
1783169032494120400,7.104120361328125,-0.98626708984375,-0.0332183837890625,-0.000152587890625
1783169032504069400,7.1140693359375,-0.9864501953125,-0.0331268310546875,0.0009307861328125
1783169032514018300,7.124018310546875,-0.9864349365234375,-0.0327606201171875,-0.0005340576171875
1783169032523997200,7.1339970703125,-0.98577880859375,-0.033294677734375,-0.00146484375
1783169032533946400,7.1439462890625,-0.9864654541015625,-0.0327301025390625,-0.00250244140625
1783169032543894300,7.153894287109375,-0.987548828125,-0.0326080322265625,-0.002777099609375
1783169032553843200,7.16384326171875,-0.9859619140625,-0.0334625244140625,-0.0028076171875
1783169032563822300,7.173822265625,-0.9866485595703125,-0.0337066650390625,-0.0019989013671875
1783169032573771300,7.183771240234375,-0.986541748046875,-0.033203125,-0.0004425048828125
1783169032583720200,7.19372021484375,-0.9860992431640625,-0.0337371826171875,0.000244140625
1783169032593699300,7.20369921875,-0.98663330078125,-0.033721923828125,-0.001800537109375
1783169032603648300,7.213648193359375,-0.98590087890625,-0.0330657958984375,-0.0018463134765625
1783169032613596200,7.22359619140625,-0.9866180419921875,-0.0333404541015625,-0.001922607421875
1783169032623545000,7.233545166015625,-0.9867095947265625,-0.033966064453125,-0.0033416748046875
1783169032633524200,7.243524169921875,-0.9865875244140625,-0.034027099609375,-0.003631591796875
1783169032643473200,7.25347314453125,-0.986572265625,-0.0342254638671875,-0.0024566650390625
1783169032653422300,7.26342236328125,-0.9860992431640625,-0.0347747802734375,-0.00103759765625
1783169032663371300,7.273371337890625,-0.9861297607421875,-0.0345611572265625,0.000335693359375
1783169032673350400,7.283350341796875,-0.986358642578125,-0.035064697265625,0.00213623046875
1783169032683299300,7.29329931640625,-0.9864044189453125,-0.0345458984375,0.002288818359375
1783169032693247200,7.303247314453125,-0.9870758056640625,-0.03350830078125,0.000946044921875
1783169032703227400,7.313227294921875,-0.9876556396484375,-0.032379150390625,-0.0019378662109375
1783169032713175300,7.32317529296875,-0.9873809814453125,-0.032684326171875,-0.0033721923828125
1783169032723124200,7.333124267578125,-0.9871063232421875,-0.03271484375,-0.0035400390625
1783169032733073200,7.3430732421875,-0.98626708984375,-0.0332183837890625,-0.002532958984375
1783169032743052300,7.35305224609375,-0.985870361328125,-0.033477783203125,-0.0008544921875
1783169032753001200,7.363001220703125,-0.9860992431640625,-0.0343017578125,0.0015869140625
1783169032762949000,7.37294921875,-0.9862060546875,-0.0344696044921875,0.0025787353515625
1783169032772898300,7.382898193359375,-0.9861297607421875,-0.0350341796875,0.0036163330078125
1783169032782877200,7.392877197265625,-0.986328125,-0.03399658203125,0.00152587890625
1783169032792826000,7.402826171875,-0.9869384765625,-0.0337371826171875,-0.0019073486328125
1783169032802800400,7.41280029296875,-0.9865875244140625,-0.03424072265625,-0.0023956298828125
1783169032812749300,7.422749267578125,-0.986175537109375,-0.03387451171875,-0.004058837890625
1783169032822728400,7.432728515625,-0.985809326171875,-0.034393310546875,-0.0045166015625
1783169032832677400,7.442677490234375,-0.9875335693359375,-0.034210205078125,-0.00341796875
1783169032842625300,7.452625244140625,-0.987945556640625,-0.0333404541015625,-0.003143310546875
1783169032852605400,7.46260546875,-0.9875640869140625,-0.033599853515625,-0.0019073486328125
1783169032862553300,7.47255322265625,-0.9871673583984375,-0.0333404541015625,-0.0001678466796875
1783169032872502300,7.482502197265625,-0.987091064453125,-0.0337982177734375,0.0012054443359375
1783169032882451500,7.492451416015625,-0.9862213134765625,-0.0343017578125,0.0012969970703125
1783169032892430300,7.502430419921875,-0.985626220703125,-0.0336456298828125,0.0001068115234375
1783169032902379500,7.512379638671875,-0.986297607421875,-0.0333709716796875,-0.00146484375
1783169032912327400,7.522327392578125,-0.9868621826171875,-0.033905029296875,-0.0022735595703125
1783169032922276600,7.532276611328125,-0.98699951171875,-0.0330963134765625,-0.002166748046875
1783169032932255500,7.54225537109375,-0.9877166748046875,-0.033966064453125,-0.0022735595703125
1783169032942204400,7.552204345703125,-0.9872283935546875,-0.034576416015625,-0.0012969970703125
1783169032952153300,7.5621533203125,-0.9868316650390625,-0.03436279296875,-0.00115966796875
1783169032962102500,7.5721025390625,-0.9860076904296875,-0.0344696044921875,-0.001373291015625
1783169032972081400,7.582081298828125,-0.9862213134765625,-0.0333251953125,-0.001129150390625
1783169032982030300,7.5920302734375,-0.986785888671875,-0.033782958984375,-0.000946044921875
1783169032991978500,7.601978515625,-0.986602783203125,-0.03460693359375,-0.00067138671875
1783169033001958400,7.61195849609375,-0.9862518310546875,-0.034332275390625,-0.0003662109375
1783169033011906300,7.62190625,-0.9864044189453125,-0.0347900390625,0.00030517578125
1783169033021855200,7.631855224609375,-0.9876556396484375,-0.0344085693359375,-0.0010986328125
1783169033031804400,7.641804443359375,-0.987030029296875,-0.0338134765625,-0.002410888671875
1783169033041783300,7.651783203125,-0.9870452880859375,-0.0338134765625,-0.00262451171875
1783169033051732200,7.661732177734375,-0.9863128662109375,-0.034088134765625,-0.003814697265625
1783169033061680400,7.671680419921875,-0.986419677734375,-0.034271240234375,-0.002105712890625
1783169033071629600,7.681629638671875,-0.9871826171875,-0.0336151123046875,-0.002166748046875
1783169033081608400,7.6916083984375,-0.986328125,-0.033843994140625,-0.001007080078125
1783169033091557400,7.701557373046875,-0.986297607421875,-0.0345611572265625,-0.0003204345703125
1783169033101506600,7.711506591796875,-0.986907958984375,-0.03509521484375,-0.0003509521484375
1783169033111485400,7.7214853515625,-0.986785888671875,-0.03424072265625,0.0001068115234375
1783169033121434400,7.731434326171875,-0.9864959716796875,-0.033447265625,-0.0015411376953125
1783169033131383300,7.74138330078125,-0.986480712890625,-0.0330657958984375,-0.002716064453125
1783169033141331500,7.75133154296875,-0.9864349365234375,-0.0326995849609375,-0.0030670166015625
1783169033151311400,7.761311279296875,-0.9865570068359375,-0.0335693359375,-0.0034637451171875
1783169033161259500,7.771259521484375,-0.986602783203125,-0.034332275390625,-0.001678466796875
1783169033171208400,7.78120849609375,-0.986480712890625,-0.0343170166015625,-0.0000152587890625
1783169033181157400,7.791157470703125,-0.9869384765625,-0.034088134765625,0.00006103515625
1783169033191136300,7.80113623046875,-0.986114501953125,-0.0353851318359375,-0.0002288818359375
1783169033201085400,7.81108544921875,-0.98651123046875,-0.0340728759765625,-0.000030517578125
1783169033211034600,7.82103466796875,-0.986572265625,-0.0324859619140625,-0.00164794921875
1783169033220982300,7.830982177734375,-0.9869384765625,-0.03338623046875,-0.0037994384765625
1783169033230961400,7.84096142578125,-0.9866485595703125,-0.034332275390625,-0.003082275390625
1783169033240910600,7.85091064453125,-0.98638916015625,-0.033905029296875,-0.00189208984375
1783169033250859500,7.860859619140625,-0.98687744140625,-0.0338287353515625,-0.001678466796875
1783169033260838400,7.87083837890625,-0.9865264892578125,-0.0340423583984375,0.0005950927734375
1783169033270787600,7.88078759765625,-0.9861907958984375,-0.0345306396484375,0.0002288818359375
1783169033280736500,7.890736572265625,-0.9865875244140625,-0.0335540771484375,-0.0006256103515625
1783169033290684400,7.900684326171875,-0.9856719970703125,-0.0327301025390625,-0.000030517578125
1783169033300664300,7.910664306640625,-0.9874725341796875,-0.03387451171875,-0.0015411376953125
1783169033310612500,7.920612548828125,-0.9868927001953125,-0.0338592529296875,-0.0030364990234375
1783169033320561400,7.9305615234375,-0.987274169921875,-0.0343780517578125,-0.003265380859375
1783169033330510300,7.94051025390625,-0.986175537109375,-0.0334014892578125,-0.00341796875
1783169033340489500,7.950489501953125,-0.9869232177734375,-0.033416748046875,-0.002044677734375
1783169033350438400,7.9604384765625,-0.987060546875,-0.0345306396484375,-0.000152587890625
1783169033360387300,7.97038720703125,-0.98687744140625,-0.0340576171875,0.00048828125
1783169033370335200,7.980335205078125,-0.9859161376953125,-0.0336151123046875,-0.0000762939453125
1783169033380315400,7.9903154296875,-0.985504150390625,-0.033660888671875,-0.000457763671875
1783169033390263300,8.00026318359375,-0.9873199462890625,-0.033111572265625,-0.0023345947265625
1783169033400212500,8.01021240234375,-0.98724365234375,-0.0329132080078125,-0.0033111572265625
1783169033410191600,8.020191650390625,-0.986724853515625,-0.033447265625,-0.0045013427734375
1783169033420140500,8.030140625,-0.9874114990234375,-0.0341033935546875,-0.0022125244140625
1783169033430089500,8.04008935546875,-0.98699951171875,-0.0339508056640625,-0.0009918212890625
1783169033440037400,8.050037353515625,-0.986358642578125,-0.034332275390625,-0.0003509521484375
1783169033450017500,8.060017578125,-0.9867401123046875,-0.0343170166015625,0.0002593994140625
1783169033459965400,8.06996533203125,-0.9864654541015625,-0.0340728759765625,0.0000457763671875
1783169033469914400,8.079914306640624,-0.9868621826171875,-0.0341033935546875,-0.00152587890625
1783169033479863300,8.08986328125,-0.98681640625,-0.033843994140625,-0.0023193359375
1783169033489842400,8.099842529296875,-0.9865264892578125,-0.0334930419921875,-0.002349853515625
1783169033499791400,8.109791259765625,-0.987060546875,-0.03399658203125,-0.0017547607421875
1783169033509740300,8.119740234375,-0.9863128662109375,-0.0339813232421875,-0.0018768310546875
1783169033519719400,8.129719482421875,-0.986419677734375,-0.0337982177734375,0.0001068115234375
1783169033529668400,8.13966845703125,-0.9870147705078125,-0.0337677001953125,-0.0007171630859375
1783169033539616300,8.1496162109375,-0.986419677734375,-0.033721923828125,-0.0011444091796875
1783169033549565400,8.1595654296875,-0.986419677734375,-0.03436279296875,-0.0008392333984375
1783169033559544300,8.16954443359375,-0.9872589111328125,-0.0352325439453125,-0.0014801025390625
1783169033569493500,8.179493408203125,-0.9864501953125,-0.0341644287109375,-0.0018463134765625
1783169033579442400,8.1894423828125,-0.9869384765625,-0.0344085693359375,-0.0017852783203125
1783169033589390600,8.199390625,-0.987701416015625,-0.0337371826171875,-0.0020751953125
1783169033599370500,8.20937060546875,-0.9869232177734375,-0.0338897705078125,-0.002166748046875
1783169033609318400,8.219318359375,-0.9867401123046875,-0.033721923828125,-0.00140380859375
1783169033619267600,8.229267578125,-0.9868927001953125,-0.033905029296875,-0.001800537109375
1783169033629216500,8.239216552734375,-0.986785888671875,-0.0340118408203125,-0.0008392333984375
1783169033639195400,8.2491953125,-0.9865264892578125,-0.0348968505859375,-0.0009002685546875
1783169033649144300,8.259144287109375,-0.9864654541015625,-0.0343170166015625,-0.0006256103515625
1783169033659093500,8.269093505859376,-0.98651123046875,-0.033905029296875,0.0003509521484375
1783169033669072400,8.279072265625,-0.9872283935546875,-0.034027099609375,-0.00079345703125
1783169033679021300,8.289021240234375,-0.98681640625,-0.0340118408203125,-0.001190185546875
1783169033688969500,8.298969482421874,-0.986907958984375,-0.0332489013671875,-0.0020904541015625
1783169033698918400,8.30891845703125,-0.9867706298828125,-0.03338623046875,-0.0025787353515625
1783169033708897300,8.318897216796875,-0.986328125,-0.033721923828125,-0.00250244140625
1783169033718846200,8.32884619140625,-0.98651123046875,-0.0337982177734375,-0.0018768310546875
1783169033728795600,8.338795654296876,-0.9866790771484375,-0.034332275390625,-0.0012664794921875
1783169033738743300,8.348743408203125,-0.986602783203125,-0.0357208251953125,0.0007476806640625
1783169033748723500,8.358723388671875,-0.9874420166015625,-0.0340576171875,0.00128173828125
1783169033758671600,8.368671630859374,-0.987640380859375,-0.0346221923828125,0.0009307861328125
1783169033768620500,8.37862060546875,-0.9863739013671875,-0.0336456298828125,-0.000396728515625
1783169033778569500,8.388569580078125,-0.987060546875,-0.03350830078125,-0.0023345947265625
1783169033788548400,8.39854833984375,-0.986907958984375,-0.03363037109375,-0.0040740966796875
1783169033798497500,8.40849755859375,-0.9859161376953125,-0.0341033935546875,-0.003448486328125
1783169033808489000,8.418489013671875,-0.98681640625,-0.0351715087890625,-0.00225830078125
1783169033818467800,8.4284677734375,-0.987518310546875,-0.0348358154296875,-0.0004119873046875
1783169033828416800,8.438416748046874,-0.987579345703125,-0.03448486328125,0.000946044921875
1783169033838365000,8.448364990234374,-0.9866485595703125,-0.03460693359375,0.0014495849609375
1783169033848313900,8.45831396484375,-0.986663818359375,-0.0344390869140625,0.00115966796875
1783169033858292700,8.468292724609375,-0.9873809814453125,-0.0327911376953125,-0.0010223388671875
1783169033868241700,8.47824169921875,-0.9870147705078125,-0.0328521728515625,-0.0015869140625
1783169033878191000,8.488191162109375,-0.986907958984375,-0.033782958984375,-0.003448486328125
1783169033888138800,8.498138671875,-0.98748779296875,-0.034423828125,-0.004241943359375
1783169033898119000,8.508118896484374,-0.98748779296875,-0.034210205078125,-0.0030670166015625
1783169033908067000,8.518067138671874,-0.9868316650390625,-0.0339813232421875,-0.0027313232421875
1783169033918016000,8.52801611328125,-0.9873809814453125,-0.0336761474609375,-0.0009765625
1783169033927965000,8.53796484375,-0.9878082275390625,-0.033203125,-0.000457763671875
1783169033937943800,8.54794384765625,-0.9871826171875,-0.033599853515625,0.000396728515625
1783169033947893000,8.55789306640625,-0.9866790771484375,-0.034820556640625,0.0004425048828125
1783169033957842000,8.567842041015625,-0.986968994140625,-0.0340576171875,-0.00128173828125
1783169033967820800,8.57782080078125,-0.986419677734375,-0.033355712890625,-0.0019073486328125
1783169033977769700,8.587769775390624,-0.9865264892578125,-0.0334014892578125,-0.0019073486328125
1783169033987718000,8.5977177734375,-0.9864654541015625,-0.03375244140625,-0.00323486328125
1783169033997666800,8.607666748046874,-0.98687744140625,-0.033538818359375,-0.0040435791015625
1783169034007646000,8.61764599609375,-0.9875335693359375,-0.0340118408203125,-0.0029449462890625
1783169034017595000,8.627594970703125,-0.9867401123046875,-0.03424072265625,-0.0007476806640625
1783169034027543800,8.637543701171875,-0.9871063232421875,-0.034393310546875,-0.000152587890625
1783169034037493000,8.647492919921875,-0.986907958984375,-0.03387451171875,0.000030517578125
1783169034047471900,8.657471923828124,-0.98675537109375,-0.0343017578125,0
1783169034057419800,8.667419677734374,-0.9866180419921875,-0.0340118408203125,-0.001068115234375
1783169034067369000,8.677368896484374,-0.9859771728515625,-0.033935546875,-0.001251220703125
1783169034077348000,8.68734814453125,-0.98577880859375,-0.0341796875,-0.001617431640625
1783169034087297000,8.697297119140625,-0.986572265625,-0.0337371826171875,-0.001861572265625
1783169034097246000,8.707245849609375,-0.9868316650390625,-0.034088134765625,-0.001617431640625
1783169034107195000,8.71719482421875,-0.987762451171875,-0.034088134765625,-0.002197265625
1783169034117174000,8.727174072265624,-0.9871826171875,-0.03399658203125,-0.00189208984375
1783169034127123000,8.737123046875,-0.9871368408203125,-0.0340118408203125,-0.0009765625
1783169034137070800,8.74707080078125,-0.9867095947265625,-0.0335540771484375,-0.000030517578125
1783169034147019800,8.757019775390624,-0.9869842529296875,-0.0341339111328125,0.00018310546875
1783169034156999000,8.7669990234375,-0.9866790771484375,-0.0344696044921875,-0.0005645751953125
1783169034166947800,8.77694775390625,-0.9862518310546875,-0.033721923828125,-0.001129150390625
1783169034176896800,8.786896728515625,-0.9874420166015625,-0.03289794921875,-0.0016021728515625
1783169034186845700,8.796845703125,-0.987457275390625,-0.0339202880859375,-0.0020294189453125
1783169034196824800,8.806824951171874,-0.9869842529296875,-0.03350830078125,-0.0029754638671875
1783169034206773800,8.816773681640624,-0.9862213134765625,-0.0342864990234375,-0.0028228759765625
1783169034216721700,8.8267216796875,-0.9870758056640625,-0.0331878662109375,-0.00201416015625
1783169034226702000,8.8367021484375,-0.986846923828125,-0.0337982177734375,-0.000762939453125
1783169034236650000,8.84664990234375,-0.986663818359375,-0.0341949462890625,-0.00018310546875
1783169034246599000,8.856598876953125,-0.9864654541015625,-0.03411865234375,-0.000335693359375
1783169034256547800,8.8665478515625,-0.986572265625,-0.0341339111328125,-0.0003662109375
1783169034266527000,8.87652685546875,-0.9864654541015625,-0.0337982177734375,-0.0009307861328125
1783169034276476000,8.886475830078124,-0.9866180419921875,-0.0331878662109375,-0.00238037109375
1783169034286423800,8.896423828125,-0.9869232177734375,-0.0338134765625,-0.0028839111328125
1783169034296373000,8.906373046875,-0.9869232177734375,-0.03485107421875,-0.0029144287109375
1783169034306351900,8.916351806640625,-0.9863739013671875,-0.035064697265625,-0.0017852783203125
1783169034316300800,8.92630078125,-0.9872894287109375,-0.0340118408203125,-0.0007476806640625
1783169034326249700,8.936249755859375,-0.987396240234375,-0.0338287353515625,-0.001220703125
1783169034336199000,8.946198974609375,-0.9871978759765625,-0.033935546875,-0.000823974609375
1783169034346177800,8.956177734375,-0.986907958984375,-0.0338287353515625,-0.001007080078125
1783169034356126700,8.966126708984374,-0.9857635498046875,-0.033538818359375,-0.0019378662109375
1783169034366075000,8.976074951171874,-0.9866485595703125,-0.0335540771484375,-0.0025177001953125
1783169034376054800,8.9860546875,-0.9871826171875,-0.033599853515625,-0.0026702880859375
1783169034386002700,8.996002685546875,-0.9863739013671875,-0.033905029296875,-0.0020599365234375
1783169034395951900,9.005951904296875,-0.9872283935546875,-0.0333099365234375,-0.00177001953125
1783169034405901000,9.015901123046875,-0.986663818359375,-0.032806396484375,-0.001556396484375
1783169034415880000,9.0258798828125,-0.98565673828125,-0.0331573486328125,-0.0011444091796875
1783169034425828900,9.035828857421874,-0.986328125,-0.0341796875,-0.00067138671875
1783169034435777000,9.045777099609374,-0.986328125,-0.03424072265625,0.0002593994140625
1783169034445726000,9.055725830078124,-0.98748779296875,-0.0337677001953125,-0.00030517578125
1783169034455704800,9.065704833984375,-0.9864654541015625,-0.034454345703125,-0.001129150390625
1783169034465654000,9.075654052734375,-0.9867401123046875,-0.034210205078125,-0.000823974609375
1783169034475603000,9.08560302734375,-0.9870758056640625,-0.0328521728515625,-0.001678466796875
1783169034485581800,9.095581787109374,-0.9870147705078125,-0.03302001953125,-0.0025787353515625
1783169034495530800,9.10553076171875,-0.9862823486328125,-0.033538818359375,-0.003448486328125
1783169034505480000,9.11547998046875,-0.9868927001953125,-0.03399658203125,-0.002197265625
1783169034515427800,9.125427734375,-0.9864654541015625,-0.03375244140625,-0.0013580322265625
1783169034525407700,9.13540771484375,-0.98663330078125,-0.034698486328125,0.0001068115234375
1783169034535356000,9.14535595703125,-0.9864501953125,-0.0349578857421875,-0.0001220703125
1783169034545304800,9.155304931640625,-0.98681640625,-0.03509521484375,-0.000274658203125
1783169034555254000,9.16525390625,-0.987030029296875,-0.03363037109375,-0.000946044921875
1783169034565233000,9.17523291015625,-0.9868621826171875,-0.0329437255859375,-0.002197265625
1783169034575182000,9.18518212890625,-0.9872894287109375,-0.032958984375,-0.002532958984375
1783169034585130000,9.1951298828125,-0.9874267578125,-0.03302001953125,-0.0023040771484375
1783169034595079000,9.205078857421874,-0.9865264892578125,-0.0339508056640625,-0.0019378662109375
1783169034605058000,9.21505810546875,-0.98724365234375,-0.0335235595703125,-0.00115966796875
1783169034615007000,9.225007080078125,-0.9871826171875,-0.033294677734375,-0.0012054443359375
1783169034624956000,9.234955810546875,-0.9868011474609375,-0.03460693359375,-0.000457763671875
1783169034634934800,9.244934814453124,-0.9872283935546875,-0.0341033935546875,-0.000457763671875
1783169034644884000,9.254884033203124,-0.9872283935546875,-0.0335235595703125,-0.0004425048828125
1783169034654833000,9.2648330078125,-0.9857177734375,-0.0332794189453125,-0.0010986328125
1783169034664780800,9.27478076171875,-0.9866485595703125,-0.0338592529296875,-0.0013427734375
1783169034674760700,9.2847607421875,-0.98687744140625,-0.0341033935546875,-0.000640869140625
1783169034684708900,9.294708984375,-0.9862823486328125,-0.035125732421875,-0.0008087158203125
1783169034694657800,9.30465771484375,-0.9873199462890625,-0.035552978515625,-0.0021820068359375
1783169034704606700,9.314606689453125,-0.9868011474609375,-0.0346221923828125,-0.0025177001953125
1783169034714585900,9.3245859375,-0.9871826171875,-0.034027099609375,-0.0019073486328125
1783169034724535000,9.33453515625,-0.9871368408203125,-0.0343780517578125,-0.0012359619140625
1783169034734482700,9.344482666015624,-0.98687744140625,-0.034088134765625,-0.002044677734375
1783169034744431900,9.354431884765624,-0.9875030517578125,-0.0333099365234375,-0.0007171630859375
1783169034754411000,9.364410888671875,-0.986724853515625,-0.03271484375,-0.000701904296875
1783169034764360000,9.37435986328125,-0.9865875244140625,-0.0335845947265625,-0.000885009765625
1783169034774308900,9.384308837890625,-0.9865570068359375,-0.0334625244140625,-0.0011444091796875
1783169034784288000,9.3942880859375,-0.98577880859375,-0.0331878662109375,-0.0022430419921875
1783169034794237000,9.40423681640625,-0.9864654541015625,-0.03387451171875,-0.0023345947265625
1783169034804197000,9.414197021484375,-0.9870147705078125,-0.0334930419921875,-0.001800537109375
1783169034814145000,9.42414501953125,-0.9868011474609375,-0.0330657958984375,-0.0025634765625
1783169034824125000,9.434125,-0.98797607421875,-0.032989501953125,-0.001007080078125
1783169034834073000,9.444072998046876,-0.9870147705078125,-0.033538818359375,-0.0006256103515625
1783169034844022000,9.45402197265625,-0.987060546875,-0.0334930419921875,-0.00054931640625
1783169034853971000,9.463970947265626,-0.9870452880859375,-0.0341796875,0.0001220703125
1783169034863950000,9.4739501953125,-0.986358642578125,-0.0345458984375,-0.00018310546875
1783169034873899000,9.48389892578125,-0.9864349365234375,-0.0342559814453125,-0.00128173828125
1783169034883848000,9.493847900390625,-0.9866180419921875,-0.0341796875,-0.0023040771484375
1783169034893827000,9.5038271484375,-0.9863128662109375,-0.0348358154296875,-0.0026092529296875
1783169034903775000,9.51377490234375,-0.987457275390625,-0.034576416015625,-0.0009307861328125
1783169034913724000,9.523723876953126,-0.987335205078125,-0.03448486328125,-0.001190185546875
1783169034923672800,9.5336728515625,-0.9860687255859375,-0.0349884033203125,-0.0008697509765625
1783169034933652000,9.54365185546875,-0.9864349365234375,-0.0351409912109375,-0.0010528564453125
1783169034943601000,9.553600830078125,-0.986663818359375,-0.034423828125,-0.0001220703125
1783169034953550000,9.563550048828125,-0.9858856201171875,-0.0345916748046875,-0.00018310546875
1783169034963498200,9.573498291015625,-0.9862213134765625,-0.0339813232421875,-0.00091552734375
1783169034973478100,9.58347802734375,-0.9866485595703125,-0.033416748046875,-0.0011444091796875
1783169034983426000,9.593426025390626,-0.9864044189453125,-0.032806396484375,-0.0022735595703125
1783169034993375000,9.603375,-0.985992431640625,-0.03326416015625,-0.003082275390625
1783169035003324000,9.613323974609376,-0.9863128662109375,-0.0325775146484375,-0.0030517578125
1783169035013303000,9.623302978515625,-0.986083984375,-0.0335845947265625,-0.0015411376953125
1783169035023252000,9.633251953125,-0.9864501953125,-0.0328369140625,-0.00103759765625
1783169035033201000,9.643200927734375,-0.986419677734375,-0.033416748046875,-0.0001678466796875
1783169035043180000,9.653179931640626,-0.98626708984375,-0.0343017578125,0.0000457763671875
1783169035053129000,9.66312890625,-0.985992431640625,-0.033203125,0.0001678466796875
1783169035063076900,9.673076904296876,-0.9861907958984375,-0.0335845947265625,-0.0009307861328125
1783169035073026000,9.683026123046876,-0.9871063232421875,-0.0334320068359375,-0.00201416015625
1783169035083005000,9.6930048828125,-0.9872589111328125,-0.03411865234375,-0.0020599365234375
1783169035092953900,9.702953857421875,-0.9877166748046875,-0.0341796875,-0.001220703125
1783169035102902800,9.71290283203125,-0.9876861572265625,-0.0338592529296875,-0.0021209716796875
1783169035112851000,9.722850830078125,-0.9868621826171875,-0.033233642578125,-0.001129150390625
1783169035122831000,9.7328310546875,-0.9866485595703125,-0.034027099609375,-0.001220703125
1783169035132779000,9.742779052734376,-0.98663330078125,-0.0335235595703125,-0.001434326171875
1783169035142728200,9.752728271484376,-0.985595703125,-0.0348663330078125,-0.0014190673828125
1783169035152677000,9.762677001953126,-0.9860382080078125,-0.03387451171875,-0.001007080078125
1783169035162656000,9.772656005859375,-0.9863433837890625,-0.0341339111328125,-0.000762939453125
1783169035172605000,9.78260498046875,-0.9868316650390625,-0.0346832275390625,-0.000732421875
1783169035182554000,9.79255419921875,-0.986663818359375,-0.0343475341796875,-0.000396728515625
1783169035192533000,9.802532958984376,-0.98638916015625,-0.033538818359375,-0.001617431640625
1783169035202482000,9.81248193359375,-0.9869232177734375,-0.033721923828125,-0.001739501953125
1783169035212430000,9.82243017578125,-0.9864959716796875,-0.03399658203125,-0.0025482177734375
1783169035222379000,9.83237890625,-0.9860382080078125,-0.03350830078125,-0.0030517578125
1783169035232358000,9.84235791015625,-0.98681640625,-0.0338134765625,-0.0015869140625
1783169035242307000,9.85230712890625,-0.987213134765625,-0.0332794189453125,-0.0009307861328125
1783169035252256000,9.862256103515625,-0.9866485595703125,-0.0336761474609375,0.0001220703125
1783169035262204000,9.872203857421875,-0.98614501953125,-0.033782958984375,-0.0009765625
1783169035272183800,9.882183837890626,-0.9863433837890625,-0.033447265625,-0.001678466796875
1783169035282132000,9.892132080078126,-0.986236572265625,-0.03302001953125,-0.003082275390625
1783169035292081200,9.9020810546875,-0.986572265625,-0.0332489013671875,-0.0025177001953125
1783169035302030000,9.912030029296876,-0.98724365234375,-0.0341339111328125,-0.0012969970703125
1783169035312009200,9.92200927734375,-0.9863739013671875,-0.0348968505859375,0.0001983642578125
1783169035321958100,9.931958251953125,-0.987060546875,-0.0345306396484375,0.0006256103515625
1783169035331907000,9.941906982421875,-0.987030029296875,-0.0338287353515625,0.000823974609375
1783169035341886000,9.951885986328126,-0.9865264892578125,-0.0347137451171875,-0.000244140625
1783169035351835100,9.961835205078126,-0.98687744140625,-0.034698486328125,-0.00201416015625
1783169035361783000,9.971782958984376,-0.986907958984375,-0.034423828125,-0.0041656494140625
1783169035371732000,9.98173193359375,-0.986572265625,-0.033782958984375,-0.0049896240234375
1783169035381711000,9.991711181640625,-0.986083984375,-0.0334930419921875,-0.0048828125
1783169035391660000,10.001659912109375,-0.986724853515625,-0.034515380859375,-0.0020751953125
1783169035401609000,10.01160888671875,-0.986968994140625,-0.0357208251953125,0.0012054443359375
1783169035411556900,10.021556884765625,-0.9869842529296875,-0.036346435546875,0.003326416015625
1783169035421537000,10.031537109375,-0.9876251220703125,-0.0355682373046875,0.002777099609375
1783169035431485000,10.04148486328125,-0.9869537353515625,-0.03399658203125,0.00140380859375
1783169035441433900,10.051433837890626,-0.9873199462890625,-0.030731201171875,-0.002838134765625
1783169035451413000,10.0614130859375,-0.98785400390625,-0.030181884765625,-0.008697509765625
1783169035461362000,10.07136181640625,-0.986236572265625,-0.03106689453125,-0.0113372802734375
1783169035471311000,10.08131103515625,-0.98590087890625,-0.0322113037109375,-0.0086669921875
1783169035481260000,10.091260009765625,-0.987274169921875,-0.0333251953125,-0.0025787353515625
1783169035491239200,10.1012392578125,-0.9878997802734375,-0.0334014892578125,0.0038604736328125
1783169035501188000,10.11118798828125,-0.9864654541015625,-0.03521728515625,0.0070037841796875
1783169035511136000,10.121135986328126,-0.9872283935546875,-0.0340423583984375,0.0065765380859375
1783169035521085000,10.1310849609375,-0.987457275390625,-0.0341644287109375,0.0045166015625
1783169035531064000,10.14106396484375,-0.9865570068359375,-0.034271240234375,-0.00079345703125
1783169035541013000,10.151012939453125,-0.9876556396484375,-0.033782958984375,-0.004364013671875
1783169035550962000,10.1609619140625,-0.987518310546875,-0.03314208984375,-0.0062103271484375
1783169035560910800,10.170910888671875,-0.98675537109375,-0.0338287353515625,-0.007232666015625
1783169035570890000,10.180889892578126,-0.9871978759765625,-0.03515625,-0.004852294921875
1783169035580838000,10.190837890625,-0.9873199462890625,-0.03533935546875,-0.0023345947265625
1783169035590786800,10.200786865234376,-0.9867095947265625,-0.0363616943359375,0.0012664794921875
1783169035600766000,10.210765869140625,-0.9871673583984375,-0.0360565185546875,0.004730224609375
1783169035610715000,10.22071484375,-0.98602294921875,-0.0354156494140625,0.00341796875
1783169035620664000,10.2306640625,-0.98638916015625,-0.0357513427734375,0.00152587890625
1783169035630613000,10.240613037109375,-0.9857940673828125,-0.03436279296875,-0.0019989013671875
1783169035640592100,10.250592041015626,-0.9861602783203125,-0.0341339111328125,-0.0044097900390625
1783169035650541000,10.260541015625,-0.9861297607421875,-0.0341949462890625,-0.0050048828125
1783169035660489000,10.270489013671876,-0.986724853515625,-0.0337677001953125,-0.0053253173828125
1783169035670438100,10.280438232421876,-0.98724365234375,-0.03363037109375,-0.0032196044921875
1783169035680417000,10.2904169921875,-0.9870452880859375,-0.032958984375,-0.0008544921875
1783169035690366000,10.300365966796875,-0.9873046875,-0.032196044921875,0.000701904296875
1783169035700315000,10.31031494140625,-0.986236572265625,-0.0323638916015625,0.0011138916015625
1783169035710264000,10.32026416015625,-0.986419677734375,-0.0326690673828125,0.0008087158203125
1783169035720243000,10.330242919921876,-0.9876251220703125,-0.034271240234375,0.0003204345703125
1783169035730192000,10.34019189453125,-0.98681640625,-0.0328826904296875,-0.00091552734375
1783169035740140000,10.35014013671875,-0.9866790771484375,-0.0328216552734375,-0.0023956298828125
1783169035750119000,10.360118896484375,-0.9859466552734375,-0.034423828125,-0.0030059814453125
1783169035760067800,10.37006787109375,-0.9866485595703125,-0.034942626953125,-0.00335693359375
1783169035770017000,10.38001708984375,-0.986907958984375,-0.0342559814453125,-0.0022125244140625
1783169035779966200,10.38996630859375,-0.9864501953125,-0.0362396240234375,-0.0001678466796875
1783169035789944800,10.39994482421875,-0.986724853515625,-0.0356597900390625,0.0011138916015625
1783169035799894000,10.40989404296875,-0.986785888671875,-0.0343475341796875,0.0022735595703125
1783169035809849900,10.419849853515625,-0.98651123046875,-0.0342559814453125,0.0009002685546875
1783169035819798800,10.429798828125,-0.986053466796875,-0.0340728759765625,-0.000640869140625
1783169035829777700,10.439777587890624,-0.98724365234375,-0.033935546875,-0.0026702880859375
1783169035839726600,10.4497265625,-0.987213134765625,-0.034332275390625,-0.0032806396484375
1783169035849675800,10.45967578125,-0.9865570068359375,-0.0334625244140625,-0.0040740966796875
1783169035859654700,10.469654541015625,-0.986419677734375,-0.0340423583984375,-0.0037841796875
1783169035869603600,10.479603515625,-0.9864959716796875,-0.0342864990234375,-0.002655029296875
1783169035879552500,10.489552490234376,-0.9862518310546875,-0.0336761474609375,-0.0017242431640625
1783169035889500700,10.499500732421875,-0.9860076904296875,-0.0329132080078125,-0.0007171630859375
1783169035899480600,10.50948046875,-0.9863433837890625,-0.0327911376953125,0.0006103515625
1783169035909428500,10.519428466796874,-0.986053466796875,-0.033843994140625,0.000152587890625
1783169035919377700,10.529377685546875,-0.987335205078125,-0.033599853515625,-0.0004425048828125
1783169035929326600,10.53932666015625,-0.9863128662109375,-0.0330047607421875,-0.0011749267578125
1783169035939305500,10.549305419921875,-0.9859466552734375,-0.03338623046875,-0.002288818359375
1783169035949254400,10.55925439453125,-0.9855804443359375,-0.033721923828125,-0.0040283203125
1783169035959202600,10.56920263671875,-0.9859619140625,-0.03369140625,-0.0033416748046875
1783169035969151700,10.57915185546875,-0.9866943359375,-0.0332794189453125,-0.0023956298828125
1783169035979130600,10.589130615234374,-0.9857940673828125,-0.0341796875,-0.0003204345703125
1783169035989079800,10.599079833984375,-0.986663818359375,-0.034576416015625,0.0018768310546875
1783169035999028700,10.60902880859375,-0.987213134765625,-0.034820556640625,0.0021514892578125
1783169036009007600,10.619007568359375,-0.9864959716796875,-0.0344085693359375,0.001434326171875
1783169036018956500,10.62895654296875,-0.986724853515625,-0.03436279296875,0.00128173828125
1783169036028905700,10.63890576171875,-0.98663330078125,-0.034759521484375,-0.001861572265625
1783169036038853600,10.648853515625,-0.9864501953125,-0.0347900390625,-0.0035400390625
1783169036048833500,10.65883349609375,-0.9867401123046875,-0.034576416015625,-0.0052032470703125
1783169036058781700,10.66878173828125,-0.985595703125,-0.0342559814453125,-0.0052642822265625
1783169036068730600,10.678730712890625,-0.9865875244140625,-0.03369140625,-0.003448486328125
1783169036078679600,10.688679443359375,-0.9873809814453125,-0.0343475341796875,-0.0005950927734375
1783169036088658700,10.69865869140625,-0.98712158203125,-0.0344696044921875,0.00146484375
1783169036098607600,10.708607666015626,-0.9875946044921875,-0.0341339111328125,0.0014801025390625
1783169036108555500,10.718555419921875,-0.986236572265625,-0.033966064453125,0.001220703125
1783169036118504400,10.72850439453125,-0.9871978759765625,-0.033599853515625,-0.000335693359375
1783169036128483600,10.738483642578124,-0.987762451171875,-0.0327911376953125,-0.0028228759765625
1783169036138432800,10.748432861328125,-0.9868621826171875,-0.0323638916015625,-0.0045013427734375
1783169036148381700,10.758381591796875,-0.986968994140625,-0.0332489013671875,-0.0040130615234375
1783169036158360800,10.76836083984375,-0.9871978759765625,-0.033355712890625,-0.0030670166015625
1783169036168309800,10.778309814453126,-0.98724365234375,-0.0330352783203125,-0.0018463134765625
1783169036178258700,10.7882587890625,-0.9875030517578125,-0.03460693359375,0.0003204345703125
1783169036188206600,10.79820654296875,-0.98748779296875,-0.0350799560546875,0.0012969970703125
1783169036198186800,10.808186767578125,-0.986358642578125,-0.0343017578125,0.0018463134765625
1783169036208134700,10.818134765625,-0.98663330078125,-0.0343170166015625,0.0009002685546875
1783169036218083600,10.82808349609375,-0.9865875244140625,-0.0345001220703125,-0.0006561279296875
1783169036228032500,10.838032470703125,-0.98651123046875,-0.0352325439453125,-0.002288818359375
1783169036238011600,10.84801171875,-0.9867095947265625,-0.0344696044921875,-0.004425048828125
1783169036247960600,10.857960693359376,-0.9857330322265625,-0.0349884033203125,-0.0055694580078125
1783169036257908500,10.867908447265625,-0.9859466552734375,-0.0349884033203125,-0.0037841796875
1783169036267857700,10.877857666015625,-0.9871978759765625,-0.034637451171875,-0.0010986328125
1783169036277836500,10.88783642578125,-0.98651123046875,-0.035552978515625,-0.00042724609375
1783169036287785500,10.897785400390624,-0.986053466796875,-0.0348663330078125,0.0008392333984375
1783169036297734700,10.907734619140625,-0.9877471923828125,-0.034576416015625,0.0007171630859375
1783169036307713500,10.917713623046875,-0.9871368408203125,-0.0342559814453125,-0.000457763671875
1783169036317662700,10.927662841796876,-0.9862823486328125,-0.0335540771484375,-0.000396728515625
1783169036327611600,10.937611572265626,-0.986846923828125,-0.0326995849609375,-0.002227783203125
1783169036337559800,10.947559814453125,-0.9861297607421875,-0.0331268310546875,-0.0030364990234375
1783169036347539700,10.957539794921875,-0.98675537109375,-0.032958984375,-0.0027313232421875
1783169036357487600,10.967487548828124,-0.986663818359375,-0.0328216552734375,-0.0018310546875
1783169036367436500,10.9774365234375,-0.9856719970703125,-0.0338287353515625,-0.000732421875
1783169036377385700,10.9873857421875,-0.9868621826171875,-0.033538818359375,-0.0005340576171875
1783169036387364600,10.997364501953125,-0.9862060546875,-0.034332275390625,0.001129150390625
1783169036397313500,11.0073134765625,-0.9860382080078125,-0.0334320068359375,0.0018768310546875
1783169036407261700,11.01726171875,-0.9865570068359375,-0.03399658203125,0.0006561279296875
1783169036417241600,11.02724169921875,-0.9875335693359375,-0.03497314453125,-0.0000762939453125
1783169036427189500,11.037189453125,-0.9879608154296875,-0.033935546875,-0.003662109375
1783169036437138400,11.047138427734374,-0.98651123046875,-0.0345306396484375,-0.0040740966796875
1783169036447087600,11.057087646484375,-0.9865875244140625,-0.0340423583984375,-0.0031280517578125
1783169036457066500,11.06706640625,-0.9869842529296875,-0.0352783203125,-0.003509521484375
1783169036467015700,11.077015625,-0.987060546875,-0.03448486328125,-0.00103759765625
1783169036476964600,11.086964599609376,-0.98681640625,-0.0343017578125,0.0007171630859375
1783169036486912800,11.096912841796875,-0.9871368408203125,-0.0351715087890625,0.0002288818359375
1783169036496892700,11.106892578125,-0.9865570068359375,-0.0344696044921875,-0.0001220703125
1783169036506840800,11.1168408203125,-0.9860992431640625,-0.034881591796875,-0.0012664794921875
1783169036516789800,11.126789794921875,-0.9861907958984375,-0.0338134765625,-0.002838134765625
1783169036526738700,11.13673876953125,-0.9862518310546875,-0.0334930419921875,-0.0034637451171875
1783169036536717600,11.146717529296875,-0.986907958984375,-0.0337371826171875,-0.0030364990234375
1783169036546666500,11.15666650390625,-0.987030029296875,-0.033447265625,-0.0023956298828125
1783169036556615700,11.16661572265625,-0.9862213134765625,-0.03314208984375,-0.0009765625
1783169036566594600,11.176594482421875,-0.986328125,-0.0338897705078125,0.0004730224609375
1783169036576543500,11.18654345703125,-0.986328125,-0.034027099609375,0.0010528564453125
1783169036586491600,11.19649169921875,-0.987152099609375,-0.03363037109375,0.0009002685546875
1783169036596440600,11.206440673828125,-0.9861297607421875,-0.0341644287109375,-0.00103759765625
1783169036606419500,11.21641943359375,-0.986297607421875,-0.0344085693359375,-0.0016937255859375
1783169036616368600,11.22636865234375,-0.9868011474609375,-0.034149169921875,-0.0025177001953125
1783169036626317800,11.23631787109375,-0.9870452880859375,-0.034759521484375,-0.0043487548828125
1783169036636265500,11.246265380859375,-0.9872283935546875,-0.033966064453125,-0.003570556640625
1783169036646245600,11.25624560546875,-0.987060546875,-0.0344085693359375,-0.0015106201171875
1783169036656193800,11.26619384765625,-0.98583984375,-0.033660888671875,-0.00048828125
1783169036666142700,11.276142822265625,-0.9868621826171875,-0.0345306396484375,0.0007781982421875
1783169036676091600,11.286091552734375,-0.98687744140625,-0.03363037109375,0.000640869140625
1783169036686070800,11.29607080078125,-0.986602783203125,-0.03338623046875,-0.0001373291015625
1783169036696019700,11.306019775390626,-0.987030029296875,-0.034271240234375,-0.0030517578125
1783169036705968600,11.31596875,-0.9867706298828125,-0.0335845947265625,-0.00299072265625
1783169036715947500,11.325947509765625,-0.986480712890625,-0.0340576171875,-0.002838134765625
1783169036725896700,11.335896728515625,-0.9861602783203125,-0.0337982177734375,-0.003204345703125
1783169036735844600,11.3458447265625,-0.98651123046875,-0.0339508056640625,-0.0012054443359375
1783169036745793500,11.35579345703125,-0.986724853515625,-0.0336456298828125,0.0003662109375
1783169036755772700,11.365772705078125,-0.9867095947265625,-0.033843994140625,0.00048828125
1783169036765721600,11.3757216796875,-0.986572265625,-0.033721923828125,0.0011138916015625
1783169036775670500,11.38567041015625,-0.986480712890625,-0.033538818359375,0.0010223388671875
1783169036785618400,11.395618408203125,-0.9858551025390625,-0.032806396484375,-0.00030517578125
1783169036795598600,11.4055986328125,-0.9872589111328125,-0.03350830078125,-0.0023956298828125
1783169036805566000,11.41556591796875,-0.9870147705078125,-0.033355712890625,-0.002777099609375
1783169036815515100,11.42551513671875,-0.9863128662109375,-0.0336456298828125,-0.003082275390625
1783169036825464000,11.435464111328125,-0.9864959716796875,-0.0329132080078125,-0.0027618408203125
1783169036835443000,11.44544287109375,-0.9866180419921875,-0.032684326171875,-0.001068115234375
1783169036845392000,11.455391845703126,-0.9860687255859375,-0.033599853515625,-0.0011138916015625
1783169036855341000,11.465341064453124,-0.986083984375,-0.0334320068359375,-0.0010223388671875
1783169036865320000,11.47531982421875,-0.9860992431640625,-0.03399658203125,-0.000244140625
1783169036875268900,11.485268798828125,-0.986907958984375,-0.03424072265625,-0.0014495849609375
1783169036885217000,11.495217041015625,-0.986785888671875,-0.0352020263671875,-0.001220703125
1783169036895166000,11.505166015625,-0.9866943359375,-0.03472900390625,-0.00189208984375
1783169036905144800,11.515144775390626,-0.9866790771484375,-0.033416748046875,-0.0021514892578125
1783169036915094000,11.525093994140626,-0.9868621826171875,-0.033599853515625,-0.0023193359375
1783169036925043200,11.535043212890624,-0.98712158203125,-0.0348968505859375,-0.0021820068359375
1783169036934990800,11.544990966796876,-0.9868927001953125,-0.0349273681640625,-0.002838134765625
1783169036944971000,11.554970947265625,-0.986907958984375,-0.0340576171875,-0.001373291015625
1783169036954919200,11.564919189453125,-0.987091064453125,-0.0338287353515625,-0.00091552734375
1783169036964868000,11.5748681640625,-0.9857940673828125,-0.0335845947265625,-0.0005340576171875
1783169036974847000,11.584846923828126,-0.9861907958984375,-0.0338592529296875,-0.0011749267578125
1783169036984796200,11.594796142578126,-0.986480712890625,-0.0347137451171875,-0.00067138671875
1783169036994745000,11.6047451171875,-0.986907958984375,-0.03436279296875,-0.0010986328125
1783169037004694000,11.614694091796874,-0.98638916015625,-0.034271240234375,-0.00091552734375
1783169037014673000,11.6246728515625,-0.98712158203125,-0.0334625244140625,-0.0021209716796875
1783169037024622000,11.6346220703125,-0.9866943359375,-0.032562255859375,-0.0021209716796875
1783169037034570000,11.644570068359375,-0.9863739013671875,-0.0333099365234375,-0.0018463134765625
1783169037044519000,11.654518798828125,-0.9868927001953125,-0.0333709716796875,-0.00201416015625
1783169037054498000,11.664498046875,-0.9873504638671875,-0.03411865234375,-0.0003662109375
1783169037064447000,11.674447021484376,-0.98748779296875,-0.03485107421875,0.0001068115234375
1783169037074396000,11.68439599609375,-0.9875030517578125,-0.03436279296875,-0.000396728515625
1783169037084343800,11.69434375,-0.9859771728515625,-0.03363037109375,-0.000518798828125
1783169037094324200,11.70432421875,-0.986663818359375,-0.0338287353515625,-0.0004425048828125
1783169037104272000,11.71427197265625,-0.9870758056640625,-0.033721923828125,-0.0013580322265625
1783169037114221000,11.724220947265625,-0.9859619140625,-0.0345306396484375,-0.0010223388671875
1783169037124200200,11.7342001953125,-0.9865570068359375,-0.0338592529296875,-0.001953125
1783169037134149000,11.744149169921876,-0.9863739013671875,-0.0345916748046875,-0.001800537109375
1783169037144098000,11.75409814453125,-0.986663818359375,-0.034393310546875,-0.0010986328125
1783169037154047000,11.764046875,-0.9866790771484375,-0.0342254638671875,-0.0009765625
1783169037164026000,11.774026123046875,-0.9871368408203125,-0.033599853515625,-0.000579833984375
1783169037173975000,11.78397509765625,-0.987213134765625,-0.0342254638671875,-0.0007171630859375
1783169037183923000,11.7939228515625,-0.987548828125,-0.0341644287109375,-0.000457763671875
1783169037193872000,11.803871826171875,-0.9862823486328125,-0.033843994140625,-0.0008697509765625
1783169037203851000,11.81385107421875,-0.9864349365234375,-0.033782958984375,-0.001373291015625
1783169037213800000,11.823800048828126,-0.981658935546875,-0.03228759765625,-0.002716064453125
1783169037223748900,11.833748779296876,-0.98760986328125,-0.033782958984375,-0.0019378662109375
1783169037233697800,11.84369775390625,-0.98828125,-0.0330963134765625,-0.0024566650390625
1783169037243677000,11.853677001953125,-0.98590087890625,-0.0341339111328125,-0.0029754638671875
1783169037253624800,11.863624755859375,-0.9873504638671875,-0.035369873046875,-0.000946044921875
1783169037263573800,11.87357373046875,-0.9867706298828125,-0.03546142578125,0.0008544921875
1783169037273553000,11.883552978515626,-0.9871063232421875,-0.03564453125,0.001190185546875
1783169037283502000,11.893502197265626,-0.98681640625,-0.0353851318359375,0.0010986328125
1783169037293451000,11.903450927734376,-0.98681640625,-0.03350830078125,-0.001220703125
1783169037303400000,11.91339990234375,-0.98602294921875,-0.03302001953125,-0.00311279296875
1783169037313379000,11.923379150390625,-0.9861297607421875,-0.0334930419921875,-0.0035552978515625
1783169037323328000,11.933327880859375,-0.9851531982421875,-0.033050537109375,-0.0038604736328125
1783169037333276200,11.943276123046875,-0.98602294921875,-0.0325775146484375,-0.0040130615234375
1783169037343225000,11.95322509765625,-0.9861602783203125,-0.0337371826171875,-0.0022735595703125
1783169037353204000,11.963203857421876,-0.9862823486328125,-0.03338623046875,-0.001007080078125
1783169037363153000,11.97315283203125,-0.986114501953125,-0.033355712890625,0.0010833740234375
1783169037373101800,11.983101806640626,-0.9868316650390625,-0.0341949462890625,0.0023193359375
1783169037383081000,11.9930810546875,-0.98699951171875,-0.033447265625,0.0023193359375
1783169037393030000,12.00302978515625,-0.986419677734375,-0.0334014892578125,0.001861572265625
1783169037402978800,12.012978759765625,-0.9874267578125,-0.03314208984375,-0.0007476806640625
1783169037412927000,12.022927001953125,-0.9869384765625,-0.0328369140625,-0.0030364990234375
1783169037422905900,12.03290576171875,-0.9860992431640625,-0.0326385498046875,-0.0048980712890625
1783169037432854800,12.042854736328126,-0.9870147705078125,-0.0324554443359375,-0.0037689208984375
1783169037442804200,12.05280419921875,-0.98638916015625,-0.03253173828125,-0.003265380859375
1783169037452753200,12.062753173828124,-0.9867095947265625,-0.0346221923828125,-0.0019378662109375
1783169037462732000,12.07273193359375,-0.9870452880859375,-0.0345306396484375,-0.0002288818359375
1783169037472681000,12.082680908203125,-0.9873046875,-0.035797119140625,0.000152587890625
1783169037482629000,12.092629150390625,-0.98712158203125,-0.035430908203125,0.0008697509765625
1783169037492578000,12.102578125,-0.98681640625,-0.0352325439453125,0.0003662109375
1783169037502557000,12.112556884765626,-0.9867401123046875,-0.0343170166015625,-0.0012054443359375
1783169037512506000,12.122506103515626,-0.98602294921875,-0.03424072265625,-0.0017547607421875
1783169037522455000,12.132455078125,-0.9868621826171875,-0.0350494384765625,-0.0028533935546875
1783169037532434000,12.142433837890625,-0.98687744140625,-0.0345458984375,-0.003448486328125
1783169037542382800,12.1523828125,-0.9859771728515625,-0.033721923828125,-0.0031280517578125
1783169037552332000,12.16233203125,-0.98614501953125,-0.0343475341796875,-0.00177001953125
1783169037562280000,12.172280029296875,-0.987091064453125,-0.0349884033203125,-0.001495361328125
1783169037572259800,12.182259765625,-0.9875335693359375,-0.0346832275390625,-0.0008087158203125
1783169037582208000,12.1922080078125,-0.986297607421875,-0.0341339111328125,-0.000762939453125
1783169037592157000,12.202156982421876,-0.98663330078125,-0.03436279296875,0
1783169037602106000,12.212106201171874,-0.9862518310546875,-0.0341796875,-0.0010223388671875
1783169037612085000,12.2220849609375,-0.9857025146484375,-0.0338134765625,-0.0016021728515625
1783169037622034200,12.2320341796875,-0.9866180419921875,-0.033355712890625,-0.0026397705078125
1783169037631982000,12.241982177734375,-0.987030029296875,-0.0334320068359375,-0.002716064453125
1783169037641931000,12.251930908203125,-0.986236572265625,-0.0332794189453125,-0.00213623046875
1783169037651910100,12.26191015625,-0.98663330078125,-0.0329742431640625,-0.0015411376953125
1783169037661859000,12.271859130859376,-0.98614501953125,-0.0332489013671875,-0.0000762939453125
1783169037671808000,12.28180810546875,-0.9856414794921875,-0.0333251953125,-0.0008544921875
1783169037681787100,12.291787109375,-0.986358642578125,-0.0336151123046875,-0.000823974609375
1783169037691736000,12.301736083984375,-0.9863739013671875,-0.0331878662109375,-0.00128173828125
1783169037701685000,12.31168505859375,-0.9852752685546875,-0.03436279296875,-0.0018768310546875
1783169037711633000,12.3216328125,-0.986572265625,-0.034027099609375,-0.001708984375
1783169037721613000,12.331613037109374,-0.9863433837890625,-0.032958984375,-0.0017852783203125
1783169037731561000,12.34156103515625,-0.9859161376953125,-0.033660888671875,-0.0021514892578125
1783169037741510000,12.351510009765626,-0.98626708984375,-0.03369140625,-0.002532958984375
1783169037751458800,12.361458740234376,-0.9856719970703125,-0.03387451171875,-0.001007080078125
1783169037761438000,12.37143798828125,-0.9859161376953125,-0.033905029296875,-0.0001220703125
1783169037771387100,12.38138720703125,-0.98590087890625,-0.0335235595703125,-0.000335693359375
1783169037781335000,12.3913349609375,-0.9866943359375,-0.0347900390625,-0.000762939453125
1783169037791284000,12.401283935546875,-0.98681640625,-0.03460693359375,-0.000244140625
1783169037801263000,12.41126318359375,-0.9864959716796875,-0.034027099609375,-0.0014801025390625
1783169037811252000,12.421251953125,-0.9866180419921875,-0.0345306396484375,-0.002197265625
1783169037821201000,12.431200927734375,-0.987152099609375,-0.0337982177734375,-0.002044677734375
1783169037831179800,12.4411796875,-0.9864501953125,-0.0332183837890625,-0.001922607421875
1783169037841128700,12.451128662109374,-0.9858856201171875,-0.0335235595703125,-0.001861572265625
1783169037851078000,12.461077880859374,-0.9858551025390625,-0.0341796875,-0.00262451171875
1783169037861025800,12.47102587890625,-0.9869384765625,-0.0337982177734375,-0.0018768310546875
1783169037871005700,12.481005615234375,-0.986480712890625,-0.0330810546875,-0.000946044921875
1783169037880953900,12.490953857421875,-0.9852142333984375,-0.0347442626953125,-0.0006866455078125
1783169037890902800,12.50090283203125,-0.98565673828125,-0.033966064453125,0.000152587890625
1783169037900852000,12.51085205078125,-0.9868621826171875,-0.0348052978515625,-0.000396728515625
1783169037910830800,12.520830810546874,-0.9864349365234375,-0.034515380859375,-0.0013885498046875
1783169037920780000,12.530780029296874,-0.9857330322265625,-0.0337066650390625,-0.0024261474609375
1783169037930728000,12.54072802734375,-0.9864349365234375,-0.03271484375,-0.001983642578125
1783169037940707800,12.550707763671875,-0.9860992431640625,-0.0334014892578125,-0.0013427734375
1783169037950656000,12.560656005859375,-0.98577880859375,-0.033477783203125,-0.000946044921875
1783169037960605000,12.57060498046875,-0.986114501953125,-0.0335845947265625,-0.0009613037109375
1783169037970553900,12.580553955078125,-0.9864349365234375,-0.0345306396484375,-0.0010528564453125
1783169037980533000,12.590532958984374,-0.986236572265625,-0.034576416015625,-0.000732421875
1783169037990482000,12.60048193359375,-0.986236572265625,-0.034088134765625,-0.00140380859375
1783169038000430800,12.610430908203124,-0.9870758056640625,-0.0332794189453125,-0.0019683837890625
1783169038010378800,12.620378662109376,-0.986572265625,-0.0343475341796875,-0.0023040771484375
1783169038020359000,12.63035888671875,-0.9854888916015625,-0.034454345703125,-0.0022125244140625
1783169038030306800,12.640306884765625,-0.9862060546875,-0.0337066650390625,-0.0023956298828125
1783169038040255700,12.650255859375,-0.984344482421875,-0.033355712890625,-0.00189208984375
1783169038050205000,12.660204833984375,-0.9855499267578125,-0.0336456298828125,-0.0013580322265625
1783169038060183800,12.670183837890624,-0.9879150390625,-0.0326995849609375,-0.001983642578125
1783169038070133000,12.680133056640624,-0.9862823486328125,-0.03375244140625,-0.0010833740234375
1783169038080082000,12.69008203125,-0.986846923828125,-0.034393310546875,-0.001220703125
1783169038090061000,12.70006103515625,-0.986541748046875,-0.034576416015625,-0.000457763671875
1783169038100009000,12.710009033203125,-0.9866180419921875,-0.034393310546875,-0.00054931640625
1783169038109958000,12.7199580078125,-0.9864349365234375,-0.0352020263671875,-0.001190185546875
1783169038119906800,12.72990673828125,-0.9860076904296875,-0.034942626953125,-0.0022430419921875
