time,seconds_elapsed,z,y,x
1783169658799050800,0.09805078125,-0.04297037050127983,-0.02425101026892662,0.5098333954811096
1783169658809030000,0.10802978515625,-0.11555109918117523,-0.11908138543367386,0.4986303150653839
1783169658818978800,0.117978759765625,-0.18197353184223175,-0.23232005536556244,0.4739989936351776
1783169658828926700,0.1279267578125,-0.2804151475429535,-0.2364141345024109,0.40053409337997437
1783169658838907000,0.137906982421875,-0.4030124247074127,-0.1592668890953064,0.3155784606933594
1783169658848854800,0.147854736328125,-0.45148569345474243,-0.17607435584068298,0.23493102192878723
1783169658858803700,0.1578037109375,-0.48481088876724243,-0.21812833845615387,0.14179201424121857
1783169658868752600,0.167752685546875,-0.5028349161148071,-0.2264973223209381,0.061471350491046906
1783169658878731800,0.177731689453125,-0.43563297390937805,-0.11826831847429276,0.01997663825750351
1783169658888680700,0.1876806640625,-0.28229692578315735,-0.05609975382685661,-0.004197407979518175
1783169658898628600,0.197628662109375,-0.0947699174284935,-0.02093803882598877,-0.02658979967236519
1783169658908608800,0.20760888671875,0.015194132924079895,-0.04496268182992935,-0.06917667388916016
1783169658918556700,0.217556640625,0.00917272549122572,-0.14141730964183807,-0.1600884646177292
1783169658928505600,0.227505615234375,-0.05752507969737053,-0.22556494176387787,-0.2468036562204361
1783169658938454800,0.237454833984375,-0.1300506740808487,-0.32976165413856506,-0.32084301114082336
1783169658948434000,0.247433837890625,-0.19663316011428833,-0.5476683974266052,-0.4074913263320923
1783169658958382800,0.2573828125,-0.270555317401886,-0.7707249522209167,-0.4969996511936188
1783169658968331800,0.267331787109375,-0.33456626534461975,-0.883910596370697,-0.5554342269897461
1783169658978311000,0.277310791015625,-0.38070714473724365,-0.8862028121948242,-0.5805307626724243
1783169658988259800,0.287259765625,-0.40685537457466125,-0.7842082381248474,-0.5595021843910217
1783169658998207700,0.297207763671875,-0.41976290941238403,-0.6359586119651794,-0.5107991099357605
1783169659008156700,0.30715673828125,-0.42333608865737915,-0.4502420127391815,-0.4453694820404053
1783169659018135800,0.3171357421875,-0.3946216106414795,-0.233380526304245,-0.3635278642177582
1783169659028084700,0.327084716796875,-0.35656556487083435,-0.07169682532548904,-0.2670721709728241
1783169659038033700,0.33703369140625,-0.36763980984687805,0.08741187304258347,-0.17580512166023254
1783169659048012800,0.3470126953125,-0.3750377893447876,0.25257259607315063,-0.08062640577554703
1783169659057961700,0.356961669921875,-0.37183988094329834,0.39106202125549316,-0.008407066576182842
1783169659067909600,0.36690966796875,-0.3912689685821533,0.47602006793022156,0.003573962254449725
1783169659077858600,0.376858642578125,-0.3954477310180664,0.49316391348838806,-0.06494784355163574
1783169659087837700,0.386837646484375,-0.32629767060279846,0.4025953710079193,-0.2022995799779892
1783169659097786600,0.39678662109375,-0.18565428256988525,0.2331344485282898,-0.3625752627849579
1783169659107735800,0.40673583984375,-0.024513065814971924,0.10316633433103561,-0.5164892077445984
1783169659117715000,0.41671484375,0.10220333188772202,0.08305414021015167,-0.6450104117393494
1783169659127663900,0.426663818359375,0.1808944195508957,0.16620734333992004,-0.7438725233078003
1783169659137612800,0.43661279296875,0.22096939384937286,0.28424957394599915,-0.801347017288208
1783169659147592000,0.446592041015625,0.23278051614761353,0.34292539954185486,-0.8240166306495667
1783169659157540900,0.456540771484375,0.20724239945411682,0.33830639719963074,-0.81942218542099
1783169659167488800,0.46648876953125,0.14640861749649048,0.2970934510231018,-0.7874602675437927
1783169659177437700,0.476437744140625,0.08208475261926651,0.2089494913816452,-0.7490792870521545
1783169659187416800,0.486416748046875,0.05663957819342613,0.09170861542224884,-0.7141823172569275
1783169659197365800,0.49636572265625,0.1265169233083725,-0.03840677812695503,-0.6887876987457275
1783169659207314700,0.506314697265625,0.17039011418819427,0.07740717381238937,-0.6343239545822144
1783169659217293800,0.5162939453125,0.21044032275676727,0.3363838791847229,-0.5198783278465271
1783169659227242800,0.52624267578125,0.24901089072227478,0.4690670967102051,-0.3902135491371155
1783169659237190700,0.536190673828125,0.30883586406707764,0.4484643340110779,-0.2762710154056549
1783169659247139600,0.5461396484375,0.4156281054019928,0.3428739905357361,-0.2120763063430786
1783169659257118700,0.55611865234375,0.526317298412323,0.21856802701950073,-0.2043701857328415
1783169659267067600,0.566067626953125,0.6230849027633667,0.053219277411699295,-0.2217363864183426
1783169659277016800,0.576016845703125,0.6859032511711121,-0.06700752675533295,-0.23325535655021667
1783169659286995700,0.58599560546875,0.6872918605804443,-0.02359693869948387,-0.2184322029352188
1783169659296945000,0.59594482421875,0.6012043356895447,0.09923151135444641,-0.1795753538608551
1783169659306893800,0.605893798828125,0.4589598476886749,0.1955074518918991,-0.13761219382286072
1783169659316880600,0.615880615234375,0.2981693744659424,0.226449653506279,-0.10134819149971008
1783169659326860500,0.625860595703125,0.17722484469413757,0.19991230964660645,-0.08049298077821732
1783169659336808700,0.63580859375,0.11542193591594696,0.17565171420574188,-0.0754697248339653
1783169659346757600,0.645757568359375,0.10601457953453064,0.19294415414333344,-0.07731449604034424
1783169659356736800,0.65573681640625,0.14505305886268616,0.22770479321479797,-0.10128267854452133
1783169659366685700,0.665685791015625,0.21181903779506683,0.24221795797348022,-0.1469620168209076
1783169659376634600,0.675634521484375,0.2738102376461029,0.24171489477157593,-0.20370705425739288
1783169659386582500,0.68558251953125,0.3142053484916687,0.24236257374286652,-0.2522445023059845
1783169659396562700,0.695562744140625,0.3316146731376648,0.25673726201057434,-0.2872309684753418
1783169659406510600,0.705510498046875,0.3316431939601898,0.26558053493499756,-0.30419212579727173
1783169659416459800,0.715459716796875,0.3213644325733185,0.2650385797023773,-0.3000543713569641
1783169659426438700,0.725438720703125,0.2944750487804413,0.2606299817562103,-0.2788020670413971
1783169659436387800,0.735387939453125,0.2673313021659851,0.2529236078262329,-0.2518618106842041
1783169659446336800,0.745336669921875,0.24424755573272705,0.22959618270397186,-0.2301916629076004
1783169659456285700,0.75528564453125,0.24149863421916962,0.19345974922180176,-0.20521493256092072
1783169659466264800,0.765264892578125,0.25494280457496643,0.1473018378019333,-0.18437862396240234
1783169659476213800,0.7752138671875,0.2837670147418976,0.11340165883302689,-0.16064080595970154
1783169659486161700,0.78516162109375,0.3190392255783081,0.11568532139062881,-0.13188453018665314
1783169659496141600,0.7951416015625,0.3546949625015259,0.14059333503246307,-0.10361933708190918
1783169659506089700,0.80508984375,0.3832840025424957,0.16447976231575012,-0.08540757745504379
1783169659516038700,0.81503857421875,0.3996696472167969,0.18283186852931976,-0.06860382854938507
1783169659525987600,0.824987548828125,0.3892654776573181,0.18853050470352173,-0.05895040184259415
1783169659535966700,0.834966796875,0.3547426462173462,0.19654928147792816,-0.05932936817407608
1783169659545915600,0.84491552734375,0.30664196610450745,0.19962230324745178,-0.06295845657587051
1783169659555863600,0.854863525390625,0.25827017426490784,0.19546084105968475,-0.06424689292907715
1783169659565843500,0.864843505859375,0.22112199664115906,0.20132271945476532,-0.06254300475120544
1783169659575791600,0.87479150390625,0.18916192650794983,0.21618449687957764,-0.0528419092297554
1783169659585740500,0.884740478515625,0.169439896941185,0.22112838923931122,-0.04653101786971092
1783169659595689700,0.894689697265625,0.1527290940284729,0.21788279712200165,-0.049008820205926895
1783169659605668900,0.9046689453125,0.14870399236679077,0.2195643186569214,-0.05566272884607315
1783169659615617800,0.91461767578125,0.15926235914230347,0.2227366715669632,-0.06880223006010056
1783169659625566700,0.924566650390625,0.1807284951210022,0.21855178475379944,-0.08148207515478134
1783169659635545900,0.9345458984375,0.20562852919101715,0.20342236757278442,-0.10287365317344666
1783169659645494800,0.944494873046875,0.23530040681362152,0.1957721710205078,-0.1114109456539154
1783169659655442700,0.954442626953125,0.26266464591026306,0.18169203400611877,-0.10616026073694229
1783169659665391600,0.9643916015625,0.28159093856811523,0.1509391814470291,-0.08853811770677567
1783169659675370800,0.974370849609375,0.2939826250076294,0.12301700562238693,-0.06393930315971375
1783169659685319700,0.984319580078125,0.2990490198135376,0.10780875384807587,-0.018619490787386894
1783169659695268600,0.9942685546875,0.3001989722251892,0.13032977283000946,0.04887086898088455
1783169659705247700,1.004247802734375,0.3154122829437256,0.1771409511566162,0.13188080489635468
1783169659715196700,1.01419677734375,0.3519953191280365,0.2648037075996399,0.22333136200904846
1783169659725144600,1.02414453125,0.41417428851127625,0.41999727487564087,0.32515546679496765
1783169659735093500,1.034093505859375,0.4887380003929138,0.5963200926780701,0.43245047330856323
1783169659745072600,1.04407275390625,0.5674448013305664,0.6806586980819702,0.5053358674049377
1783169659755021600,1.054021484375,0.6333146095275879,0.6478509306907654,0.5242184996604919
1783169659764970800,1.063970703125,0.6711293458938599,0.5308383107185364,0.4943929612636566
1783169659774950000,1.073949951171875,0.6740186214447021,0.3571102023124695,0.4356928765773773
1783169659784898800,1.08389892578125,0.6421927809715271,0.1535104662179947,0.34391769766807556
1783169659794847700,1.09384765625,0.5814341306686401,-0.04646044224500656,0.24480335414409637
1783169659804826600,1.10382666015625,0.505387544631958,-0.18323028087615967,0.15390993654727936
1783169659814775800,1.11377587890625,0.4324195981025696,-0.19596630334854126,0.09569643437862396
1783169659824723700,1.1237236328125,0.37646791338920593,-0.09827730059623718,0.0945797711610794
1783169659834672600,1.133672607421875,0.33654314279556274,0.05191592872142792,0.13589684665203094
1783169659844651800,1.14365185546875,0.29791903495788574,0.15268701314926147,0.1871725469827652
1783169659854600700,1.1536005859375,0.26648762822151184,0.17738623917102814,0.23034799098968506
1783169659864549600,1.163549560546875,0.24436233937740326,0.17162396013736725,0.2569471001625061
1783169659874528800,1.17352880859375,0.23325856029987335,0.16861005127429962,0.28119730949401855
1783169659884477700,1.183477783203125,0.23266147077083588,0.20865601301193237,0.30908113718032837
1783169659894425600,1.193425537109375,0.23615553975105286,0.26557815074920654,0.3219306468963623
1783169659904374500,1.20337451171875,0.2441098690032959,0.30482035875320435,0.30810776352882385
1783169659914353700,1.213353759765625,0.25524187088012695,0.3072853684425354,0.27263471484184265
1783169659924302600,1.223302490234375,0.25799933075904846,0.28820541501045227,0.2240874320268631
1783169659934251800,1.233251708984375,0.24548858404159546,0.2534141540527344,0.17653349041938782
1783169659944231000,1.24323095703125,0.21269762516021729,0.2072189599275589,0.1360933929681778
1783169659954179800,1.253179931640625,0.17763683199882507,0.17333796620368958,0.10952968895435333
1783169659964128800,1.263128662109375,0.15695339441299438,0.15320393443107605,0.09253180027008057
1783169659974076700,1.27307666015625,0.14704564213752747,0.12858647108078003,0.07493842393159866
1783169659984056800,1.283056884765625,0.1300530731678009,0.08722545206546783,0.04635125398635864
1783169659994004700,1.293004638671875,0.09976866841316223,0.029988525435328484,-0.002817624481394887
1783169660003953700,1.30295361328125,0.060791976749897,-0.025109346956014633,-0.06045402213931084
1783169660013932800,1.312932861328125,0.02600283920764923,-0.081049844622612,-0.12055037915706635
1783169660023881700,1.3228818359375,0.006864564027637243,-0.12869779765605927,-0.17501841485500336
1783169660033830700,1.33283056640625,0.012928049080073833,-0.161312997341156,-0.22526587545871735
1783169660043778600,1.342778564453125,0.03539394214749336,-0.15840108692646027,-0.2554485499858856
1783169660053758700,1.3527587890625,0.0766441747546196,-0.1183926910161972,-0.2555558681488037
1783169660063706600,1.36270654296875,0.13272635638713837,-0.06717637181282043,-0.23445937037467957
1783169660073655600,1.372655517578125,0.1877366155385971,-0.026567962020635605,-0.20587460696697235
1783169660083634700,1.382634765625,0.23558802902698517,-0.009323992766439915,-0.17354010045528412
1783169660093583600,1.39258349609375,0.2668772339820862,-0.004935636185109615,-0.13345126807689667
1783169660103532800,1.40253271484375,0.2750805616378784,-0.03641659766435623,-0.09774892777204514
1783169660113481700,1.412481689453125,0.26841333508491516,-0.09013362228870392,-0.07872330397367477
1783169660123460900,1.4224609375,0.24521028995513916,-0.13219398260116577,-0.07935979962348938
1783169660133409800,1.432409912109375,0.21502602100372314,-0.1496555358171463,-0.09124495834112167
1783169660143357700,1.442357666015625,0.19363658130168915,-0.12656646966934204,-0.1103920191526413
1783169660153337600,1.452337646484375,0.17647197842597961,-0.05072576180100441,-0.11680518090724945
1783169660163285800,1.46228564453125,0.17148840427398682,0.03857002779841423,-0.11473723500967026
1783169660173234700,1.472234619140625,0.17703789472579956,0.11181893944740295,-0.10763990879058838
1783169660183183600,1.48218359375,0.18826977908611298,0.14709436893463135,-0.09650550037622452
1783169660193162800,1.492162841796875,0.18597626686096191,0.1313668042421341,-0.09054215252399445
1783169660203111700,1.502111572265625,0.16762708127498627,0.0641757920384407,-0.08287277817726135
1783169660213060600,1.512060546875,0.14974315464496613,-0.023668311536312103,-0.07766230404376984
1783169660223039700,1.522039794921875,0.13372664153575897,-0.10927455872297287,-0.07422735542058945
1783169660232987600,1.531987548828125,0.11407597362995148,-0.17158374190330505,-0.06526023149490356
1783169660242936600,1.5419365234375,0.10556184500455856,-0.20560322701931,-0.05872802808880806
1783169660252885500,1.551885498046875,0.11213133484125137,-0.22668960690498352,-0.06380481272935867
1783169660262864600,1.56186474609375,0.13356365263462067,-0.22280538082122803,-0.07479461282491684
1783169660272813800,1.571813720703125,0.16053561866283417,-0.18417569994926453,-0.08328130841255188
1783169660282762800,1.5817626953125,0.18344944715499878,-0.13213300704956055,-0.08293989300727844
1783169660292742000,1.591741943359375,0.2012643963098526,-0.10889745503664017,-0.07278712093830109
1783169660302690800,1.60169091796875,0.21381375193595886,-0.08885317295789719,-0.04002198576927185
1783169660312667100,1.611667236328125,0.2123175859451294,-0.07936299592256546,-0.0007805725326761603
1783169660322616000,1.621615966796875,0.2030511200428009,-0.12912921607494354,0.04824023321270943
1783169660332595200,1.63159521484375,0.19546297192573547,-0.20372383296489716,0.08897274732589722
1783169660342544100,1.641544189453125,0.18249976634979248,-0.2731838524341583,0.12881231307983398
1783169660352493000,1.6514931640625,0.15510037541389465,-0.31758594512939453,0.16081498563289642
1783169660362472000,1.661471923828125,0.13019688427448273,-0.3276606798171997,0.193142831325531
1783169660372421000,1.671421142578125,0.1205194890499115,-0.30113187432289124,0.21947962045669556
1783169660382370000,1.6813701171875,0.12769830226898193,-0.28546395897865295,0.22720599174499512
1783169660392318000,1.69131787109375,0.1356036365032196,-0.28428444266319275,0.2153506577014923
1783169660402297000,1.701297119140625,0.1379043459892273,-0.27836477756500244,0.19595566391944885
1783169660412246000,1.71124609375,0.1275843232870102,-0.2753783166408539,0.1710340678691864
1783169660422195000,1.72119482421875,0.10499752312898636,-0.25662460923194885,0.14106684923171997
1783169660432174000,1.731174072265625,0.07446011900901794,-0.21660900115966797,0.10348591208457947
1783169660442123000,1.741123046875,0.053460296243429184,-0.17052540183067322,0.05002055689692497
1783169660452072000,1.751072021484375,0.055320512503385544,-0.1289827525615692,-0.0008468852029182017
1783169660462019800,1.761019775390625,0.08044078201055527,-0.07032103091478348,-0.02088424190878868
1783169660472000000,1.771,0.12120818346738815,0.02118944190442562,0.005150021053850651
1783169660481948000,1.780947998046875,0.1506214588880539,0.11291483044624329,0.06640512496232986
1783169660491897000,1.79089697265625,0.15590384602546692,0.07694591581821442,0.12214828282594681
1783169660501876200,1.800876220703125,0.1542430967092514,-0.019414709880948067,0.1547514945268631
1783169660511825200,1.8108251953125,0.1409406065940857,-0.1099075898528099,0.16064134240150452
1783169660521774000,1.820774169921875,0.11005939543247223,-0.20807278156280518,0.12644022703170776
1783169660531723000,1.830722900390625,0.04459170252084732,-0.32972729206085205,0.023179620504379272
1783169660541702100,1.8407021484375,-0.028382372111082077,-0.4373621642589569,-0.13753148913383484
1783169660551651000,1.850651123046875,-0.07114501297473907,-0.46413251757621765,-0.3222297132015228
1783169660561599000,1.860598876953125,-0.07787056267261505,-0.40574562549591064,-0.4759849011898041
1783169660571578000,1.870578125,-0.06959398835897446,-0.2897348701953888,-0.5626415014266968
1783169660581527000,1.880527099609375,-0.059124041348695755,-0.1437601000070572,-0.5606182813644409
1783169660591476000,1.89047607421875,-0.03982144966721535,-0.008007592521607876,-0.47476091980934143
1783169660601454800,1.900454833984375,-0.0023241406306624413,0.12190166860818863,-0.3273954391479492
1783169660611404000,1.910404052734375,0.04193679615855217,0.2239484041929245,-0.1405954658985138
1783169660621353000,1.92035302734375,0.07630036026239395,0.29168057441711426,0.0572209432721138
1783169660631300900,1.93030078125,0.08775168657302856,0.3346823751926422,0.23509827256202698
1783169660641281000,1.940281005859375,0.07909641414880753,0.3479076325893402,0.3766745626926422
1783169660651229000,1.95022900390625,0.06131235882639885,0.30148768424987793,0.4477021396160126
1783169660661178000,1.96017822265625,0.05390451103448868,0.20012244582176208,0.4566679298877716
1783169660671157200,1.9701572265625,0.07249151170253754,0.11474549025297165,0.39506661891937256
1783169660681106200,1.980106201171875,0.09987812489271164,0.0541071780025959,0.28297898173332214
1783169660691055000,1.99005517578125,0.12286866456270218,0.032825857400894165,0.13645851612091064
1783169660701004000,2.000004150390625,0.11688826978206635,0.05265681818127632,-0.022880814969539642
1783169660710983000,2.00998291015625,0.07604390382766724,0.08083385974168777,-0.17997881770133972
1783169660720932000,2.01993212890625,0.007423295173794031,0.0861644446849823,-0.322481632232666
1783169660730880000,2.0298798828125,-0.06669168174266815,0.057499777525663376,-0.43466916680336
1783169660740859100,2.039859130859375,-0.1357538402080536,0.011158112436532974,-0.4929428696632385
1783169660750808000,2.04980810546875,-0.1998412162065506,-0.008282963186502457,-0.4919585585594177
1783169660760757000,2.059757080078125,-0.2560032904148102,-0.02833816409111023,-0.45245587825775146
1783169660770706000,2.069705810546875,-0.29914116859436035,-0.06716945022344589,-0.3918074667453766
1783169660780685000,2.07968505859375,-0.3220345079898834,-0.1035439670085907,-0.325357049703598
1783169660790634000,2.089634033203125,-0.3313387930393219,-0.1167423278093338,-0.2760739326477051
1783169660800582000,2.099581787109375,-0.3332567811012268,-0.10280760377645493,-0.2495965212583542
1783169660810562000,2.10956201171875,-0.3076947033405304,-0.060683052986860275,-0.23981605470180511
1783169660820510000,2.119510009765625,-0.2796905040740967,0.006088519003242254,-0.24433118104934692
1783169660830459100,2.129459228515625,-0.2661549746990204,0.0677524134516716,-0.2524314522743225
1783169660840408000,2.139407958984375,-0.27420225739479065,0.09064041823148727,-0.25687599182128906
1783169660850387200,2.14938720703125,-0.28844910860061646,0.12025663256645203,-0.24501214921474457
1783169660860336000,2.159336181640625,-0.3083445131778717,0.15467293560504913,-0.2255210131406784
1783169660870285000,2.16928515625,-0.3219063878059387,0.15774862468242645,-0.20056478679180145
1783169660880264000,2.179263916015625,-0.32470911741256714,0.12926211953163147,-0.18136659264564514
1783169660890213000,2.189213134765625,-0.3133837580680847,0.09120874106884003,-0.1710340678691864
1783169660900161000,2.1991611328125,-0.295879602432251,0.03863607719540596,-0.16783960163593292
1783169660910110000,2.20910986328125,-0.28086310625076294,0.0002511360798962414,-0.17245379090309143
1783169660920089000,2.219089111328125,-0.266703337430954,-0.024212129414081573,-0.1759691685438156
1783169660930038000,2.2290380859375,-0.2408464401960373,-0.0437924861907959,-0.19013717770576477
1783169660939987000,2.238987060546875,-0.1954142302274704,-0.05986253544688225,-0.2073736935853958
1783169660949966000,2.248966064453125,-0.14979562163352966,-0.04640265181660652,-0.2100139558315277
1783169660959915000,2.2589150390625,-0.11627627909183502,-0.020624851807951927,-0.20138078927993774
1783169660969863000,2.26886279296875,-0.09194723516702652,0.017584852874279022,-0.17660246789455414
1783169660979811800,2.278811767578125,-0.07530993223190308,0.07740957289934158,-0.1396407186985016
1783169660989791000,2.288791015625,-0.06726745516061783,0.11869815737009048,-0.08898899704217911
1783169660999740200,2.298740234375,-0.0551905520260334,0.12376321852207184,-0.030670294538140297
1783169661009689000,2.308689208984375,-0.029708094894886017,0.11767975986003876,0.025077389553189278
1783169661019668200,2.318668212890625,0.01780056767165661,0.08884225785732269,0.08055183291435242
1783169661029617200,2.3286171875,0.08198142051696777,0.034447986632585526,0.12343885004520416
1783169661039566000,2.338566162109375,0.14498914778232574,-0.019869579002261162,0.15649214386940002
1783169661049514000,2.348513916015625,0.18081586062908173,-0.03277711942791939,0.18919070065021515
1783169661059494100,2.358494140625,0.191425621509552,-0.020289825275540352,0.1928354948759079
1783169661069442000,2.368442138671875,0.19927582144737244,-0.007441937457770109,0.1897856444120407
1783169661079391000,2.378390869140625,0.21724337339401245,0.023362314328551292,0.17701712250709534
1783169661089370000,2.3883701171875,0.2481490820646286,0.05199582129716873,0.159074068069458
1783169661099319000,2.398319091796875,0.29266035556793213,0.09710897505283356,0.1605345457792282
1783169661109268000,2.40826806640625,0.34806370735168457,0.16912777721881866,0.18947511911392212
1783169661119215900,2.4182158203125,0.4166041314601898,0.22585763037204742,0.2538796663284302
1783169661129196000,2.428196044921875,0.483311265707016,0.28230544924736023,0.3457944095134735
1783169661139144000,2.43814404296875,0.5505675673484802,0.40261295437812805,0.4531392455101013
1783169661149092900,2.4480927734375,0.6136327981948853,0.5132808685302734,0.5371036529541016
1783169661159072000,2.458072021484375,0.6566484570503235,0.46970492601394653,0.5550767779350281
1783169661169021200,2.468021240234375,0.6802594661712646,0.2633088529109955,0.5124587416648865
1783169661178970000,2.47797021484375,0.6856635808944702,-0.006268016062676907,0.4105885922908783
1783169661188919000,2.4879189453125,0.66932612657547,-0.3019566535949707,0.2743322253227234
1783169661198898200,2.497898193359375,0.6264428496360779,-0.5299919843673706,0.12059032917022705
1783169661208847000,2.50784716796875,0.584361732006073,-0.5630010366439819,0.015519571490585804
1783169661218795000,2.517794921875,0.5763890147209167,-0.37777072191238403,-0.01398772094398737
1783169661228775000,2.52777490234375,0.5928627848625183,-0.0756998211145401,0.016356335952878
1783169661238723000,2.53772314453125,0.6165939569473267,0.1682840883731842,0.07688678801059723
1783169661248672000,2.547672119140625,0.6447286605834961,0.28037893772125244,0.11145355552434921
1783169661258621000,2.557620849609375,0.6913805603981018,0.24839942157268524,0.12917476892471313
1783169661268600000,2.56760009765625,0.7383300065994263,0.1589108258485794,0.135221466422081
1783169661278549000,2.577549072265625,0.7658068537712097,0.12429265677928925,0.1694401651620865
1783169661288497000,2.587496826171875,0.7554176449775696,0.16011962294578552,0.2267836183309555
1783169661298477000,2.59747705078125,0.7121385931968689,0.19640253484249115,0.26364150643348694
1783169661308425000,2.607425048828125,0.6624788641929626,0.17658968269824982,0.2602768540382385
1783169661318391300,2.617391357421875,0.6187284588813782,0.1192086786031723,0.21137189865112305
1783169661328340200,2.62734033203125,0.5715029239654541,0.06437765806913376,0.13753868639469147
1783169661338319400,2.6373193359375,0.5210320353507996,0.05476124957203865,0.05500626191496849
1783169661348268300,2.647268310546875,0.47913357615470886,0.09007103741168976,-0.018426677212119102
1783169661358217200,2.65721728515625,0.4539659023284912,0.17513133585453033,-0.07868442684412003
1783169661368196400,2.6671962890625,0.4486292004585266,0.27492478489875793,-0.12300635129213333
1783169661378145300,2.677145263671875,0.4564434289932251,0.34427136182785034,-0.16055399179458618
1783169661388093200,2.68709326171875,0.4705376923084259,0.3844430148601532,-0.18899628520011902
1783169661398073000,2.697072998046875,0.4737640917301178,0.39025402069091797,-0.22028683125972748
1783169661408021200,2.707021240234375,0.46181291341781616,0.37456241250038147,-0.24588753283023834
1783169661417970400,2.716970458984375,0.4446491003036499,0.35999199748039246,-0.26146650314331055
1783169661427919400,2.72691943359375,0.4386220872402191,0.3585192561149597,-0.2652963697910309
1783169661437898500,2.7368984375,0.44105514883995056,0.35832273960113525,-0.2699712812900543
1783169661447847400,2.746847412109375,0.4517296552658081,0.3555000424385071,-0.27794134616851807
1783169661457795300,2.75679541015625,0.473636269569397,0.3450269103050232,-0.2763242721557617
1783169661467775200,2.766775146484375,0.5051345229148865,0.3240688741207123,-0.2706530690193176
1783169661477723400,2.776723388671875,0.5406104922294617,0.2863984704017639,-0.2666279673576355
1783169661487672300,2.78667236328125,0.5793027877807617,0.23754145205020905,-0.2600957751274109
1783169661497621200,2.796621337890625,0.617461621761322,0.20244285464286804,-0.24635304510593414
1783169661507600400,2.806600341796875,0.6382284164428711,0.18808895349502563,-0.21710434556007385
1783169661517549300,2.81654931640625,0.6421424746513367,0.1743752658367157,-0.183620423078537
1783169661527498200,2.826498291015625,0.6455023288726807,0.1562551110982895,-0.14649702608585358
1783169661537477400,2.836477294921875,0.6488070487976074,0.15004143118858337,-0.11738415062427521
1783169661547426300,2.84642626953125,0.6490400433540344,0.1310107409954071,-0.09217386692762375
1783169661557374200,2.856374267578125,0.6442428827285767,0.11712156236171722,-0.06425675004720688
1783169661567323100,2.8663232421875,0.6377330422401428,0.13245044648647308,-0.042081672698259354
1783169661577302300,2.87630224609375,0.6244121789932251,0.16047462821006775,-0.02244991436600685
1783169661587251500,2.88625146484375,0.6041487455368042,0.15166115760803223,-0.025706429034471512
1783169661597200400,2.896200439453125,0.5938063263893127,0.12658563256263733,-0.03339524194598198
1783169661607179500,2.906179443359375,0.5938050150871277,0.10491310060024261,-0.031929969787597656
1783169661617128400,2.91612841796875,0.5945043563842773,0.08963161706924438,-0.013461479917168617
1783169661627076400,2.926076416015625,0.5872741341590881,0.0963241383433342,0.0333385169506073
1783169661637025300,2.936025390625,0.5646772384643555,0.1300102025270462,0.0930660292506218
1783169661647004400,2.94600439453125,0.5291093587875366,0.15676963329315186,0.1599278748035431
1783169661656953300,2.955953369140625,0.4780091941356659,0.1687658429145813,0.22286076843738556
1783169661666902300,2.96590234375,0.4295300543308258,0.1661386340856552,0.2637490928173065
1783169661676881400,2.97588134765625,0.3932841718196869,0.14684776961803436,0.28840890526771545
1783169661686830300,2.985830322265625,0.3661111295223236,0.11260084807872772,0.29800957441329956
1783169661696779300,2.995779296875,0.34182578325271606,0.05776449665427208,0.2894451320171356
1783169661706727200,3.00572705078125,0.3372078537940979,-0.0021145499777048826,0.26551368832588196
1783169661716707300,3.015707275390625,0.3482850193977356,-0.04109390825033188,0.23897875845432281
1783169661726655200,3.0256552734375,0.3605603277683258,-0.04627295583486557,0.21791768074035645
1783169661736604200,3.035604248046875,0.35931396484375,-0.02575143612921238,0.20197705924510956
1783169661746583300,3.045583251953125,0.34397122263908386,0.010058226995170116,0.2017405778169632
1783169661756532200,3.0555322265625,0.32772698998451233,0.0674930214881897,0.21308563649654388
1783169661766481400,3.0654814453125,0.31887999176979065,0.14298565685749054,0.24045974016189575
1783169661776429300,3.07542919921875,0.33534443378448486,0.2651589512825012,0.29187074303627014
1783169661786409500,3.085409423828125,0.355173796415329,0.3309571444988251,0.3388603627681732
1783169661796357400,3.095357421875,0.3694422245025635,0.2605154812335968,0.332943856716156
1783169661806306300,3.105306396484375,0.38099634647369385,0.1159692108631134,0.25696253776550293
1783169661816285400,3.115285400390625,0.3812094032764435,-0.04019562155008316,0.10801275074481964
1783169661826234400,3.125234375,0.34294643998146057,-0.19632397592067719,-0.11191348731517792
1783169661836183300,3.135183349609375,0.255978524684906,-0.2806282043457031,-0.37099751830101013
1783169661846132200,3.14513232421875,0.13922420144081116,-0.2503832280635834,-0.6189862489700317
1783169661856111400,3.155111328125,0.0421900637447834,-0.1322682946920395,-0.7926696538925171
1783169661866060300,3.165060302734375,-0.00230842805467546,0.003974235150963068,-0.8577584028244019
1783169661876008200,3.17500830078125,-0.0017741979099810123,0.15407106280326843,-0.826518714427948
1783169661885988400,3.18498828125,0.04502979293465614,0.313402384519577,-0.6972347497940063
1783169661895936300,3.194936279296875,0.1305827796459198,0.45970022678375244,-0.49749207496643066
1783169661905885200,3.20488525390625,0.23482103645801544,0.576530933380127,-0.25375956296920776
1783169661915834000,3.214834228515625,0.34130406379699707,0.5830434560775757,0.0068419273011386395
1783169661925813200,3.224813232421875,0.43481430411338806,0.44926780462265015,0.24517886340618134
1783169661935762400,3.234762451171875,0.4991685152053833,0.19788111746311188,0.4470565915107727
1783169661945710300,3.24471044921875,0.5156614780426025,-0.08738017827272415,0.5963030457496643
1783169661955690500,3.2546904296875,0.48393285274505615,-0.32018253207206726,0.6802725195884705
1783169661965638400,3.264638427734375,0.41395244002342224,-0.4148147702217102,0.6929081678390503
1783169661975587300,3.27458740234375,0.31744399666786194,-0.342619389295578,0.6294674277305603
1783169661985536300,3.284536376953125,0.2069244235754013,-0.15740932524204254,0.5007224678993225
1783169661995515400,3.294515380859375,0.09013389050960541,0.06346392631530762,0.3231833875179291
1783169662005464300,3.30446435546875,-0.013894244097173214,0.23745542764663696,0.12617391347885132
1783169662015413200,3.314413330078125,-0.0908963531255722,0.34253576397895813,-0.061160825192928314
1783169662025392400,3.324392333984375,-0.12816542387008667,0.39498379826545715,-0.20472997426986694
1783169662035341300,3.33434130859375,-0.14212918281555176,0.422711580991745,-0.29038628935813904
1783169662045289200,3.344289306640625,-0.14225700497627258,0.4289649426937103,-0.3257887661457062
1783169662055238100,3.354238037109375,-0.14024579524993896,0.40064090490341187,-0.330736368894577
1783169662065217300,3.36421728515625,-0.13806892931461334,0.3452410101890564,-0.3251011371612549
1783169662075166200,3.374166259765625,-0.1321580410003662,0.2670128047466278,-0.31930476427078247
1783169662085115100,3.384115234375,-0.11603845655918121,0.18039827048778534,-0.30976104736328125
1783169662095094300,3.39409423828125,-0.0796988233923912,0.10404091328382492,-0.2948755919933319
1783169662105043500,3.40404345703125,-0.03684590011835098,0.05697140842676163,-0.28209826350212097
1783169662114991000,3.4139912109375,-0.0038128476589918137,0.04990337789058685,-0.2714432179927826
1783169662124940300,3.423940185546875,0.020867997780442238,0.0690712109208107,-0.26927992701530457
1783169662134919400,3.43391943359375,0.051232825964689255,0.10602790117263794,-0.2635621428489685
1783169662144868400,3.443868408203125,0.08820789307355881,0.14186978340148926,-0.25097817182540894
1783169662154817300,3.4538173828125,0.11729306727647781,0.16458362340927124,-0.2323877066373825
1783169662164796400,3.46379638671875,0.14575667679309845,0.15817898511886597,-0.2055148035287857
1783169662174745300,3.473745361328125,0.17105749249458313,0.14091290533542633,-0.15652063488960266
1783169662184694300,3.4836943359375,0.18079055845737457,0.11149856448173523,-0.10902795195579529
1783169662194673400,3.49367333984375,0.16518042981624603,0.07070692628622055,-0.06418856978416443
1783169662204622300,3.503622314453125,0.13182248175144196,0.04723622277379036,-0.02082458883523941
1783169662214570200,3.5135703125,0.08353137969970703,0.05387068912386894,0.011708321049809456
1783169662224519200,3.523519287109375,0.024983113631606102,0.06521681696176529,0.018447451293468475
1783169662234498300,3.533498291015625,-0.026562102138996124,0.06885762512683868,-0.015390141867101192
1783169662244447200,3.543447265625,-0.05138435959815979,0.07826018333435059,-0.07557571679353714
1783169662254396200,3.553396240234375,-0.04106061905622482,0.09311848878860474,-0.1423177272081375
1783169662264375300,3.563375244140625,-0.003428287338465452,0.13230158388614655,-0.20126307010650635
1783169662274324500,3.573324462890625,0.04936488717794418,0.18061451613903046,-0.23937369883060455
1783169662284272000,3.583272216796875,0.10780662298202515,0.2128227949142456,-0.22923584282398224
1783169662294221300,3.59322119140625,0.17010541260242462,0.2523457109928131,-0.17473319172859192
1783169662304200400,3.603200439453125,0.21064086258411407,0.2590824365615845,-0.0799664705991745
1783169662314182000,3.613181884765625,0.2197512686252594,0.24427258968353271,0.032871928066015244
1783169662324130800,3.623130859375,0.21826708316802979,0.20958757400512695,0.14703844487667084
1783169662334109700,3.633109619140625,0.21895365417003632,0.1633487194776535,0.2446502298116684
1783169662344059000,3.643058837890625,0.23107104003429413,0.10794510692358017,0.29357942938804626
1783169662354008000,3.653008056640625,0.271295964717865,0.04410168156027794,0.29649266600608826
1783169662363956000,3.6629560546875,0.3394041657447815,0.016339292749762535,0.266850084066391
1783169662373935900,3.672935791015625,0.4146485924720764,0.03454279527068138,0.21505212783813477
1783169662383884000,3.682884033203125,0.4866069257259369,0.05399372801184654,0.1592612862586975
1783169662393833000,3.6928330078125,0.5504727363586426,0.07761143893003464,0.10007093846797943
1783169662403811800,3.702811767578125,0.6066430807113647,0.12120818346738815,0.055087219923734665
1783169662413761000,3.712760986328125,0.6587387323379517,0.17743496596813202,0.05535220354795456
1783169662423710000,3.7227099609375,0.7000585198402405,0.23968583345413208,0.10609394311904907
1783169662433659000,3.732658935546875,0.7324537038803101,0.28891995549201965,0.19453352689743042
1783169662443637800,3.7426376953125,0.7643234729766846,0.35988014936447144,0.3187319040298462
1783169662453586000,3.7525859375,0.813217282295227,0.5072605609893799,0.4632883071899414
1783169662463534800,3.762534912109375,0.8771650791168213,0.661393940448761,0.6006442904472351
1783169662473513700,3.772513671875,0.9372391104698181,0.6829386353492737,0.6572785377502441
1783169662483463000,3.782462890625,0.986190676689148,0.5253385901451111,0.6291989684104919
1783169662493411800,3.792411865234375,1.0146886110305786,0.20362183451652527,0.5038487911224365
1783169662503361000,3.802361083984375,1.0193376541137695,-0.2652612328529358,0.27726781368255615
1783169662513340000,3.81233984375,1.0003371238708496,-0.6938437223434448,0.016533702611923218
1783169662523289000,3.8222890625,0.9556191563606262,-0.8878605961799622,-0.1865464448928833
1783169662533237000,3.832237060546875,0.9015748500823975,-0.7895298004150391,-0.27008554339408875
1783169662543217000,3.842216796875,0.8269437551498413,-0.49025973677635193,-0.207267165184021
1783169662553165000,3.8521650390625,0.7581899762153625,-0.09467990696430206,-0.0300790723413229
1783169662563114000,3.862114013671875,0.7092336416244507,0.3219836354255676,0.18843328952789307
1783169662573063000,3.87206298828125,0.6733635067939758,0.6075738072395325,0.3672669529914856
1783169662583041800,3.882041748046875,0.6467784643173218,0.6631278991699219,0.46840396523475647
1783169662592991000,3.891990966796875,0.6297544836997986,0.6078881025314331,0.5240610837936401
1783169662602940000,3.90193994140625,0.6209858059883118,0.49302196502685547,0.5358208417892456
1783169662612918800,3.911918701171875,0.6275725960731506,0.32735389471054077,0.4760032892227173
1783169662622867700,3.92186767578125,0.6408023834228516,0.15696777403354645,0.3452602028846741
1783169662632815900,3.93181591796875,0.648254930973053,0.015871107578277588,0.15010002255439758
1783169662642764800,3.941764892578125,0.6544337272644043,-0.09499096125364304,-0.08718470484018326
1783169662652744000,3.951743896484375,0.6471140384674072,-0.13106587529182434,-0.3276151418685913
1783169662662692900,3.96169287109375,0.6381338834762573,-0.06380987167358398,-0.5219334959983826
1783169662672642000,3.97164208984375,0.633901059627533,0.07763674110174179,-0.6469199061393738
1783169662682621000,3.981620849609375,0.6360099911689758,0.21590566635131836,-0.6994686126708984
1783169662692569900,3.99156982421875,0.6423909068107605,0.342872679233551,-0.6850239038467407
1783169662702518000,4.00151806640625,0.643238365650177,0.4446059465408325,-0.6046766042709351
1783169662712467000,4.011467041015625,0.6186917424201965,0.4733222723007202,-0.4966667592525482
1783169662722446000,4.021446044921875,0.5736994743347168,0.43103715777397156,-0.40357863903045654
1783169662732395000,4.03139501953125,0.5393700003623962,0.36263731122016907,-0.3343849182128906
1783169662742344000,4.041343994140625,0.5304279327392578,0.30448293685913086,-0.29141026735305786
1783169662752322800,4.05132275390625,0.5515081882476807,0.2644742727279663,-0.27573731541633606
1783169662762272000,4.06127197265625,0.5937451124191284,0.25983795523643494,-0.27792614698410034
1783169662772221000,4.071220947265625,0.639800488948822,0.31058475375175476,-0.28850236535072327
1783169662782168800,4.0811689453125,0.6757928133010864,0.361518532037735,-0.30380889773368835
1783169662792148700,4.091148681640625,0.7213547229766846,0.3773677945137024,-0.3346962332725525
1783169662802097000,4.101096923828125,0.7751601934432983,0.394509494304657,-0.3603041172027588
1783169662812045800,4.1110458984375,0.8210600018501282,0.4438520073890686,-0.3726838231086731
1783169662822024700,4.121024658203125,0.8422505259513855,0.45803654193878174,-0.3665372431278229
1783169662831974000,4.130973876953125,0.8436214923858643,0.4032744765281677,-0.3301403522491455
1783169662841923000,4.140923095703125,0.8353888988494873,0.2926451861858368,-0.26671266555786133
1783169662851870700,4.15087060546875,0.8178533315658569,0.16168956458568573,-0.17280693352222443
1783169662861851000,4.160850830078125,0.7946457266807556,0.023935159668326378,-0.06226124241948128
1783169662871799000,4.170799072265625,0.7753908038139343,-0.09670230746269226,0.04701384902000427
1783169662881748000,4.180748046875,0.746941328048706,-0.16721615195274353,0.15036660432815552
1783169662891726800,4.190726806640625,0.7018438577651978,-0.17084497213363647,0.2285199910402298
1783169662901676000,4.200676025390625,0.6509761810302734,-0.11003436148166656,0.2784406840801239
1783169662911625000,4.210625,0.5966921448707581,-0.012855344451963902,0.29440873861312866
1783169662921574000,4.220573974609375,0.5393527150154114,0.06221011281013489,0.28138986229896545
1783169662931552800,4.230552734375,0.4882256090641022,0.13968226313591003,0.2508588433265686
1783169662941502000,4.240501953125,0.4520992934703827,0.23281434178352356,0.23434112966060638
1783169662951449900,4.250449951171875,0.4300216734409332,0.3115064799785614,0.2270912081003189
1783169662961429800,4.2604296875,0.4148414134979248,0.38582760095596313,0.23013973236083984
1783169662971378000,4.2703779296875,0.4106661081314087,0.43574240803718567,0.23600932955741882
1783169662981326800,4.280326904296875,0.41894158720970154,0.43245768547058105,0.24486993253231049
1783169662991305700,4.2903056640625,0.4531880021095276,0.38271647691726685,0.2627538740634918
1783169663001255000,4.3002548828125,0.4893864691257477,0.3237074911594391,0.2964838743209839
1783169663011204000,4.3102041015625,0.4977914094924927,0.22833570837974548,0.33808112144470215
1783169663021151700,4.32015185546875,0.47014886140823364,0.13609471917152405,0.37181535363197327
1783169663031132000,4.3301318359375,0.4114637076854706,0.0554020069539547,0.3863682150840759
1783169663041080000,4.340080078125,0.3461531400680542,-0.002823217073455453,0.36857402324676514
1783169663051029000,4.350029052734375,0.2917333245277405,-0.012867861427366734,0.31998732686042786
1783169663061008000,4.3600078125,0.26417040824890137,0.027654264122247696,0.25260108709335327
1783169663070957000,4.36995703125,0.2596680521965027,0.09034773707389832,0.17572149634361267
1783169663080906000,4.379906005859375,0.2813113033771515,0.13360066711902618,0.10349763184785843
1783169663090855000,4.38985498046875,0.3248361349105835,0.17613054811954498,0.0527321882545948
1783169663100833800,4.399833740234375,0.3795430660247803,0.20660030841827393,0.04968073591589928
1783169663110783000,4.409782958984375,0.4204300343990326,0.2366783171892166,0.09851192682981491
1783169663120731000,4.41973095703125,0.449721097946167,0.3197694718837738,0.21270374953746796
1783169663130710800,4.429710693359375,0.46800848841667175,0.4406295716762543,0.3652421534061432
1783169663140659000,4.439658935546875,0.47023487091064453,0.5146417617797852,0.49487045407295227
1783169663150608000,4.44960791015625,0.47150707244873047,0.4952978789806366,0.5504841804504395
1783169663160556800,4.459556884765625,0.4726189374923706,0.39361414313316345,0.5237985253334045
1783169663170535700,4.46953564453125,0.4364803731441498,0.19452394545078278,0.38570722937583923
1783169663180484900,4.47948486328125,0.3602932095527649,-0.10229654610157013,0.1317918449640274
1783169663190432800,4.489432861328125,0.25142210721969604,-0.390697717666626,-0.21724922955036163
1783169663200413000,4.499412841796875,0.14386555552482605,-0.5546027421951294,-0.5751828551292419
1783169663210361000,4.509361083984375,0.08778897672891617,-0.4910498857498169,-0.838257372379303
1783169663220310000,4.51931005859375,0.06982728093862534,-0.23011283576488495,-0.9630805253982544
1783169663230259000,4.529259033203125,0.07977791875600815,0.08356093615293503,-0.975669801235199
1783169663240237800,4.53923779296875,0.1079789325594902,0.33232682943344116,-0.8964394330978394
1783169663250187000,4.54918701171875,0.14545413851737976,0.4459335505962372,-0.7465900182723999
1783169663260136000,4.559135986328125,0.1759350746870041,0.3999364972114563,-0.5663810968399048
1783169663270114800,4.56911474609375,0.1928754448890686,0.2988168001174927,-0.37280020117759705
1783169663280063700,4.579063720703125,0.20071712136268616,0.1839413344860077,-0.19267889857292175
1783169663290012000,4.589011962890625,0.20794974267482758,0.08177369087934494,-0.05554262176156044
1783169663299960800,4.5989609375,0.2270435392856598,0.03940359875559807,0.035649340599775314
1783169663309940000,4.60893994140625,0.26488760113716125,0.0588366836309433,0.08230312913656235
1783169663319912200,4.618912109375,0.3247322738170624,0.1420663297176361,0.12604501843452454
1783169663329861000,4.628861083984375,0.39834046363830566,0.25976285338401794,0.17711912095546722
1783169663339840300,4.63884033203125,0.4673632085323334,0.35571548342704773,0.2403060793876648
1783169663349789400,4.64878955078125,0.5042080283164978,0.3878007233142853,0.3132455348968506
1783169663359737000,4.658737060546875,0.5102099776268005,0.37158873677253723,0.382632851600647
1783169663369686300,4.668686279296875,0.48764264583587646,0.3181140422821045,0.4440493583679199
1783169663379665400,4.67866552734375,0.4477604627609253,0.23596379160881042,0.49215376377105713
1783169663389614300,4.6886142578125,0.3874710202217102,0.13418443500995636,0.5128012299537659
1783169663399563300,4.698563232421875,0.30756527185440063,0.01637444645166397,0.49443289637565613
1783169663409542400,4.70854248046875,0.21161717176437378,-0.08367252349853516,0.4355863630771637
1783169663419491300,4.7184912109375,0.1031642034649849,-0.12668657302856445,0.3257075250148773
1783169663429440300,4.728440185546875,0.0018873822409659624,-0.12913641333580017,0.18143238127231598
1783169663439388200,4.73838818359375,-0.058884356170892715,-0.1086425930261612,0.012621519155800343
1783169663449368300,4.748368408203125,-0.08709921687841415,-0.041726674884557724,-0.1576080024242401
1783169663459316200,4.758316162109375,-0.09119196236133575,0.032576583325862885,-0.3003332018852234
1783169663469265200,4.76826513671875,-0.0725727379322052,0.12020896375179291,-0.4040806293487549
1783169663479244300,4.778244384765625,-0.040229711681604385,0.22002477943897247,-0.4463657736778259
1783169663489193200,4.788193115234375,-0.0012522183824330568,0.2690295875072479,-0.4395534098148346
1783169663499142100,4.79814208984375,0.02755759097635746,0.2446691393852234,-0.3911035656929016
1783169663509090300,4.80809033203125,0.03175393491983414,0.1666552871465683,-0.3121190071105957
1783169663519070200,4.8180703125,0.01624901033937931,0.07088695466518402,-0.22936049103736877
1783169663529018000,4.82801806640625,-0.0068174260668456554,-0.004042678512632847,-0.15132960677146912
1783169663538967300,4.83796728515625,-0.03335236385464668,-0.040646761655807495,-0.10154100507497787
1783169663548946400,4.847946533203125,-0.055931441485881805,-0.06705040484666824,-0.0858139768242836
1783169663558895400,4.857895263671875,-0.06923073530197144,-0.0631648525595665,-0.10273756086826324
1783169663568844300,4.86784423828125,-0.0660322830080986,-0.021830197423696518,-0.13008342683315277
1783169663578793200,4.877793212890625,-0.048705488443374634,0.057145312428474426,-0.16511811316013336
1783169663588772400,4.8877724609375,-0.012518987990915775,0.17443571984767914,-0.185596764087677
1783169663598721300,4.89772119140625,0.05037928372621536,0.3120279312133789,-0.1797894686460495
1783169663608669200,4.907669189453125,0.12800590693950653,0.42520588636398315,-0.13779115676879883
1783169663618649300,4.9176494140625,0.20800167322158813,0.5014061331748962,-0.05354471877217293
1783169663628597200,4.92759716796875,0.2826460897922516,0.5286694169044495,0.05377614498138428
1783169663638546200,4.937546142578125,0.3464066684246063,0.4992218017578125,0.17506448924541473
1783169663648495000,4.9474951171875,0.4035322964191437,0.4018305242061615,0.2840794026851654
1783169663658474200,4.95747412109375,0.4427632987499237,0.2661307454109192,0.3897770643234253
1783169663668423200,4.967423095703125,0.46442678570747375,0.1797359436750412,0.4804720878601074
1783169663678371000,4.97737109375,0.4562077522277832,0.15789403021335602,0.5463538765907288
1783169663688351200,4.987351318359375,0.4370521605014801,0.19573675096035004,0.5704166293144226
1783169663698299100,4.997299072265625,0.42070913314819336,0.2638918459415436,0.5454998016357422
1783169663708248300,5.007248291015625,0.41200965642929077,0.3576715886592865,0.49398574233055115
1783169663718197200,5.017197265625,0.4222540557384491,0.5014204978942871,0.437025785446167
1783169663728176400,5.02717626953125,0.4456155598163605,0.6567214131355286,0.3851199746131897
1783169663738125300,5.037125244140625,0.4817439913749695,0.8045063614845276,0.35415008664131165
1783169663748074200,5.04707421875,0.5318625569343567,0.9776179194450378,0.3637782037258148
1783169663758053400,5.057053466796875,0.5938199162483215,1.1636000871658325,0.4360683858394623
1783169663768002300,5.067002197265625,0.6550529599189758,1.2721949815750122,0.5218682289123535
1783169663777950200,5.0769501953125,0.6948373913764954,1.1863136291503906,0.573683500289917
1783169663787930400,5.086930419921875,0.6942908763885498,0.821064293384552,0.5571934580802917
1783169663797878300,5.096878173828125,0.6525863409042358,0.21587450802326202,0.4446381628513336
1783169663807827200,5.1068271484375,0.574210524559021,-0.4471772313117981,0.2212410420179367
1783169663817776000,5.116776123046875,0.4870325028896332,-0.9049200415611267,-0.03602937236428261
1783169663827755300,5.12675537109375,0.4238886833190918,-0.9801860451698303,-0.22588585317134857
1783169663837704200,5.1367041015625,0.403850257396698,-0.6519977450370789,-0.26837101578712463
1783169663847652000,5.146652099609375,0.43091756105422974,-0.0356605239212513,-0.1675274819135666
1783169663857632300,5.15663232421875,0.48131176829338074,0.6127268075942993,-0.001332912128418684
1783169663867580200,5.166580078125,0.549994945526123,1.0129923820495605,0.1442866027355194
1783169663877529300,5.176529296875,0.6024594902992249,1.0586507320404053,0.23547670245170593
1783169663887478300,5.186478271484375,0.6196169257164001,0.8701586127281189,0.26685354113578796
1783169663897457400,5.19645751953125,0.5909162759780884,0.508519172668457,0.235825315117836
1783169663907406300,5.20640625,0.5585700869560242,0.09652440994977951,0.1937020868062973
1783169663917355300,5.216355224609375,0.5361377596855164,-0.21861089766025543,0.16180381178855896
1783169663927334400,5.22633447265625,0.5237870812416077,-0.3559059202671051,0.12352246791124344
1783169663937283300,5.236283447265625,0.5124326944351196,-0.33482325077056885,0.06930690258741379
1783169663947231200,5.246231201171875,0.5055252313613892,-0.2243681252002716,0.004295678809285164
1783169663957180200,5.25618017578125,0.4913170039653778,-0.06378243863582611,-0.04980989918112755
1783169663967159300,5.2661591796875,0.4691179394721985,0.13387736678123474,-0.0727120190858841
1783169663977108200,5.276108154296875,0.45435631275177,0.32476770877838135,-0.058575160801410675
1783169663987057200,5.28605712890625,0.4486670196056366,0.47045379877090454,-0.008029164746403694
1783169663997036300,5.296036376953125,0.457342267036438,0.5349241495132446,0.058399658650159836
1783169664006985200,5.305985107421875,0.46547582745552063,0.5020383596420288,0.13567793369293213
1783169664016933000,5.31593310546875,0.48281753063201904,0.4145801365375519,0.1972121298313141
1783169664026882000,5.325882080078125,0.5066746473312378,0.31000685691833496,0.24288322031497955
1783169664036861200,5.335861083984375,0.5350868701934814,0.19995492696762085,0.2589745819568634
1783169664046810000,5.34581005859375,0.5666583776473999,0.12071496248245239,0.24503132700920105
1783169664056759300,5.35575927734375,0.602144718170166,0.0732547715306282,0.2083529382944107
1783169664066738400,5.365738525390625,0.627246081829071,0.03814658522605896,0.1425347775220871
1783169664076687400,5.375687255859375,0.6383453011512756,0.010549047030508518,0.05828514322638512
1783169664086636300,5.38563623046875,0.638242244720459,0.019569173455238342,-0.014815431088209152
1783169664096584400,5.39558447265625,0.6196789741516113,0.07283399254083633,-0.08250712603330612
1783169664106564400,5.405564453125,0.5902238488197327,0.16037529706954956,-0.13194231688976288
1783169664116512300,5.41551220703125,0.5643491148948669,0.256025105714798,-0.14324024319648743
1783169664126461200,5.425461181640625,0.5530346632003784,0.32432320713996887,-0.1062294989824295
1783169664136440300,5.4354404296875,0.5524343848228455,0.31946268677711487,-0.04060974344611168
1783169664146389200,5.44538916015625,0.5687899589538574,0.29194796085357666,0.03989361971616745
1783169664156338200,5.455338134765625,0.5804644227027893,0.26629987359046936,0.13631390035152435
1783169664166287000,5.465287109375,0.5747495889663696,0.23411954939365387,0.2457951158285141
1783169664176266200,5.475266357421875,0.5541537404060364,0.20724746584892273,0.34436270594596863
1783169664186214100,5.485214111328125,0.5218130946159363,0.18052716553211212,0.41220858693122864
1783169664196163000,5.4951630859375,0.4966183006763458,0.16779352724552155,0.4437803626060486
1783169664206142200,5.50514208984375,0.4897686243057251,0.1843045949935913,0.45781922340393066
1783169664216091100,5.515091064453125,0.49811258912086487,0.21241985261440277,0.4535757303237915
1783169664226040300,5.525040283203125,0.5052863359451294,0.2395460158586502,0.43739545345306396
1783169664235989200,5.5349892578125,0.4898967444896698,0.23576192557811737,0.40835288166999817
1783169664245968400,5.544968505859375,0.4563363790512085,0.18696962296962738,0.3675295412540436
1783169664255917300,5.554917236328125,0.4049919545650482,0.13564464449882507,0.30735594034194946
1783169664265865200,5.564865234375,0.3472359776496887,0.05603903532028198,0.24835042655467987
1783169664275845400,5.574845458984375,0.2862224280834198,0.018687134608626366,0.20105613768100739
1783169664285793300,5.584793212890625,0.21109279990196228,0.027900606393814087,0.17552228271961212
1783169664295742200,5.5947421875,0.12820537388324738,0.04113997891545296,0.15348996222019196
1783169664305691100,5.604691162109375,0.0647164136171341,0.047215450555086136,0.11770932376384735
1783169664315685000,5.61468505859375,0.03009451925754547,0.031197333708405495,0.07017376273870468
1783169664325634000,5.624634033203125,0.02136441133916378,-0.002837598090991378,0.015482553280889988
1783169664335583000,5.6345830078125,0.018551047891378403,-0.042149052023887634,-0.045342713594436646
1783169664345561900,5.644561767578125,0.030896663665771484,-0.05680495873093605,-0.08703343570232391
1783169664355510000,5.654510009765625,0.05134547874331474,-0.02455780655145645,-0.08641664683818817
1783169664365459000,5.664458984375,0.07359805703163147,0.024694427847862244,-0.04662156477570534
1783169664375407900,5.674407958984375,0.09260077029466629,0.09315497428178787,0.01998862251639366
1783169664385387000,5.684386962890625,0.0920092836022377,0.10762925446033478,0.07928416877985
1783169664395336000,5.6943359375,0.06373796612024307,0.016224509105086327,0.10670886933803558
1783169664405284900,5.704284912109375,0.023373499512672424,-0.12025823444128036,0.09828396141529083
1783169664415264000,5.714263916015625,-0.038420092314481735,-0.24669073522090912,0.04969804733991623
1783169664425213000,5.724212890625,-0.11376837641000748,-0.3273749351501465,-0.04116767644882202
1783169664435160800,5.734160888671875,-0.21354477107524872,-0.37229713797569275,-0.18637387454509735
1783169664445109800,5.74410986328125,-0.30362752079963684,-0.37527400255203247,-0.3785981833934784
1783169664455089000,5.7540888671875,-0.34785890579223633,-0.29627081751823425,-0.5797176957130432
1783169664465037800,5.764037841796875,-0.33294573426246643,-0.14380350708961487,-0.7341360449790955
1783169664474987000,5.773987060546875,-0.2868501543998718,0.03141997382044792,-0.8227708339691162
1783169664484966100,5.783966064453125,-0.24543160200119019,0.1592692881822586,-0.846686840057373
1783169664494915000,5.7939150390625,-0.2171514928340912,0.1871427297592163,-0.8123171329498291
1783169664504864000,5.803864013671875,-0.19422779977321625,0.12078393995761871,-0.7428858280181885
1783169664514812000,5.81381201171875,-0.1599491834640503,0.02611708827316761,-0.6529205441474915
1783169664524791000,5.823791015625,-0.12322445958852768,-0.07247606664896011,-0.5383777022361755
1783169664534740000,5.833739990234375,-0.07833075523376465,-0.14152756333351135,-0.4303082525730133
1783169664544689000,5.84368896484375,-0.034088462591171265,-0.1635524481534958,-0.3448934853076935
1783169664554668000,5.85366796875,0.013255084864795208,-0.1532215029001236,-0.2974628508090973
1783169664564617000,5.863616943359375,0.0602705292403698,-0.14965899288654327,-0.2852213680744171
1783169664574566000,5.87356591796875,0.09929382801055908,-0.1409216970205307,-0.28851941227912903
1783169664584545000,5.883544921875,0.12497682124376297,-0.13223153352737427,-0.29476824402809143
1783169664594494000,5.893493896484375,0.13715492188930511,-0.13701723515987396,-0.2939959466457367
1783169664604441900,5.90344189453125,0.1373424082994461,-0.13520655035972595,-0.27777621150016785
1783169664614390800,5.913390869140625,0.13229972124099731,-0.11984304338693619,-0.24925589561462402
1783169664624370000,5.923369873046875,0.12194827944040298,-0.1165926605463028,-0.22025620937347412
1783169664634318800,5.93331884765625,0.10566730797290802,-0.1381181925535202,-0.19330741465091705
1783169664644268000,5.94326806640625,0.08510131388902664,-0.17121729254722595,-0.16432343423366547
1783169664654247200,5.9532470703125,0.05673438683152199,-0.17896628379821777,-0.12439492344856262
1783169664664196000,5.963196044921875,0.004507400095462799,-0.14432895183563232,-0.09496858716011047
1783169664674145000,5.97314501953125,-0.05757248401641846,-0.11029108613729477,-0.09997773170471191
1783169664684093000,5.983093017578125,-0.11859802156686783,-0.10139692574739456,-0.1379147320985794
1783169664694072000,5.993072021484375,-0.17210598289966583,-0.09992633014917374,-0.19813679158687592
1783169664704021000,6.00302099609375,-0.20882032811641693,-0.09053362905979156,-0.27893176674842834
1783169664713970000,6.012969970703125,-0.22797244787216187,-0.0714544728398323,-0.3578127324581146
1783169664723949000,6.022948974609375,-0.2258179485797882,-0.04056207463145256,-0.41394710540771484
1783169664733898000,6.03289794921875,-0.22072598338127136,-0.004131628200411797,-0.4355221688747406
1783169664743847000,6.042846923828125,-0.22823956608772278,0.038330078125,-0.4103776812553406
1783169664753794800,6.052794921875,-0.25229376554489136,0.059633769094944,-0.3495990037918091
1783169664763775000,6.06277490234375,-0.2813619077205658,0.08864863961935043,-0.26470568776130676
1783169664773723000,6.072722900390625,-0.31131047010421753,0.14026282727718353,-0.17653855681419373
1783169664783671800,6.082671875,-0.34337812662124634,0.2011733204126358,-0.09864827990531921
1783169664793651000,6.09265087890625,-0.36937376856803894,0.25059306621551514,-0.034929756075143814
1783169664803600000,6.102599853515625,-0.3855801820755005,0.28697478771209717,-0.0029760824982076883
1783169664813549000,6.112549072265625,-0.3848070800304413,0.31944137811660767,0.010574880056083202
1783169664823498000,6.122498046875,-0.35639485716819763,0.3548627495765686,-0.0199862252920866
1783169664833477000,6.13247705078125,-0.30499160289764404,0.3996374011039734,-0.06987069547176361
1783169664843426000,6.142426025390625,-0.2442115992307663,0.43860745429992676,-0.1253155767917633
1783169664853374000,6.1523740234375,-0.17964060604572296,0.455587238073349,-0.16501425206661224
1783169664863353900,6.162353759765625,-0.1300802379846573,0.4476962983608246,-0.19284747540950775
1783169664873302000,6.172302001953125,-0.09370598196983337,0.40067845582962036,-0.18901412189006805
1783169664883251000,6.1822509765625,-0.061096642166376114,0.3549945652484894,-0.1388407051563263
1783169664893200000,6.192199951171875,-0.03151398524641991,0.33204585313796997,-0.055928777903318405
1783169664903179000,6.202178955078125,0.002094842493534088,0.29610675573349,0.04457971826195717
1783169664913128000,6.2121279296875,0.040166862308979034,0.27347761392593384,0.14195208251476288
1783169664923075800,6.222075927734375,0.07454720139503479,0.24656423926353455,0.21093833446502686
1783169664933056000,6.232055908203125,0.10864578932523727,0.20710471272468567,0.2584392726421356
1783169664943004000,6.24200390625,0.14398913085460663,0.18235835433006287,0.28603148460388184
1783169664952952800,6.251952880859375,0.1822851151227951,0.19671545922756195,0.3039873242378235
1783169664962901800,6.26190185546875,0.22115075588226318,0.24993394315242767,0.3377048075199127
1783169664972881000,6.271880859375,0.25307193398475647,0.3452415466308594,0.384196937084198
1783169664982830000,6.281830078125,0.26633474230766296,0.4785950779914856,0.4383523166179657
1783169664992779000,6.291779052734375,0.29115965962409973,0.6458021998405457,0.5072088837623596
1783169665002758100,6.301758056640625,0.32560792565345764,0.8169880509376526,0.5964202284812927
1783169665012707000,6.31170703125,0.35201743245124817,0.8985475897789001,0.649293839931488
1783169665022655000,6.321655029296875,0.36466798186302185,0.7839723229408264,0.6386430859565735
1783169665032604000,6.33160400390625,0.3866020441055298,0.497917115688324,0.5531569123268127
1783169665042583000,6.3415830078125,0.39189213514328003,0.054059773683547974,0.38351595401763916
1783169665052532000,6.351531982421875,0.35759061574935913,-0.4596235156059265,0.1172025203704834
1783169665062481000,6.36148095703125,0.292447566986084,-0.7889295220375061,-0.1524081826210022
1783169665072460000,6.3714599609375,0.22163279354572296,-0.7781450152397156,-0.3173142969608307
1783169665082409000,6.381408935546875,0.15213413536548615,-0.42787837982177734,-0.3250816762447357
1783169665092356900,6.39135693359375,0.11689092963933945,0.14743313193321228,-0.16887503862380981
1783169665102305800,6.401305908203125,0.1340467482805252,0.7525075674057007,0.08549199998378754
1783169665112285000,6.411284912109375,0.18357089161872864,1.1157201528549194,0.3368648290634155
1783169665122233900,6.42123388671875,0.23532436788082123,1.1355342864990234,0.5123335719108582
1783169665132182800,6.431182861328125,0.2704610526561737,0.924545407295227,0.6148895621299744
1783169665142162000,6.441161865234375,0.29062649607658386,0.5682935118675232,0.6353119611740112
1783169665152110800,6.45111083984375,0.2946585416793823,0.1329900026321411,0.5922151207923889
1783169665162060000,6.46106005859375,0.30937889218330383,-0.25550979375839233,0.5109655261039734
1783169665172008000,6.471008056640625,0.33869415521621704,-0.4720471501350403,0.40927112102508545
1783169665181988000,6.480988037109375,0.36855512857437134,-0.524520218372345,0.288666695356369
1783169665191936000,6.49093603515625,0.3972853124141693,-0.4817892611026764,0.13819408416748047
1783169665201885000,6.500885009765625,0.41089433431625366,-0.37116608023643494,-0.007962585426867008
1783169665211864000,6.510864013671875,0.3892372250556946,-0.17737504839897156,-0.12126703560352325
1783169665221813000,6.52081298828125,0.34513795375823975,0.07005658000707626,-0.1829700917005539
1783169665231762000,6.530761962890625,0.3005851209163666,0.29706311225891113,-0.20876945555210114
1783169665241709800,6.540709716796875,0.2635733187198639,0.4358888864517212,-0.19997543096542358
1783169665251690000,6.55068994140625,0.2506154477596283,0.4755023419857025,-0.1772613376379013
1783169665261638000,6.560637939453125,0.25211480259895325,0.4142363369464874,-0.15569984912872314
1783169665271586800,6.5705869140625,0.26552700996398926,0.28944113850593567,-0.14979508519172668
1783169665281566000,6.58056591796875,0.28567036986351013,0.17253422737121582,-0.15786206722259521
1783169665291515000,6.590514892578125,0.31332409381866455,0.1106647253036499,-0.16898103058338165
1783169665301463800,6.6004638671875,0.3487966060638428,0.11651862412691116,-0.1505463719367981
1783169665311413000,6.6104130859375,0.39643096923828125,0.1963130533695221,-0.09555155783891678
1783169665321396200,6.620396240234375,0.43998509645462036,0.27825185656547546,-0.015587748028337955
1783169665331345200,6.63034521484375,0.49085068702697754,0.3134886920452118,0.05497509986162186
1783169665341293000,6.64029296875,0.5483174324035645,0.30855411291122437,0.11791891604661942
1783169665351273200,6.650273193359375,0.6063796877861023,0.2326798439025879,0.16084960103034973
1783169665361221000,6.66022119140625,0.6392172574996948,0.08708509802818298,0.1605696976184845
1783169665371170300,6.67017041015625,0.6438780426979065,-0.06615691632032394,0.1348065435886383
1783169665381149200,6.680149169921875,0.6424394249916077,-0.1835772842168808,0.09566660225391388
1783169665391098400,6.690098388671875,0.6323694586753845,-0.22952958941459656,0.059227105230093
1783169665401047300,6.70004736328125,0.6133877635002136,-0.2018369883298874,0.03584614768624306
1783169665410995200,6.7099951171875,0.5793129205703735,-0.12812520563602448,0.006991064175963402
1783169665420975000,6.71997509765625,0.539315402507782,-0.05320463329553604,-0.02021286077797413
1783169665430923300,6.72992333984375,0.4916309714317322,0.009342368692159653,-0.03196166083216667
1783169665440872200,6.7398720703125,0.4399872422218323,0.058280881494283676,-0.024561002850532532
1783169665450851300,6.749851318359375,0.39056456089019775,0.06726159155368805,0.0037736992817372084
1783169665460800300,6.75980029296875,0.34896013140678406,0.03963928669691086,0.03560566529631615
1783169665470749200,6.769749267578125,0.3121693432331085,-0.0026988473255187273,0.06696651875972748
1783169665480698000,6.779697998046875,0.28380775451660156,-0.05138595774769783,0.0847439169883728
1783169665490677000,6.789677001953125,0.2437593936920166,-0.0995742604136467,0.07612699270248413
1783169665500626200,6.799626220703125,0.20182792842388153,-0.12943175435066223,0.03972424194216728
1783169665510574000,6.809573974609375,0.1564926654100418,-0.12299463152885437,-0.004002198576927185
1783169665520554000,6.819553955078125,0.1107049435377121,-0.0795198604464531,-0.042808182537555695
1783169665530502100,6.829502197265625,0.05866144970059395,-0.040467798709869385,-0.06878305971622467
1783169665540451300,6.839451416015625,0.020130569115281105,-0.03798679634928703,-0.09556673467159271
1783169665550400300,6.849400146484375,0.006325806491076946,-0.05584941804409027,-0.10944393277168274
1783169665560379400,6.85937939453125,-0.0015795208746567369,-0.08901908993721008,-0.1132703647017479
1783169665570328300,6.869328369140625,-0.018499914556741714,-0.11324666440486908,-0.10275301337242126
1783169665580276200,6.879276123046875,-0.04325133189558983,-0.10582203418016434,-0.05813920125365257
1783169665590256000,6.889256103515625,-0.07825618982315063,-0.10219374299049377,0.003970772959291935
1783169665600204300,6.899204345703125,-0.11335425823926926,-0.13157986104488373,0.07289338111877441
1783169665610153200,6.9091533203125,-0.12631931900978088,-0.18257753551006317,0.14898681640625
1783169665620102100,6.91910205078125,-0.13442997634410858,-0.20188039541244507,0.2402631938457489
1783169665630081300,6.929081298828125,-0.1303391009569168,-0.14753486216068268,0.35529178380966187
1783169665640030200,6.9390302734375,-0.11893783509731293,-0.0503140352666378,0.46828651428222656
1783169665649979100,6.948979248046875,-0.12175599485635757,-0.03644935414195061,0.5417993664741516
1783169665659958000,6.9589580078125,-0.1435670256614685,-0.21342280507087708,0.5030820369720459
1783169665669907200,6.9689072265625,-0.1924101859331131,-0.6300117373466492,0.3021886348724365
1783169665679855000,6.978855224609375,-0.2613935172557831,-1.0852386951446533,-0.041251566261053085
1783169665689804000,6.988803955078125,-0.3587685525417328,-1.3672943115234375,-0.4434317648410797
1783169665699783200,6.998783203125,-0.4767276644706726,-1.3609586954116821,-0.7962033748626709
1783169665709732400,7.008732421875,-0.6058723330497742,-1.088647723197937,-1.0495307445526123
1783169665719681300,7.018681396484375,-0.7096520066261292,-0.6756921410560608,-1.1765738725662231
1783169665729660200,7.02866015625,-0.7605655193328857,-0.276790052652359,-1.172400712966919
1783169665739609300,7.038609375,-0.7579755783081055,0.07069307565689087,-1.0338077545166016
1783169665749557200,7.04855712890625,-0.7311985492706299,0.329878568649292,-0.787222683429718
1783169665759506200,7.058506103515625,-0.707496702671051,0.3893469572067261,-0.5058767795562744
1783169665769485300,7.0684853515625,-0.6895299553871155,0.2432888150215149,-0.23132403194904327
1783169665779434200,7.078434326171875,-0.6565062403678894,0.00016724651504773647,0.018129203468561172
1783169665789383200,7.088383056640625,-0.6009364128112793,-0.2454928457736969,0.2288915067911148
1783169665799362300,7.0983623046875,-0.5261508822441101,-0.464890718460083,0.3797646462917328
1783169665809311200,7.108311279296875,-0.43478208780288696,-0.672461211681366,0.4622960090637207
1783169665819260200,7.11826025390625,-0.33462750911712646,-0.8336583375930786,0.4622509777545929
1783169665829208000,7.1282080078125,-0.23382075130939484,-0.9117648601531982,0.40577706694602966
1783169665839188200,7.138188232421875,-0.14336355030536652,-0.8702811002731323,0.33829495310783386
1783169665849136000,7.14813623046875,-0.08066608011722565,-0.7293040156364441,0.28961318731307983
1783169665859085000,7.1580849609375,-0.045947249978780746,-0.5702800154685974,0.25744059681892395
1783169665869064200,7.168064208984375,-0.03780117630958557,-0.4461170434951782,0.24602042138576508
1783169665879013400,7.178013427734375,-0.05962125211954117,-0.3871314823627472,0.24077506363391876
1783169665888962300,7.18796240234375,-0.11086685955524445,-0.3910444676876068,0.24522148072719574
1783169665898910200,7.19791015625,-0.1890452802181244,-0.40475547313690186,0.23931537568569183
1783169665908890400,7.207890380859375,-0.27759432792663574,-0.41817009449005127,0.2126622051000595
1783169665918838300,7.21783837890625,-0.35327258706092834,-0.43316420912742615,0.15729987621307373
1783169665928787200,7.227787109375,-0.41581690311431885,-0.42961421608924866,0.09698939323425293
1783169665938766300,7.237766357421875,-0.4672207236289978,-0.3832421898841858,0.038713306188583374
1783169665948715300,7.24771533203125,-0.4991251230239868,-0.3203181028366089,-0.0389908067882061
1783169665958664200,7.257664306640625,-0.49038010835647583,-0.2642042338848114,-0.12747380137443542
1783169665968613000,7.267613037109375,-0.3587152659893036,-0.2943440079689026,-0.23211978375911713
1783169665978592300,7.27759228515625,-0.2478870302438736,-0.32546916604042053,-0.30489465594291687
1783169665988541200,7.287541259765625,-0.1869877278804779,-0.2882930338382721,-0.34400904178619385
1783169665998489000,7.297489013671875,-0.1205194890499115,-0.20336855947971344,-0.3421440124511719
1783169666008469000,7.307468994140625,-0.08137022703886032,-0.03458966687321663,-0.29439088702201843
1783169666018417200,7.317417236328125,-0.06598780304193497,0.161200612783432,-0.19934134185314178
1783169666028366000,7.327365966796875,-0.040791105479002,0.34811830520629883,-0.07227765768766403
1783169666038315300,7.337315185546875,-0.047585628926754,0.4390721619129181,0.05124321207404137
1783169666048294100,7.347294189453125,-0.09909622371196747,0.4059445858001709,0.16967931389808655
1783169666058243300,7.357243408203125,-0.17405302822589874,0.31427669525146484,0.2710954248905182
1783169666068191200,7.367191162109375,-0.249278262257576,0.21204887330532074,0.3643593192100525
1783169666078171100,7.377171142578125,-0.3064632713794708,0.13383716344833374,0.4435342848300934
1783169666088119300,7.387119384765625,-0.34817156195640564,0.09959503263235092,0.5119735598564148
1783169666098068200,7.397068115234375,-0.37684687972068787,0.12108194828033447,0.566582977771759
1783169666108017200,7.40701708984375,-0.38726145029067993,0.19762226939201355,0.5995060801506042
1783169666117996300,7.416996337890625,-0.375007688999176,0.30768537521362305,0.6135571599006653
1783169666127945200,7.4269453125,-0.3395831286907196,0.42963552474975586,0.6115683317184448
1783169666137894100,7.43689404296875,-0.2903418242931366,0.5207262635231018,0.5838924646377563
1783169666147873300,7.446873291015625,-0.24587634205818176,0.5910947322845459,0.5458742380142212
1783169666157822200,7.456822265625,-0.21812167763710022,0.6478325724601746,0.5028855204582214
1783169666167770000,7.46677001953125,-0.20890101790428162,0.6620929837226868,0.4513687789440155
1783169666177750000,7.47675,-0.2060442417860031,0.6149523854255676,0.39092832803726196
1783169666187698200,7.4866982421875,-0.19587843120098114,0.5552464723587036,0.3339955508708954
1783169666197647000,7.496647216796875,-0.1833152323961258,0.5171629786491394,0.28968775272369385
1783169666207596000,7.506595947265625,-0.16144029796123505,0.4897475838661194,0.27009886503219604
1783169666217575200,7.5165751953125,-0.1491687148809433,0.47882649302482605,0.28896602988243103
1783169666227524400,7.5265244140625,-0.13693654537200928,0.4992377758026123,0.3451771140098572
1783169666237472300,7.53647216796875,-0.12177730351686478,0.561053454875946,0.4442847669124603
1783169666247452200,7.5464521484375,-0.09186840057373047,0.668495237827301,0.5658516883850098
1783169666257400300,7.556400390625,-0.05477509647607803,0.8500775694847107,0.7019573450088501
1783169666267349200,7.566349365234375,-0.008202269673347473,1.0943176746368408,0.8411940336227417
1783169666277298200,7.576298095703125,0.047147803008556366,1.2413749694824219,0.9305167198181152
1783169666287277300,7.58627734375,0.08843319118022919,1.1302289962768555,0.9165008068084717
1783169666297226200,7.596226318359375,0.11232787370681763,0.7141817808151245,0.7688037157058716
1783169666307175200,7.606175048828125,0.110795758664608,-0.0005581985460594296,0.4701469838619232
1783169666317189600,7.616189697265625,0.07694884389638901,-0.8067806959152222,0.06965763866901398
1783169666327138600,7.626138671875,0.03764724358916283,-1.2917377948760986,-0.29598772525787354
1783169666337086700,7.636086669921875,-0.00015526228526141495,-1.2857205867767334,-0.5612678527832031
1783169666347035600,7.64603564453125,-0.024899223819375038,-0.9103302359580994,-0.6975082755088806
1783169666357014800,7.656014892578125,-0.03039572201669216,-0.24571096897125244,-0.6738788485527039
1783169666366964000,7.6659638671875,-0.007260309532284737,0.5172532796859741,-0.5201483964920044
1783169666376913000,7.675912841796875,0.011638546362519264,1.0828766822814941,-0.30697113275527954
1783169666386891800,7.685891845703125,0.019417639821767807,1.2638959884643555,-0.09595821797847748
1783169666396840700,7.6958408203125,0.03176911547780037,1.093709945678711,0.09971247613430023
1783169666406788900,7.705788818359375,0.02189571224153042,0.6595004200935364,0.24175164103507996
1783169666416737800,7.71573779296875,-0.010217750445008278,0.14595293998718262,0.3162897825241089
1783169666426717000,7.725717041015625,-0.0686299279332161,-0.24210956692695618,0.3170056641101837
1783169666436665900,7.735665771484375,-0.09908796846866608,-0.5293658375740051,0.2693241536617279
1783169666446614800,7.74561474609375,-0.10315754264593124,-0.6703187227249146,0.18701303005218506
1783169666456593700,7.75559375,-0.08772825449705124,-0.6697368025779724,0.05684304237365723
1783169666466542800,7.76554296875,-0.05843880772590637,-0.5250576734542847,-0.12882934510707855
1783169666476491800,7.77549169921875,-0.02388402819633484,-0.23783999681472778,-0.3427312672138214
1783169666486439700,7.785439697265625,0.014081996865570545,0.0691220760345459,-0.5279908776283264
1783169666496419600,7.795419677734375,0.03969760984182358,0.3212728202342987,-0.6706784963607788
1783169666506367700,7.80536767578125,0.05342354252934456,0.47728267312049866,-0.7635224461555481
1783169666516316700,7.815316650390625,0.056829195469617844,0.5377918481826782,-0.794320285320282
1783169666526295600,7.825295654296875,0.04746232554316521,0.49690884351730347,-0.7807104587554932
1783169666536245000,7.835244873046875,0.030291592702269554,0.39302292466163635,-0.7465183734893799
1783169666546194000,7.84519384765625,0.029270803555846214,0.2649539113044739,-0.693680465221405
1783169666556142800,7.855142822265625,0.07115327566862106,0.132864311337471,-0.624631941318512
1783169666566121700,7.865121826171875,0.15396399796009064,0.0563381053507328,-0.5475192666053772
1783169666576071000,7.87507080078125,0.2660612463951111,0.058944810181856155,-0.47594761848449707
1783169666586018800,7.885018798828125,0.38158437609672546,0.08242669701576233,-0.3942578136920929
1783169666595997700,7.894997802734375,0.4965927302837372,0.0674661248922348,-0.31519389152526855
1783169666605947000,7.90494677734375,0.598717212677002,0.049315616488456726,-0.2310265600681305
1783169666615895800,7.914895751953125,0.6697972416877747,0.005899700801819563,-0.1306871771812439
1783169666625844700,7.9248447265625,0.7021676898002625,-0.05813254415988922,-0.040651287883520126
1783169666635823600,7.93482373046875,0.7079259753227234,-0.10591817647218704,0.028965605422854424
1783169666645772800,7.944772705078125,0.6920173168182373,-0.1341884285211563,0.06548473238945007
1783169666655720700,7.954720703125,0.6617401242256165,-0.15456640720367432,0.06069637089967728
1783169666665700600,7.96470068359375,0.6160346865653992,-0.13951395452022552,0.031023962423205376
1783169666675648800,7.974648681640625,0.5953709483146667,-0.08681612461805344,-0.017582722008228302
1783169666685597700,7.98459765625,0.477032333612442,0.08175452053546906,-0.10046029090881348
1783169666695547000,7.994546875,0.3779456913471222,0.22589145600795746,-0.13716265559196472
1783169666705525800,8.00452587890625,0.3272300660610199,0.26548120379447937,-0.15814436972141266
1783169666715475000,8.014474853515624,0.3055143654346466,0.2855001986026764,-0.14674976468086243
1783169666725423900,8.024423828125,0.2874016761779785,0.28408125042915344,-0.10784018039703369
1783169666735402800,8.03440283203125,0.2667113244533539,0.22235983610153198,-0.05879700556397438
1783169666745351700,8.0443515625,0.2512125074863434,0.13386911153793335,-0.002293514320626855
1783169666755299800,8.0542998046875,0.2215142846107483,-0.002560895634815097,0.04838111624121666
1783169666765248800,8.064248779296875,0.17233234643936157,-0.172390416264534,0.09479601681232452
1783169666775228000,8.074227783203124,0.09407083690166473,-0.3388907015323639,0.13814668357372284
1783169666785176800,8.0841767578125,-0.001312139444053173,-0.446099191904068,0.16204668581485748
1783169666795125800,8.094125732421874,-0.09790046513080597,-0.4479128122329712,0.16164429485797882
1783169666805104600,8.104104736328125,-0.1687842309474945,-0.359460711479187,0.1438724845647812
1783169666815053800,8.1140537109375,-0.19409917294979095,-0.25810372829437256,0.1151454970240593
1783169666825001700,8.124001708984375,-0.16003574430942535,-0.20555315911769867,0.0786530002951622
1783169666834950700,8.13395068359375,-0.09416378289461136,-0.15377092361450195,0.02852964587509632
1783169666844929800,8.1439296875,-0.02022351324558258,-0.11590529978275299,-0.012080631218850613
1783169666854878700,8.153878662109374,0.04248034954071045,-0.04776379466056824,-0.029338980093598366
1783169666864828000,8.163827880859374,0.08146210014820099,0.11626828461885452,-0.01968262530863285
1783169666874806800,8.173806884765625,0.09877531230449677,0.2707366943359375,0.06510123610496521
1783169666884756000,8.183755859375,0.09535128623247147,0.3270534873008728,0.1773872971534729
1783169666894705000,8.193704833984375,0.05985401198267937,0.19365468621253967,0.23283138871192932
1783169666904683800,8.203683837890624,0.017170997336506844,-0.09760964661836624,0.22775273025035858
1783169666914632700,8.2136328125,-0.011322429403662682,-0.40104940533638,0.16643425822257996
1783169666924580900,8.223580810546874,-0.02701883390545845,-0.6242092847824097,0.07530034333467484
1783169666934529800,8.23352978515625,-0.03638676926493645,-0.7078602313995361,-0.018691662698984146
1783169666944508700,8.2435087890625,-0.033248767256736755,-0.6644344329833984,-0.10560871660709381
1783169666954457900,8.253457763671875,-0.028565865010023117,-0.5345497131347656,-0.20145002007484436
1783169666964406800,8.26340673828125,-0.025969548150897026,-0.36754125356674194,-0.2876296639442444
1783169666974385700,8.2733857421875,-0.023785224184393883,-0.16795891523361206,-0.3376272916793823
1783169666984334600,8.28333447265625,-0.024757010862231255,0.01895291917026043,-0.34591880440711975
1783169666994282800,8.29328271484375,-0.015507054515182972,0.1684369444847107,-0.30206823348999023
1783169667004231700,8.303231689453124,0.006914098747074604,0.24639326333999634,-0.19759723544120789
1783169667014210800,8.3132109375,0.04659439995884895,0.2180609554052353,-0.0359119288623333
1783169667024159700,8.32315966796875,0.09992499649524689,0.09676382690668106,0.13896960020065308
1783169667034109000,8.33310888671875,0.1490805596113205,-0.07779999077320099,0.3029545545578003
1783169667044087600,8.343087646484374,0.17079117894172668,-0.2690841853618622,0.41852056980133057
1783169667054036700,8.35303662109375,0.15281032025814056,-0.41188421845436096,0.48203906416893005
1783169667063986000,8.36298583984375,0.09426391869783401,-0.4675480127334595,0.4932746887207031
1783169667073933800,8.372933837890624,0.0018242653459310532,-0.44741344451904297,0.45553824305534363
1783169667083913700,8.382913818359375,-0.10836268961429596,-0.3733879625797272,0.3731325566768646
1783169667093862000,8.39286181640625,-0.21761834621429443,-0.230111226439476,0.2794390916824341
1783169667103810800,8.402810791015625,-0.31632280349731445,-0.06498032808303833,0.19774717092514038
1783169667113789700,8.412789794921874,-0.3940090835094452,0.09944722801446915,0.13986921310424805
1783169667123739000,8.42273876953125,-0.45102575421333313,0.2080373615026474,0.1013263538479805
1783169667133687800,8.432687744140624,-0.4825035333633423,0.24945217370986938,0.07027256488800049
1783169667143635700,8.4426357421875,-0.49734798073768616,0.2526639401912689,0.04924184828996658
1783169667153615600,8.45261572265625,-0.5017920136451721,0.2138979136943817,0.036198485642671585
1783169667163563800,8.462563720703125,-0.5033747553825378,0.13701272010803223,0.02040780335664749
1783169667173512700,8.4725126953125,-0.5037912726402283,0.04026166722178459,-0.012203402817249298
1783169667183491600,8.48249169921875,-0.4993986189365387,-0.0711604654788971,-0.07119002193212509
1783169667193440800,8.492440673828124,-0.47721371054649353,-0.1811828315258026,-0.14980600774288177
1783169667203390000,8.502389892578124,-0.43417036533355713,-0.2558373808860779,-0.23890897631645203
1783169667213339000,8.5123388671875,-0.36483389139175415,-0.30622223019599915,-0.3288726806640625
1783169667223317800,8.52231787109375,-0.27328985929489136,-0.31963419914245605,-0.4029027223587036
1783169667233267000,8.532266845703125,-0.19705794751644135,-0.29081904888153076,-0.4486877918243408
1783169667243214800,8.54221484375,-0.1611310988664627,-0.22244638204574585,-0.4526185989379883
1783169667253194800,8.55219482421875,-0.16671735048294067,-0.12781761586666107,-0.43131276965141296
1783169667263143000,8.562142822265624,-0.18633046746253967,-0.021253356710076332,-0.40434935688972473
1783169667273091800,8.572091796875,-0.20272274315357208,0.07199882715940475,-0.3750241994857788
1783169667283040800,8.582040771484374,-0.21322040259838104,0.13064855337142944,-0.3497806489467621
1783169667293019600,8.59201953125,-0.22507280111312866,0.13727129995822906,-0.3392574191093445
1783169667302968800,8.60196875,-0.2733931839466095,0.10185738652944565,-0.29850146174430847
1783169667312916700,8.611916748046875,-0.3104923665523529,-0.017245566472411156,-0.2749173045158386
1783169667322910200,8.62191015625,-0.30585020780563354,-0.20378375053405762,-0.2919277250766754
1783169667332858400,8.6318583984375,-0.27627846598625183,-0.3407876789569855,-0.31966376304626465
1783169667342807300,8.641807373046875,-0.2711702585220337,-0.4367560148239136,-0.3629361093044281
1783169667352756500,8.651756591796875,-0.27056625485420227,-0.5245463252067566,-0.4455503225326538
1783169667362735400,8.6617353515625,-0.2300872653722763,-0.456295371055603,-0.5665014982223511
1783169667372684500,8.6716845703125,-0.15660957992076874,-0.2362532764673233,-0.6205479502677917
1783169667382633500,8.681633544921874,-0.09613292664289474,-0.01569693721830845,-0.6156205534934998
1783169667392612400,8.6916123046875,-0.06240878254175186,0.17406393587589264,-0.5372301340103149
1783169667402561500,8.7015615234375,-0.038541801273822784,0.3516155481338501,-0.3980291187763214
1783169667412509400,8.711509521484375,-0.021024059504270554,0.44571197032928467,-0.2307722270488739
1783169667422458400,8.721458251953125,-0.012606872245669365,0.4109627604484558,-0.07406251132488251
1783169667432437500,8.7314375,-0.0011608719360083342,0.2768305242061615,0.04412298649549484
1783169667442386400,8.741386474609374,0.00999244675040245,0.11614018678665161,0.11481952667236328
1783169667452335400,8.75133544921875,0.02442544884979725,0.013994911685585976,0.14975647628307343
1783169667462314200,8.761314208984375,0.05127037689089775,0.057553306221961975,0.17116162180900574
1783169667472263400,8.771263427734375,0.0940396785736084,0.23764824867248535,0.1952720284461975
1783169667482211300,8.78121142578125,0.15472246706485748,0.3795619606971741,0.2032543122768402
1783169667492160300,8.79116015625,0.20102977752685547,0.341048926115036,0.16855067014694214
1783169667502139400,8.801139404296874,0.22212468087673187,0.19703955948352814,0.1068420261144638
1783169667512088300,8.81108837890625,0.24364328384399414,0.022062424570322037,0.03427781164646149
1783169667522037500,8.82103759765625,0.24549071490764618,-0.22528211772441864,-0.06577421724796295
1783169667532016400,8.831016357421875,0.2112872153520584,-0.5185605883598328,-0.19551649689674377
1783169667541965600,8.840965576171875,0.16167837381362915,-0.6899304986000061,-0.3202168941497803
1783169667551914500,8.85091455078125,0.12301700562238693,-0.6196214556694031,-0.3963817059993744
1783169667561862400,8.8608623046875,0.10139159858226776,-0.3164684772491455,-0.3816099464893341
1783169667571842600,8.870842529296874,0.10083100944757462,0.15306039154529572,-0.27372607588768005
1783169667581790500,8.88079052734375,0.11776524782180786,0.5896233320236206,-0.11133717745542526
1783169667591739400,8.890739501953124,0.1482243537902832,0.7910605669021606,0.043173301964998245
1783169667601718500,8.900718505859375,0.18780772387981415,0.727755606174469,0.16359452903270721
1783169667611667500,8.91066748046875,0.21792034804821014,0.4897955358028412,0.23393367230892181
1783169667621616400,8.920616455078125,0.2492694854736328,0.1866106241941452,0.26948633790016174
1783169667631564300,8.930564208984375,0.2777077853679657,-0.09450120478868484,0.2735593616962433
1783169667641544400,8.94054443359375,0.2936747670173645,-0.29473844170570374,0.2267865389585495
1783169667651492400,8.950492431640624,0.2899008095264435,-0.3880755603313446,0.11767390370368958
1783169667661441300,8.960441162109374,0.27331382036209106,-0.37840721011161804,-0.04176848381757736
1783169667671420400,8.97042041015625,0.2571801245212555,-0.2576374113559723,-0.20490148663520813
1783169667681369300,8.980369384765625,0.23087795078754425,-0.03929866850376129,-0.3377639353275299
1783169667691318300,8.990318359375,0.20125561952590942,0.19784943759441376,-0.4323013424873352
1783169667701297400,9.00029736328125,0.17949305474758148,0.36027589440345764,-0.4810795485973358
1783169667711246600,9.01024658203125,0.18013301491737366,0.408518522977829,-0.48554539680480957
1783169667721195500,9.020195556640624,0.19944998621940613,0.33289778232574463,-0.45156213641166687
1783169667731143400,9.030143310546874,0.2334234118461609,0.16140460968017578,-0.3867815434932709
1783169667741123300,9.040123291015625,0.2740214169025421,0.021858960390090942,-0.3046872019767761
1783169667751071500,9.050071533203125,0.3132990598678589,-0.0010066748363897204,-0.23756462335586548
1783169667761020400,9.0600205078125,0.36029985547065735,-0.010278736241161823,-0.19045037031173706
1783169667770999600,9.06999951171875,0.40530329942703247,-0.04081161320209503,-0.14523202180862427
1783169667780948500,9.079948486328124,0.44771572947502136,-0.06585624814033508,-0.09908450394868851
1783169667790897400,9.0898974609375,0.4761148691177368,-0.09891512989997864,-0.07794326543807983
1783169667800845300,9.09984521484375,0.4913817048072815,-0.1508563607931137,-0.07618238776922226
1783169667810825500,9.109825439453125,0.5063388347625732,-0.17919425666332245,-0.06991623342037201
1783169667820773400,9.1197734375,0.5196628570556641,-0.16708220541477203,-0.05976852402091026
1783169667830722300,9.129722412109375,0.5291714072227478,-0.13488511741161346,-0.04908552020788193
1783169667840701400,9.139701416015624,0.5328212976455688,-0.08234760165214539,-0.02197267673909664
1783169667850650400,9.149650390625,0.5204508900642395,-0.017553161829710007,0.014962437562644482
1783169667860599300,9.159599365234374,0.4952808618545532,0.009080047719180584,0.06429856270551682
1783169667870548500,9.169548583984374,0.4505053758621216,-0.009244631044566631,0.12237437814474106
1783169667880527600,9.179527587890625,0.3986626863479614,-0.06489723920822144,0.1958129107952118
1783169667890476500,9.1894765625,0.34131020307540894,-0.1152656078338623,0.25062796473503113
1783169667900424400,9.199424560546875,0.29057565331459045,-0.156345397233963,0.288928747177124
1783169667910404400,9.209404296875,0.2501360774040222,-0.17883925139904022,0.2982167899608612
1783169667920352500,9.2193525390625,0.21791182458400726,-0.1752069741487503,0.2905990779399872
1783169667930301400,9.229301513671874,0.18824420869350433,-0.15446308255195618,0.2635096609592438
1783169667940250400,9.23925048828125,0.165518656373024,-0.14817401766777039,0.22333136200904846
1783169667950229500,9.2492294921875,0.1515895277261734,-0.14946991205215454,0.17615611851215363
1783169667960178400,9.259178466796875,0.145193949341774,-0.1255994737148285,0.14770770072937012
1783169667970126300,9.269126220703125,0.13254526257514954,-0.10824710875749588,0.13324087858200073
1783169667980106200,9.279106201171874,0.10887561738491058,-0.1216404139995575,0.12475338578224182
1783169667990054400,9.289054443359374,0.07878456264734268,-0.1568487286567688,0.1263379603624344
1783169668000003300,9.29900341796875,0.05266853794455528,-0.20848369598388672,0.1293601244688034
1783169668009952300,9.3089521484375,0.03344264626502991,-0.24634931981563568,0.13085788488388062
1783169668019931400,9.318931396484375,0.012250274419784546,-0.2733473777770996,0.13218680024147034
1783169668029880300,9.32888037109375,-0.015488145872950554,-0.306599885225296,0.12447002530097961
1783169668039829500,9.33882958984375,-0.046787478029727936,-0.3278401792049408,0.10219507664442062
1783169668049808400,9.348808349609374,-0.0663185715675354,-0.3101019263267517,0.08175185322761536
1783169668059757600,9.358757568359374,-0.08565551787614822,-0.25204023718833923,0.06674706935882568
1783169668069705500,9.36870556640625,-0.11223626136779785,-0.18380045890808105,0.0511380173265934
1783169668079654400,9.378654296875,-0.13562972843647003,-0.07468701899051666,0.044985316693782806
1783169668089633500,9.388633544921875,-0.14752288162708282,0.03569221869111061,0.03880785033106804
1783169668099582500,9.39858251953125,-0.1335522085428238,0.03139254450798035,-0.0009805759182199836
1783169668109531400,9.408531494140625,-0.11766617745161057,-0.13372397422790527,-0.10628942400217056
1783169668119510500,9.418510498046874,-0.11771678179502487,-0.43086856603622437,-0.29486626386642456
1783169668129459500,9.42845947265625,-0.13894003629684448,-0.7512646913528442,-0.5684032440185547
1783169668139407400,9.438407470703124,-0.18753713369369507,-0.945105791091919,-0.8642000555992126
1783169668149356300,9.448356201171874,-0.2401638627052307,-0.8964229226112366,-1.1066757440567017
1783169668159335400,9.45833544921875,-0.3042653501033783,-0.6212049722671509,-1.2486203908920288
1783169668169284400,9.468284423828125,-0.33416491746902466,-0.1728340983390808,-1.258909821510315
1783169668179233300,9.4782333984375,-0.307352751493454,0.3538408875465393,-1.1348438262939453
1783169668189212400,9.48821240234375,-0.23550786077976227,0.8395074605941772,-0.9064540266990662
1783169668199161300,9.498161376953124,-0.14371855556964874,1.1561733484268188,-0.6257661581039429
1783169668209110500,9.508110595703124,-0.052272260189056396,1.2472366094589233,-0.3470335900783539
1783169668219058200,9.51805810546875,0.017137974500656128,1.1377079486846924,-0.09668153524398804
1783169668229038600,9.52803857421875,0.047919854521751404,0.8489270806312561,0.1166192889213562
1783169668238986500,9.537986572265625,0.0831763818860054,0.44696125388145447,0.310787171125412
1783169668248935400,9.547935302734375,0.17253422737121582,0.07799253612756729,0.4807985723018646
1783169668258914600,9.55791455078125,0.311351478099823,-0.2247564196586609,0.6041055917739868
1783169668268863500,9.567863525390624,0.44336411356925964,-0.4802212119102478,0.6391533017158508
1783169668278812400,9.5778125,0.5282601118087769,-0.6549192667007446,0.598488450050354
1783169668288761300,9.58776123046875,0.5337305068969727,-0.717437744140625,0.4929508566856384
1783169668298740500,9.597740478515625,0.4703403413295746,-0.6711280345916748,0.34497949481010437
1783169668308688400,9.6076884765625,0.36156806349754333,-0.5499544739723206,0.18667267262935638
1783169668318661400,9.617661376953125,0.24288402497768402,-0.4122011363506317,0.04255225509405136
1783169668328640500,9.627640625,0.13568778336048126,-0.24449948966503143,-0.05572717636823654
1783169668338589700,9.637589599609376,0.028359202668070793,-0.07489368319511414,-0.12119992822408676
1783169668348538600,9.64753857421875,-0.0781422033905983,0.029883863404393196,-0.16761775314807892
1783169668358487600,9.657487548828126,-0.16515113413333893,0.06902220845222473,-0.1910538375377655
1783169668368466700,9.667466796875,-0.2270669788122177,0.050749197602272034,-0.18945488333702087
1783169668378415600,9.67741552734375,-0.26026007533073425,-0.03147856518626213,-0.1786712110042572
1783169668388363500,9.687363525390625,-0.26991721987724304,-0.12017194926738739,-0.16644063591957092
1783169668398343700,9.69734375,-0.2599426209926605,-0.1805543303489685,-0.1570308953523636
1783169668408291600,9.70729150390625,-0.23180633783340454,-0.23148807883262634,-0.15172028541564941
1783169668418240500,9.717240478515626,-0.1804901510477066,-0.25528982281684875,-0.1411701738834381
1783169668428219600,9.7272197265625,-0.12217650562524796,-0.23845624923706055,-0.12905412912368774
1783169668438168600,9.73716845703125,-0.06663495302200317,-0.19932934641838074,-0.11342322826385498
1783169668448117500,9.747117431640625,-0.03472815454006195,-0.132286936044693,-0.07168031483888626
1783169668458066400,9.75706640625,-0.03754497691988945,-0.07320497184991837,-0.014063088223338127
1783169668468045600,9.767045654296876,-0.0653904601931572,-0.06345460563898087,0.04319913685321808
1783169668477993500,9.776993408203126,-0.10624787956476212,-0.07384652644395828,0.08971257507801056
1783169668487942400,9.7869423828125,-0.14918628334999084,-0.09862297773361206,0.12162097543478012
1783169668497921500,9.796921630859375,-0.19127541780471802,-0.1216135174036026,0.1283225566148758
1783169668507870700,9.80687060546875,-0.22461633384227753,-0.14125512540340424,0.12267984449863434
1783169668517819600,9.816819580078125,-0.24335512518882751,-0.138228178024292,0.1002456471323967
1783169668527768600,9.8267685546875,-0.24013856053352356,-0.12329849600791931,0.06527248024940491
1783169668537747700,9.836747802734376,-0.23070697486400604,-0.10505051910877228,0.014760304242372513
1783169668547696600,9.846696533203126,-0.21753178536891937,-0.05265415459871292,-0.04261510446667671
1783169668557644500,9.85664453125,-0.21175752580165863,0.027121897786855698,-0.08300327509641647
1783169668567624400,9.86662451171875,-0.20291636884212494,0.13129757344722748,-0.10569953173398972
1783169668577572600,9.876572509765625,-0.18615922331809998,0.23384951055049896,-0.10969267785549164
1783169668587521500,9.886521484375,-0.16794133186340332,0.2739703059196472,-0.10297059267759323
1783169668597470500,9.896470458984375,-0.143307626247406,0.24501322209835052,-0.08677857369184494
1783169668607449600,9.90644970703125,-0.10558608174324036,0.2070131003856659,-0.05242166295647621
1783169668617398500,9.9163984375,-0.06251451373100281,0.17254354059696198,0.0022921827621757984
1783169668627347500,9.926347412109376,-0.010957309976220131,0.167066752910614,0.0811702162027359
1783169668637326600,9.93632666015625,0.030414365231990814,0.17538434267044067,0.15028564631938934
1783169668647274500,9.9462744140625,0.060625262558460236,0.17566636204719543,0.1995200365781784
1783169668657223400,9.956223388671875,0.08459078520536423,0.1904871165752411,0.23479865491390228
1783169668667172600,9.966172607421875,0.10584148019552231,0.23443859815597534,0.25220775604248047
1783169668677151500,9.9761513671875,0.132567897439003,0.3389471769332886,0.27001097798347473
1783169668687100700,9.9861005859375,0.16362755000591278,0.5033273100852966,0.2948036789894104
1783169668697049600,9.996049560546876,0.20186841487884521,0.5918204188346863,0.3096172511577606
1783169668707028700,10.00602880859375,0.2384815514087677,0.4748770296573639,0.2847267985343933
1783169668716977700,10.015977783203125,0.2611248195171356,0.08427759259939194,0.17502906918525696
1783169668726925600,10.025925537109375,0.2525006830692291,-0.4284206032752991,-0.038176946341991425
1783169668736874500,10.03587451171875,0.21275274455547333,-0.8047745227813721,-0.2935378849506378
1783169668746853600,10.045853515625,0.15509983897209167,-0.922469437122345,-0.5081607103347778
1783169668756802600,10.055802490234376,0.09503969550132751,-0.7615253329277039,-0.6168988943099976
1783169668766751500,10.06575146484375,0.038843534886837006,-0.34734970331192017,-0.6077016592025757
1783169668776730600,10.075730712890625,-0.0027838023379445076,0.20822244882583618,-0.498702734708786
1783169668786679600,10.085679443359375,-0.002805373864248395,0.7481219172477722,-0.32772886753082275
1783169668796628500,10.09562841796875,0.03106044791638851,1.0759133100509644,-0.13876959681510925
1783169668806576400,10.105576416015625,0.08396440744400024,1.1240427494049072,0.027365045621991158
1783169668816556500,10.115556640625,0.1296810358762741,0.9988049864768982,0.15995904803276062
1783169668826504400,10.12550439453125,0.19178222119808197,0.7735065817832947,0.27376657724380493
1783169668836453400,10.135453369140626,0.2893303334712982,0.5091623067855835,0.367908239364624
1783169668846432500,10.1454326171875,0.41306453943252563,0.2630484104156494,0.44283121824264526
1783169668856381700,10.155381591796875,0.5375438928604126,0.05823907256126404,0.48255226016044617
1783169668866330600,10.16533056640625,0.6519380807876587,-0.07975048571825027,0.49363023042678833
1783169668876278500,10.175278564453125,0.7486896514892578,-0.12549693882465363,0.45831218361854553
1783169668886258700,10.1852587890625,0.8104406595230103,-0.13327044248580933,0.3843767046928406
1783169668896206600,10.19520654296875,0.8322474360466003,-0.11417371034622192,0.2907860279083252
1783169668906155500,10.205155517578126,0.8039457201957703,-0.046180546283721924,0.2039286345243454
1783169668916134700,10.215134765625,0.7281029224395752,0.03238962963223457,0.138674795627594
1783169668926083600,10.22508349609375,0.6113438010215759,0.09730285406112671,0.09028568863868713
1783169668936032500,10.235032470703125,0.4859113097190857,0.1650075912475586,0.05297160521149635
1783169668945981400,10.2449814453125,0.3868044316768646,0.2246514856815338,0.01721973344683647
1783169668955960600,10.254960693359376,0.3298431634902954,0.2620987296104431,-0.017594972625374794
1783169668965909500,10.264909423828126,0.3122369945049286,0.252025306224823,-0.05559295415878296
1783169668975857400,10.274857421875,0.3347793221473694,0.24428564310073853,-0.07927777618169785
1783169668985837600,10.284837646484375,0.3737621307373047,0.23974867165088654,-0.08160271495580673
1783169668995785500,10.294785400390625,0.4192071259021759,0.20619843900203705,-0.06981237232685089
1783169669005734400,10.304734375,0.4701869487762451,0.16794666647911072,-0.04207102209329605
1783169669015683600,10.31468359375,0.5185489058494568,0.1355128139257431,0.013934191316366196
1783169669025662700,10.324662841796876,0.5528176426887512,0.09570655226707458,0.07564948499202728
1783169669035611600,10.334611572265626,0.5616228580474854,0.038957785815000534,0.1446290910243988
1783169669045559600,10.3445595703125,0.5433551669120789,-0.005658951122313738,0.21087442338466644
1783169669055539700,10.354539794921875,0.5026655197143555,-0.03038107603788376,0.2592187821865082
1783169669065487600,10.364487548828125,0.4435313642024994,-0.042332276701927185,0.2830234467983246
1783169669075436500,10.3744365234375,0.37652063369750977,-0.03657878190279007,0.2766464948654175
1783169669085385500,10.384385498046875,0.31250303983688354,-0.0005648564547300339,0.2549191117286682
1783169669095364600,10.394364501953126,0.24998214840888977,0.030050577595829964,0.2135958969593048
1783169669105313500,10.4043134765625,0.21350428462028503,0.0451405793428421,0.16792641580104828
1783169669115262500,10.414262451171876,0.19533807039260864,0.056890182197093964,0.12963469326496124
1783169669125241600,10.42424169921875,0.18687693774700165,0.0686938464641571,0.11131986975669861
1783169669135190500,10.4341904296875,0.1717347353696823,0.07271601259708405,0.12658430635929108
1783169669145138400,10.444138427734375,0.14246712625026703,0.08421634137630463,0.1749987155199051
1783169669155118600,10.45411865234375,0.09993884712457657,0.10025177150964737,0.23337094485759735
1783169669165066500,10.46406640625,0.05200035125017166,0.09205189347267151,0.2829992175102234
1783169669175015400,10.474015380859376,-0.0032716933637857437,0.0539788119494915,0.3211897313594818
1783169669184964600,10.483964599609376,-0.042574625462293625,0.02136414498090744,0.3354152739048004
1783169669194943700,10.49394384765625,-0.05494527518749237,-0.018996860831975937,0.32355594635009766
1783169669204892700,10.503892578125,-0.04868311807513237,-0.06230279058218002,0.29815101623535156
1783169669214840600,10.513840576171875,-0.03765470162034035,-0.1168011873960495,0.26434776186943054
1783169669224820700,10.52382080078125,-0.02810460515320301,-0.19709229469299316,0.21508221328258514
1783169669234768600,10.5337685546875,-0.024748755618929863,-0.2933296263217926,0.15121588110923767
1783169669244717600,10.543717529296876,-0.0374232716858387,-0.3472021818161011,0.0812663584947586
1783169669254666500,10.55366650390625,-0.07761836051940918,-0.3453619182109833,0.022338328883051872
1783169669264645600,10.563645751953125,-0.13898345828056335,-0.28364768624305725,-0.013303288258612156
1783169669274594600,10.573594482421875,-0.19897568225860596,-0.18492351472377777,-0.02612028457224369
1783169669284543500,10.58354345703125,-0.24999386072158813,-0.0798032209277153,0.007558051031082869
1783169669294522600,10.593522705078126,-0.2837779223918915,0.0257548987865448,0.094499871134758
1783169669304471600,10.603471435546876,-0.2964897155761719,0.16264083981513977,0.22771118581295013
1783169669314419500,10.61341943359375,-0.28026387095451355,0.3039074242115021,0.3983987867832184
1783169669324406300,10.62340625,-0.2558557391166687,0.3247418701648712,0.5545127391815186
1783169669334385200,10.63338525390625,-0.23472462594509125,0.22868670523166656,0.6456043124198914
1783169669344334300,10.643334228515625,-0.23617418110370636,0.02545316144824028,0.6308122873306274
1783169669354283300,10.653283203125,-0.3021084666252136,-0.35019636154174805,0.45787009596824646
1783169669364262400,10.663262451171875,-0.4510507881641388,-0.8109338879585266,0.12400796264410019
1783169669374211300,10.67321142578125,-0.6321359276771545,-1.1305158138275146,-0.29739731550216675
1783169669384159200,10.6831591796875,-0.762333333492279,-1.131434440612793,-0.6669878959655762
1783169669394108400,10.6931083984375,-0.8437759876251221,-0.8609970211982727,-0.9315460324287415
1783169669404087300,10.70308740234375,-0.8757429718971252,-0.44875383377075195,-1.0632151365280151
1783169669414036200,10.7130361328125,-0.8682783842086792,-0.030221818014979362,-1.0786068439483643
1783169669423985200,10.722985107421875,-0.8059244751930237,0.25327861309051514,-0.9868178367614746
1783169669433964300,10.73296435546875,-0.7013195157051086,0.33569809794425964,-0.79798424243927
1783169669443913200,10.742913330078125,-0.5793693661689758,0.2530634105205536,-0.5312590599060059
1783169669453862100,10.752862060546875,-0.47838494181632996,0.11145355552434921,-0.2167126089334488
1783169669463810300,10.762810302734374,-0.4047759771347046,-0.028987176716327667,0.09838329255580902
1783169669473790200,10.772790283203125,-0.3589123487472534,-0.1565544605255127,0.3482474684715271
1783169669483738000,10.782738037109375,-0.30577242374420166,-0.3102731704711914,0.5031230449676514
1783169669493687000,10.79268701171875,-0.24011166393756866,-0.43975794315338135,0.5575569868087769
1783169669503666200,10.802666259765624,-0.1671634316444397,-0.494182825088501,0.543651819229126
1783169669513615400,10.812615478515625,-0.10953741520643234,-0.48062440752983093,0.4722359776496887
1783169669523564300,10.822564208984375,-0.06908027082681656,-0.43709662556648254,0.36782729625701904
1783169669533512400,10.832512451171874,-0.053232062608003616,-0.3640618324279785,0.23759578168392181
1783169669543492400,10.842492431640625,-0.0730835348367691,-0.2595599293708801,0.09900381416082382
1783169669553440300,10.852440185546875,-0.12950420379638672,-0.13716983795166016,-0.035346806049346924
1783169669563389200,10.86238916015625,-0.20857957005500793,-0.05482756346464157,-0.16132791340351105
1783169669573368300,10.872368408203124,-0.29564976692199707,0.006717024836689234,-0.26130351424217224
1783169669583317200,10.882317138671874,-0.39081063866615295,0.09285350888967514,-0.3240944445133209
1783169669593266200,10.89226611328125,-0.4902791678905487,0.17736919224262238,-0.35806867480278015
1783169669603215000,10.902215087890625,-0.5676788687705994,0.20434701442718506,-0.36858469247817993
1783169669613194200,10.9121943359375,-0.5977110862731934,0.20032723248004913,-0.3733493387699127
1783169669623143200,10.92214306640625,-0.5712379217147827,0.19808831810951233,-0.3782258629798889
1783169669633091300,10.93209130859375,-0.5051401257514954,0.202240988612175,-0.3856353163719177
1783169669643071200,10.9420712890625,-0.42197147011756897,0.17698116600513458,-0.387970894575119
1783169669653019100,10.95201904296875,-0.34108835458755493,0.09518377482891083,-0.37255918979644775
1783169669662968000,10.961968017578124,-0.25676360726356506,0.04360739886760712,-0.31276509165763855
1783169669672917200,10.971917236328125,-0.1975863128900528,0.05608217790722847,-0.22711624205112457
1783169669682896400,10.981896484375,-0.1752261519432068,0.0772862657904625,-0.1241602972149849
1783169669692845300,10.99184521484375,-0.17059943079948425,0.05921218916773796,-0.04536428675055504
1783169669702793500,11.00179345703125,-0.16596446931362152,-0.002124137245118618,-0.005306082312017679
1783169669712773400,11.0117734375,-0.15161243081092834,-0.06607276201248169,0.016081498935818672
1783169669722721300,11.02172119140625,-0.13929131627082825,-0.09257840365171432,0.028300080448389053
1783169669732670200,11.031670166015624,-0.1270439624786377,-0.11001518368721008,0.031188279390335083
1783169669742619400,11.041619384765625,-0.11561980843544006,-0.12212084978818893,0.02605263888835907
1783169669752598300,11.051598388671875,-0.09475340694189072,-0.1134040579199791,0.009494701400399208
1783169669762547200,11.061547119140625,-0.07775844633579254,-0.12108035385608673,-0.025707228109240532
1783169669772496100,11.07149609375,-0.06267429888248444,-0.14566905796527863,-0.07390911132097244
1783169669782475300,11.081475341796875,-0.04951508715748787,-0.13276763260364532,-0.12019538134336472
1783169669792424200,11.091424072265625,-0.04063104838132858,-0.09770791977643967,-0.15574592351913452
1783169669802372000,11.1013720703125,-0.02081260457634926,-0.06419576704502106,-0.17337417602539062
1783169669812321300,11.1113212890625,0.019395535811781883,-0.056351955980062485,-0.17717345058918
1783169669822300200,11.121300048828125,0.07006004452705383,-0.04980484023690224,-0.1530257612466812
1783169669832249000,11.1312490234375,0.11871147155761719,0.0030860709957778454,-0.1152256578207016
1783169669842198300,11.1411982421875,0.14145326614379883,0.061279069632291794,-0.08343417197465897
1783169669852177400,11.151177490234375,0.13552799820899963,0.071681909263134,-0.06438031792640686
1783169669862126300,11.161126220703125,0.11229325085878372,0.05446057766675949,-0.07095513492822647
1783169669872074200,11.17107421875,0.08707870543003082,0.08443711698055267,-0.07468781620264053
1783169669882023400,11.1810234375,0.05897703394293785,0.1763790249824524,-0.05829846113920212
1783169669892002300,11.191002197265625,0.026807911694049835,0.31672096252441406,-0.021271467208862305
1783169669901951200,11.200951171875,-0.005322593729943037,0.5028455853462219,0.02593918889760971
1783169669911900200,11.210900146484375,-0.03572523966431618,0.6636746525764465,0.06631377339363098
1783169669921879300,11.22087939453125,-0.06403384357690811,0.6564990282058716,0.06176270171999931
1783169669931828200,11.230828125,-0.09004786610603333,0.48315680027008057,0.00024447820032946765
1783169669941777200,11.240777099609375,-0.1014656350016594,0.23342446982860565,-0.11827897280454636
1783169669951756300,11.25075634765625,-0.10831848531961441,-0.06262077391147614,-0.29787537455558777
1783169669961705200,11.260705322265625,-0.11940069496631622,-0.3358277976512909,-0.4985962212085724
1783169669971653000,11.270653076171875,-0.12299542874097824,-0.38420918583869934,-0.6395405530929565
1783169669981602300,11.280602294921875,-0.13320519030094147,-0.16406111419200897,-0.6664438247680664
1783169669991581200,11.290581298828124,-0.13342756032943726,0.23475179076194763,-0.5666245222091675
1783169670001530000,11.300530029296874,-0.10826442390680313,0.6681655645370483,-0.3390536904335022
1783169670011479300,11.310479248046875,-0.04086700454354286,1.0117602348327637,-0.036857351660728455
1783169670021458200,11.320458251953125,0.031981103122234344,1.1693609952926636,0.26223668456077576
1783169670031407400,11.330407470703125,0.08414123952388763,1.1083279848098755,0.49651601910591125
1783169670041355300,11.340355224609375,0.12351953983306885,0.8345707654953003,0.6518654227256775
1783169670051304400,11.350304443359375,0.17594119906425476,0.4371491074562073,0.7412293553352356
1783169670061283300,11.360283447265624,0.23222684860229492,0.07249151170253754,0.770042359828949
1783169670071232300,11.370232177734374,0.26438477635383606,-0.18249550461769104,0.7273601293563843
1783169670081181200,11.38018115234375,0.2688029706478119,-0.29372456669807434,0.6072009801864624
1783169670091160300,11.390160400390625,0.2740483283996582,-0.26832571625709534,0.439671128988266
1783169670101109200,11.400109130859375,0.2787477374076843,-0.14024579524993896,0.28337445855140686
1783169670111058200,11.41005810546875,0.2785716950893402,0.04061400517821312,0.15373550355434418
1783169670121006300,11.42000634765625,0.27799567580223083,0.249871626496315,0.050694603472948074
1783169670130986200,11.429986328125,0.28247910737991333,0.43656107783317566,-0.02797411009669304
1783169670140934100,11.43993408203125,0.27871471643447876,0.5366392135620117,-0.07010185718536377
1783169670150883000,11.449883056640624,0.27305150032043457,0.555382251739502,-0.06899131834506989
1783169670160862200,11.4598623046875,0.2741982638835907,0.5212173461914062,-0.046908654272556305
1783169670170811100,11.46981103515625,0.29524388909339905,0.437207967042923,-0.008952748961746693
1783169670180760300,11.47976025390625,0.3320716917514801,0.32336634397506714,0.01731853559613228
1783169670190708200,11.489708251953125,0.3959401547908783,0.2668333053588867,0.02977627143263817
1783169670200688400,11.4996884765625,0.48379436135292053,0.330627977848053,0.03411030024290085
1783169670210636300,11.50963623046875,0.5862054228782654,0.4635588824748993,0.1245826780796051
1783169670220585500,11.51958544921875,0.600121259689331,0.4158850908279419,0.42864030599594116
1783169670230564400,11.529564453125,0.5836743712425232,0.1074335128068924,0.5614713430404663
1783169670240513300,11.53951318359375,0.5590704679489136,-0.04400287941098213,0.5720446109771729
1783169670250462200,11.549462158203125,0.542009174823761,-0.12566497921943665,0.5495355725288391
1783169670260411100,11.5594111328125,0.534977376461029,-0.061467088758945465,0.5032628774642944
1783169670270390300,11.569390380859375,0.49566221237182617,0.05254922807216644,0.3917113244533539
1783169670280339200,11.579339111328125,0.4270906150341034,0.21509712934494019,0.3010573089122772
