time,seconds_elapsed,z,y,x
1783152095442862300,0.1408623046875,0.0488739013671875,0.018310546875,-0.037261962890625
1783152095462119000,0.160118896484375,-0.7220306396484375,0.1673583984375,-0.2950439453125
1783152095471915000,0.1699150390625,-0.6829376220703125,0.1490325927734375,-0.306671142578125
1783152095481741800,0.179741943359375,-0.65545654296875,0.1313323974609375,-0.309112548828125
1783152095491538000,0.189537841796875,-0.6499481201171875,0.1007843017578125,-0.2901611328125
1783152095501303600,0.199303466796875,-0.66766357421875,0.09649658203125,-0.251678466796875
1783152095511069200,0.209069091796875,-0.703094482421875,0.1160430908203125,-0.21075439453125
1783152095520804400,0.218804443359375,-0.7458648681640625,0.1074981689453125,-0.1893768310546875
1783152095530508800,0.2285087890625,-0.7751922607421875,0.09405517578125,-0.183258056640625
1783152095540213500,0.238213623046875,-0.79962158203125,0.122161865234375,-0.1893768310546875
1783152095549918000,0.24791796875,-0.8203887939453125,0.135589599609375,-0.20587158203125
1783152095559622700,0.25762255859375,-0.8197784423828125,0.147216796875,-0.21502685546875
1783152095569327000,0.2673271484375,-0.79779052734375,0.16064453125,-0.21014404296875
1783152095579031800,0.27703173828125,-0.7788543701171875,0.1814117431640625,-0.1930389404296875
1783152095588736500,0.286736572265625,-0.7806854248046875,0.22296142578125,-0.1539459228515625
1783152095598471400,0.296471435546875,-0.79901123046875,0.265716552734375,-0.0855255126953125
1783152095608176000,0.306176025390625,-0.8228302001953125,0.2431182861328125,0.003662109375
1783152095617880600,0.315880615234375,-0.8252716064453125,0.119110107421875,0.07940673828125
1783152095627585300,0.325585205078125,-0.610870361328125,0.043975830078125,0.1380462646484375
1783152095637320400,0.335320556640625,-0.1655426025390625,0.403778076171875,0.269989013671875
1783152095647025000,0.34502490234375,0.0500946044921875,0.3292388916015625,0.340850830078125
1783152095656729600,0.3547294921875,0.166778564453125,0.2076873779296875,0.420257568359375
1783152095666434000,0.36443408203125,0.246795654296875,0.0152587890625,0.484405517578125
1783152095676169200,0.374169189453125,0.2388458251953125,-0.240692138671875,0.52593994140625
1783152095685874000,0.3838740234375,0.178985595703125,-0.4214935302734375,0.5705413818359375
1783152095695578400,0.393578369140625,0.07330322265625,-0.5882720947265625,0.6126861572265625
1783152095705283000,0.403282958984375,-0.09283447265625,-0.78253173828125,0.66156005859375
1783152095715018200,0.413018310546875,-0.271820068359375,-0.9095916748046875,0.721435546875
1783152095724722700,0.42272265625,-0.4502105712890625,-1.029327392578125,0.7464599609375
1783152095734427400,0.432427490234375,-0.6078033447265625,-1.4972381591796875,0.6010894775390625
1783152095744131800,0.4421318359375,-0.6768341064453125,-2.1032257080078125,0.2999267578125
1783152095753836500,0.45183642578125,-0.7275390625,-2.1502685546875,0.0378570556640625
1783152095763571700,0.46157177734375,-0.8197784423828125,-1.9156951904296875,-0.163116455078125
1783152095773276200,0.471276123046875,-0.9663848876953125,-1.5619964599609375,-0.259613037109375
1783152095782980900,0.48098095703125,-1.0751190185546875,-1.0592498779296875,-0.2272491455078125
1783152095792685300,0.490685302734375,-1.134368896484375,-0.5803375244140625,-0.1142425537109375
1783152095802420500,0.50042041015625,-1.1734619140625,-0.276123046875,0.0030364990234375
1783152095812125200,0.510125244140625,-1.23272705078125,-0.103851318359375,0.0641326904296875
1783152095821829600,0.51982958984375,-1.3237457275390625,-0.0482635498046875,0.0720672607421875
1783152095831534300,0.529534423828125,-1.404388427734375,-0.181427001953125,0.0751190185546875
1783152095841269200,0.539269287109375,-1.4691314697265625,-0.403167724609375,0.08062744140625
1783152095850974000,0.548973876953125,-1.53021240234375,-0.5815582275390625,0.0946807861328125
1783152095870413600,0.56841357421875,-1.6450653076171875,-0.7605438232421875,0.1502532958984375
1783152095880148700,0.578148681640625,-1.706756591796875,-0.7684783935546875,0.1301116943359375
1783152095889853400,0.587853515625,-1.745849609375,-0.78619384765625,0.0684051513671875
1783152095899558000,0.597557861328125,-1.7464599609375,-0.821624755859375,-0.037872314453125
1783152095909262600,0.6072626953125,-1.6450653076171875,-0.9138641357421875,-0.1924285888671875
1783152095918967000,0.616967041015625,-1.59619140625,-0.92486572265625,-0.400726318359375
1783152095928702200,0.6267021484375,-1.6071929931640625,-0.7098236083984375,-0.6145477294921875
1783152095938407000,0.636406982421875,-1.565032958984375,-0.317047119140625,-0.7666473388671875
1783152095948111400,0.646111328125,-1.419036865234375,0.0720672607421875,-0.8607177734375
1783152095957816000,0.655816162109375,-1.267547607421875,0.23516845703125,-0.9456329345703125
1783152095967551000,0.665551025390625,-1.1716461181640625,0.0280914306640625,-0.9957275390625
1783152095977255700,0.675255615234375,-1.08978271484375,-0.22052001953125,-1.0048828125
1783152095986960400,0.68496044921875,-0.981048583984375,-0.35186767578125,-0.9841156005859375
1783152095996664800,0.694664794921875,-0.8643646240234375,-0.4544830322265625,-0.9383087158203125
1783152096006400000,0.70439990234375,-0.768463134765625,-0.604156494140625,-0.8619384765625
1783152096016104400,0.7141044921875,-0.688446044921875,-0.63958740234375,-0.7703094482421875
1783152096025809200,0.72380908203125,-0.614532470703125,-0.48931884765625,-0.64324951171875
1783152096035513900,0.733513916015625,-0.558929443359375,-0.3769073486328125,-0.49053955078125
1783152096045218300,0.74321826171875,-0.5283966064453125,-0.3329315185546875,-0.35247802734375
1783152096054953500,0.752953369140625,-0.5063934326171875,-0.2877197265625,-0.2260284423828125
1783152096064658000,0.762657958984375,-0.478912353515625,-0.174102783203125,-0.108123779296875
1783152096074362600,0.772362548828125,-0.444091796875,-0.033599853515625,-0.0097808837890625
1783152096084067000,0.782067138671875,-0.406829833984375,0.0677947998046875,0.0604705810546875
1783152096093802200,0.79180224609375,-0.36834716796875,0.1087188720703125,0.1068878173828125
1783152096103507000,0.8015068359375,-0.338409423828125,0.09527587890625,0.129486083984375
1783152096113211400,0.81121142578125,-0.3194732666015625,0.0372467041015625,0.1337738037109375
1783152096122916000,0.820916015625,-0.3078765869140625,-0.0458221435546875,0.120941162109375
1783152096132651300,0.8306513671875,-0.3017578125,-0.1264495849609375,0.1026153564453125
1783152096142355700,0.840355712890625,-0.2938079833984375,-0.1893768310546875,0.08795166015625
1783152096152091000,0.8500908203125,-0.277923583984375,-0.2303009033203125,0.0781707763671875
1783152096161795600,0.859795654296875,-0.259002685546875,-0.257171630859375,0.0714569091796875
1783152096171500000,0.8695,-0.2473907470703125,-0.2700042724609375,0.0647430419921875
1783152096181235200,0.879235107421875,-0.2504425048828125,-0.2681732177734375,0.0610809326171875
1783152096190939600,0.888939697265625,-0.2761077880859375,-0.2620697021484375,0.055572509765625
1783152096200644400,0.898644287109375,-0.3243560791015625,-0.260833740234375,0.047637939453125
1783152096210349000,0.90834912109375,-0.3860626220703125,-0.2700042724609375,0.0396881103515625
1783152096220084000,0.918083984375,-0.4495849609375,-0.2999420166015625,0.0354156494140625
1783152096229788700,0.92778857421875,-0.5063934326171875,-0.34942626953125,0.0323638916015625
1783152096239493000,0.9374931640625,-0.556488037109375,-0.4056243896484375,0.0311431884765625
1783152096249197800,0.94719775390625,-0.6029205322265625,-0.470367431640625,0.0250244140625
1783152096258933000,0.95693310546875,-0.6468963623046875,-0.5552825927734375,0.001220703125
1783152096268637400,0.966637451171875,-0.6835479736328125,-0.64385986328125,-0.0415496826171875
1783152096278342100,0.976342041015625,-0.7134857177734375,-0.712890625,-0.093475341796875
1783152096288046600,0.986046630859375,-0.7385406494140625,-0.751983642578125,-0.1472320556640625
1783152096297781800,0.99578173828125,-0.760528564453125,-0.7672576904296875,-0.20465087890625
1783152096307486500,1.005486572265625,-0.7776336669921875,-0.7660369873046875,-0.2693939208984375
1783152096317191000,1.01519091796875,-0.7916717529296875,-0.7593231201171875,-0.3463592529296875
1783152096326895600,1.0248955078125,-0.80084228515625,-0.753814697265625,-0.4434967041015625
1783152096336600000,1.03460009765625,-0.7965545654296875,-0.7379302978515625,-0.5595550537109375
1783152096346335200,1.044335205078125,-0.766021728515625,-0.6921234130859375,-0.673797607421875
1783152096365744400,1.063744384765625,-0.66094970703125,-0.538177490234375,-0.8320159912109375
1783152096375449000,1.073448974609375,-0.613311767578125,-0.474029541015625,-0.8631591796875
1783152096385184300,1.083184326171875,-0.5711517333984375,-0.4276123046875,-0.86376953125
1783152096394888700,1.092888671875,-0.5387725830078125,-0.4147796630859375,-0.8423919677734375
1783152096404593400,1.102593505859375,-0.51800537109375,-0.4355621337890625,-0.8057403564453125
1783152096414297900,1.1122978515625,-0.5051727294921875,-0.4758758544921875,-0.753204345703125
1783152096424033000,1.122032958984375,-0.4905242919921875,-0.5155792236328125,-0.680511474609375
1783152096433737700,1.13173779296875,-0.476470947265625,-0.541839599609375,-0.5882720947265625
1783152096443472600,1.14147265625,-0.4673004150390625,-0.572998046875,-0.4850311279296875
1783152096453177300,1.15117724609375,-0.4630279541015625,-0.63165283203125,-0.3799591064453125
1783152096462912500,1.16091259765625,-0.4630279541015625,-0.704345703125,-0.287109375
1783152096472617000,1.170616943359375,-0.469757080078125,-0.77642822265625,-0.21380615234375
1783152096482321700,1.18032177734375,-0.480133056640625,-0.831390380859375,-0.1661529541015625
1783152096492026000,1.190026123046875,-0.484405517578125,-0.8448333740234375,-0.13623046875
1783152096501730800,1.199730712890625,-0.4880828857421875,-0.8087921142578125,-0.1166839599609375
1783152096521170400,1.21917041015625,-0.5283966064453125,-0.6603546142578125,-0.108734130859375
1783152096530875100,1.228875244140625,-0.555267333984375,-0.5809326171875,-0.1130218505859375
1783152096540579600,1.23857958984375,-0.5735931396484375,-0.50579833984375,-0.1154632568359375
1783152096550314800,1.248314697265625,-0.5711517333984375,-0.4416656494140625,-0.111175537109375
1783152096560019500,1.25801953125,-0.547332763671875,-0.395233154296875,-0.095916748046875
1783152096569724000,1.267723876953125,-0.51312255859375,-0.3738555908203125,-0.07086181640625
1783152096579428600,1.2774287109375,-0.473419189453125,-0.3787384033203125,-0.0415496826171875
1783152096589163500,1.28716357421875,-0.43798828125,-0.4074554443359375,-0.0158843994140625
1783152096598868200,1.2968681640625,-0.4031524658203125,-0.429443359375,0.003662109375
1783152096608573000,1.306572998046875,-0.36895751953125,-0.427001953125,0.0225830078125
1783152096618277400,1.31627734375,-0.340240478515625,-0.401947021484375,0.043365478515625
1783152096627982000,1.325982177734375,-0.3170318603515625,-0.3726348876953125,0.0671844482421875
1783152096637717000,1.335717041015625,-0.2913665771484375,-0.3408660888671875,0.08917236328125
1783152096647421700,1.345421630859375,-0.263275146484375,-0.3109283447265625,0.1068878173828125
1783152096657126400,1.35512646484375,-0.23333740234375,-0.3005523681640625,0.117889404296875
1783152096666837800,1.364837646484375,-0.194854736328125,-0.309112548828125,0.124603271484375
1783152096676573000,1.374572998046875,-0.14599609375,-0.315216064453125,0.1288909912109375
1783152096686277400,1.38427734375,-0.09283447265625,-0.313995361328125,0.130706787109375
1783152096695982000,1.393982177734375,-0.046417236328125,-0.310333251953125,0.129486083984375
1783152096705686500,1.4036865234375,-0.003662109375,-0.3084869384765625,0.128265380859375
1783152096715391200,1.41339111328125,0.033599853515625,-0.3029937744140625,0.1301116943359375
1783152096725126400,1.42312646484375,0.06719970703125,-0.3036041259765625,0.1362152099609375
1783152096734861600,1.432861572265625,0.097137451171875,-0.315826416015625,0.144775390625
1783152096744566000,1.44256591796875,0.12890625,-0.3359832763671875,0.154541015625
1783152096754270700,1.452270751953125,0.164337158203125,-0.34881591796875,0.1661376953125
1783152096764005600,1.462005615234375,0.20404052734375,-0.3426971435546875,0.1801910400390625
1783152096773710300,1.47171044921875,0.2412872314453125,-0.323760986328125,0.198516845703125
1783152096783414800,1.481414794921875,0.2742767333984375,-0.3060455322265625,0.22540283203125
1783152096793119500,1.491119384765625,0.309112548828125,-0.2932281494140625,0.266326904296875
1783152096802854700,1.500854736328125,0.34698486328125,-0.278564453125,0.3213043212890625
1783152096812559000,1.51055908203125,0.386077880859375,-0.246185302734375,0.3860626220703125
1783152096822263800,1.520263916015625,0.42822265625,-0.20892333984375,0.4514312744140625
1783152096831968300,1.52996826171875,0.466094970703125,-0.21746826171875,0.4966278076171875
1783152096841703400,1.539703369140625,0.4899139404296875,-0.2895660400390625,0.5070037841796875
1783152096851408100,1.549408203125,0.50152587890625,-0.3775177001953125,0.478302001953125
1783152096861112600,1.559112548828125,0.50823974609375,-0.4361572265625,0.4160003662109375
1783152096870817300,1.5688173828125,0.5119171142578125,-0.465484619140625,0.332916259765625
1783152096880552400,1.578552490234375,0.5149688720703125,-0.4544830322265625,0.2437286376953125
1783152096890257000,1.5882568359375,0.5259552001953125,-0.3701934814453125,0.1643218994140625
1783152096899961600,1.597961669921875,0.5558929443359375,-0.2248077392578125,0.1087188720703125
1783152096909666000,1.607666015625,0.607818603515625,-0.05987548828125,0.07879638671875
1783152096919370800,1.617370849609375,0.673187255859375,0.09649658203125,0.0781707763671875
1783152096929106000,1.62710595703125,0.740997314453125,0.2095184326171875,0.110565185546875
1783152096938810400,1.636810302734375,0.8020782470703125,0.2583770751953125,0.1698150634765625
1783152096948515000,1.64651513671875,0.8484954833984375,0.2431182861328125,0.2467803955078125
1783152096958219500,1.656219482421875,0.8753814697265625,0.188140869140625,0.334136962890625
1783152096967954700,1.66595458984375,0.8875885009765625,0.110565185546875,0.420257568359375
1783152096977659400,1.675659423828125,0.8839263916015625,0.0201416015625,0.489898681640625
1783152096987363800,1.68536376953125,0.8808746337890625,-0.06231689453125,0.5320587158203125
1783152096997068500,1.695068603515625,0.891265869140625,-0.1197357177734375,0.544891357421875
1783152097006803500,1.704803466796875,0.9181365966796875,-0.142333984375,0.5283966064453125
1783152097016538600,1.71453857421875,0.9547882080078125,-0.1368408203125,0.481353759765625
1783152097026243300,1.724243408203125,0.9920501708984375,-0.1179046630859375,0.406219482421875
1783152097035947800,1.73394775390625,1.0225982666015625,-0.100189208984375,0.3048095703125
1783152097045683000,1.743682861328125,1.042144775390625,-0.07330322265625,0.192413330078125
1783152097055387600,1.7533876953125,1.044586181640625,-0.0183258056640625,0.09100341796875
1783152097065092000,1.763092041015625,1.037872314453125,0.0598602294921875,0.0164794921875
1783152097074796800,1.772796875,1.0274810791015625,0.1380462646484375,-0.022003173828125
1783152097084501200,1.782501220703125,1.0079345703125,0.2082977294921875,-0.032379150390625
1783152097094236400,1.792236328125,0.972503662109375,0.2797698974609375,-0.026275634765625
1783152097103941000,1.801941162109375,0.93035888671875,0.3549041748046875,-0.0079345703125
1783152097113645600,1.8116455078125,0.893707275390625,0.435546875,0.015869140625
1783152097123350300,1.821350341796875,0.8717041015625,0.50885009765625,0.0354156494140625
1783152097133085400,1.83108544921875,0.8723297119140625,0.563812255859375,0.040313720703125
1783152097142790000,1.840789794921875,0.898590087890625,0.6016845703125,0.0335845947265625
1783152097152494600,1.85049462890625,0.9511260986328125,0.629180908203125,0.0213623046875
1783152097162199000,1.860198974609375,1.0262603759765625,0.65484619140625,0.0054779052734375
1783152097171934200,1.869934326171875,1.113616943359375,0.6707305908203125,-0.0213775634765625
1783152097181639000,1.879638916015625,1.2028045654296875,0.65850830078125,-0.06109619140625
1783152097191343400,1.88934326171875,1.287109375,0.624908447265625,-0.1142425537109375
1783152097201048000,1.899048095703125,1.36834716796875,0.587646484375,-0.172882080078125
1783152097210752500,1.90875244140625,1.4441070556640625,0.557708740234375,-0.2309112548828125
1783152097220487700,1.91848779296875,1.51007080078125,0.5277862548828125,-0.2864990234375
1783152097230192000,1.928192138671875,1.5656585693359375,0.5033416748046875,-0.3378143310546875
1783152097239896800,1.937896728515625,1.614532470703125,0.485626220703125,-0.384246826171875
1783152097249601500,1.9476015625,1.6573028564453125,0.4599761962890625,-0.4288330078125
1783152097259336400,1.95733642578125,1.6970062255859375,0.4361419677734375,-0.4758758544921875
1783152097269041200,1.967041259765625,1.7403717041015625,0.423919677734375,-0.5271759033203125
1783152097278745600,1.97674560546875,1.78863525390625,0.410491943359375,-0.57666015625
1783152097288450300,1.9864501953125,1.840545654296875,0.400115966796875,-0.6121063232421875
1783152097298185500,1.996185546875,1.8863677978515625,0.415374755859375,-0.6224822998046875
1783152097307920600,2.005920654296875,1.9175262451171875,0.4624176025390625,-0.609039306640625
1783152097317625000,2.015625,1.93218994140625,0.51129150390625,-0.5778961181640625
1783152097327329800,2.025329833984375,1.93585205078125,0.549163818359375,-0.535125732421875
1783152097337034200,2.0350341796875,1.93341064453125,0.5723724365234375,-0.4862518310546875
1783152097346769400,2.044769287109375,1.92730712890625,0.5729827880859375,-0.4380035400390625
1783152097356474000,2.05447412109375,1.9150848388671875,0.556488037109375,-0.392181396484375
1783152097366178600,2.064178466796875,1.897979736328125,0.543670654296875,-0.3445281982421875
1783152097375883300,2.07388330078125,1.8796539306640625,0.5442657470703125,-0.2975006103515625
1783152097385618200,2.0836181640625,1.8607177734375,0.552215576171875,-0.254730224609375
1783152097395323000,2.093322998046875,1.8411712646484375,0.560150146484375,-0.22174072265625
1783152097405027600,2.103027587890625,1.8161163330078125,0.566253662109375,-0.2028045654296875
1783152097414732000,2.11273193359375,1.78985595703125,0.5766448974609375,-0.1924285888671875
1783152097424467200,2.12246728515625,1.761749267578125,0.5980224609375,-0.1869354248046875
1783152097434171600,2.132171630859375,1.7330474853515625,0.6316375732421875,-0.1826629638671875
1783152097443876400,2.14187646484375,1.7073822021484375,0.66156005859375,-0.177154541015625
1783152097453580800,2.151580810546875,1.686004638671875,0.6737823486328125,-0.1685943603515625
1783152097463316000,2.16131591796875,1.6652374267578125,0.6762237548828125,-0.1502685546875
1783152097473020700,2.171020751953125,1.6328582763671875,0.6756134033203125,-0.1233978271484375
1783152097482725000,2.18072509765625,1.5858154296875,0.66644287109375,-0.093475341796875
1783152097492429800,2.190429931640625,1.5277862548828125,0.65118408203125,-0.06231689453125
1783152097502134300,2.20013427734375,1.463653564453125,0.6420135498046875,-0.036041259765625
1783152097511869400,2.209869384765625,1.394622802734375,0.65240478515625,-0.0103912353515625
1783152097521574100,2.21957421875,1.328643798828125,0.6823272705078125,0.009765625
1783152097531278600,2.229278564453125,1.2681732177734375,0.7177581787109375,0.01953125
1783152097540983300,2.2389833984375,1.20831298828125,0.765411376953125,0.0177001953125
1783152097550718500,2.248718505859375,1.139892578125,0.842987060546875,0.009765625
1783152097560423000,2.2584228515625,1.0476531982421875,0.9388885498046875,-0.0012359619140625
1783152097570127600,2.268127685546875,0.93585205078125,1.01220703125,-0.0213775634765625
1783152097579832000,2.27783203125,0.817962646484375,1.0427398681640625,-0.06109619140625
1783152097589567200,2.287567138671875,0.7037200927734375,1.0317535400390625,-0.1221771240234375
1783152097609006800,2.3070068359375,0.5088653564453125,0.9730987548828125,-0.2852783203125
1783152097618711600,2.316711669921875,0.4288330078125,0.979827880859375,-0.3677520751953125
1783152097628446700,2.32644677734375,0.35614013671875,1.0146484375,-0.4404449462890625
1783152097638151200,2.336151123046875,0.288330078125,1.0757293701171875,-0.49969482421875
1783152097647855900,2.34585595703125,0.2235870361328125,1.1685791015625,-0.544281005859375
1783152097657560300,2.355560302734375,0.1508941650390625,1.265716552734375,-0.572998046875
1783152097667265000,2.36526513671875,0.07696533203125,1.3390045166015625,-0.575439453125
1783152097677000200,2.375000244140625,0.0042724609375,1.38543701171875,-0.5491790771484375
1783152097686704600,2.38470458984375,-0.0629119873046875,1.405609130859375,-0.49725341796875
1783152097696409300,2.394409423828125,-0.125213623046875,1.38421630859375,-0.4276123046875
1783152097706113800,2.40411376953125,-0.182647705078125,1.333526611328125,-0.35247802734375
1783152097715849000,2.413848876953125,-0.2406768798828125,1.2638702392578125,-0.2816162109375
1783152097725553700,2.4235537109375,-0.2999267578125,1.191192626953125,-0.2229766845703125
1783152097735258000,2.433258056640625,-0.36590576171875,1.119720458984375,-0.181427001953125
1783152097744962800,2.442962890625,-0.4361419677734375,1.0409088134765625,-0.1557769775390625
1783152097754698000,2.452697998046875,-0.4905242919921875,0.9694366455078125,-0.132568359375
1783152097764402400,2.46240234375,-0.51190185546875,0.9327850341796875,-0.098358154296875
1783152097774107100,2.472107177734375,-0.5076141357421875,0.9602813720703125,-0.0555877685546875
1783152097783811600,2.4818115234375,-0.4996795654296875,1.0091400146484375,-0.0171051025390625
1783152097793516300,2.491516357421875,-0.5063934326171875,0.9951019287109375,-0.0067138671875
1783152097803251500,2.50125146484375,-0.5296173095703125,0.8991851806640625,-0.0415496826171875
1783152097812956000,2.510955810546875,-0.561370849609375,0.7434234619140625,-0.1209564208984375
1783152097822660600,2.52066064453125,-0.6053619384765625,0.5424346923828125,-0.2321319580078125
1783152097832365000,2.530364990234375,-0.6719512939453125,0.3109130859375,-0.36102294921875
1783152097842100200,2.540100341796875,-0.7599029541015625,0.08123779296875,-0.49420166015625
1783152097851805000,2.549804931640625,-0.842376708984375,-0.0885772705078125,-0.616363525390625
1783152097861509400,2.55950927734375,-0.8924713134765625,-0.1588287353515625,-0.711669921875
1783152097871244500,2.56924462890625,-0.908966064453125,-0.106292724609375,-0.7581024169921875
1783152097880979700,2.578979736328125,-0.902862548828125,0.056793212890625,-0.7299957275390625
1783152097890684200,2.58868408203125,-0.8765869140625,0.271820068359375,-0.6194305419921875
1783152097910093300,2.60809326171875,-0.7904510498046875,0.5076141357421875,-0.2009735107421875
1783152097919798000,2.617798095703125,-0.7623443603515625,0.4532470703125,0.0665740966796875
1783152097929533200,2.627533203125,-0.7525787353515625,0.3231353759765625,0.3481903076171875
1783152097939237600,2.637237548828125,-0.760528564453125,0.1465911865234375,0.620635986328125
1783152097948942300,2.6469423828125,-0.772735595703125,-0.0494842529296875,0.8582611083984375
1783152097958646800,2.656646728515625,-0.7880096435546875,-0.246185302734375,1.0421295166015625
1783152097968382000,2.6663818359375,-0.80450439453125,-0.422119140625,1.156982421875
1783152097978086700,2.676086669921875,-0.8271026611328125,-0.56201171875,1.194854736328125
1783152097987791000,2.685791015625,-0.8582611083984375,-0.6664581298828125,1.1514739990234375
1783152097997495800,2.695495849609375,-0.8936920166015625,-0.7238922119140625,1.0354156494140625
1783152098007230700,2.705230712890625,-0.920562744140625,-0.7324371337890625,0.8631439208984375
1783152098016935400,2.714935302734375,-0.94439697265625,-0.7006683349609375,0.6426239013671875
1783152098026640100,2.72464013671875,-0.9737091064453125,-0.6346893310546875,0.3854522705078125
1783152098036344600,2.734344482421875,-1.009765625,-0.5461273193359375,0.1111602783203125
1783152098046079700,2.744079833984375,-1.0445709228515625,-0.4544830322265625,-0.1539459228515625
1783152098055784200,2.7537841796875,-1.0696258544921875,-0.3701934814453125,-0.387908935546875
1783152098065489000,2.763489013671875,-1.0800018310546875,-0.3017730712890625,-0.5803375244140625
1783152098075193600,2.773193603515625,-1.0769500732421875,-0.2651214599609375,-0.7318267822265625
1783152098094633200,2.79263330078125,-1.0103607177734375,-0.307891845703125,-0.91876220703125
1783152098104337700,2.802337646484375,-0.93829345703125,-0.3426971435546875,-0.9541778564453125
1783152098114042400,2.81204248046875,-0.844207763671875,-0.3738555908203125,-0.9572296142578125
1783152098123746800,2.821746826171875,-0.7244720458984375,-0.4092864990234375,-0.93157958984375
1783152098133482000,2.83148193359375,-0.58154296875,-0.4465484619140625,-0.8808746337890625
1783152098143186700,2.841186767578125,-0.4282073974609375,-0.464263916015625,-0.8075714111328125
1783152098152891100,2.85089111328125,-0.2828216552734375,-0.4557037353515625,-0.7159423828125
1783152098162626300,2.860626220703125,-0.1588134765625,-0.4312744140625,-0.610870361328125
1783152098172361500,2.870361572265625,-0.0598602294921875,-0.391571044921875,-0.49603271484375
1783152098182066000,2.88006591796875,0.0164947509765625,-0.3463592529296875,-0.3756866455078125
1783152098191770600,2.8897705078125,0.06719970703125,-0.317657470703125,-0.2602386474609375
1783152098201475300,2.899475341796875,0.100189208984375,-0.313995361328125,-0.1612701416015625
1783152098211210200,2.909210205078125,0.1221771240234375,-0.323760986328125,-0.0806427001953125
1783152098220915000,2.9189150390625,0.137451171875,-0.3347625732421875,-0.0189361572265625
1783152098230619400,2.928619384765625,0.1484527587890625,-0.3365936279296875,0.0268707275390625
1783152098240324000,2.938323974609375,0.1600494384765625,-0.3359832763671875,0.0610809326171875
1783152098250028800,2.94802880859375,0.171661376953125,-0.35675048828125,0.08245849609375
1783152098259763700,2.957763671875,0.179595947265625,-0.401947021484375,0.08917236328125
1783152098269468400,2.967468505859375,0.182037353515625,-0.458770751953125,0.07635498046875
1783152098279172900,2.9771728515625,0.175323486328125,-0.5186309814453125,0.041534423828125
1783152098288877600,2.986877685546875,0.1649322509765625,-0.5662689208984375,-0.0054931640625
1783152098298612700,2.99661279296875,0.1521148681640625,-0.5943756103515625,-0.0561981201171875
1783152098308317200,3.006317138671875,0.14111328125,-0.611480712890625,-0.103240966796875
1783152098318022000,3.01602197265625,0.1252288818359375,-0.613922119140625,-0.1417236328125
1783152098327726300,3.025726318359375,0.100189208984375,-0.598663330078125,-0.1600494384765625
1783152098337461500,3.03546142578125,0.06658935546875,-0.5711669921875,-0.1502685546875
1783152098347166200,3.045166259765625,0.028106689453125,-0.538787841796875,-0.1105804443359375
1783152098356870700,3.05487060546875,-0.0079193115234375,-0.49664306640625,-0.0415496826171875
1783152098366575400,3.064575439453125,-0.0378570556640625,-0.452667236328125,0.049468994140625
1783152098376279800,3.07427978515625,-0.0604705810546875,-0.4123382568359375,0.158203125
1783152098395719700,3.0937197265625,-0.110565185546875,-0.385467529296875,0.37261962890625
1783152098405424000,3.103424072265625,-0.1423187255859375,-0.391571044921875,0.4605865478515625
1783152098415128800,3.11312890625,-0.1716461181640625,-0.386688232421875,0.5308380126953125
1783152098424864000,3.122864013671875,-0.193634033203125,-0.35064697265625,0.5894775390625
1783152098434568400,3.132568359375,-0.2082977294921875,-0.276123046875,0.6450653076171875
1783152098444303600,3.1423037109375,-0.22418212890625,-0.2003631591796875,0.697601318359375
1783152098454008000,3.152008056640625,-0.2425079345703125,-0.1576080322265625,0.7427978515625
1783152098463743200,3.1617431640625,-0.263885498046875,-0.1490478515625,0.7764129638671875
1783152098473448000,3.171447998046875,-0.2901458740234375,-0.1624908447265625,0.80023193359375
1783152098483152400,3.18115234375,-0.3194732666015625,-0.1881561279296875,0.81365966796875
1783152098492857000,3.190857177734375,-0.3512420654296875,-0.2309112548828125,0.81243896484375
1783152098502561500,3.2005615234375,-0.37872314453125,-0.2816162109375,0.7916717529296875
1783152098512296700,3.210296630859375,-0.400115966796875,-0.326812744140625,0.7483062744140625
1783152098522001400,3.22000146484375,-0.414764404296875,-0.35919189453125,0.6859893798828125
1783152098531705900,3.229705810546875,-0.4233245849609375,-0.35797119140625,0.615753173828125
1783152098541410600,3.23941064453125,-0.4337005615234375,-0.315216064453125,0.5430450439453125
1783152098551145700,3.249145751953125,-0.4502105712890625,-0.248016357421875,0.472198486328125
1783152098560850200,3.25885009765625,-0.4666900634765625,-0.177764892578125,0.4031524658203125
1783152098570555000,3.268554931640625,-0.4727935791015625,-0.1264495849609375,0.337799072265625
1783152098580259300,3.27825927734375,-0.4636383056640625,-0.0879669189453125,0.2816009521484375
1783152098589994500,3.287994384765625,-0.4361419677734375,-0.0531463623046875,0.2449493408203125
1783152098599699200,3.29769921875,-0.400115966796875,-0.034210205078125,0.22601318359375
1783152098609403600,3.307403564453125,-0.36651611328125,-0.06170654296875,0.2070770263671875
1783152098619108400,3.3171083984375,-0.3481903076171875,-0.1539459228515625,0.159423828125
1783152098628843300,3.32684326171875,-0.3506317138671875,-0.315826416015625,0.052520751953125
1783152098638548000,3.3365478515625,-0.38360595703125,-0.540618896484375,-0.1337890625
1783152098648252700,3.346252685546875,-0.4269866943359375,-0.752593994140625,-0.395233154296875
1783152098657957000,3.35595703125,-0.4422607421875,-0.8393402099609375,-0.6896820068359375
1783152098667661800,3.365661865234375,-0.402557373046875,-0.7360992431640625,-0.9572296142578125
1783152098677396700,3.375396728515625,-0.3109130859375,-0.4557037353515625,-1.149658203125
1783152098687101400,3.385101318359375,-0.182647705078125,-0.0879669189453125,-1.2412872314453125
1783152098696806100,3.39480615234375,-0.0329742431640625,0.23760986328125,-1.2290802001953125
1783152098706510600,3.404510498046875,0.1197357177734375,0.4324798583984375,-1.1246185302734375
1783152098716245800,3.414245849609375,0.27734375,0.475250244140625,-0.9450225830078125
1783152098725950200,3.4239501953125,0.4373779296875,0.400115966796875,-0.706787109375
1783152098735685400,3.433685302734375,0.5876617431640625,0.274261474609375,-0.4331207275390625
1783152098745390000,3.44339013671875,0.7226715087890625,0.149658203125,-0.1612701416015625
1783152098755125000,3.453125,0.8356781005859375,0.0390777587890625,0.0732879638671875
1783152098764829700,3.46282958984375,0.92974853515625,-0.0561981201171875,0.2528839111328125
1783152098774534400,3.472534423828125,1.00732421875,-0.1258392333984375,0.37628173828125
1783152098784238800,3.48223876953125,1.07208251953125,-0.1576080322265625,0.4434814453125
1783152098793974000,3.49197412109375,1.1227874755859375,-0.1557769775390625,0.4618072509765625
1783152098803678500,3.501678466796875,1.1612701416015625,-0.142333984375,0.4385833740234375
1783152098813383200,3.511383056640625,1.186309814453125,-0.1221771240234375,0.3891143798828125
1783152098823087900,3.521087890625,1.191802978515625,-0.100189208984375,0.332305908203125
1783152098832792300,3.530792236328125,1.1685943603515625,-0.0891876220703125,0.2736663818359375
1783152098842527500,3.540527587890625,1.112396240234375,-0.099578857421875,0.202789306640625
1783152098852232000,3.55023193359375,1.0262603759765625,-0.1118011474609375,0.1172637939453125
1783152098861936600,3.5599365234375,0.92364501953125,-0.108123779296875,0.0244293212890625
1783152098871641300,3.569641357421875,0.8094024658203125,-0.0843048095703125,-0.07025146484375
1783152098881376300,3.579376220703125,0.686004638671875,-0.042144775390625,-0.1685943603515625
1783152098891081000,3.5890810546875,0.5558929443359375,0.015869140625,-0.2675628662109375
1783152098900785400,3.598785400390625,0.42333984375,0.08673095703125,-0.35491943359375
1783152098910490000,3.608489990234375,0.3005523681640625,0.1563720703125,-0.4227142333984375
1783152098920225300,3.618225341796875,0.20587158203125,0.2192840576171875,-0.4709930419921875
1783152098929929700,3.6279296875,0.1496734619140625,0.2852630615234375,-0.50335693359375
1783152098939634400,3.637634521484375,0.1307220458984375,0.3530731201171875,-0.5192413330078125
1783152098949339000,3.6473388671875,0.138671875,0.4196624755859375,-0.5204620361328125
1783152098959043600,3.657043701171875,0.1618804931640625,0.478302001953125,-0.5119171142578125
1783152098968778800,3.66677880859375,0.1948699951171875,0.51861572265625,-0.49481201171875
1783152098978483200,3.676483154296875,0.2315216064453125,0.52716064453125,-0.4709930419921875
1783152098988188000,3.68618798828125,0.2614593505859375,0.4978485107421875,-0.4428863525390625
1783152098997892400,3.695892333984375,0.2816162109375,0.4361419677734375,-0.4098968505859375
1783152099007627500,3.70562744140625,0.2913818359375,0.3573455810546875,-0.3701934814453125
1783152099017362700,3.71536279296875,0.2901611328125,0.277923583984375,-0.3286590576171875
1783152099027067100,3.725067138671875,0.2840576171875,0.2144012451171875,-0.2950439453125
1783152099036771800,3.734771728515625,0.28466796875,0.1679840087890625,-0.2816162109375
1783152099046507000,3.744507080078125,0.3121490478515625,0.131927490234375,-0.2932281494140625
1783152099056211500,3.75421142578125,0.36102294921875,0.1056671142578125,-0.3298797607421875
1783152099065916200,3.763916259765625,0.4178314208984375,0.09527587890625,-0.383026123046875
1783152099075620600,3.77362060546875,0.464263916015625,0.08978271484375,-0.4434967041015625
1783152099085325300,3.7833251953125,0.49237060546875,0.09161376953125,-0.49725341796875
1783152099095060500,3.793060546875,0.50701904296875,0.111785888671875,-0.528411865234375
1783152099104765000,3.802764892578125,0.5149688720703125,0.1423187255859375,-0.533905029296875
1783152099114469600,3.8124697265625,0.5222930908203125,0.16064453125,-0.5174102783203125
1783152099124174000,3.822174072265625,0.532073974609375,0.1753082275390625,-0.4777069091796875
1783152099133909200,3.8319091796875,0.545501708984375,0.201568603515625,-0.4111175537109375
1783152099143614000,3.841614013671875,0.560791015625,0.23150634765625,-0.323760986328125
1783152099153318400,3.851318359375,0.5778961181640625,0.2547149658203125,-0.2278594970703125
1783152099163023000,3.861023193359375,0.595001220703125,0.275482177734375,-0.1295013427734375
1783152099172758300,3.87075830078125,0.609039306640625,0.276702880859375,-0.032989501953125
1783152099182462700,3.880462646484375,0.6182098388671875,0.23455810546875,0.052520751953125
1783152099192167400,3.89016748046875,0.6304168701171875,0.1649169921875,0.123992919921875
1783152099201872000,3.899871826171875,0.65179443359375,0.0983428955078125,0.1808013916015625
1783152099211607000,3.90960693359375,0.675628662109375,0.0384674072265625,0.22479248046875
1783152099221311700,3.919311767578125,0.6963958740234375,0.0018157958984375,0.256561279296875
1783152099231016200,3.92901611328125,0.7073822021484375,0.01708984375,0.2828216552734375
1783152099240721000,3.938720947265625,0.70556640625,0.0653533935546875,0.300537109375
1783152099250455800,3.948455810546875,0.6921234130859375,0.119110107421875,0.302978515625
1783152099260160500,3.958160400390625,0.673187255859375,0.16064453125,0.2901458740234375
1783152099269865200,3.967865234375,0.65301513671875,0.1771392822265625,0.266937255859375
1783152099279569700,3.977569580078125,0.6273651123046875,0.1746978759765625,0.23394775390625
1783152099289274400,3.9872744140625,0.5888824462890625,0.1551513671875,0.194854736328125
1783152099299009300,3.99700927734375,0.540008544921875,0.130706787109375,0.1551513671875
1783152099308744400,4.006744384765625,0.48931884765625,0.1160430908203125,0.120330810546875
1783152099318449200,4.01644921875,0.4532623291015625,0.1148223876953125,0.0946807861328125
1783152099328153600,4.026153564453125,0.4410400390625,0.125213623046875,0.07757568359375
1783152099337888800,4.035888671875,0.4459381103515625,0.1423187255859375,0.0598602294921875
1783152099347593500,4.045593505859375,0.452667236328125,0.1679840087890625,0.0421295166015625
1783152099357298000,4.0552978515625,0.456329345703125,0.2101287841796875,0.0354156494140625
1783152099367002600,4.065002685546875,0.453887939453125,0.266937255859375,0.051300048828125
1783152099376737800,4.07473779296875,0.4428863525390625,0.333526611328125,0.09100341796875
1783152099386442200,4.084442138671875,0.42578125,0.3970489501953125,0.156982421875
1783152099396147000,4.09414697265625,0.3989105224609375,0.4263763427734375,0.23577880859375
1783152099405851400,4.103851318359375,0.36041259765625,0.3872833251953125,0.3011474609375
1783152099415556000,4.11355615234375,0.306671142578125,0.276702880859375,0.338409423828125
1783152099425291000,4.123291015625,0.2327423095703125,0.1349945068359375,0.3524627685546875
1783152099434995700,4.13299560546875,0.137451171875,-0.0042724609375,0.3494110107421875
1783152099444700400,4.142700439453125,0.031158447265625,-0.1227874755859375,0.335968017578125
1783152099454404900,4.15240478515625,-0.0702362060546875,-0.1918182373046875,0.3219146728515625
1783152099464140000,4.16214013671875,-0.1551513671875,-0.1661529541015625,0.3200836181640625
1783152099473844500,4.171844482421875,-0.2192840576171875,-0.027496337890625,0.344512939453125
1783152099483549200,4.181549072265625,-0.262054443359375,0.194854736328125,0.3964385986328125
1783152099493254000,4.19125390625,-0.2724456787109375,0.4569091796875,0.476470947265625
1783152099502988800,4.20098876953125,-0.257781982421875,0.692718505859375,0.5729827880859375
1783152099512693500,4.210693603515625,-0.23333740234375,0.847259521484375,0.6756134033203125
1783152099522398000,4.22039794921875,-0.2040252685546875,0.910186767578125,0.7825164794921875
1783152099532102700,4.2301025390625,-0.1685791015625,0.8961334228515625,0.8894195556640625
1783152099541807400,4.239807373046875,-0.119110107421875,0.8228302001953125,0.990814208984375
1783152099551542300,4.249542236328125,-0.0623016357421875,0.7195892333984375,1.08734130859375
1783152099561247000,4.2592470703125,-0.0152587890625,0.6047515869140625,1.1783599853515625
1783152099570951400,4.268951416015625,0.0085601806640625,0.4605865478515625,1.2516632080078125
1783152099580656000,4.27865625,0.0140533447265625,0.2816009521484375,1.2907562255859375
1783152099590391300,4.288391357421875,0.0116119384765625,0.08551025390625,1.2895355224609375
1783152099600126500,4.29812646484375,0.0054931640625,-0.1252288818359375,1.2461700439453125
1783152099609831000,4.307830810546875,0.0079345703125,-0.326812744140625,1.1673583984375
1783152099619535600,4.31753564453125,0.029327392578125,-0.4850311279296875,1.064117431640625
1783152099629270500,4.3272705078125,0.06964111328125,-0.5919342041015625,0.9413299560546875
1783152099638975200,4.336975341796875,0.109344482421875,-0.6548614501953125,0.80084228515625
1783152099648679700,4.3466796875,0.1252288818359375,-0.686614990234375,0.6383514404296875
1783152099658384400,4.35638427734375,0.107513427734375,-0.6951751708984375,0.4556884765625
1783152099668119600,4.36611962890625,0.06842041015625,-0.675628662109375,0.263885498046875
1783152099677824000,4.375823974609375,0.0171051025390625,-0.64813232421875,0.0610809326171875
1783152099687528700,4.38552880859375,-0.043365478515625,-0.6346893310546875,-0.1637115478515625
1783152099697233200,4.395233154296875,-0.09893798828125,-0.5968170166015625,-0.397064208984375
1783152099706937900,4.404937744140625,-0.1453704833984375,-0.469146728515625,-0.6237030029296875
1783152099716673000,4.414673095703125,-0.1820220947265625,-0.2321319580078125,-0.824676513671875
1783152099726377500,4.42437744140625,-0.2046356201171875,0.08795166015625,-0.9914398193359375
1783152099736082200,4.434082275390625,-0.2034149169921875,0.412322998046875,-1.115447998046875
1783152099745786600,4.44378662109375,-0.1710357666015625,0.695159912109375,-1.2003631591796875
1783152099755521800,4.453521728515625,-0.1093292236328125,0.9315643310546875,-1.263885498046875
1783152099765226500,4.4632265625,-0.015869140625,1.08856201171875,-1.317657470703125
1783152099774931000,4.472930908203125,0.109954833984375,1.15576171875,-1.36102294921875
1783152099784635600,4.4826357421875,0.2632904052734375,1.1398773193359375,-1.3836212158203125
1783152099794370800,4.492370849609375,0.419677734375,1.050079345703125,-1.3756866455078125
1783152099813780000,4.511780029296875,0.6554718017578125,0.764190673828125,-1.2321319580078125
1783152099823484400,4.521484375,0.7354888916015625,0.623687744140625,-1.100189208984375
1783152099833219600,4.531219482421875,0.79534912109375,0.480133056640625,-0.9511260986328125
1783152099842924300,4.54092431640625,0.8356781005859375,0.3500213623046875,-0.8045196533203125
1783152099852628700,4.550628662109375,0.8521575927734375,0.2437286376953125,-0.675628662109375
1783152099862333400,4.56033349609375,0.850341796875,0.1502532958984375,-0.5772705078125
1783152099872068400,4.570068359375,0.8356781005859375,0.0690155029296875,-0.5210723876953125
1783152099881803500,4.579803466796875,0.8124542236328125,0.0030364990234375,-0.50213623046875
1783152099891508200,4.58950830078125,0.78985595703125,-0.038482666015625,-0.50213623046875
1783152099901212700,4.599212646484375,0.7745819091796875,-0.0568084716796875,-0.49847412109375
1783152099910917400,4.60891748046875,0.77398681640625,-0.0555877685546875,-0.4795379638671875
1783152099920652500,4.618652587890625,0.78619384765625,-0.0433807373046875,-0.4422760009765625
1783152099930357000,4.62835693359375,0.8002471923828125,-0.034820556640625,-0.393402099609375
1783152099940061700,4.638061767578125,0.8051300048828125,-0.037261962890625,-0.3390350341796875
1783152099949766100,4.64776611328125,0.7971954345703125,-0.042144775390625,-0.28466796875
1783152099959501300,4.657501220703125,0.7727508544921875,-0.0507049560546875,-0.2370147705078125
1783152099969206000,4.6672060546875,0.7293701171875,-0.0592498779296875,-0.2003631591796875
1783152099978910500,4.676910400390625,0.671356201171875,-0.0482635498046875,-0.171051025390625
1783152099988615200,4.686615234375,0.607818603515625,-0.0073394775390625,-0.1441650390625
1783152099998319600,4.696319580078125,0.5491790771484375,0.051300048828125,-0.1246185302734375
1783152100008054800,4.7060546875,0.50762939453125,0.120330810546875,-0.111175537109375
1783152100017759500,4.715759521484375,0.49298095703125,0.197296142578125,-0.107513427734375
1783152100027464000,4.7254638671875,0.50762939453125,0.2870941162109375,-0.106903076171875
1783152100037168600,4.735168701171875,0.5436859130859375,0.37567138671875,-0.108123779296875
1783152100046903800,4.74490380859375,0.5931549072265625,0.4300384521484375,-0.1118011474609375
1783152100056608300,4.754608154296875,0.64752197265625,0.4569091796875,-0.1179046630859375
1783152100066313000,4.76431298828125,0.7018890380859375,0.4636383056640625,-0.1179046630859375
1783152100076017400,4.774017333984375,0.748321533203125,0.4447021484375,-0.108123779296875
1783152100085752600,4.783752685546875,0.78375244140625,0.3994903564453125,-0.0843048095703125
1783152100095457000,4.79345703125,0.8069610595703125,0.336578369140625,-0.0452117919921875
1783152100105161700,4.80316162109375,0.817962646484375,0.266937255859375,0.0079193115234375
1783152100114866400,4.812866455078125,0.821014404296875,0.2052459716796875,0.0671844482421875
1783152100124571000,4.82257080078125,0.818572998046875,0.1435394287109375,0.119720458984375
1783152100134306000,4.83230615234375,0.815521240234375,0.08795166015625,0.1612548828125
1783152100144010500,4.842010498046875,0.823455810546875,0.048248291015625,0.197906494140625
1783152100153715200,4.851715087890625,0.8436126708984375,0.0189208984375,0.23577880859375
1783152100163450400,4.861450439453125,0.8802642822265625,0.0054779052734375,0.275482177734375
1783152100173185500,4.871185546875,0.93280029296875,-0.0103912353515625,0.3078765869140625
1783152100182890000,4.880889892578125,0.9877777099609375,-0.06658935546875,0.3237457275390625
1783152100192594700,4.8905947265625,1.037872314453125,-0.174102783203125,0.3139801025390625
1783152100202299100,4.900299072265625,1.07818603515625,-0.35797119140625,0.2748870849609375
1783152100212034300,4.910034423828125,1.0855255126953125,-0.63714599609375,0.185089111328125
1783152100221739000,4.919739013671875,1.0629119873046875,-0.9547882080078125,0.053741455078125
1783152100231443500,4.929443359375,1.044586181640625,-1.1631011962890625,-0.0830841064453125
1783152100241148200,4.939148193359375,1.0476531982421875,-1.1985321044921875,-0.1887664794921875
1783152100250883000,4.948883056640625,1.0653533935546875,-1.07757568359375,-0.2370147705078125
1783152100260587800,4.958587890625,1.08245849609375,-0.8466644287109375,-0.21868896484375
1783152100270292200,4.968292236328125,1.0965118408203125,-0.5815582275390625,-0.1502685546875
1783152100279997000,4.977996826171875,1.113006591796875,-0.3420867919921875,-0.0513153076171875
1783152100289701600,4.98770166015625,1.1331634521484375,-0.1405029296875,0.08612060546875
1783152100299436500,4.9974365234375,1.1343841552734375,0.0146484375,0.2583770751953125
1783152100309141200,5.007141357421875,1.102630615234375,0.121551513671875,0.4483642578125
1783152100318845700,5.016845703125,1.044586181640625,0.199127197265625,0.6450653076171875
1783152100328550400,5.02655029296875,0.9883880615234375,0.2382354736328125,0.8277130126953125
1783152100338285600,5.03628564453125,0.9523468017578125,0.2144012451171875,0.9706573486328125
1783152100347990000,5.045989990234375,0.93524169921875,0.1673583984375,1.0494537353515625
1783152100367399200,5.065399169921875,0.970062255859375,0.1698150634765625,1.0091400146484375
1783152100377134300,5.07513427734375,1.0152587890625,0.198516845703125,0.93829345703125
1783152100386839000,5.084839111328125,1.07147216796875,0.2076873779296875,0.8716888427734375
1783152100396543500,5.09454345703125,1.1203460693359375,0.1746978759765625,0.8222198486328125
1783152100406248200,5.104248291015625,1.1356048583984375,0.0995635986328125,0.7904510498046875
1783152100415983400,5.1139833984375,1.105682373046875,0.0054779052734375,0.7751922607421875
1783152100425687800,5.123687744140625,1.031768798828125,-0.0836944580078125,0.764801025390625
1783152100435392500,5.133392578125,0.9138641357421875,-0.1624908447265625,0.7427978515625
1783152100445127700,5.143127685546875,0.7672576904296875,-0.2364044189453125,0.699432373046875
1783152100464567300,5.1625673828125,0.4227142333984375,-0.4074554443359375,0.4990692138671875
1783152100474271700,5.172271728515625,0.2241973876953125,-0.5198516845703125,0.3188629150390625
1783152100483976400,5.1819765625,0.035430908203125,-0.56689453125,0.0995635986328125
1783152100493681000,5.191680908203125,-0.124603271484375,-0.4770965576171875,-0.13623046875
1783152100503416000,5.201416015625,-0.2492218017578125,-0.2412872314453125,-0.35003662109375
1783152100513120800,5.211120849609375,-0.3219146728515625,0.128265380859375,-0.50335693359375
1783152100522825200,5.2208251953125,-0.3280181884765625,0.580322265625,-0.5907135009765625
1783152100532530000,5.230530029296875,-0.271820068359375,1.0262451171875,-0.64141845703125
1783152100542265000,5.24026513671875,-0.1643218994140625,1.3732147216796875,-0.6939544677734375
1783152100551969500,5.249969482421875,-0.0341949462890625,1.561981201171875,-0.754425048828125
1783152100571378700,5.269378662109375,0.252899169921875,1.6731719970703125,-0.8570556640625
1783152100581113900,5.27911376953125,0.385467529296875,1.645660400390625,-0.898590087890625
1783152100590818600,5.288818603515625,0.49908447265625,1.5729827880859375,-0.93402099609375
1783152100600523000,5.29852294921875,0.604156494140625,1.4642486572265625,-0.963348388671875
1783152100610227700,5.308227783203125,0.7318267822265625,1.3188629150390625,-0.975555419921875
1783152100619932200,5.31793212890625,0.9053192138671875,1.1392669677734375,-0.964569091796875
1783152100629667300,5.327667236328125,1.113006591796875,0.9327850341796875,-0.9395294189453125
1783152100639372000,5.3373720703125,1.326202392578125,0.699432373046875,-0.9028778076171875
1783152100649076500,5.347076416015625,1.533294677734375,0.4642486572265625,-0.8497161865234375
1783152100658781200,5.35678125,1.7275390625,0.2443389892578125,-0.7794647216796875
1783152100678220800,5.376220703125,2.003662109375,-0.1233978271484375,-0.6121063232421875
1783152100687925500,5.385925537109375,2.043365478515625,-0.2229766845703125,-0.534515380859375
1783152100697630000,5.3956298828125,2.0067138671875,-0.251678466796875,-0.462432861328125
1783152100707365000,5.405365234375,1.902862548828125,-0.22174072265625,-0.395843505859375
1783152100717069600,5.415069580078125,1.760528564453125,-0.163116455078125,-0.3317108154296875
1783152100726774300,5.424774169921875,1.612091064453125,-0.0824737548828125,-0.2718353271484375
1783152100736509400,5.434509521484375,1.4868621826171875,0.006103515625,-0.2339630126953125
1783152100746214000,5.4442138671875,1.4056243896484375,0.0946807861328125,-0.2364044189453125
1783152100755949000,5.453948974609375,1.37200927734375,0.190582275390625,-0.281005859375
1783152100765653800,5.46365380859375,1.3781280517578125,0.298095703125,-0.35675048828125
1783152100775358200,5.473358154296875,1.4129486083984375,0.4019317626953125,-0.4441070556640625
1783152100785063000,5.48306298828125,1.465484619140625,0.477081298828125,-0.526580810546875
1783152100794798000,5.492798095703125,1.5277862548828125,0.5009002685546875,-0.597442626953125
1783152100804502500,5.50250244140625,1.5913238525390625,0.4691314697265625,-0.65301513671875
1783152100814207200,5.512207275390625,1.64019775390625,0.410491943359375,-0.682342529296875
1783152100823911700,5.52191162109375,1.64752197265625,0.3628387451171875,-0.686614990234375
1783152100833646800,5.531646728515625,1.5949859619140625,0.3225250244140625,-0.675018310546875
1783152100843351600,5.5413515625,1.4960174560546875,0.300537109375,-0.6548614501953125
1783152100853056000,5.551055908203125,1.36834716796875,0.3011474609375,-0.6322479248046875
1783152100862760700,5.5607607421875,1.2345733642578125,0.3170318603515625,-0.606597900390625
1783152100872465200,5.570465087890625,1.113616943359375,0.3555145263671875,-0.5803375244140625
1783152100882200300,5.580200439453125,1.0256500244140625,0.411712646484375,-0.5534515380859375
1783152100891905000,5.589905029296875,0.974945068359375,0.481964111328125,-0.532073974609375
1783152100901609500,5.599609375,0.9547882080078125,0.547332763671875,-0.5180206298828125
1783152100911314200,5.609314208984375,0.956634521484375,0.5962066650390625,-0.5125274658203125
1783152100921049000,5.619049072265625,0.967620849609375,0.6365203857421875,-0.50579833984375
1783152100930753800,5.62875390625,0.9780120849609375,0.66400146484375,-0.4825897216796875
1783152100940458200,5.638458251953125,0.9835052490234375,0.6865997314453125,-0.4331207275390625
1783152100950163000,5.648162841796875,0.9841156005859375,0.7159271240234375,-0.36224365234375
1783152100959898000,5.657898193359375,0.9774017333984375,0.7318115234375,-0.2803955078125
1783152100969602600,5.6676025390625,0.963348388671875,0.7446441650390625,-0.1893768310546875
1783152100979307300,5.677307373046875,0.9511260986328125,0.7751922607421875,-0.099578857421875
1783152100989011700,5.68701171875,0.9547882080078125,0.80084228515625,-0.0140533447265625
1783152100998747000,5.696746826171875,0.9877777099609375,0.80938720703125,0.0677947998046875
1783152101008451600,5.70645166015625,1.0464324951171875,0.80572509765625,0.1404876708984375
1783152101018186800,5.716186767578125,1.1246185302734375,0.7953338623046875,0.202178955078125
1783152101027891200,5.72589111328125,1.2229766845703125,0.7898406982421875,0.2528839111328125
1783152101037596000,5.735595947265625,1.327423095703125,0.7819061279296875,0.2913665771484375
1783152101047330800,5.745330810546875,1.4141693115234375,0.7208099365234375,0.3096923828125
1783152101057035500,5.755035400390625,1.475250244140625,0.563812255859375,0.302978515625
1783152101066740200,5.764740234375,1.5174102783203125,0.2846527099609375,0.259002685546875
1783152101076444700,5.774444580078125,1.544281005859375,-0.0549774169921875,0.1801910400390625
1783152101086179800,5.784179931640625,1.549774169921875,-0.2944488525390625,0.1050567626953125
1783152101095884300,5.79388427734375,1.5314483642578125,-0.325592041015625,0.08673095703125
1783152101105589000,5.803589111328125,1.50335693359375,-0.1441650390625,0.147216796875
1783152101115293700,5.813293701171875,1.467926025390625,0.196075439453125,0.266937255859375
1783152101125028600,5.823028564453125,1.4361572265625,0.5821380615234375,0.3939971923828125
1783152101144437800,5.842437744140625,1.4434814453125,1.0482330322265625,0.51922607421875
1783152101163877600,5.861877685546875,1.537567138671875,1.0457916259765625,0.51129150390625
1783152101183286800,5.881286865234375,1.6359100341796875,0.692108154296875,0.4575347900390625
1783152101192991200,5.8909912109375,1.683563232421875,0.421478271484375,0.43798828125
1783152101202696000,5.900696044921875,1.7415924072265625,0.1728668212890625,0.4398040771484375
1783152101212431000,5.91043115234375,1.8008575439453125,-0.0476531982421875,0.4660797119140625
1783152101222135600,5.920135498046875,1.8503265380859375,-0.2327423095703125,0.5070037841796875
1783152101231840300,5.92984033203125,1.8845367431640625,-0.34942626953125,0.553436279296875
1783152101241544700,5.939544677734375,1.8912506103515625,-0.4123382568359375,0.5943603515625
1783152101251280000,5.94927978515625,1.8692626953125,-0.4331207275390625,0.620635986328125
1783152101260984600,5.958984619140625,1.8234405517578125,-0.4062347412109375,0.620025634765625
1783152101270689000,5.96868896484375,1.761749267578125,-0.3396453857421875,0.58154296875
1783152101280393700,5.978393798828125,1.6915130615234375,-0.2248077392578125,0.5039520263671875
1783152101290129000,5.98812890625,1.6273651123046875,-0.0488739013671875,0.3897247314453125
1783152101299833300,5.997833251953125,1.583984375,0.196685791015625,0.2498321533203125
1783152101309568500,6.007568603515625,1.5638275146484375,0.4996795654296875,0.09222412109375
1783152101319273000,6.01727294921875,1.5613861083984375,0.8222198486328125,-0.0812530517578125
1783152101328977700,6.026977783203125,1.57421875,1.119720458984375,-0.260833740234375
1783152101338712800,6.036712890625,1.603546142578125,1.3542938232421875,-0.431884765625
1783152101348417300,6.046417236328125,1.6456756591796875,1.5039520263671875,-0.5803375244140625
1783152101358122000,6.0561220703125,1.6915130615234375,1.5992431640625,-0.7080078125
1783152101367826400,6.065826416015625,1.7379302978515625,1.6566619873046875,-0.8124542236328125
1783152101377561600,6.0755615234375,1.79290771484375,1.6792755126953125,-0.8839263916015625
1783152101387266300,6.085266357421875,1.8582763671875,1.66766357421875,-0.9230194091796875
1783152101396970800,6.094970703125,1.92730712890625,1.6181793212890625,-0.93218994140625
1783152101406675500,6.104675537109375,1.9920501708984375,1.5155487060546875,-0.9181365966796875
1783152101416410600,6.11441064453125,2.051910400390625,1.3640594482421875,-0.883331298828125
1783152101426115000,6.124114990234375,2.112396240234375,1.1820220947265625,-0.8332366943359375
1783152101435819800,6.13381982421875,2.1789703369140625,0.976165771484375,-0.7684783935546875
1783152101445524200,6.143524169921875,2.255950927734375,0.7800750732421875,-0.6902923583984375
1783152101455229000,6.15322900390625,2.337799072265625,0.635894775390625,-0.608428955078125
1783152101464964000,6.162964111328125,2.4141693115234375,0.5265655517578125,-0.529022216796875
1783152101474668500,6.17266845703125,2.475250244140625,0.4324798583984375,-0.451446533203125
1783152101484373200,6.182373291015625,2.51861572265625,0.3512420654296875,-0.3701934814453125
1783152101494077700,6.19207763671875,2.5387725830078125,0.29931640625,-0.2852783203125
1783152101503812900,6.201812744140625,2.5351104736328125,0.2846527099609375,-0.1954803466796875
1783152101513517600,6.211517578125,2.51068115234375,0.3182525634765625,-0.109344482421875
1783152101523222000,6.221221923828125,2.472808837890625,0.3860626220703125,-0.034210205078125
1783152101532926700,6.2309267578125,2.4312744140625,0.470977783203125,0.0219879150390625
1783152101542661600,6.24066162109375,2.397064208984375,0.5699310302734375,0.049468994140625
1783152101552366300,6.250366455078125,2.36834716796875,0.66217041015625,0.043975830078125
1783152101562071000,6.260071044921875,2.3414764404296875,0.7379150390625,0.006103515625
1783152101571775500,6.269775390625,2.3164215087890625,0.80084228515625,-0.0488739013671875
1783152101581510700,6.2795107421875,2.29443359375,0.846038818359375,-0.106292724609375
1783152101591245800,6.289245849609375,2.271209716796875,0.8527679443359375,-0.1582183837890625
1783152101600950300,6.2989501953125,2.2467803955078125,0.8173370361328125,-0.1918182373046875
1783152101610655000,6.308655029296875,2.22296142578125,0.755645751953125,-0.1960906982421875
1783152101620390000,6.318389892578125,2.2028045654296875,0.693328857421875,-0.171661376953125
1783152101630094600,6.328094482421875,2.182037353515625,0.6383514404296875,-0.12890625
1783152101639799300,6.33779931640625,2.154541015625,0.58154296875,-0.0800323486328125
1783152101649503700,6.347503662109375,2.116668701171875,0.52349853515625,-0.035430908203125
1783152101659208400,6.35720849609375,2.07330322265625,0.475250244140625,-0.0012359619140625
1783152101668943400,6.366943359375,2.0293121337890625,0.4459228515625,0.01953125
1783152101678648000,6.37664794921875,1.9877777099609375,0.439208984375,0.0335845947265625
1783152101688352800,6.386352783203125,1.94866943359375,0.444091796875,0.041534423828125
1783152101698057200,6.39605712890625,1.910797119140625,0.4569091796875,0.043975830078125
1783152101707792400,6.40579248046875,1.872314453125,0.4727935791015625,0.043365478515625
1783152101717496800,6.415496826171875,1.834442138671875,0.480743408203125,0.043365478515625
1783152101727201500,6.425201416015625,1.79473876953125,0.476470947265625,0.043365478515625
1783152101736906200,6.43490625,1.751983642578125,0.4556884765625,0.0390777587890625
1783152101746641200,6.44464111328125,1.7073822021484375,0.43310546875,0.0311431884765625
1783152101756345900,6.454345947265625,1.6585235595703125,0.4184417724609375,0.0201416015625
1783152101766050300,6.46405029296875,1.609039306640625,0.411102294921875,0.006103515625
1783152101775755000,6.473755126953125,1.5589447021484375,0.409881591796875,-0.0097808837890625
1783152101785459700,6.483459716796875,1.5149688720703125,0.409271240234375,-0.022003173828125
1783152101795194600,6.493194580078125,1.4807586669921875,0.4263763427734375,-0.025665283203125
1783152101804899300,6.5028994140625,1.4544830322265625,0.4398040771484375,-0.026275634765625
1783152101814603800,6.512603759765625,1.4300537109375,0.417816162109375,-0.033599853515625
1783152101824308500,6.52230859375,1.4044036865234375,0.3646697998046875,-0.0568084716796875
1783152101834043600,6.532043701171875,1.3762969970703125,0.298095703125,-0.095916748046875
1783152101843748000,6.541748046875,1.3439178466796875,0.23760986328125,-0.14111328125
1783152101853452800,6.551452880859375,1.3072662353515625,0.2040252685546875,-0.182037353515625
1783152101863157200,6.5611572265625,1.2706146240234375,0.22235107421875,-0.21258544921875
1783152101872892400,6.570892333984375,1.2382354736328125,0.3078765869140625,-0.2266387939453125
1783152101882627600,6.580627685546875,1.21807861328125,0.4508056640625,-0.21929931640625
1783152101892332000,6.59033203125,1.2089080810546875,0.623687744140625,-0.1905975341796875
1783152101902036700,6.60003662109375,1.2028045654296875,0.7819061279296875,-0.1527252197265625
1783152101911741400,6.609741455078125,1.1948699951171875,0.882080078125,-0.1240081787109375
1783152101921476400,6.619476318359375,1.187530517578125,0.9058990478515625,-0.113616943359375
1783152101931181000,6.62918115234375,1.182037353515625,0.8625335693359375,-0.1166839599609375
1783152101940885500,6.638885498046875,1.1759185791015625,0.7739715576171875,-0.118499755859375
1783152101950590200,6.648590087890625,1.1692047119140625,0.66156005859375,-0.105072021484375
1783152101960325400,6.658325439453125,1.1655426025390625,0.5363311767578125,-0.07208251953125
1783152101970029800,6.66802978515625,1.1606597900390625,0.409271240234375,-0.029937744140625
1783152101979734500,6.677734619140625,1.1545562744140625,0.2925872802734375,0.009765625
1783152101989439000,6.68743896484375,1.1466064453125,0.2095184326171875,0.0396881103515625
1783152101999174100,6.697174072265625,1.1331634521484375,0.1765289306640625,0.058013916015625
1783152102008878800,6.70687890625,1.110565185546875,0.1856842041015625,0.0665740966796875
1783152102018583300,6.716583251953125,1.07879638671875,0.22296142578125,0.0696258544921875
1783152102028288000,6.7262880859375,1.038482666015625,0.277923583984375,0.0690155029296875
1783152102038023200,6.736023193359375,0.9932708740234375,0.327423095703125,0.0745086669921875
1783152102047727600,6.7457275390625,0.9572296142578125,0.3500213623046875,0.08123779296875
1783152102057432300,6.755432373046875,0.9444122314453125,0.3457489013671875,0.09283447265625
1783152102067136800,6.76513671875,0.9535675048828125,0.3200836181640625,0.115447998046875
1783152102076841500,6.774841552734375,0.968841552734375,0.2773284912109375,0.147216796875
1783152102086576600,6.78457666015625,0.972503662109375,0.22784423828125,0.183868408203125
1783152102096281000,6.794281005859375,0.964569091796875,0.191802978515625,0.22601318359375
1783152102105985800,6.80398583984375,0.9444122314453125,0.1710357666015625,0.269378662109375
1783152102115690200,6.813690185546875,0.9083709716796875,0.1453704833984375,0.3054351806640625
1783152102125425400,6.82342529296875,0.857666015625,0.0995635986328125,0.3206939697265625
1783152102135130000,6.833130126953125,0.8063507080078125,0.054962158203125,0.3158111572265625
1783152102144834600,6.84283447265625,0.7648162841796875,0.0384674072265625,0.29931640625
1783152102154539300,6.852539306640625,0.7318267822265625,0.042755126953125,0.2724456787109375
1783152102164274200,6.862274169921875,0.7024993896484375,0.054351806640625,0.24005126953125
1783152102174009300,6.87200927734375,0.679901123046875,0.09222412109375,0.2058563232421875
1783152102183714000,6.881714111328125,0.6621856689453125,0.1484375,0.1728668212890625
1783152102193418500,6.89141845703125,0.64996337890625,0.182647705078125,0.1374359130859375
1783152102203123200,6.901123291015625,0.64691162109375,0.191192626953125,0.1007843017578125
1783152102212858400,6.9108583984375,0.6524200439453125,0.197906494140625,0.0726776123046875
1783152102222562800,6.920562744140625,0.6652374267578125,0.2064666748046875,0.0604705810546875
1783152102232267500,6.930267578125,0.678680419921875,0.22418212890625,0.0659637451171875
1783152102241972000,6.939971923828125,0.6921234130859375,0.2486114501953125,0.08917236328125
1783152102251707100,6.94970703125,0.704345703125,0.2748870849609375,0.124603271484375
1783152102261411800,6.959411865234375,0.7147216796875,0.2950286865234375,0.1716461181640625
1783152102271116300,6.9691162109375,0.7214508056640625,0.3096923828125,0.22601318359375
1783152102280821000,6.978821044921875,0.7220458984375,0.3096923828125,0.2797698974609375
1783152102290556000,6.988555908203125,0.7226715087890625,0.2901458740234375,0.3255767822265625
1783152102300260600,6.998260498046875,0.7306060791015625,0.257781982421875,0.3597869873046875
1783152102309965300,7.00796533203125,0.744659423828125,0.22418212890625,0.38055419921875
1783152102319669800,7.017669677734375,0.7629852294921875,0.195465087890625,0.3958282470703125
1783152102329405000,7.027405029296875,0.78314208984375,0.1728668212890625,0.409881591796875
1783152102339109400,7.037109375,0.7984161376953125,0.152099609375,0.4172210693359375
1783152102348814000,7.04681396484375,0.8063507080078125,0.1374359130859375,0.410491943359375
1783152102358518800,7.056518798828125,0.8039093017578125,0.1392669677734375,0.3872833251953125
1783152102368223200,7.06622314453125,0.79107666015625,0.1575927734375,0.3500213623046875
1783152102377958400,7.07595849609375,0.7666473388671875,0.1844635009765625,0.302978515625
1783152102387662800,7.085662841796875,0.7360992431640625,0.2131805419921875,0.2449493408203125
1783152102397367600,7.095367431640625,0.7061614990234375,0.23760986328125,0.1808013916015625
1783152102407072300,7.105072265625,0.679901123046875,0.257781982421875,0.1172637939453125
1783152102416807200,7.11480712890625,0.6548614501953125,0.2803802490234375,0.0623016357421875
1783152102426512000,7.124511962890625,0.6298065185546875,0.3158111572265625,0.0146484375
1783152102436216300,7.13421630859375,0.608428955078125,0.3518524169921875,-0.024444580078125
1783152102445951500,7.143951416015625,0.5913238525390625,0.37689208984375,-0.0580291748046875
1783152102455686700,7.153686767578125,0.5748291015625,0.38360595703125,-0.0830841064453125
1783152102465391000,7.16339111328125,0.5571136474609375,0.36651611328125,-0.101409912109375
1783152102475095800,7.173095703125,0.534515380859375,0.339630126953125,-0.1142425537109375
1783152102484800500,7.182800537109375,0.50823974609375,0.332916259765625,-0.1215667724609375
1783152102494505000,7.1925048828125,0.4795379638671875,0.342681884765625,-0.1227874755859375
1783152102504240000,7.202240234375,0.459991455078125,0.3603973388671875,-0.116058349609375
1783152102513944600,7.211944580078125,0.4465484619140625,0.3842315673828125,-0.105072021484375
1783152102523649300,7.221649169921875,0.4331207275390625,0.4031524658203125,-0.094696044921875
1783152102533354000,7.23135400390625,0.4208984375,0.4257659912109375,-0.0800323486328125
1783152102543089000,7.2410888671875,0.4086761474609375,0.4581451416015625,-0.06048583984375
1783152102552793600,7.250793701171875,0.391571044921875,0.487457275390625,-0.036041259765625
1783152102562498000,7.260498046875,0.3701934814453125,0.4996795654296875,-0.0061187744140625
1783152102572202800,7.27020263671875,0.3463592529296875,0.5039520263671875,0.0225830078125
1783152102581938000,7.27993798828125,0.315216064453125,0.51007080078125,0.0372467041015625
1783152102591642400,7.289642333984375,0.2791595458984375,0.5302276611328125,0.0274810791015625
1783152102601347000,7.29934716796875,0.240692138671875,0.556488037109375,-0.0067138671875
1783152102611051500,7.309051513671875,0.1960906982421875,0.5845794677734375,-0.06231689453125
1783152102620786700,7.31878662109375,0.13623046875,0.6371307373046875,-0.132568359375
1783152102630491400,7.328491455078125,0.06658935546875,0.7183685302734375,-0.21136474609375
1783152102640195800,7.33819580078125,0.0018310546875,0.7831268310546875,-0.2907867431640625
1783152102649900500,7.347900634765625,-0.044586181640625,0.80023193359375,-0.35980224609375
1783152102659605000,7.35760498046875,-0.0745086669921875,0.7880096435546875,-0.4123382568359375
1783152102669340200,7.367340087890625,-0.1013946533203125,0.764801025390625,-0.4410400390625
1783152102679044900,7.377044921875,-0.129486083984375,0.7366943359375,-0.4380035400390625
1783152102688749300,7.386749267578125,-0.1502532958984375,0.7140960693359375,-0.399505615234375
1783152102698454000,7.3964541015625,-0.1673583984375,0.7116546630859375,-0.3298797607421875
1783152102708189200,7.406189208984375,-0.196075439453125,0.7318115234375,-0.2388458251953125
1783152102717893600,7.4158935546875,-0.23455810546875,0.7898406982421875,-0.1331634521484375
1783152102727598300,7.425598388671875,-0.276702880859375,0.8613128662109375,-0.034820556640625
1783152102737333200,7.435333251953125,-0.3225250244140625,0.8704681396484375,0.0280914306640625
1783152102747068400,7.445068359375,-0.3640594482421875,0.772735595703125,0.0354156494140625
1783152102756773000,7.454773193359375,-0.3915557861328125,0.6010894775390625,-0.0054931640625
1783152102766477600,7.4644775390625,-0.408050537109375,0.402557373046875,-0.07818603515625
1783152102776182300,7.474182373046875,-0.408660888671875,0.188751220703125,-0.1569976806640625
1783152102785917400,7.48391748046875,-0.3860626220703125,-0.036041259765625,-0.22174072265625
1783152102795622000,7.493621826171875,-0.339630126953125,-0.283447265625,-0.255950927734375
1783152102805326600,7.50332666015625,-0.2877044677734375,-0.3677520751953125,-0.246795654296875
1783152102815031000,7.513031005859375,-0.2125701904296875,-0.2877197265625,-0.1967010498046875
1783152102824735700,7.52273583984375,0.0054931640625,-0.1130218505859375,-0.118499755859375
1783152102834471000,7.532470947265625,0.318267822265625,0.149658203125,-0.027496337890625
1783152102844175400,7.54217529296875,0.4813690185546875,0.2431182861328125,0.056793212890625
1783152102853880000,7.551880126953125,0.49908447265625,0.1643218994140625,0.1068878173828125
1783152102863584500,7.56158447265625,0.4227142333984375,0.0115966796875,0.1368255615234375
1783152102873319700,7.571319580078125,0.28466796875,-0.107513427734375,0.16064453125
1783152102883024400,7.5810244140625,0.13623046875,-0.1508941650390625,0.192413330078125
1783152102892728800,7.590728759765625,0.0158843994140625,-0.14111328125,0.23638916015625
1783152102902433500,7.60043359375,-0.0610809326171875,-0.093475341796875,0.2773284912109375
1783152102912168400,7.61016845703125,-0.09893798828125,-0.033599853515625,0.3121337890625
1783152102921873200,7.619873046875,-0.1172637939453125,0.0384674072265625,0.335968017578125
1783152102931577900,7.629577880859375,-0.1288909912109375,0.130706787109375,0.342071533203125
1783152102941282300,7.6392822265625,-0.1441497802734375,0.24005126953125,0.332305908203125
1783152102950987000,7.648987060546875,-0.1661376953125,0.333526611328125,0.3054351806640625
1783152102960722000,7.658721923828125,-0.1844635009765625,0.36590576171875,0.261444091796875
1783152102970426600,7.668426513671875,-0.1820220947265625,0.3255767822265625,0.2064666748046875
1783152102980131300,7.67813134765625,-0.14599609375,0.2192840576171875,0.15087890625
1783152102989835800,7.687835693359375,-0.08245849609375,0.0726776123046875,0.1074981689453125
1783152102999571000,7.697571044921875,-0.00732421875,-0.07513427734375,0.0751190185546875
1783152103009275400,7.707275390625,0.06536865234375,-0.20648193359375,0.048858642578125
1783152103019010600,7.717010498046875,0.1295013427734375,-0.3133697509765625,0.0305328369140625
1783152103028715300,7.72671533203125,0.178985595703125,-0.388519287109375,0.015869140625
1783152103038450400,7.736450439453125,0.20953369140625,-0.4459381103515625,0
1783152103048155000,7.74615478515625,0.21807861328125,-0.49664306640625,-0.0158843994140625
1783152103057859600,7.755859619140625,0.2009735107421875,-0.541839599609375,-0.031158447265625
1783152103067564000,7.76556396484375,0.1600494384765625,-0.5815582275390625,-0.0464324951171875
1783152103077299200,7.77529931640625,0.104461669921875,-0.5968170166015625,-0.06842041015625
1783152103087004000,7.78500390625,0.0452117919921875,-0.5827789306640625,-0.100189208984375
1783152103096708400,7.794708251953125,-0.00244140625,-0.5589447021484375,-0.1435546875
1783152103106413000,7.8044130859375,-0.0305328369140625,-0.5155792236328125,-0.1967010498046875
1783152103116117500,7.814117431640625,-0.0421295166015625,-0.4392242431640625,-0.251678466796875
1783152103125852700,7.823852783203125,-0.042755126953125,-0.328033447265625,-0.3017730712890625
1783152103135557000,7.83355712890625,-0.0335845947265625,-0.2021942138671875,-0.3426971435546875
1783152103145261800,7.84326171875,-0.0189208984375,-0.0788116455078125,-0.3714141845703125
1783152103154966500,7.852966552734375,0.0018310546875,0.0256500244140625,-0.385467529296875
1783152103164701400,7.862701416015625,0.027496337890625,0.1032257080078125,-0.3805694580078125
1783152103174406100,7.87240625,0.0592498779296875,0.1410980224609375,-0.35919189453125
1783152103184110600,7.882110595703125,0.095916748046875,0.1392669677734375,-0.3286590576171875
1783152103193815300,7.891815185546875,0.1392822265625,0.1081085205078125,-0.2932281494140625
1783152103203550500,7.901550537109375,0.185699462890625,0.0616912841796875,-0.254119873046875
1783152103213255000,7.9112548828125,0.2315216064453125,-0.0018310546875,-0.21929931640625
1783152103222959600,7.920959716796875,0.2712249755859375,-0.07818603515625,-0.1912078857421875
1783152103232664000,7.9306640625,0.2999420166015625,-0.1460113525390625,-0.163116455078125
1783152103242368800,7.94036865234375,0.3121490478515625,-0.1863250732421875,-0.12890625
1783152103252104000,7.95010400390625,0.306671142578125,-0.1967010498046875,-0.0879669189453125
1783152103261808400,7.959808349609375,0.285888671875,-0.1893768310546875,-0.0500946044921875
1783152103271513000,7.96951318359375,0.253509521484375,-0.172882080078125,-0.0201568603515625
1783152103281217500,7.979217529296875,0.21502685546875,-0.1649322509765625,-0.0018310546875
1783152103290952700,7.98895263671875,0.169830322265625,-0.170440673828125,0.0079193115234375
1783152103300657400,7.998657470703125,0.1179046630859375,-0.177154541015625,0.0091552734375
1783152103310392600,8.008392578125,0.05987548828125,-0.1863250732421875,0.0030364990234375
1783152103320097000,8.018096923828125,-0.00244140625,-0.20404052734375,-0.0067138671875
1783152103329801700,8.0278017578125,-0.0671844482421875,-0.2284698486328125,-0.0164947509765625
1783152103339536600,8.03753662109375,-0.133148193359375,-0.251678466796875,-0.0250396728515625
1783152103349241300,8.047241455078124,-0.197906494140625,-0.2565765380859375,-0.034820556640625
1783152103358945800,8.05694580078125,-0.255340576171875,-0.2333526611328125,-0.0446014404296875
1783152103368681000,8.066680908203125,-0.3066558837890625,-0.185699462890625,-0.0537567138671875
1783152103378385700,8.0763857421875,-0.3488006591796875,-0.1307220458984375,-0.0592498779296875
1783152103388090000,8.086090087890625,-0.37872314453125,-0.07269287109375,-0.0537567138671875
1783152103397794800,8.095794921875,-0.3964385986328125,-0.0177154541015625,-0.035430908203125
1783152103407499300,8.105499267578125,-0.4031524658203125,0.0317535400390625,-0.0079345703125
1783152103417234400,8.115234375,-0.4019317626953125,0.08428955078125,0.0219879150390625
1783152103426939100,8.124939208984374,-0.3982696533203125,0.144775390625,0.0409088134765625
1783152103446348300,8.144348388671874,-0.406219482421875,0.15087890625,-0.0054931640625
1783152103456083500,8.15408349609375,-0.4312591552734375,0.0390777587890625,-0.0806427001953125
1783152103465788000,8.163787841796875,-0.4575347900390625,-0.107513427734375,-0.1673736572265625
1783152103475492600,8.17349267578125,-0.4618072509765625,-0.21990966796875,-0.243133544921875
1783152103485197000,8.183197021484375,-0.4288177490234375,-0.2590179443359375,-0.285888671875
1783152103494932200,8.19293212890625,-0.36529541015625,-0.21014404296875,-0.2828369140625
1783152103504637000,8.202636962890624,-0.2913665771484375,-0.0952911376953125,-0.2290802001953125
1783152103524046000,8.222046142578124,-0.15576171875,0.2119598388671875,0.0354156494140625
1783152103533750500,8.23175048828125,-0.09893798828125,0.3579559326171875,0.23394775390625
1783152103543485700,8.241485595703125,-0.049468994140625,0.408660888671875,0.444091796875
1783152103553190400,8.2511904296875,-0.0115966796875,0.3023681640625,0.630401611328125
1783152103562894800,8.260894775390625,0.0177154541015625,0.0971221923828125,0.769683837890625
1783152103572599600,8.270599609375,0.0446014404296875,-0.1264495849609375,0.8576507568359375
1783152103582334500,8.28033447265625,0.06658935546875,-0.35186767578125,0.8906402587890625
1783152103592069600,8.290069580078125,0.0830841064453125,-0.570556640625,0.8826904296875
1783152103601774300,8.2997744140625,0.100189208984375,-0.7251129150390625,0.8582611083984375
1783152103611478800,8.309478759765625,0.1154632568359375,-0.7629852294921875,0.840545654296875
1783152103621214000,8.3192138671875,0.1233978271484375,-0.6939544677734375,0.833221435546875
1783152103630918700,8.328918701171874,0.1307220458984375,-0.5497894287109375,0.8258819580078125
1783152103640623000,8.338623046875,0.1466064453125,-0.36407470703125,0.8148956298828125
1783152103650327800,8.348327880859374,0.172882080078125,-0.1576080322265625,0.79779052734375
1783152103660063000,8.35806298828125,0.2015838623046875,0.0354156494140625,0.770904541015625
1783152103669767400,8.367767333984375,0.2260284423828125,0.1704254150390625,0.7330322265625
1783152103679472000,8.37747216796875,0.241912841796875,0.2131805419921875,0.690887451171875
1783152103689176600,8.387176513671875,0.249237060546875,0.1698150634765625,0.65545654296875
1783152103698881300,8.39688134765625,0.252288818359375,0.09161376953125,0.6371307373046875
1783152103708616400,8.406616455078124,0.253509521484375,0.0360260009765625,0.6426239013671875
1783152103718321000,8.41632080078125,0.249847412109375,0,0.66522216796875
1783152103728025600,8.426025634765624,0.239471435546875,-0.0427703857421875,0.693939208984375
1783152103737730000,8.43572998046875,0.21990966796875,-0.094696044921875,0.709808349609375
1783152103747465200,8.44546533203125,0.1912078857421875,-0.1478271484375,0.701873779296875
1783152103757170000,8.455169921875,0.1576080322265625,-0.1967010498046875,0.66033935546875
1783152103766874400,8.464874267578125,0.1179046630859375,-0.238250732421875,0.5858154296875
1783152103776579000,8.4745791015625,0.06719970703125,-0.27978515625,0.486846923828125
1783152103786314000,8.48431396484375,0.0030517578125,-0.313995361328125,0.37078857421875
1783152103796018700,8.494018798828124,-0.0745086669921875,-0.326812744140625,0.2467803955078125
1783152103805723100,8.50372314453125,-0.1649169921875,-0.322540283203125,0.1172637939453125
1783152103815427800,8.513427734375,-0.264495849609375,-0.313995361328125,-0.0128326416015625
1783152103825132500,8.523132568359374,-0.36834716796875,-0.2999420166015625,-0.1392822265625
1783152103834867500,8.532867431640625,-0.4642486572265625,-0.2730560302734375,-0.2602386474609375
1783152103844572200,8.542572265625,-0.5430450439453125,-0.2339630126953125,-0.3805694580078125
1783152103854276600,8.552276611328125,-0.5931396484375,-0.1942596435546875,-0.50396728515625
1783152103863981300,8.561981201171875,-0.6151275634765625,-0.173492431640625,-0.63775634765625
1783152103873716500,8.571716552734374,-0.6151275634765625,-0.164337158203125,-0.78497314453125
1783152103883451600,8.58145166015625,-0.59375,-0.109344482421875,-0.9193572998046875
1783152103893156000,8.591156005859375,-0.551605224609375,-0.0158843994140625,-1.0189361572265625
1783152103902860800,8.60086083984375,-0.4990692138671875,0.0348052978515625,-1.07635498046875
1783152103922300400,8.620300537109374,-0.410491943359375,0.050079345703125,-1.08489990234375
1783152103932005000,8.630005126953124,-0.3891143798828125,0.042755126953125,-1.0629119873046875
1783152103941709600,8.63970947265625,-0.38116455078125,-0.0006103515625,-1.040924072265625
1783152103951444700,8.64944482421875,-0.37200927734375,-0.0464324951171875,-1.0115966796875
1783152103961149200,8.659149169921875,-0.3512420654296875,-0.039703369140625,-0.970062255859375
1783152103970854000,8.66885400390625,-0.326202392578125,-0.0024566650390625,-0.899200439453125
1783152103980558600,8.67855859375,-0.3255767822265625,0.0079193115234375,-0.8045196533203125
1783152103990263000,8.688262939453125,-0.3891143798828125,-0.029327392578125,-0.7214508056640625
1783152103999998200,8.697998291015624,-0.6004638671875,0.056793212890625,-0.6218719482421875
1783152104009702700,8.70770263671875,-0.65911865234375,-0.0452117919921875,-0.4056243896484375
1783152104019407400,8.717407470703124,-0.5735931396484375,-0.398284912109375,-0.240692138671875
1783152104029111800,8.72711181640625,-0.477081298828125,-0.740997314453125,-0.1881561279296875
1783152104038847000,8.736846923828125,-0.3872833251953125,-0.93646240234375,-0.1582183837890625
1783152104048551700,8.7465517578125,-0.3072509765625,-0.9835052490234375,-0.098358154296875
1783152104058256100,8.756256103515625,-0.268157958984375,-0.892486572265625,-0.028717041015625
1783152104067960800,8.7659609375,-0.2534942626953125,-0.7287750244140625,0.006103515625
1783152104077696000,8.775696044921874,-0.2516632080078125,-0.541229248046875,0.0066986083984375
1783152104087400400,8.785400390625,-0.23883056640625,-0.388519287109375,-0.0116119384765625
1783152104097105200,8.795105224609374,-0.23211669921875,-0.278564453125,-0.0476531982421875
1783152104106809600,8.8048095703125,-0.256561279296875,-0.1594390869140625,-0.0928497314453125
1783152104116544800,8.814544677734375,-0.3084716796875,-0.0067138671875,-0.1240081787109375
1783152104126249500,8.82424951171875,-0.36651611328125,0.1771392822265625,-0.1282806396484375
1783152104135954000,8.833953857421875,-0.408660888671875,0.3866729736328125,-0.106903076171875
1783152104145658600,8.84365869140625,-0.4306488037109375,0.6029205322265625,-0.07147216796875
1783152104165098200,8.86309814453125,-0.4251556396484375,0.8704681396484375,-0.0012359619140625
1783152104174833400,8.87283349609375,-0.3952178955078125,0.8918609619140625,0.047027587890625
1783152104184537900,8.882537841796875,-0.343292236328125,0.80999755859375,0.1044464111328125
1783152104194242600,8.89224267578125,-0.2803802490234375,0.5705413818359375,0.16064453125
1783152104203977700,8.901977783203124,-0.2144012451171875,0.2046356201171875,0.2162322998046875
1783152104213682200,8.91168212890625,-0.1575927734375,-0.14111328125,0.2748870849609375
1783152104223387000,8.921386962890624,-0.125213623046875,-0.3317108154296875,0.334136962890625
1783152104233091300,8.93109130859375,-0.114227294921875,-0.310333251953125,0.38360595703125
1783152104242826500,8.940826416015625,-0.1050567626953125,-0.0861358642578125,0.4172210693359375
1783152104252531200,8.95053125,-0.0696258544921875,0.2595977783203125,0.4269866943359375
1783152104262235600,8.960235595703125,0.0006103515625,0.615753173828125,0.3891143798828125
1783152104271940400,8.9699404296875,0.097137451171875,0.8662109375,0.2883148193359375
1783152104281644800,8.979644775390625,0.20709228515625,0.910186767578125,0.130706787109375
1783152104291380000,8.9893798828125,0.306671142578125,0.691497802734375,-0.06842041015625
1783152104301084700,8.999084716796874,0.35491943359375,0.2101287841796875,-0.3097076416015625
1783152104310789000,9.0087890625,0.315826416015625,-0.4385986328125,-0.5845947265625
1783152104320493800,9.018493896484374,0.1967010498046875,-1.0158843994140625,-0.8521575927734375
1783152104330229000,9.02822900390625,0.06719970703125,-1.3323211669921875,-1.0641326904296875
1783152104339933400,9.037933349609375,-0.0323638916015625,-1.3158111572265625,-1.1704254150390625
1783152104349638100,9.04763818359375,-0.09893798828125,-0.963348388671875,-1.1594390869140625
1783152104359342600,9.057342529296875,-0.1349945068359375,-0.3811798095703125,-1.040924072265625
1783152104369077800,9.067077880859374,-0.1386566162109375,0.2938079833984375,-0.8430023193359375
1783152104378782500,9.076782470703124,-0.1032257080078125,0.901641845703125,-0.5913238525390625
1783152104388487000,9.08648681640625,-0.0299224853515625,1.340850830078125,-0.318878173828125
1783152104398191600,9.096191650390624,0.06903076171875,1.6084136962890625,-0.0592498779296875
1783152104407896000,9.10589599609375,0.177764892578125,1.7379150390625,0.1704254150390625
1783152104427336000,9.1253359375,0.35247802734375,1.6004638671875,0.4666900634765625
1783152104437040400,9.135040283203125,0.4105072021484375,1.3310699462890625,0.52532958984375
1783152104446745000,9.1447451171875,0.4508209228515625,0.9730987548828125,0.5351104736328125
1783152104456480000,9.15447998046875,0.4685516357421875,0.5754241943359375,0.4978485107421875
1783152104466215200,9.164215087890625,0.457550048828125,0.194854736328125,0.423919677734375
1783152104475920000,9.173919921875,0.4092864990234375,-0.0873565673828125,0.331085205078125
1783152104485624300,9.183624267578125,0.322540283203125,-0.1918182373046875,0.24127197265625
1783152104495359500,9.193359375,0.20465087890625,-0.114837646484375,0.1716461181640625
1783152104505064200,9.203064208984374,0.0788116455078125,0.0616912841796875,0.125823974609375
1783152104514768600,9.2127685546875,-0.0323638916015625,0.271209716796875,0.09283447265625
1783152104524473300,9.222473388671874,-0.1068878173828125,0.473419189453125,0.058624267578125
1783152104534208300,9.232208251953125,-0.133148193359375,0.6420135498046875,0.01220703125
1783152104543913000,9.241912841796875,-0.1172637939453125,0.764190673828125,-0.0476531982421875
1783152104553617700,9.25161767578125,-0.0726776123046875,0.838714599609375,-0.109954833984375
1783152104563322000,9.261322021484375,-0.0177001953125,0.8662109375,-0.169830322265625
1783152104573026800,9.27102685546875,0.037872314453125,0.8655853271484375,-0.2229766845703125
1783152104582761700,9.28076171875,0.0940704345703125,0.850921630859375,-0.2663421630859375
1783152104592466400,9.290466552734374,0.1514892578125,0.81060791015625,-0.2956695556640625
1783152104602171100,9.300171142578124,0.21563720703125,0.7452392578125,-0.3048248291015625
1783152104611875600,9.30987548828125,0.2956695556640625,0.65240478515625,-0.2956695556640625
1783152104621610800,9.31961083984375,0.395233154296875,0.5387725830078125,-0.2700042724609375
1783152104631315200,9.329315185546875,0.50579833984375,0.412322998046875,-0.2296905517578125
1783152104641020000,9.33902001953125,0.608428955078125,0.2877044677734375,-0.175323486328125
1783152104650724400,9.348724365234375,0.6909027099609375,0.1801910400390625,-0.1118011474609375
1783152104660459500,9.35845947265625,0.747100830078125,0.08795166015625,-0.0555877685546875
1783152104670164200,9.368164306640624,0.7745819091796875,-0.022003173828125,-0.0164947509765625
1783152104679868700,9.37786865234375,0.7745819091796875,-0.1649322509765625,0.0048828125
1783152104689573400,9.387573486328124,0.757476806640625,-0.310333251953125,0.013427734375
1783152104699308500,9.39730859375,0.7336578369140625,-0.4447174072265625,0.0128173828125
1783152104709013000,9.407012939453125,0.7110595703125,-0.5155792236328125,0.0128173828125
1783152104718717700,9.4167177734375,0.684783935546875,-0.4899139404296875,0.01953125
1783152104728422100,9.426422119140625,0.6542510986328125,-0.4025726318359375,0.0232086181640625
1783152104738157300,9.4361572265625,0.6206512451171875,-0.285888671875,0.0140380859375
1783152104747892500,9.445892578125,0.5791168212890625,-0.175933837890625,0
1783152104757597000,9.455596923828125,0.5210723876953125,-0.107513427734375,-0.0152740478515625
1783152104767301600,9.465301513671875,0.450225830078125,-0.07452392578125,-0.032989501953125
1783152104777006300,9.47500634765625,0.3811798095703125,-0.0836944580078125,-0.0543670654296875
1783152104786741200,9.4847412109375,0.3298797607421875,-0.1588287353515625,-0.0806427001953125
1783152104796446000,9.494446044921874,0.3029937744140625,-0.3408660888671875,-0.112396240234375
1783152104806150400,9.504150390625,0.240692138671875,-0.3353729248046875,-0.13623046875
1783152104815855000,9.513855224609374,0.1881561279296875,-0.2791595458984375,-0.1319427490234375
1783152104825590300,9.52359033203125,0.175323486328125,-0.306671142578125,-0.1295013427734375
1783152104835294700,9.533294677734375,0.20831298828125,-0.318267822265625,-0.1252288818359375
1783152104844999400,9.54299951171875,0.252899169921875,-0.324981689453125,-0.114837646484375
1783152104854703900,9.552703857421875,0.3036041259765625,-0.317047119140625,-0.0830841064453125
1783152104864408600,9.56240869140625,0.35369873046875,-0.2730560302734375,-0.020782470703125
1783152104883848200,9.58184814453125,0.397674560546875,-0.21014404296875,0.1783599853515625
1783152104893553000,9.591552978515624,0.387298583984375,-0.21685791015625,0.2987060546875
1783152104903257300,9.60125732421875,0.35919189453125,-0.2577972412109375,0.419036865234375
1783152104912992500,9.610992431640625,0.318267822265625,-0.328033447265625,0.5332794189453125
1783152104922697200,9.620697265625,0.2675628662109375,-0.391571044921875,0.631011962890625
1783152104932401700,9.630401611328125,0.21136474609375,-0.4373779296875,0.698822021484375
1783152104942106400,9.6401064453125,0.1527252197265625,-0.452667236328125,0.72265625
1783152104951841500,9.649841552734374,0.093475341796875,-0.4471588134765625,0.695770263671875
1783152104961546000,9.6595458984375,0.040924072265625,-0.424560546875,0.626739501953125
1783152104980955100,9.678955078125,-0.0244293212890625,-0.323760986328125,0.419036865234375
1783152104990659800,9.688659912109374,-0.0372467041015625,-0.2620697021484375,0.3023681640625
1783152105000395000,9.69839501953125,-0.0396881103515625,-0.20770263671875,0.197296142578125
1783152105010099500,9.708099365234375,-0.0280914306640625,-0.180816650390625,0.119720458984375
1783152105019804200,9.71780419921875,-0.0054779052734375,-0.1838836669921875,0.0757293701171875
1783152105029539000,9.7275390625,0.0152740478515625,-0.1899871826171875,0.0738983154296875
1783152105039274200,9.737274169921875,0.0067138671875,-0.1918182373046875,0.115447998046875
1783152105048979000,9.74697900390625,-0.049468994140625,-0.2309112548828125,0.1789703369140625
1783152105058683400,9.756683349609375,-0.1386566162109375,-0.3029937744140625,0.2516632080078125
1783152105078123300,9.776123291015624,-0.2822113037109375,-0.466705322265625,0.37750244140625
1783152105087827700,9.78582763671875,-0.3158111572265625,-0.6016998291015625,0.37628173828125
1783152105097532400,9.795532470703124,-0.332305908203125,-0.78070068359375,0.2919921875
1783152105107236900,9.80523681640625,-0.337188720703125,-0.961517333984375,0.1301116943359375
1783152105116972000,9.814971923828125,-0.334136962890625,-1.0555877685546875,-0.06353759765625
1783152105126676700,9.8246767578125,-0.3145904541015625,-1.001220703125,-0.240692138671875
1783152105136381200,9.834381103515625,-0.2822113037109375,-0.830780029296875,-0.3726348876953125
1783152105146086000,9.8440859375,-0.24005126953125,-0.5901031494140625,-0.4477691650390625
1783152105155790300,9.853790283203125,-0.189971923828125,-0.3335418701171875,-0.464874267578125
1783152105165525500,9.863525390625,-0.1288909912109375,-0.132568359375,-0.4300537109375
1783152105175230200,9.873230224609374,-0.055572509765625,-0.028106689453125,-0.35125732421875
1783152105184934700,9.8829345703125,0.0164947509765625,0.0299224853515625,-0.244964599609375
1783152105194639400,9.892639404296874,0.07086181640625,0.09039306640625,-0.1368408203125
1783152105204374300,9.902374267578125,0.103240966796875,0.123992919921875,-0.0458221435546875
1783152105214079000,9.912078857421875,0.130126953125,0.1404876708984375,0.0341949462890625
1783152105223783700,9.92178369140625,0.166778564453125,0.1710357666015625,0.110565185546875
1783152105233488100,9.931488037109375,0.2235870361328125,0.2058563232421875,0.1765289306640625
1783152105243223300,9.941223388671874,0.2938232421875,0.22662353515625,0.22662353515625
1783152105252927700,9.950927734375,0.36468505859375,0.2198944091796875,0.2583770751953125
1783152105262632400,9.960632568359374,0.4227142333984375,0.1740875244140625,0.2748870849609375
1783152105272337200,9.970337158203124,0.463653564453125,0.1093292236328125,0.2870941162109375
1783152105282072000,9.980072021484375,0.4862518310546875,0.047637939453125,0.300537109375
1783152105291776800,9.98977685546875,0.4850311279296875,-0.0054931640625,0.3103179931640625
1783152105301481200,9.999481201171875,0.457550048828125,-0.0439910888671875,0.302978515625
1783152105311216400,10.00921630859375,0.4092864990234375,-0.06353759765625,0.271209716796875
1783152105320921000,10.018921142578124,0.34698486328125,-0.06475830078125,0.2082977294921875
1783152105330656000,10.028656005859375,0.27978515625,-0.0586395263671875,0.116668701171875
1783152105340360700,10.038360595703125,0.21868896484375,-0.039703369140625,0.00244140625
1783152105350065400,10.0480654296875,0.1612701416015625,0.01220703125,-0.1191253662109375
1783152105359769900,10.057769775390625,0.1105804443359375,0.09039306640625,-0.2364044189453125
1783152105369505000,10.067505126953124,0.07818603515625,0.1820220947265625,-0.3335418701171875
1783152105379209500,10.07720947265625,0.07513427734375,0.2816009521484375,-0.395843505859375
1783152105388914200,10.0869140625,0.100799560546875,0.408050537109375,-0.417236328125
1783152105398619000,10.096618896484374,0.1484527587890625,0.549163818359375,-0.4092864990234375
1783152105408353800,10.106353759765625,0.21197509765625,0.65240478515625,-0.387298583984375
1783152105418058500,10.11605859375,0.2828369140625,0.703704833984375,-0.35736083984375
1783152105427763000,10.125762939453125,0.35064697265625,0.7110443115234375,-0.318878173828125
1783152105437467600,10.135467529296875,0.4013519287109375,0.6841583251953125,-0.2687835693359375
1783152105456907300,10.1549072265625,0.4520416259765625,0.550994873046875,-0.1606597900390625
1783152105466612000,10.164612060546874,0.457550048828125,0.477691650390625,-0.1154632568359375
1783152105476316400,10.17431640625,0.4489898681640625,0.412933349609375,-0.0836944580078125
1783152105486021000,10.184021240234374,0.4337158203125,0.3567352294921875,-0.06781005859375
1783152105505460700,10.203460693359375,0.3811798095703125,0.3127593994140625,-0.111175537109375
1783152105515165400,10.21316552734375,0.3475799560546875,0.328643798828125,-0.175933837890625
1783152105524870000,10.222869873046875,0.324371337890625,0.3494110107421875,-0.2639007568359375
1783152105534605000,10.23260498046875,0.320709228515625,0.3518524169921875,-0.36163330078125
1783152105544309800,10.242309814453124,0.329254150390625,0.3457489013671875,-0.4544830322265625
1783152105554014200,10.25201416015625,0.3390350341796875,0.335357666015625,-0.528411865234375
1783152105563719000,10.261718994140624,0.3396453857421875,0.3170318603515625,-0.5699462890625
1783152105573423400,10.27142333984375,0.3378143310546875,0.3200836181640625,-0.570556640625
1783152105583158500,10.281158447265625,0.3384246826171875,0.334747314453125,-0.538787841796875
1783152105592863200,10.29086328125,0.3414764404296875,0.3164215087890625,-0.48809814453125
1783152105602598100,10.30059814453125,0.3445281982421875,0.267547607421875,-0.4214935302734375
1783152105612302800,10.310302734375,0.3439178466796875,0.2162322998046875,-0.3426971435546875
1783152105622038000,10.3200380859375,0.3335418701171875,0.1722564697265625,-0.259613037109375
1783152105631742500,10.329742431640625,0.306671142578125,0.1288909912109375,-0.1863250732421875
1783152105641447200,10.339447265625,0.2651214599609375,0.08978271484375,-0.1496734619140625
1783152105651151600,10.349151611328125,0.2229766845703125,0.08001708984375,-0.1539459228515625
1783152105660886800,10.35888671875,0.1863250732421875,0.1081085205078125,-0.2003631591796875
1783152105670591500,10.368591552734374,0.1594390869140625,0.1435394287109375,-0.2864990234375
1783152105680296000,10.3782958984375,0.1521148681640625,0.1698150634765625,-0.388519287109375
1783152105690000600,10.388000732421874,0.1673736572265625,0.1704254150390625,-0.4886932373046875
1783152105699735800,10.39773583984375,0.1948699951171875,0.144775390625,-0.5784912109375
1783152105709440300,10.407440185546875,0.21258544921875,0.1349945068359375,-0.64263916015625
1783152105719145000,10.41714501953125,0.21502685546875,0.1661376953125,-0.6646270751953125
1783152105728849400,10.426849365234375,0.20770263671875,0.2095184326171875,-0.6609649658203125
1783152105738554000,10.43655419921875,0.2009735107421875,0.2382354736328125,-0.63958740234375
1783152105748289300,10.446289306640624,0.1960906982421875,0.2473907470703125,-0.607208251953125
1783152105757993700,10.45599365234375,0.180206298828125,0.24127197265625,-0.5839996337890625
1783152105767698400,10.465698486328124,0.1649322509765625,0.2418975830078125,-0.568115234375
1783152105777403000,10.47540283203125,0.1557769775390625,0.263275146484375,-0.560791015625
1783152105787138000,10.485137939453125,0.1588287353515625,0.3072509765625,-0.5546722412109375
1783152105796842800,10.4948427734375,0.1661529541015625,0.37506103515625,-0.5510101318359375
1783152105806547200,10.504547119140625,0.1429443359375,0.5283966064453125,-0.5491790771484375
1783152105816252000,10.514251953125,0.111175537109375,0.704925537109375,-0.535125732421875
1783152105825986800,10.52398681640625,0.1405029296875,0.66400146484375,-0.5552825927734375
1783152105835691500,10.53369140625,0.175933837890625,0.5955810546875,-0.64813232421875
1783152105845396200,10.543396240234374,0.2254180908203125,0.5711517333984375,-0.753204345703125
1783152105855100700,10.5531005859375,0.2975006103515625,0.5705413818359375,-0.8081817626953125
1783152105864835800,10.5628359375,0.35736083984375,0.5644378662109375,-0.79290771484375
1783152105874540300,10.572540283203125,0.3805694580078125,0.557708740234375,-0.7171630859375
1783152105884275500,10.582275390625,0.3744659423828125,0.5888671875,-0.5931549072265625
1783152105893980200,10.591980224609374,0.35491943359375,0.66400146484375,-0.4337158203125
1783152105903684600,10.6016845703125,0.3365936279296875,0.769683837890625,-0.2565765380859375
1783152105913419800,10.611419677734375,0.324371337890625,0.923004150390625,-0.07208251953125
1783152105923124500,10.62112451171875,0.319488525390625,1.1178741455078125,0.123992919921875
1783152105932829000,10.630828857421875,0.3054351806640625,1.24432373046875,0.3078765869140625
1783152105942533600,10.64053369140625,0.2639007568359375,1.2235565185546875,0.4495849609375
1783152105952268500,10.6502685546875,0.1954803466796875,1.1087188720703125,0.546112060546875
1783152105961973200,10.65997314453125,0.106903076171875,0.915069580078125,0.5943603515625
1783152105971678000,10.669677978515624,0.0024566650390625,0.612091064453125,0.5729827880859375
1783152105981382400,10.67938232421875,-0.1013946533203125,0.22784423828125,0.4654693603515625
1783152105991117600,10.68911767578125,-0.190582275390625,-0.1233978271484375,0.2785491943359375
1783152106000822000,10.698822021484375,-0.2205047607421875,-0.287109375,0.09771728515625
1783152106010526700,10.708526611328125,-0.1795806884765625,-0.1600494384765625,-0.0006103515625
1783152106020231400,10.7182314453125,-0.0946807861328125,0.196685791015625,0.001220703125
1783152106029935900,10.727935791015625,0.0018310546875,0.6407928466796875,0.0959014892578125
1783152106039671000,10.737671142578124,0.0910186767578125,1.0268707275390625,0.264495849609375
1783152106049375500,10.74737548828125,0.1685943603515625,1.23883056640625,0.486846923828125
1783152106059080200,10.757080078125,0.2254180908203125,1.24127197265625,0.7293548583984375
1783152106068785000,10.766784912109374,0.251678466796875,1.08734130859375,0.9669952392578125
1783152106078519800,10.776519775390625,0.251068115234375,0.8570404052734375,1.1783599853515625
1783152106097929000,10.795928955078125,0.2015838623046875,0.37506103515625,1.4324798583984375
1783152106107633700,10.805633544921875,0.1967010498046875,0.2137908935546875,1.4532470703125
1783152106117368800,10.815368896484374,0.20648193359375,0.129486083984375,1.3946075439453125
1783152106127073300,10.8250732421875,0.21136474609375,0.08489990234375,1.2565460205078125
1783152106136778000,10.834778076171874,0.1997528076171875,0.043365478515625,1.054351806640625
1783152106146482400,10.844482421875,0.171661376953125,-0.0164947509765625,0.8234405517578125
1783152106156187100,10.854187255859374,0.1118011474609375,-0.117279052734375,0.5955810546875
1783152106165922300,10.86392236328125,0.0189361572265625,-0.2284698486328125,0.38055419921875
1783152106175657200,10.8736572265625,-0.08428955078125,-0.281005859375,0.1753082275390625
1783152106185362000,10.88336181640625,-0.1808013916015625,-0.2620697021484375,-0.0171051025390625
1783152106195066600,10.893066650390624,-0.264495849609375,-0.21136474609375,-0.1869354248046875
1783152106204801500,10.902801513671875,-0.3219146728515625,-0.1417236328125,-0.324981689453125
1783152106214506200,10.91250634765625,-0.3457489013671875,-0.0433807373046875,-0.4208984375
1783152106224210700,10.922210693359375,-0.338409423828125,0.048248291015625,-0.467315673828125
1783152106233915400,10.931915283203125,-0.29931640625,0.1062774658203125,-0.4685516357421875
1783152106243650600,10.941650634765624,-0.23211669921875,0.1368255615234375,-0.429443359375
1783152106253355000,10.95135498046875,-0.154541015625,0.1417083740234375,-0.3701934814453125
1783152106263059700,10.961059814453124,-0.0751190185546875,0.124603271484375,-0.306671142578125
1783152106272764200,10.97076416015625,-0.001220703125,0.09039306640625,-0.247406005859375
1783152106282499300,10.980499267578125,0.07330322265625,0.048858642578125,-0.2028045654296875
1783152106292204000,10.9902041015625,0.1533355712890625,-0.0006103515625,-0.173492431640625
1783152106301908500,10.999908447265625,0.2284698486328125,-0.07452392578125,-0.1594390869140625
1783152106311613200,11.00961328125,0.2779388427734375,-0.163116455078125,-0.1435546875
1783152106321317600,11.019317626953125,0.2999420166015625,-0.2357940673828125,-0.108123779296875
1783152106331052800,11.029052734375,0.3036041259765625,-0.2950439453125,-0.0470428466796875
1783152106340757500,11.038757568359374,0.2920074462890625,-0.35675048828125,0.0280914306640625
1783152106350462000,11.0484619140625,0.2645111083984375,-0.4355621337890625,0.1026153564453125
1783152106360166700,11.058166748046874,0.21868896484375,-0.50762939453125,0.1673583984375
1783152106369901800,11.06790185546875,0.1606597900390625,-0.5687255859375,0.2089080810546875
1783152106379606300,11.077606201171875,0.095916748046875,-0.6591339111328125,0.22601318359375
1783152106389311000,11.08731103515625,0.028106689453125,-0.77642822265625,0.23883056640625
1783152106399015400,11.097015380859375,-0.0421295166015625,-0.852783203125,0.266326904296875
1783152106408750600,11.10675048828125,-0.1288909912109375,-0.8631591796875,0.3139801025390625
1783152106418455300,11.116455322265624,-0.2406768798828125,-0.8454437255859375,0.36773681640625
1783152106428159700,11.12615966796875,-0.3567352294921875,-0.825897216796875,0.414764404296875
1783152106437864400,11.135864501953124,-0.448974609375,-0.7678680419921875,0.4312591552734375
1783152106447599400,11.145599365234375,-0.5033416748046875,-0.65179443359375,0.401336669921875
1783152106457334500,11.15533447265625,-0.5265655517578125,-0.535125732421875,0.3219146728515625
1783152106467039200,11.165039306640624,-0.52716064453125,-0.4557037353515625,0.2064666748046875
1783152106476743700,11.17474365234375,-0.51617431640625,-0.4135589599609375,0.08062744140625
1783152106486448400,11.184448486328124,-0.51007080078125,-0.394622802734375,-0.039093017578125
1783152106496183600,11.19418359375,-0.51495361328125,-0.384246826171875,-0.1405029296875
1783152106505888000,11.203887939453125,-0.52105712890625,-0.36224365234375,-0.21502685546875
1783152106515592700,11.2135927734375,-0.52410888671875,-0.322540283203125,-0.2577972412109375
1783152106525297200,11.223297119140625,-0.5326690673828125,-0.273681640625,-0.2657318115234375
1783152106535032300,11.2330322265625,-0.549774169921875,-0.2345733642578125,-0.239471435546875
1783152106544737000,11.242737060546874,-0.5754241943359375,-0.22174072265625,-0.1936492919921875
1783152106554441500,11.25244140625,-0.59130859375,-0.2339630126953125,-0.1453857421875
1783152106564146200,11.262146240234374,-0.583984375,-0.2767181396484375,-0.102020263671875
1783152106573881300,11.27188134765625,-0.555267333984375,-0.3439178466796875,-0.06597900390625
1783152106583585800,11.281585693359375,-0.51312255859375,-0.4080657958984375,-0.0415496826171875
1783152106593290500,11.29129052734375,-0.4660797119140625,-0.4477691650390625,-0.026885986328125
1783152106602995000,11.300994873046875,-0.4208831787109375,-0.4770965576171875,-0.022003173828125
1783152106612699600,11.31069970703125,-0.37994384765625,-0.50457763671875,-0.024444580078125
1783152106622434600,11.3204345703125,-0.342681884765625,-0.5204620361328125,-0.027496337890625
1783152106632139300,11.33013916015625,-0.3145904541015625,-0.538787841796875,-0.029327392578125
1783152106641844000,11.339843994140624,-0.29443359375,-0.5583343505859375,-0.028717041015625
1783152106651548400,11.34954833984375,-0.2870941162109375,-0.5595550537109375,-0.0201568603515625
1783152106661283600,11.35928369140625,-0.28955078125,-0.5473480224609375,0.0018157958984375
1783152106670984400,11.368984375,-0.2913665771484375,-0.532684326171875,0.0378570556640625
1783152106680689000,11.37868896484375,-0.2822113037109375,-0.5149688720703125,0.07879638671875
1783152106700128800,11.398128662109375,-0.23150634765625,-0.5571136474609375,0.1661376953125
1783152106719538000,11.417537841796875,-0.23394775390625,-0.7605438232421875,0.265106201171875
1783152106729242400,11.427242431640625,-0.266326904296875,-0.8081817626953125,0.3158111572265625
1783152106738977500,11.4369775390625,-0.3017578125,-0.7758026123046875,0.36834716796875
1783152106748712700,11.446712646484375,-0.339019775390625,-0.671966552734375,0.4263763427734375
1783152106758417200,11.456417236328125,-0.3848419189453125,-0.4850311279296875,0.4935760498046875
1783152106768121900,11.466121826171875,-0.4483642578125,-0.2730560302734375,0.557098388671875
1783152106777826300,11.475826416015625,-0.52716064453125,-0.170440673828125,0.5784759521484375
1783152106787561500,11.4855615234375,-0.6010894775390625,-0.21746826171875,0.5454864501953125
1783152106797266200,11.49526611328125,-0.6450653076171875,-0.3121490478515625,0.476470947265625
1783152106806970600,11.504970703125,-0.6713409423828125,-0.403167724609375,0.3933868408203125
1783152106816675300,11.51467529296875,-0.696380615234375,-0.5241241455078125,0.30419921875
1783152106826410500,11.524410400390625,-0.7201995849609375,-0.6279754638671875,0.2107391357421875
1783152106836115000,11.534114990234375,-0.7147064208984375,-0.6573028564453125,0.125823974609375
1783152106845819600,11.543819580078125,-0.65911865234375,-0.6206512451171875,0.0665740966796875
1783152106855524000,11.553524169921875,-0.559539794921875,-0.5497894287109375,0.053741455078125
1783152106865259300,11.56325927734375,-0.441650390625,-0.461212158203125,0.09283447265625
1783152106874964000,11.5729638671875,-0.3481903076171875,-0.389129638671875,0.1814117431640625
1783152106884668400,11.58266845703125,-0.2987060546875,-0.3372039794921875,0.30419921875
1783152106894373000,11.592373046875,-0.3023681640625,-0.28466796875,0.4630279541015625
1783152106904077600,11.60207763671875,-0.3579559326171875,-0.22052001953125,0.6340789794921875
1783152106913812700,11.611812744140625,-0.4593658447265625,-0.1930389404296875,0.770904541015625
1783152106923517400,11.621517333984375,-0.5723724365234375,-0.2620697021484375,0.842376708984375
1783152106933222000,11.631221923828125,-0.65606689453125,-0.4385986328125,0.8307647705078125
1783152106942926600,11.640926513671875,-0.6841583251953125,-0.6915130615234375,0.7470855712890625
1783152106952661500,11.65066162109375,-0.65362548828125,-0.967010498046875,0.6139068603515625
1783152106962366200,11.6603662109375,-0.587646484375,-1.185699462890625,0.4666900634765625
1783152106972071000,11.67007080078125,-0.51556396484375,-1.2687835693359375,0.328643798828125
1783152106981775400,11.679775390625,-0.4624176025390625,-1.2028045654296875,0.2101287841796875
1783152106991510500,11.689510498046875,-0.4300384521484375,-1.0348052978515625,0.119720458984375
1783152107001215000,11.699215087890625,-0.422698974609375,-0.828948974609375,0.058624267578125
1783152107010919700,11.708919677734375,-0.4495849609375,-0.6346893310546875,0.0293121337890625
1783152107020624100,11.7186240234375,-0.51068115234375,-0.49481201171875,0.0244293212890625
1783152107030359300,11.728359375,-0.5962066650390625,-0.4496002197265625,0.0329742431640625
1783152107040094500,11.738094482421875,-0.6841583251953125,-0.4832000732421875,0.042755126953125
1783152107049799200,11.747799072265625,-0.7531890869140625,-0.539398193359375,0.045806884765625
1783152107059503600,11.757503662109375,-0.7922821044921875,-0.5864410400390625,0.0299224853515625
1783152107069208300,11.767208251953125,-0.79779052734375,-0.608428955078125,-0.022003173828125
1783152107088648000,11.78664794921875,-0.7318115234375,-0.563232421875,-0.2241973876953125
1783152107098352600,11.7963525390625,-0.66705322265625,-0.532684326171875,-0.3329315185546875
1783152107108057000,11.80605712890625,-0.5906982421875,-0.5473480224609375,-0.4013519287109375
1783152107117792300,11.815792236328125,-0.5033416748046875,-0.5687255859375,-0.4141693115234375
1783152107127496700,11.82549658203125,-0.412322998046875,-0.534515380859375,-0.387908935546875
1783152107137201400,11.835201416015625,-0.326202392578125,-0.4380035400390625,-0.3426971435546875
1783152107146906000,11.844906005859375,-0.263885498046875,-0.3335418701171875,-0.2791595458984375
1783152107156610600,11.854610595703125,-0.23699951171875,-0.273681640625,-0.1912078857421875
1783152107166345700,11.864345703125,-0.2528839111328125,-0.2577972412109375,-0.094696044921875
1783152107176050200,11.87405029296875,-0.3048095703125,-0.246795654296875,-0.0012359619140625
1783152107185755000,11.8837548828125,-0.342681884765625,-0.174102783203125,0.0751190185546875
1783152107195459600,11.89345947265625,-0.332916259765625,-0.0103912353515625,0.09161376953125
1783152107205194500,11.903194580078125,-0.262054443359375,0.22723388671875,0.046417236328125
1783152107214899200,11.912899169921875,-0.135589599609375,0.52349853515625,-0.0158843994140625
1783152107224603600,11.922603759765625,-0.013427734375,0.8179473876953125,-0.0916290283203125
1783152107234308400,11.932308349609375,0.020782470703125,1.01953125,-0.036041259765625
1783152107263452700,11.96145263671875,-0.269989013671875,-0.278564453125,0.056793212890625
1783152107273157000,11.9711572265625,-0.1832427978515625,-0.429443359375,0.048858642578125
1783152107282892300,11.980892333984375,-0.126434326171875,-0.396453857421875,0.041534423828125
1783152107292597000,11.990596923828125,-0.113006591796875,-0.3378143310546875,0
1783152107302301400,12.000301513671875,-0.07757568359375,-0.2315216064453125,-0.0836944580078125
1783152107312036600,12.01003662109375,-0.0177001953125,-0.036041259765625,-0.1948699951171875
1783152107321741300,12.0197412109375,0.0403289794921875,0.200347900390625,-0.3042144775390625
1783152107331476200,12.029476318359375,0.06475830078125,0.4043731689453125,-0.3653106689453125
1783152107341181000,12.039180908203125,0.0177154541015625,0.4960174560546875,-0.3451385498046875
