time,seconds_elapsed,z,y,x
1783152095433549600,0.131549560546875,-0.0001068115234375,-0.00347900390625,-0.0032501220703125
1783152095452414500,0.15041455078125,-0.0001068115234375,-0.00347900390625,-0.0032501220703125
1783152095462119000,0.160118896484375,-0.7710113525390625,0.14556884765625,-0.2610321044921875
1783152095471915000,0.1699150390625,-0.7319183349609375,0.1272430419921875,-0.2726593017578125
1783152095481741800,0.179741943359375,-0.704437255859375,0.1095428466796875,-0.2751007080078125
1783152095491538000,0.189537841796875,-0.6989288330078125,0.0789947509765625,-0.2561492919921875
1783152095501303600,0.199303466796875,-0.716644287109375,0.07470703125,-0.2176666259765625
1783152095511069200,0.209069091796875,-0.7520751953125,0.0942535400390625,-0.1767425537109375
1783152095520804400,0.218804443359375,-0.7948455810546875,0.0857086181640625,-0.155364990234375
1783152095530508800,0.2285087890625,-0.8241729736328125,0.072265625,-0.1492462158203125
1783152095540213500,0.238213623046875,-0.848602294921875,0.100372314453125,-0.155364990234375
1783152095549918000,0.24791796875,-0.8693695068359375,0.113800048828125,-0.1718597412109375
1783152095559622700,0.25762255859375,-0.8687591552734375,0.12542724609375,-0.1810150146484375
1783152095569327000,0.2673271484375,-0.846771240234375,0.13885498046875,-0.1761322021484375
1783152095579031800,0.27703173828125,-0.8278350830078125,0.1596221923828125,-0.159027099609375
1783152095588736500,0.286736572265625,-0.8296661376953125,0.201171875,-0.11993408203125
1783152095598471400,0.296471435546875,-0.847991943359375,0.243927001953125,-0.051513671875
1783152095608176000,0.306176025390625,-0.8718109130859375,0.2213287353515625,0.0376739501953125
1783152095617880600,0.315880615234375,-0.8742523193359375,0.097320556640625,0.1134185791015625
1783152095627585300,0.325585205078125,-0.65985107421875,0.022186279296875,0.17205810546875
1783152095637320400,0.335320556640625,-0.2145233154296875,0.381988525390625,0.3040008544921875
1783152095647025000,0.34502490234375,0.0011138916015625,0.3074493408203125,0.3748626708984375
1783152095656729600,0.3547294921875,0.1177978515625,0.1858978271484375,0.4542694091796875
1783152095666434000,0.36443408203125,0.19781494140625,-0.00653076171875,0.5184173583984375
1783152095676169200,0.374169189453125,0.1898651123046875,-0.262481689453125,0.5599517822265625
1783152095685874000,0.3838740234375,0.1300048828125,-0.4432830810546875,0.60455322265625
1783152095695578400,0.393578369140625,0.024322509765625,-0.6100616455078125,0.646697998046875
1783152095705283000,0.403282958984375,-0.141815185546875,-0.8043212890625,0.6955718994140625
1783152095715018200,0.413018310546875,-0.32080078125,-0.9313812255859375,0.7554473876953125
1783152095724722700,0.42272265625,-0.4991912841796875,-1.051116943359375,0.7804718017578125
1783152095734427400,0.432427490234375,-0.6567840576171875,-1.5190277099609375,0.635101318359375
1783152095744131800,0.4421318359375,-0.7258148193359375,-2.1250152587890625,0.3339385986328125
1783152095753836500,0.45183642578125,-0.776519775390625,-2.17205810546875,0.071868896484375
1783152095763571700,0.46157177734375,-0.8687591552734375,-1.9374847412109375,-0.1291046142578125
1783152095773276200,0.471276123046875,-1.0153656005859375,-1.5837860107421875,-0.2256011962890625
1783152095782980900,0.48098095703125,-1.1240997314453125,-1.0810394287109375,-0.1932373046875
1783152095792685300,0.490685302734375,-1.183349609375,-0.6021270751953125,-0.080230712890625
1783152095802420500,0.50042041015625,-1.222442626953125,-0.29791259765625,0.03704833984375
1783152095812125200,0.510125244140625,-1.281707763671875,-0.125640869140625,0.09814453125
1783152095821829600,0.51982958984375,-1.3727264404296875,-0.0700531005859375,0.1060791015625
1783152095831534300,0.529534423828125,-1.453369140625,-0.203216552734375,0.109130859375
1783152095841269200,0.539269287109375,-1.5181121826171875,-0.424957275390625,0.1146392822265625
1783152095850974000,0.548973876953125,-1.579193115234375,-0.6033477783203125,0.128692626953125
1783152095870413600,0.56841357421875,-1.6940460205078125,-0.7823333740234375,0.18426513671875
1783152095880148700,0.578148681640625,-1.7557373046875,-0.7902679443359375,0.16412353515625
1783152095889853400,0.587853515625,-1.794830322265625,-0.8079833984375,0.1024169921875
1783152095899558000,0.597557861328125,-1.795440673828125,-0.843414306640625,-0.0038604736328125
1783152095909262600,0.6072626953125,-1.6940460205078125,-0.9356536865234375,-0.158416748046875
1783152095918967000,0.616967041015625,-1.645172119140625,-0.9466552734375,-0.3667144775390625
1783152095928702200,0.6267021484375,-1.6561737060546875,-0.7316131591796875,-0.580535888671875
1783152095938407000,0.636406982421875,-1.614013671875,-0.338836669921875,-0.732635498046875
1783152095948111400,0.646111328125,-1.468017578125,0.0502777099609375,-0.8267059326171875
1783152095957816000,0.655816162109375,-1.3165283203125,0.21337890625,-0.91162109375
1783152095967551000,0.665551025390625,-1.2206268310546875,0.0063018798828125,-0.9617156982421875
1783152095977255700,0.675255615234375,-1.138763427734375,-0.2423095703125,-0.9708709716796875
1783152095986960400,0.68496044921875,-1.030029296875,-0.3736572265625,-0.950103759765625
1783152095996664800,0.694664794921875,-0.9133453369140625,-0.4762725830078125,-0.904296875
1783152096006400000,0.70439990234375,-0.81744384765625,-0.625946044921875,-0.8279266357421875
1783152096016104400,0.7141044921875,-0.7374267578125,-0.661376953125,-0.736297607421875
1783152096025809200,0.72380908203125,-0.66351318359375,-0.5111083984375,-0.6092376708984375
1783152096035513900,0.733513916015625,-0.60791015625,-0.3986968994140625,-0.4565277099609375
1783152096045218300,0.74321826171875,-0.5773773193359375,-0.3547210693359375,-0.3184661865234375
1783152096054953500,0.752953369140625,-0.5553741455078125,-0.30950927734375,-0.1920166015625
1783152096064658000,0.762657958984375,-0.52789306640625,-0.195892333984375,-0.0741119384765625
1783152096074362600,0.772362548828125,-0.493072509765625,-0.055389404296875,0.02423095703125
1783152096084067000,0.782067138671875,-0.455810546875,0.0460052490234375,0.094482421875
1783152096093802200,0.79180224609375,-0.417327880859375,0.0869293212890625,0.140899658203125
1783152096103507000,0.8015068359375,-0.38739013671875,0.073486328125,0.1634979248046875
1783152096113211400,0.81121142578125,-0.3684539794921875,0.0154571533203125,0.16778564453125
1783152096122916000,0.820916015625,-0.3568572998046875,-0.0676116943359375,0.1549530029296875
1783152096132651300,0.8306513671875,-0.350738525390625,-0.1482391357421875,0.136627197265625
1783152096142355700,0.840355712890625,-0.3427886962890625,-0.2111663818359375,0.1219635009765625
1783152096152091000,0.8500908203125,-0.326904296875,-0.2520904541015625,0.1121826171875
1783152096161795600,0.859795654296875,-0.3079833984375,-0.278961181640625,0.10546875
1783152096171500000,0.8695,-0.2963714599609375,-0.2917938232421875,0.0987548828125
1783152096181235200,0.879235107421875,-0.2994232177734375,-0.2899627685546875,0.0950927734375
1783152096190939600,0.888939697265625,-0.3250885009765625,-0.2838592529296875,0.0895843505859375
1783152096200644400,0.898644287109375,-0.3733367919921875,-0.282623291015625,0.0816497802734375
1783152096210349000,0.90834912109375,-0.4350433349609375,-0.2917938232421875,0.073699951171875
1783152096220084000,0.918083984375,-0.498565673828125,-0.3217315673828125,0.069427490234375
1783152096229788700,0.92778857421875,-0.5553741455078125,-0.3712158203125,0.066375732421875
1783152096239493000,0.9374931640625,-0.60546875,-0.4274139404296875,0.065155029296875
1783152096249197800,0.94719775390625,-0.6519012451171875,-0.492156982421875,0.0590362548828125
1783152096258933000,0.95693310546875,-0.6958770751953125,-0.5770721435546875,0.0352325439453125
1783152096268637400,0.966637451171875,-0.7325286865234375,-0.6656494140625,-0.007537841796875
1783152096278342100,0.976342041015625,-0.7624664306640625,-0.73468017578125,-0.0594635009765625
1783152096288046600,0.986046630859375,-0.7875213623046875,-0.773773193359375,-0.11322021484375
1783152096297781800,0.99578173828125,-0.80950927734375,-0.7890472412109375,-0.1706390380859375
1783152096307486500,1.005486572265625,-0.8266143798828125,-0.7878265380859375,-0.235382080078125
1783152096317191000,1.01519091796875,-0.8406524658203125,-0.7811126708984375,-0.312347412109375
1783152096326895600,1.0248955078125,-0.849822998046875,-0.775604248046875,-0.40948486328125
1783152096336600000,1.03460009765625,-0.8455352783203125,-0.7597198486328125,-0.525543212890625
1783152096346335200,1.044335205078125,-0.81500244140625,-0.7139129638671875,-0.6397857666015625
1783152096365744400,1.063744384765625,-0.709930419921875,-0.559967041015625,-0.798004150390625
1783152096375449000,1.073448974609375,-0.66229248046875,-0.495819091796875,-0.8291473388671875
1783152096385184300,1.083184326171875,-0.6201324462890625,-0.44940185546875,-0.8297576904296875
1783152096394888700,1.092888671875,-0.5877532958984375,-0.4365692138671875,-0.808380126953125
1783152096404593400,1.102593505859375,-0.566986083984375,-0.4573516845703125,-0.771728515625
1783152096414297900,1.1122978515625,-0.5541534423828125,-0.4976654052734375,-0.7191925048828125
1783152096424033000,1.122032958984375,-0.5395050048828125,-0.5373687744140625,-0.6464996337890625
1783152096433737700,1.13173779296875,-0.52545166015625,-0.563629150390625,-0.55426025390625
1783152096443472600,1.14147265625,-0.5162811279296875,-0.59478759765625,-0.451019287109375
1783152096453177300,1.15117724609375,-0.5120086669921875,-0.6534423828125,-0.345947265625
1783152096462912500,1.16091259765625,-0.5120086669921875,-0.72613525390625,-0.2530975341796875
1783152096472617000,1.170616943359375,-0.51873779296875,-0.7982177734375,-0.1797943115234375
1783152096482321700,1.18032177734375,-0.52911376953125,-0.853179931640625,-0.13214111328125
1783152096492026000,1.190026123046875,-0.53338623046875,-0.8666229248046875,-0.1022186279296875
1783152096501730800,1.199730712890625,-0.5370635986328125,-0.8305816650390625,-0.082672119140625
1783152096511466000,1.209466064453125,-0.5511016845703125,-0.7621612548828125,-0.0735015869140625
1783152096521170400,1.21917041015625,-0.5773773193359375,-0.6821441650390625,-0.0747222900390625
1783152096530875100,1.228875244140625,-0.604248046875,-0.60272216796875,-0.079010009765625
1783152096540579600,1.23857958984375,-0.6225738525390625,-0.527587890625,-0.081451416015625
1783152096550314800,1.248314697265625,-0.6201324462890625,-0.4634552001953125,-0.0771636962890625
1783152096560019500,1.25801953125,-0.5963134765625,-0.417022705078125,-0.0619049072265625
1783152096569724000,1.267723876953125,-0.562103271484375,-0.3956451416015625,-0.0368499755859375
1783152096579428600,1.2774287109375,-0.52239990234375,-0.4005279541015625,-0.007537841796875
1783152096589163500,1.28716357421875,-0.486968994140625,-0.4292449951171875,0.01812744140625
1783152096598868200,1.2968681640625,-0.4521331787109375,-0.45123291015625,0.0376739501953125
1783152096608573000,1.306572998046875,-0.417938232421875,-0.44879150390625,0.0565948486328125
1783152096618277400,1.31627734375,-0.38922119140625,-0.423736572265625,0.0773773193359375
1783152096627982000,1.325982177734375,-0.3660125732421875,-0.3944244384765625,0.1011962890625
1783152096637717000,1.335717041015625,-0.3403472900390625,-0.3626556396484375,0.1231842041015625
1783152096647421700,1.345421630859375,-0.312255859375,-0.3327178955078125,0.140899658203125
1783152096657126400,1.35512646484375,-0.282318115234375,-0.3223419189453125,0.1519012451171875
1783152096666837800,1.364837646484375,-0.24383544921875,-0.330902099609375,0.1586151123046875
1783152096676573000,1.374572998046875,-0.194976806640625,-0.337005615234375,0.16290283203125
1783152096686277400,1.38427734375,-0.141815185546875,-0.335784912109375,0.1647186279296875
1783152096695982000,1.393982177734375,-0.09539794921875,-0.332122802734375,0.1634979248046875
1783152096705686500,1.4036865234375,-0.052642822265625,-0.3302764892578125,0.1622772216796875
1783152096715391200,1.41339111328125,-0.015380859375,-0.3247833251953125,0.16412353515625
1783152096734861600,1.432861572265625,0.04815673828125,-0.337615966796875,0.1787872314453125
1783152096744566000,1.44256591796875,0.079925537109375,-0.3577728271484375,0.1885528564453125
1783152096754270700,1.452270751953125,0.1153564453125,-0.37060546875,0.2001495361328125
1783152096764005600,1.462005615234375,0.155059814453125,-0.3644866943359375,0.214202880859375
1783152096773710300,1.47171044921875,0.1923065185546875,-0.345550537109375,0.2325286865234375
1783152096783414800,1.481414794921875,0.2252960205078125,-0.3278350830078125,0.2594146728515625
1783152096793119500,1.491119384765625,0.2601318359375,-0.3150177001953125,0.3003387451171875
1783152096802854700,1.500854736328125,0.298004150390625,-0.30035400390625,0.355316162109375
1783152096812559000,1.51055908203125,0.33709716796875,-0.267974853515625,0.420074462890625
1783152096822263800,1.520263916015625,0.379241943359375,-0.230712890625,0.485443115234375
1783152096831968300,1.52996826171875,0.4171142578125,-0.2392578125,0.5306396484375
1783152096841703400,1.539703369140625,0.4409332275390625,-0.3113555908203125,0.541015625
1783152096851408100,1.549408203125,0.452545166015625,-0.3993072509765625,0.5123138427734375
1783152096861112600,1.559112548828125,0.459259033203125,-0.45794677734375,0.45001220703125
1783152096870817300,1.5688173828125,0.4629364013671875,-0.487274169921875,0.3669281005859375
1783152096880552400,1.578552490234375,0.4659881591796875,-0.4762725830078125,0.277740478515625
1783152096890257000,1.5882568359375,0.4769744873046875,-0.3919830322265625,0.198333740234375
1783152096899961600,1.597961669921875,0.5069122314453125,-0.2465972900390625,0.142730712890625
1783152096909666000,1.607666015625,0.558837890625,-0.0816650390625,0.1128082275390625
1783152096919370800,1.617370849609375,0.62420654296875,0.07470703125,0.1121826171875
1783152096929106000,1.62710595703125,0.6920166015625,0.1877288818359375,0.1445770263671875
1783152096938810400,1.636810302734375,0.7530975341796875,0.2365875244140625,0.203826904296875
1783152096948515000,1.64651513671875,0.7995147705078125,0.2213287353515625,0.280792236328125
1783152096958219500,1.656219482421875,0.8264007568359375,0.166351318359375,0.3681488037109375
1783152096967954700,1.66595458984375,0.8386077880859375,0.088775634765625,0.4542694091796875
1783152096977659400,1.675659423828125,0.8349456787109375,-0.00164794921875,0.5239105224609375
1783152096987363800,1.68536376953125,0.8318939208984375,-0.0841064453125,0.566070556640625
1783152096997068500,1.695068603515625,0.84228515625,-0.1415252685546875,0.5789031982421875
1783152097006803500,1.704803466796875,0.8691558837890625,-0.16412353515625,0.562408447265625
1783152097016538600,1.71453857421875,0.9058074951171875,-0.15863037109375,0.5153656005859375
1783152097026243300,1.724243408203125,0.9430694580078125,-0.1396942138671875,0.4402313232421875
1783152097035947800,1.73394775390625,0.9736175537109375,-0.121978759765625,0.3388214111328125
1783152097045683000,1.743682861328125,0.9931640625,-0.0950927734375,0.2264251708984375
1783152097055387600,1.7533876953125,0.99560546875,-0.0401153564453125,0.1250152587890625
1783152097065092000,1.763092041015625,0.9888916015625,0.0380706787109375,0.0504913330078125
1783152097074796800,1.772796875,0.9785003662109375,0.1162567138671875,0.0120086669921875
1783152097084501200,1.782501220703125,0.958953857421875,0.1865081787109375,0.0016326904296875
1783152097094236400,1.792236328125,0.92352294921875,0.2579803466796875,0.0077362060546875
1783152097103941000,1.801941162109375,0.881378173828125,0.3331146240234375,0.0260772705078125
1783152097113645600,1.8116455078125,0.8447265625,0.41375732421875,0.0498809814453125
1783152097123350300,1.821350341796875,0.822723388671875,0.487060546875,0.069427490234375
1783152097133085400,1.83108544921875,0.8233489990234375,0.542022705078125,0.0743255615234375
1783152097142790000,1.840789794921875,0.849609375,0.57989501953125,0.067596435546875
1783152097152494600,1.85049462890625,0.9021453857421875,0.607391357421875,0.0553741455078125
1783152097162199000,1.860198974609375,0.9772796630859375,0.633056640625,0.03948974609375
1783152097171934200,1.869934326171875,1.06463623046875,0.6489410400390625,0.01263427734375
1783152097181639000,1.879638916015625,1.1538238525390625,0.63671875,-0.0270843505859375
1783152097191343400,1.88934326171875,1.238128662109375,0.603118896484375,-0.080230712890625
1783152097201048000,1.899048095703125,1.319366455078125,0.56585693359375,-0.1388702392578125
1783152097210752500,1.90875244140625,1.3951263427734375,0.535919189453125,-0.1968994140625
1783152097220487700,1.91848779296875,1.461090087890625,0.5059967041015625,-0.2524871826171875
1783152097230192000,1.928192138671875,1.5166778564453125,0.4815521240234375,-0.303802490234375
1783152097239896800,1.937896728515625,1.5655517578125,0.463836669921875,-0.3502349853515625
1783152097249601500,1.9476015625,1.6083221435546875,0.4381866455078125,-0.3948211669921875
1783152097259336400,1.95733642578125,1.6480255126953125,0.4143524169921875,-0.441864013671875
1783152097269041200,1.967041259765625,1.6913909912109375,0.402130126953125,-0.4931640625
1783152097278745600,1.97674560546875,1.739654541015625,0.388702392578125,-0.5426483154296875
1783152097288450300,1.9864501953125,1.79156494140625,0.378326416015625,-0.578094482421875
1783152097298185500,1.996185546875,1.8373870849609375,0.393585205078125,-0.588470458984375
1783152097307920600,2.005920654296875,1.8685455322265625,0.4406280517578125,-0.5750274658203125
1783152097317625000,2.015625,1.883209228515625,0.489501953125,-0.54388427734375
1783152097327329800,2.025329833984375,1.886871337890625,0.527374267578125,-0.5011138916015625
1783152097337034200,2.0350341796875,1.884429931640625,0.5505828857421875,-0.452239990234375
1783152097346769400,2.044769287109375,1.878326416015625,0.5511932373046875,-0.40399169921875
1783152097356474000,2.05447412109375,1.8661041259765625,0.534698486328125,-0.3581695556640625
1783152097366178600,2.064178466796875,1.8489990234375,0.521881103515625,-0.310516357421875
1783152097375883300,2.07388330078125,1.8306732177734375,0.5224761962890625,-0.26348876953125
1783152097385618200,2.0836181640625,1.811737060546875,0.530426025390625,-0.2207183837890625
1783152097395323000,2.093322998046875,1.7921905517578125,0.538360595703125,-0.1877288818359375
1783152097405027600,2.103027587890625,1.7671356201171875,0.544464111328125,-0.168792724609375
1783152097414732000,2.11273193359375,1.740875244140625,0.5548553466796875,-0.158416748046875
1783152097424467200,2.12246728515625,1.7127685546875,0.57623291015625,-0.152923583984375
1783152097434171600,2.132171630859375,1.6840667724609375,0.6098480224609375,-0.148651123046875
1783152097443876400,2.14187646484375,1.6584014892578125,0.6397705078125,-0.1431427001953125
1783152097453580800,2.151580810546875,1.63702392578125,0.6519927978515625,-0.13458251953125
1783152097463316000,2.16131591796875,1.6162567138671875,0.6544342041015625,-0.1162567138671875
1783152097473020700,2.171020751953125,1.5838775634765625,0.6538238525390625,-0.089385986328125
1783152097482725000,2.18072509765625,1.536834716796875,0.6446533203125,-0.0594635009765625
1783152097492429800,2.190429931640625,1.4788055419921875,0.62939453125,-0.0283050537109375
1783152097502134300,2.20013427734375,1.4146728515625,0.6202239990234375,-0.0020294189453125
1783152097511869400,2.209869384765625,1.34564208984375,0.630615234375,0.02362060546875
1783152097521574100,2.21957421875,1.2796630859375,0.6605377197265625,0.0437774658203125
1783152097531278600,2.229278564453125,1.2191925048828125,0.6959686279296875,0.0535430908203125
1783152097540983300,2.2389833984375,1.159332275390625,0.743621826171875,0.0517120361328125
1783152097550718500,2.248718505859375,1.090911865234375,0.821197509765625,0.0437774658203125
1783152097560423000,2.2584228515625,0.9986724853515625,0.9170989990234375,0.03277587890625
1783152097570127600,2.268127685546875,0.886871337890625,0.99041748046875,0.01263427734375
1783152097579832000,2.27783203125,0.76898193359375,1.0209503173828125,-0.0270843505859375
1783152097589567200,2.287567138671875,0.6547393798828125,1.0099639892578125,-0.088165283203125
1783152097609006800,2.3070068359375,0.4598846435546875,0.9513092041015625,-0.2512664794921875
1783152097618711600,2.316711669921875,0.379852294921875,0.958038330078125,-0.333740234375
1783152097628446700,2.32644677734375,0.307159423828125,0.99285888671875,-0.40643310546875
1783152097638151200,2.336151123046875,0.239349365234375,1.0539398193359375,-0.4656829833984375
1783152097647855900,2.34585595703125,0.1746063232421875,1.14678955078125,-0.5102691650390625
1783152097657560300,2.355560302734375,0.1019134521484375,1.243927001953125,-0.5389862060546875
1783152097667265000,2.36526513671875,0.027984619140625,1.3172149658203125,-0.5414276123046875
1783152097677000200,2.375000244140625,-0.044708251953125,1.3636474609375,-0.515167236328125
1783152097686704600,2.38470458984375,-0.1118927001953125,1.383819580078125,-0.4632415771484375
1783152097696409300,2.394409423828125,-0.1741943359375,1.3624267578125,-0.3936004638671875
1783152097706113800,2.40411376953125,-0.23162841796875,1.311737060546875,-0.3184661865234375
1783152097715849000,2.413848876953125,-0.2896575927734375,1.2420806884765625,-0.2476043701171875
1783152097725553700,2.4235537109375,-0.348907470703125,1.169403076171875,-0.18896484375
1783152097735258000,2.433258056640625,-0.414886474609375,1.097930908203125,-0.1474151611328125
1783152097744962800,2.442962890625,-0.4851226806640625,1.0191192626953125,-0.12176513671875
1783152097754698000,2.452697998046875,-0.5395050048828125,0.9476470947265625,-0.0985565185546875
1783152097764402400,2.46240234375,-0.560882568359375,0.9109954833984375,-0.0643463134765625
1783152097774107100,2.472107177734375,-0.5565948486328125,0.9384918212890625,-0.021575927734375
1783152097783811600,2.4818115234375,-0.5486602783203125,0.9873504638671875,0.01690673828125
1783152097793516300,2.491516357421875,-0.5553741455078125,0.9733123779296875,0.0272979736328125
1783152097803251500,2.50125146484375,-0.5785980224609375,0.8773956298828125,-0.007537841796875
1783152097812956000,2.510955810546875,-0.6103515625,0.7216339111328125,-0.086944580078125
1783152097822660600,2.52066064453125,-0.6543426513671875,0.5206451416015625,-0.1981201171875
1783152097832365000,2.530364990234375,-0.7209320068359375,0.28912353515625,-0.3270111083984375
1783152097842100200,2.540100341796875,-0.8088836669921875,0.0594482421875,-0.4601898193359375
1783152097851805000,2.549804931640625,-0.891357421875,-0.1103668212890625,-0.5823516845703125
1783152097861509400,2.55950927734375,-0.9414520263671875,-0.1806182861328125,-0.6776580810546875
1783152097871244500,2.56924462890625,-0.95794677734375,-0.128082275390625,-0.724090576171875
1783152097880979700,2.578979736328125,-0.95184326171875,0.035003662109375,-0.69598388671875
1783152097890684200,2.58868408203125,-0.925567626953125,0.250030517578125,-0.585418701171875
1783152097900388900,2.598388916015625,-0.8822021484375,0.42413330078125,-0.40155029296875
1783152097910093300,2.60809326171875,-0.8394317626953125,0.4858245849609375,-0.166961669921875
1783152097919798000,2.617798095703125,-0.8113250732421875,0.43145751953125,0.1005859375
1783152097929533200,2.627533203125,-0.8015594482421875,0.3013458251953125,0.3822021484375
1783152097939237600,2.637237548828125,-0.80950927734375,0.1248016357421875,0.6546478271484375
1783152097948942300,2.6469423828125,-0.82171630859375,-0.0712738037109375,0.89227294921875
1783152097958646800,2.656646728515625,-0.8369903564453125,-0.267974853515625,1.076141357421875
1783152097968382000,2.6663818359375,-0.853485107421875,-0.44390869140625,1.1909942626953125
1783152097978086700,2.676086669921875,-0.8760833740234375,-0.58380126953125,1.2288665771484375
1783152097987791000,2.685791015625,-0.9072418212890625,-0.6882476806640625,1.18548583984375
1783152097997495800,2.695495849609375,-0.9426727294921875,-0.7456817626953125,1.069427490234375
1783152098007230700,2.705230712890625,-0.96954345703125,-0.7542266845703125,0.89715576171875
1783152098016935400,2.714935302734375,-0.993377685546875,-0.7224578857421875,0.6766357421875
1783152098026640100,2.72464013671875,-1.0226898193359375,-0.6564788818359375,0.419464111328125
1783152098036344600,2.734344482421875,-1.058746337890625,-0.5679168701171875,0.145172119140625
1783152098046079700,2.744079833984375,-1.0935516357421875,-0.4762725830078125,-0.11993408203125
1783152098055784200,2.7537841796875,-1.1186065673828125,-0.3919830322265625,-0.3538970947265625
1783152098065489000,2.763489013671875,-1.1289825439453125,-0.3235626220703125,-0.54632568359375
1783152098075193600,2.773193603515625,-1.1259307861328125,-0.2869110107421875,-0.69781494140625
1783152098094633200,2.79263330078125,-1.0593414306640625,-0.329681396484375,-0.8847503662109375
1783152098104337700,2.802337646484375,-0.987274169921875,-0.3644866943359375,-0.920166015625
1783152098114042400,2.81204248046875,-0.8931884765625,-0.3956451416015625,-0.9232177734375
1783152098123746800,2.821746826171875,-0.7734527587890625,-0.4310760498046875,-0.8975677490234375
1783152098133482000,2.83148193359375,-0.630523681640625,-0.4683380126953125,-0.84686279296875
1783152098143186700,2.841186767578125,-0.4771881103515625,-0.486053466796875,-0.7735595703125
1783152098152891100,2.85089111328125,-0.3318023681640625,-0.4774932861328125,-0.6819305419921875
1783152098162626300,2.860626220703125,-0.207794189453125,-0.45306396484375,-0.5768585205078125
1783152098172361500,2.870361572265625,-0.1088409423828125,-0.413360595703125,-0.4620208740234375
1783152098182066000,2.88006591796875,-0.0324859619140625,-0.3681488037109375,-0.3416748046875
1783152098191770600,2.8897705078125,0.018218994140625,-0.339447021484375,-0.226226806640625
1783152098201475300,2.899475341796875,0.05120849609375,-0.335784912109375,-0.12725830078125
1783152098211210200,2.909210205078125,0.0731964111328125,-0.345550537109375,-0.046630859375
1783152098220915000,2.9189150390625,0.088470458984375,-0.3565521240234375,0.01507568359375
1783152098230619400,2.928619384765625,0.0994720458984375,-0.3583831787109375,0.060882568359375
1783152098240324000,2.938323974609375,0.1110687255859375,-0.3577728271484375,0.0950927734375
1783152098250028800,2.94802880859375,0.1226806640625,-0.3785400390625,0.1164703369140625
1783152098259763700,2.957763671875,0.130615234375,-0.423736572265625,0.1231842041015625
1783152098269468400,2.967468505859375,0.133056640625,-0.480560302734375,0.1103668212890625
1783152098279172900,2.9771728515625,0.1263427734375,-0.5404205322265625,0.0755462646484375
1783152098288877600,2.986877685546875,0.1159515380859375,-0.5880584716796875,0.0285186767578125
1783152098298612700,2.99661279296875,0.1031341552734375,-0.6161651611328125,-0.022186279296875
1783152098308317200,3.006317138671875,0.092132568359375,-0.633270263671875,-0.0692291259765625
1783152098318022000,3.01602197265625,0.0762481689453125,-0.635711669921875,-0.1077117919921875
1783152098327726300,3.025726318359375,0.05120849609375,-0.620452880859375,-0.12603759765625
1783152098337461500,3.03546142578125,0.017608642578125,-0.59295654296875,-0.1162567138671875
1783152098347166200,3.045166259765625,-0.0208740234375,-0.560577392578125,-0.076568603515625
1783152098356870700,3.05487060546875,-0.0569000244140625,-0.5184326171875,-0.007537841796875
1783152098366575400,3.064575439453125,-0.0868377685546875,-0.474456787109375,0.0834808349609375
1783152098376279800,3.07427978515625,-0.1094512939453125,-0.4341278076171875,0.1922149658203125
1783152098386015000,3.084014892578125,-0.132659912109375,-0.409088134765625,0.3033905029296875
1783152098395719700,3.0937197265625,-0.1595458984375,-0.407257080078125,0.4066314697265625
1783152098405424000,3.103424072265625,-0.1912994384765625,-0.413360595703125,0.494598388671875
1783152098415128800,3.11312890625,-0.2206268310546875,-0.408477783203125,0.564849853515625
1783152098424864000,3.122864013671875,-0.24261474609375,-0.3724365234375,0.6234893798828125
1783152098434568400,3.132568359375,-0.2572784423828125,-0.29791259765625,0.6790771484375
1783152098444303600,3.1423037109375,-0.273162841796875,-0.2221527099609375,0.7316131591796875
1783152098454008000,3.152008056640625,-0.2914886474609375,-0.1793975830078125,0.7768096923828125
1783152098463743200,3.1617431640625,-0.3128662109375,-0.17083740234375,0.8104248046875
1783152098473448000,3.171447998046875,-0.3391265869140625,-0.1842803955078125,0.8342437744140625
1783152098483152400,3.18115234375,-0.3684539794921875,-0.2099456787109375,0.8476715087890625
1783152098492857000,3.190857177734375,-0.4002227783203125,-0.2527008056640625,0.8464508056640625
1783152098502561500,3.2005615234375,-0.427703857421875,-0.30340576171875,0.82568359375
1783152098512296700,3.210296630859375,-0.4490966796875,-0.348602294921875,0.782318115234375
1783152098522001400,3.22000146484375,-0.4637451171875,-0.3809814453125,0.720001220703125
1783152098531705900,3.229705810546875,-0.4723052978515625,-0.3797607421875,0.6497650146484375
1783152098541410600,3.23941064453125,-0.4826812744140625,-0.337005615234375,0.577056884765625
1783152098551145700,3.249145751953125,-0.4991912841796875,-0.269805908203125,0.5062103271484375
1783152098560850200,3.25885009765625,-0.5156707763671875,-0.199554443359375,0.437164306640625
1783152098570555000,3.268554931640625,-0.5217742919921875,-0.1482391357421875,0.3718109130859375
1783152098580259300,3.27825927734375,-0.5126190185546875,-0.1097564697265625,0.31561279296875
1783152098589994500,3.287994384765625,-0.4851226806640625,-0.0749359130859375,0.278961181640625
1783152098599699200,3.29769921875,-0.4490966796875,-0.055999755859375,0.2600250244140625
1783152098609403600,3.307403564453125,-0.415496826171875,-0.08349609375,0.2410888671875
1783152098619108400,3.3171083984375,-0.3971710205078125,-0.1757354736328125,0.1934356689453125
1783152098628843300,3.32684326171875,-0.3996124267578125,-0.337615966796875,0.0865325927734375
1783152098638548000,3.3365478515625,-0.432586669921875,-0.562408447265625,-0.0997772216796875
1783152098648252700,3.346252685546875,-0.4759674072265625,-0.774383544921875,-0.3612213134765625
1783152098657957000,3.35595703125,-0.491241455078125,-0.8611297607421875,-0.655670166015625
1783152098667661800,3.365661865234375,-0.4515380859375,-0.7578887939453125,-0.9232177734375
1783152098677396700,3.375396728515625,-0.359893798828125,-0.4774932861328125,-1.1156463623046875
1783152098687101400,3.385101318359375,-0.23162841796875,-0.1097564697265625,-1.207275390625
1783152098696806100,3.39480615234375,-0.0819549560546875,0.2158203125,-1.195068359375
1783152098706510600,3.404510498046875,0.0707550048828125,0.4106903076171875,-1.090606689453125
1783152098716245800,3.414245849609375,0.228363037109375,0.453460693359375,-0.9110107421875
1783152098725950200,3.4239501953125,0.388397216796875,0.378326416015625,-0.6727752685546875
1783152098735685400,3.433685302734375,0.5386810302734375,0.252471923828125,-0.39910888671875
1783152098745390000,3.44339013671875,0.6736907958984375,0.12786865234375,-0.12725830078125
1783152098755125000,3.453125,0.7866973876953125,0.0172882080078125,0.1072998046875
1783152098764829700,3.46282958984375,0.880767822265625,-0.0779876708984375,0.286895751953125
1783152098774534400,3.472534423828125,0.958343505859375,-0.1476287841796875,0.4102935791015625
1783152098784238800,3.48223876953125,1.023101806640625,-0.1793975830078125,0.4774932861328125
1783152098793974000,3.49197412109375,1.0738067626953125,-0.1775665283203125,0.495819091796875
1783152098803678500,3.501678466796875,1.1122894287109375,-0.16412353515625,0.47259521484375
1783152098813383200,3.511383056640625,1.1373291015625,-0.1439666748046875,0.423126220703125
1783152098823087900,3.521087890625,1.142822265625,-0.121978759765625,0.3663177490234375
1783152098832792300,3.530792236328125,1.1196136474609375,-0.1109771728515625,0.30767822265625
1783152098842527500,3.540527587890625,1.06341552734375,-0.121368408203125,0.2368011474609375
1783152098852232000,3.55023193359375,0.9772796630859375,-0.1335906982421875,0.151275634765625
1783152098861936600,3.5599365234375,0.874664306640625,-0.129913330078125,0.058441162109375
1783152098871641300,3.569641357421875,0.7604217529296875,-0.1060943603515625,-0.0362396240234375
1783152098881376300,3.579376220703125,0.63702392578125,-0.063934326171875,-0.13458251953125
1783152098891081000,3.5890810546875,0.5069122314453125,-0.00592041015625,-0.233551025390625
1783152098900785400,3.598785400390625,0.374359130859375,0.06494140625,-0.3209075927734375
1783152098910490000,3.608489990234375,0.2515716552734375,0.13458251953125,-0.388702392578125
1783152098920225300,3.618225341796875,0.156890869140625,0.1974945068359375,-0.436981201171875
1783152098929929700,3.6279296875,0.1006927490234375,0.2634735107421875,-0.4693450927734375
1783152098939634400,3.637634521484375,0.0817413330078125,0.3312835693359375,-0.4852294921875
1783152098949339000,3.6473388671875,0.089691162109375,0.3978729248046875,-0.4864501953125
1783152098959043600,3.657043701171875,0.1128997802734375,0.456512451171875,-0.4779052734375
1783152098968778800,3.66677880859375,0.1458892822265625,0.496826171875,-0.4608001708984375
1783152098978483200,3.676483154296875,0.1825408935546875,0.50537109375,-0.436981201171875
1783152098988188000,3.68618798828125,0.2124786376953125,0.4760589599609375,-0.40887451171875
1783152098997892400,3.695892333984375,0.232635498046875,0.4143524169921875,-0.375885009765625
1783152099007627500,3.70562744140625,0.242401123046875,0.3355560302734375,-0.336181640625
1783152099017362700,3.71536279296875,0.241180419921875,0.256134033203125,-0.294647216796875
1783152099027067100,3.725067138671875,0.235076904296875,0.1926116943359375,-0.2610321044921875
1783152099036771800,3.734771728515625,0.235687255859375,0.1461944580078125,-0.2476043701171875
1783152099046507000,3.744507080078125,0.2631683349609375,0.110137939453125,-0.25921630859375
1783152099056211500,3.75421142578125,0.312042236328125,0.0838775634765625,-0.295867919921875
1783152099065916200,3.763916259765625,0.3688507080078125,0.073486328125,-0.3490142822265625
1783152099075620600,3.77362060546875,0.415283203125,0.0679931640625,-0.40948486328125
1783152099085325300,3.7833251953125,0.443389892578125,0.06982421875,-0.4632415771484375
1783152099095060500,3.793060546875,0.458038330078125,0.089996337890625,-0.4944000244140625
1783152099104765000,3.802764892578125,0.4659881591796875,0.1205291748046875,-0.4998931884765625
1783152099114469600,3.8124697265625,0.4733123779296875,0.13885498046875,-0.4833984375
1783152099124174000,3.822174072265625,0.48309326171875,0.1535186767578125,-0.443695068359375
1783152099133909200,3.8319091796875,0.49652099609375,0.179779052734375,-0.377105712890625
1783152099143614000,3.841614013671875,0.511810302734375,0.209716796875,-0.2897491455078125
1783152099153318400,3.851318359375,0.5289154052734375,0.2329254150390625,-0.19384765625
1783152099163023000,3.861023193359375,0.5460205078125,0.253692626953125,-0.095489501953125
1783152099172758300,3.87075830078125,0.56005859375,0.254913330078125,0.0010223388671875
1783152099182462700,3.880462646484375,0.5692291259765625,0.2127685546875,0.0865325927734375
1783152099192167400,3.89016748046875,0.5814361572265625,0.14312744140625,0.1580047607421875
1783152099201872000,3.899871826171875,0.602813720703125,0.0765533447265625,0.214813232421875
1783152099211607000,3.90960693359375,0.62664794921875,0.0166778564453125,0.2588043212890625
1783152099221311700,3.919311767578125,0.6474151611328125,-0.0199737548828125,0.2905731201171875
1783152099231016200,3.92901611328125,0.6584014892578125,-0.00469970703125,0.31683349609375
1783152099240721000,3.938720947265625,0.656585693359375,0.0435638427734375,0.3345489501953125
1783152099250455800,3.948455810546875,0.6431427001953125,0.097320556640625,0.3369903564453125
1783152099260160500,3.958160400390625,0.62420654296875,0.13885498046875,0.32415771484375
1783152099269865200,3.967865234375,0.604034423828125,0.1553497314453125,0.3009490966796875
1783152099279569700,3.977569580078125,0.5783843994140625,0.1529083251953125,0.2679595947265625
1783152099289274400,3.9872744140625,0.5399017333984375,0.13336181640625,0.2288665771484375
1783152099299009300,3.99700927734375,0.49102783203125,0.108917236328125,0.1891632080078125
1783152099308744400,4.006744384765625,0.440338134765625,0.0942535400390625,0.1543426513671875
1783152099318449200,4.01644921875,0.4042816162109375,0.0930328369140625,0.128692626953125
1783152099328153600,4.026153564453125,0.392059326171875,0.103424072265625,0.1115875244140625
1783152099337888800,4.035888671875,0.3969573974609375,0.1205291748046875,0.0938720703125
1783152099347593500,4.045593505859375,0.4036865234375,0.1461944580078125,0.076141357421875
1783152099357298000,4.0552978515625,0.4073486328125,0.1883392333984375,0.069427490234375
1783152099367002600,4.065002685546875,0.4049072265625,0.245147705078125,0.0853118896484375
1783152099376737800,4.07473779296875,0.3939056396484375,0.311737060546875,0.1250152587890625
1783152099386442200,4.084442138671875,0.376800537109375,0.3752593994140625,0.1909942626953125
1783152099396147000,4.09414697265625,0.3499298095703125,0.4045867919921875,0.2697906494140625
1783152099405851400,4.103851318359375,0.311431884765625,0.3654937744140625,0.3351593017578125
1783152099415556000,4.11355615234375,0.2576904296875,0.254913330078125,0.3724212646484375
1783152099425291000,4.123291015625,0.1837615966796875,0.1132049560546875,0.386474609375
1783152099434995700,4.13299560546875,0.088470458984375,-0.02606201171875,0.3834228515625
1783152099444700400,4.142700439453125,-0.017822265625,-0.1445770263671875,0.3699798583984375
1783152099454404900,4.15240478515625,-0.1192169189453125,-0.2136077880859375,0.355926513671875
1783152099464140000,4.16214013671875,-0.204132080078125,-0.1879425048828125,0.354095458984375
1783152099473844500,4.171844482421875,-0.2682647705078125,-0.049285888671875,0.3785247802734375
1783152099483549200,4.181549072265625,-0.31103515625,0.173065185546875,0.430450439453125
1783152099493254000,4.19125390625,-0.3214263916015625,0.43511962890625,0.5104827880859375
1783152099502988800,4.20098876953125,-0.3067626953125,0.670928955078125,0.60699462890625
1783152099512693500,4.210693603515625,-0.282318115234375,0.825469970703125,0.709625244140625
1783152099522398000,4.22039794921875,-0.2530059814453125,0.888397216796875,0.8165283203125
1783152099532102700,4.2301025390625,-0.217559814453125,0.8743438720703125,0.923431396484375
1783152099541807400,4.239807373046875,-0.1680908203125,0.8010406494140625,1.0248260498046875
1783152099551542300,4.249542236328125,-0.1112823486328125,0.6977996826171875,1.1213531494140625
1783152099561247000,4.2592470703125,-0.064239501953125,0.5829620361328125,1.212371826171875
1783152099570951400,4.268951416015625,-0.0404205322265625,0.4387969970703125,1.285675048828125
1783152099580656000,4.27865625,-0.0349273681640625,0.2598114013671875,1.32476806640625
1783152099590391300,4.288391357421875,-0.0373687744140625,0.063720703125,1.32354736328125
1783152099600126500,4.29812646484375,-0.043487548828125,-0.1470184326171875,1.280181884765625
1783152099609831000,4.307830810546875,-0.041046142578125,-0.348602294921875,1.2013702392578125
1783152099619535600,4.31753564453125,-0.0196533203125,-0.5068206787109375,1.0981292724609375
1783152099629270500,4.3272705078125,0.020660400390625,-0.6137237548828125,0.975341796875
1783152099638975200,4.336975341796875,0.06036376953125,-0.6766510009765625,0.8348541259765625
1783152099648679700,4.3466796875,0.0762481689453125,-0.708404541015625,0.67236328125
1783152099658384400,4.35638427734375,0.05853271484375,-0.7169647216796875,0.4897003173828125
1783152099677824000,4.375823974609375,-0.0318756103515625,-0.669921875,0.0950927734375
1783152099687528700,4.38552880859375,-0.09234619140625,-0.6564788818359375,-0.12969970703125
1783152099697233200,4.395233154296875,-0.147918701171875,-0.6186065673828125,-0.3630523681640625
1783152099706937900,4.404937744140625,-0.1943511962890625,-0.490936279296875,-0.589691162109375
1783152099716673000,4.414673095703125,-0.2310028076171875,-0.2539215087890625,-0.7906646728515625
1783152099726377500,4.42437744140625,-0.2536163330078125,0.066162109375,-0.957427978515625
1783152099736082200,4.434082275390625,-0.2523956298828125,0.390533447265625,-1.0814361572265625
1783152099745786600,4.44378662109375,-0.2200164794921875,0.673370361328125,-1.166351318359375
1783152099755521800,4.453521728515625,-0.1583099365234375,0.9097747802734375,-1.2298736572265625
1783152099765226500,4.4632265625,-0.064849853515625,1.0667724609375,-1.2836456298828125
1783152099774931000,4.472930908203125,0.06097412109375,1.13397216796875,-1.3270111083984375
1783152099784635600,4.4826357421875,0.2143096923828125,1.1180877685546875,-1.349609375
1783152099794370800,4.492370849609375,0.370697021484375,1.028289794921875,-1.3416748046875
1783152099804075300,4.5020751953125,0.5044708251953125,0.889617919921875,-1.2934112548828125
1783152099813780000,4.511780029296875,0.6064910888671875,0.742401123046875,-1.1981201171875
1783152099823484400,4.521484375,0.6865081787109375,0.601898193359375,-1.0661773681640625
1783152099833219600,4.531219482421875,0.746368408203125,0.458343505859375,-0.9171142578125
1783152099842924300,4.54092431640625,0.7866973876953125,0.3282318115234375,-0.7705078125
1783152099852628700,4.550628662109375,0.8031768798828125,0.2219390869140625,-0.6416168212890625
1783152099862333400,4.56033349609375,0.801361083984375,0.1284637451171875,-0.5432586669921875
1783152099872068400,4.570068359375,0.7866973876953125,0.0472259521484375,-0.487060546875
1783152099881803500,4.579803466796875,0.7634735107421875,-0.0187530517578125,-0.4681243896484375
1783152099891508200,4.58950830078125,0.740875244140625,-0.060272216796875,-0.4681243896484375
1783152099901212700,4.599212646484375,0.7256011962890625,-0.0785980224609375,-0.4644622802734375
1783152099910917400,4.60891748046875,0.725006103515625,-0.0773773193359375,-0.445526123046875
1783152099920652500,4.618652587890625,0.737213134765625,-0.0651702880859375,-0.40826416015625
1783152099930357000,4.62835693359375,0.7512664794921875,-0.056610107421875,-0.3593902587890625
1783152099940061700,4.638061767578125,0.7561492919921875,-0.059051513671875,-0.305023193359375
1783152099949766100,4.64776611328125,0.7482147216796875,-0.063934326171875,-0.2506561279296875
1783152099959501300,4.657501220703125,0.7237701416015625,-0.0724945068359375,-0.2030029296875
1783152099969206000,4.6672060546875,0.680389404296875,-0.0810394287109375,-0.166351318359375
1783152099978910500,4.676910400390625,0.62237548828125,-0.0700531005859375,-0.1370391845703125
1783152099988615200,4.686615234375,0.558837890625,-0.0291290283203125,-0.1101531982421875
1783152099998319600,4.696319580078125,0.5001983642578125,0.029510498046875,-0.090606689453125
1783152100008054800,4.7060546875,0.458648681640625,0.098541259765625,-0.0771636962890625
1783152100017759500,4.715759521484375,0.444000244140625,0.175506591796875,-0.0735015869140625
1783152100027464000,4.7254638671875,0.458648681640625,0.2653045654296875,-0.0728912353515625
1783152100037168600,4.735168701171875,0.4947052001953125,0.3538818359375,-0.0741119384765625
1783152100046903800,4.74490380859375,0.5441741943359375,0.4082489013671875,-0.077789306640625
1783152100056608300,4.754608154296875,0.598541259765625,0.43511962890625,-0.083892822265625
1783152100066313000,4.76431298828125,0.6529083251953125,0.4418487548828125,-0.083892822265625
1783152100076017400,4.774017333984375,0.6993408203125,0.42291259765625,-0.0741119384765625
1783152100085752600,4.783752685546875,0.734771728515625,0.3777008056640625,-0.05029296875
1783152100095457000,4.79345703125,0.7579803466796875,0.314788818359375,-0.011199951171875
1783152100105161700,4.80316162109375,0.76898193359375,0.245147705078125,0.04193115234375
1783152100114866400,4.812866455078125,0.77203369140625,0.1834564208984375,0.1011962890625
1783152100124571000,4.82257080078125,0.76959228515625,0.1217498779296875,0.1537322998046875
1783152100134306000,4.83230615234375,0.76654052734375,0.066162109375,0.1952667236328125
1783152100144010500,4.842010498046875,0.77447509765625,0.026458740234375,0.2319183349609375
1783152100153715200,4.851715087890625,0.7946319580078125,-0.00286865234375,0.2697906494140625
1783152100163450400,4.861450439453125,0.8312835693359375,-0.0163116455078125,0.3094940185546875
1783152100173185500,4.871185546875,0.883819580078125,-0.0321807861328125,0.341888427734375
1783152100182890000,4.880889892578125,0.9387969970703125,-0.08837890625,0.357757568359375
1783152100192594700,4.8905947265625,0.9888916015625,-0.195892333984375,0.347991943359375
1783152100202299100,4.900299072265625,1.029205322265625,-0.3797607421875,0.30889892578125
1783152100212034300,4.910034423828125,1.0365447998046875,-0.658935546875,0.2191009521484375
1783152100221739000,4.919739013671875,1.0139312744140625,-0.9765777587890625,0.0877532958984375
1783152100231443500,4.929443359375,0.99560546875,-1.1848907470703125,-0.049072265625
1783152100241148200,4.939148193359375,0.9986724853515625,-1.2203216552734375,-0.154754638671875
1783152100250883000,4.948883056640625,1.0163726806640625,-1.099365234375,-0.2030029296875
1783152100260587800,4.958587890625,1.033477783203125,-0.8684539794921875,-0.1846771240234375
1783152100270292200,4.968292236328125,1.0475311279296875,-0.6033477783203125,-0.1162567138671875
1783152100279997000,4.977996826171875,1.06402587890625,-0.3638763427734375,-0.017303466796875
1783152100289701600,4.98770166015625,1.0841827392578125,-0.16229248046875,0.1201324462890625
1783152100299436500,4.9974365234375,1.0854034423828125,-0.00714111328125,0.292388916015625
1783152100309141200,5.007141357421875,1.05364990234375,0.099761962890625,0.4823760986328125
1783152100318845700,5.016845703125,0.99560546875,0.177337646484375,0.6790771484375
1783152100328550400,5.02655029296875,0.9394073486328125,0.2164459228515625,0.861724853515625
1783152100338285600,5.03628564453125,0.9033660888671875,0.1926116943359375,1.004669189453125
1783152100347990000,5.045989990234375,0.886260986328125,0.14556884765625,1.083465576171875
1783152100357694700,5.05569482421875,0.8929901123046875,0.12908935546875,1.0908050537109375
1783152100367399200,5.065399169921875,0.92108154296875,0.1480255126953125,1.04315185546875
1783152100377134300,5.07513427734375,0.966278076171875,0.176727294921875,0.9723052978515625
1783152100386839000,5.084839111328125,1.022491455078125,0.1858978271484375,0.90570068359375
1783152100396543500,5.09454345703125,1.0713653564453125,0.1529083251953125,0.856231689453125
1783152100406248200,5.104248291015625,1.0866241455078125,0.0777740478515625,0.824462890625
1783152100415983400,5.1139833984375,1.05670166015625,-0.0163116455078125,0.8092041015625
1783152100425687800,5.123687744140625,0.9827880859375,-0.1054840087890625,0.7988128662109375
1783152100435392500,5.133392578125,0.8648834228515625,-0.1842803955078125,0.7768096923828125
1783152100445127700,5.143127685546875,0.7182769775390625,-0.2581939697265625,0.7334442138671875
1783152100464567300,5.1625673828125,0.3737335205078125,-0.4292449951171875,0.5330810546875
1783152100474271700,5.172271728515625,0.1752166748046875,-0.5416412353515625,0.352874755859375
1783152100483976400,5.1819765625,-0.0135498046875,-0.58868408203125,0.133575439453125
1783152100493681000,5.191680908203125,-0.173583984375,-0.4988861083984375,-0.1022186279296875
1783152100503416000,5.201416015625,-0.2982025146484375,-0.2630767822265625,-0.3160247802734375
1783152100513120800,5.211120849609375,-0.3708953857421875,0.106475830078125,-0.4693450927734375
1783152100522825200,5.2208251953125,-0.3769989013671875,0.55853271484375,-0.55670166015625
1783152100532530000,5.230530029296875,-0.32080078125,1.00445556640625,-0.6074066162109375
1783152100542265000,5.24026513671875,-0.2133026123046875,1.3514251708984375,-0.659942626953125
1783152100551969500,5.249969482421875,-0.0831756591796875,1.540191650390625,-0.7204132080078125
1783152100571378700,5.269378662109375,0.20391845703125,1.6513824462890625,-0.8230438232421875
1783152100581113900,5.27911376953125,0.33648681640625,1.623870849609375,-0.8645782470703125
1783152100590818600,5.288818603515625,0.450103759765625,1.5511932373046875,-0.9000091552734375
1783152100600523000,5.29852294921875,0.55517578125,1.4424591064453125,-0.9293365478515625
1783152100610227700,5.308227783203125,0.6828460693359375,1.2970733642578125,-0.9415435791015625
1783152100619932200,5.31793212890625,0.8563385009765625,1.1174774169921875,-0.9305572509765625
1783152100629667300,5.327667236328125,1.06402587890625,0.9109954833984375,-0.905517578125
1783152100639372000,5.3373720703125,1.2772216796875,0.677642822265625,-0.868865966796875
1783152100649076500,5.347076416015625,1.48431396484375,0.4424591064453125,-0.815704345703125
1783152100658781200,5.35678125,1.678558349609375,0.2225494384765625,-0.745452880859375
1783152100668516400,5.366516357421875,1.843505859375,0.0166778564453125,-0.662384033203125
1783152100678220800,5.376220703125,1.954681396484375,-0.1451873779296875,-0.578094482421875
1783152100687925500,5.385925537109375,1.994384765625,-0.2447662353515625,-0.5005035400390625
1783152100697630000,5.3956298828125,1.957733154296875,-0.273468017578125,-0.4284210205078125
1783152100707365000,5.405365234375,1.8538818359375,-0.2435302734375,-0.3618316650390625
1783152100717069600,5.415069580078125,1.7115478515625,-0.184906005859375,-0.297698974609375
1783152100726774300,5.424774169921875,1.5631103515625,-0.1042633056640625,-0.237823486328125
1783152100736509400,5.434509521484375,1.4378814697265625,-0.01568603515625,-0.199951171875
1783152100746214000,5.4442138671875,1.3566436767578125,0.0728912353515625,-0.202392578125
1783152100755949000,5.453948974609375,1.323028564453125,0.168792724609375,-0.2469940185546875
1783152100765653800,5.46365380859375,1.3291473388671875,0.27630615234375,-0.3227386474609375
1783152100775358200,5.473358154296875,1.3639678955078125,0.3801422119140625,-0.41009521484375
1783152100785063000,5.48306298828125,1.41650390625,0.455291748046875,-0.4925689697265625
1783152100794798000,5.492798095703125,1.4788055419921875,0.4791107177734375,-0.5634307861328125
1783152100804502500,5.50250244140625,1.5423431396484375,0.4473419189453125,-0.6190032958984375
1783152100814207200,5.512207275390625,1.591217041015625,0.388702392578125,-0.6483306884765625
1783152100823911700,5.52191162109375,1.598541259765625,0.3410491943359375,-0.6526031494140625
1783152100833646800,5.531646728515625,1.5460052490234375,0.3007354736328125,-0.6410064697265625
1783152100843351600,5.5413515625,1.4470367431640625,0.27874755859375,-0.620849609375
1783152100853056000,5.551055908203125,1.319366455078125,0.27935791015625,-0.598236083984375
1783152100862760700,5.5607607421875,1.1855926513671875,0.2952423095703125,-0.5725860595703125
1783152100872465200,5.570465087890625,1.06463623046875,0.3337249755859375,-0.54632568359375
1783152100882200300,5.580200439453125,0.9766693115234375,0.389923095703125,-0.519439697265625
1783152100891905000,5.589905029296875,0.92596435546875,0.460174560546875,-0.4980621337890625
1783152100901609500,5.599609375,0.9058074951171875,0.525543212890625,-0.4840087890625
1783152100911314200,5.609314208984375,0.90765380859375,0.5744171142578125,-0.478515625
1783152100921049000,5.619049072265625,0.91864013671875,0.6147308349609375,-0.4717864990234375
1783152100930753800,5.62875390625,0.9290313720703125,0.6422119140625,-0.448577880859375
1783152100940458200,5.638458251953125,0.9345245361328125,0.6648101806640625,-0.39910888671875
1783152100950163000,5.648162841796875,0.9351348876953125,0.6941375732421875,-0.3282318115234375
1783152100959898000,5.657898193359375,0.9284210205078125,0.71002197265625,-0.2463836669921875
1783152100969602600,5.6676025390625,0.91436767578125,0.7228546142578125,-0.155364990234375
1783152100979307300,5.677307373046875,0.9021453857421875,0.7534027099609375,-0.0655670166015625
1783152100989011700,5.68701171875,0.9058074951171875,0.779052734375,0.01995849609375
1783152100998747000,5.696746826171875,0.9387969970703125,0.78759765625,0.101806640625
1783152101008451600,5.70645166015625,0.9974517822265625,0.783935546875,0.17449951171875
1783152101018186800,5.716186767578125,1.0756378173828125,0.7735443115234375,0.2361907958984375
1783152101027891200,5.72589111328125,1.1739959716796875,0.7680511474609375,0.286895751953125
1783152101037596000,5.735595947265625,1.2784423828125,0.7601165771484375,0.32537841796875
1783152101047330800,5.745330810546875,1.3651885986328125,0.6990203857421875,0.3437042236328125
1783152101057035500,5.755035400390625,1.42626953125,0.542022705078125,0.3369903564453125
1783152101066740200,5.764740234375,1.4684295654296875,0.2628631591796875,0.2930145263671875
1783152101076444700,5.774444580078125,1.49530029296875,-0.0767669677734375,0.214202880859375
1783152101086179800,5.784179931640625,1.50079345703125,-0.3162384033203125,0.139068603515625
1783152101095884300,5.79388427734375,1.4824676513671875,-0.347381591796875,0.1207427978515625
1783152101105589000,5.803589111328125,1.454376220703125,-0.16595458984375,0.1812286376953125
1783152101115293700,5.813293701171875,1.4189453125,0.174285888671875,0.3009490966796875
1783152101125028600,5.823028564453125,1.387176513671875,0.5603485107421875,0.428009033203125
1783152101144437800,5.842437744140625,1.394500732421875,1.0264434814453125,0.5532379150390625
1783152101154142500,5.852142578125,1.4342193603515625,1.0673828125,0.5575103759765625
1783152101163877600,5.861877685546875,1.48858642578125,1.0240020751953125,0.5453033447265625
1783152101173582000,5.87158203125,1.5423431396484375,0.893280029296875,0.5208587646484375
1783152101183286800,5.881286865234375,1.5869293212890625,0.670318603515625,0.491546630859375
1783152101192991200,5.8909912109375,1.63458251953125,0.399688720703125,0.4720001220703125
1783152101202696000,5.900696044921875,1.6926116943359375,0.1510772705078125,0.47381591796875
1783152101212431000,5.91043115234375,1.7518768310546875,-0.0694427490234375,0.500091552734375
1783152101222135600,5.920135498046875,1.8013458251953125,-0.2545318603515625,0.541015625
1783152101231840300,5.92984033203125,1.8355560302734375,-0.3712158203125,0.5874481201171875
1783152101241544700,5.939544677734375,1.8422698974609375,-0.4341278076171875,0.6283721923828125
1783152101251280000,5.94927978515625,1.820281982421875,-0.4549102783203125,0.6546478271484375
1783152101260984600,5.958984619140625,1.7744598388671875,-0.4280242919921875,0.6540374755859375
1783152101270689000,5.96868896484375,1.7127685546875,-0.3614349365234375,0.6155548095703125
1783152101280393700,5.978393798828125,1.6425323486328125,-0.2465972900390625,0.5379638671875
1783152101290129000,5.98812890625,1.5783843994140625,-0.0706634521484375,0.423736572265625
1783152101299833300,5.997833251953125,1.535003662109375,0.174896240234375,0.283843994140625
1783152101309568500,6.007568603515625,1.5148468017578125,0.4778900146484375,0.1262359619140625
1783152101319273000,6.01727294921875,1.5124053955078125,0.8004302978515625,-0.0472412109375
1783152101328977700,6.026977783203125,1.525238037109375,1.097930908203125,-0.2268218994140625
1783152101338712800,6.036712890625,1.5545654296875,1.3325042724609375,-0.3978729248046875
1783152101348417300,6.046417236328125,1.5966949462890625,1.4821624755859375,-0.54632568359375
1783152101358122000,6.0561220703125,1.6425323486328125,1.57745361328125,-0.6739959716796875
1783152101367826400,6.065826416015625,1.6889495849609375,1.6348724365234375,-0.7784423828125
1783152101377561600,6.0755615234375,1.743927001953125,1.6574859619140625,-0.84991455078125
1783152101387266300,6.085266357421875,1.809295654296875,1.6458740234375,-0.889007568359375
1783152101396970800,6.094970703125,1.878326416015625,1.5963897705078125,-0.8981781005859375
1783152101406675500,6.104675537109375,1.9430694580078125,1.4937591552734375,-0.884124755859375
1783152101416410600,6.11441064453125,2.0029296875,1.3422698974609375,-0.8493194580078125
1783152101426115000,6.124114990234375,2.06341552734375,1.1602325439453125,-0.799224853515625
1783152101435819800,6.13381982421875,2.1299896240234375,0.954376220703125,-0.734466552734375
1783152101445524200,6.143524169921875,2.20697021484375,0.7582855224609375,-0.656280517578125
1783152101455229000,6.15322900390625,2.288818359375,0.614105224609375,-0.5744171142578125
1783152101464964000,6.162964111328125,2.3651885986328125,0.5047760009765625,-0.4950103759765625
1783152101474668500,6.17266845703125,2.42626953125,0.4106903076171875,-0.4174346923828125
1783152101484373200,6.182373291015625,2.469635009765625,0.3294525146484375,-0.336181640625
1783152101494077700,6.19207763671875,2.4897918701171875,0.27752685546875,-0.2512664794921875
1783152101503812900,6.201812744140625,2.4861297607421875,0.2628631591796875,-0.161468505859375
1783152101513517600,6.211517578125,2.461700439453125,0.2964630126953125,-0.0753326416015625
1783152101523222000,6.221221923828125,2.423828125,0.3642730712890625,-0.0001983642578125
1783152101532926700,6.2309267578125,2.382293701171875,0.449188232421875,0.055999755859375
1783152101542661600,6.24066162109375,2.34808349609375,0.5481414794921875,0.0834808349609375
1783152101552366300,6.250366455078125,2.319366455078125,0.640380859375,0.0779876708984375
1783152101562071000,6.260071044921875,2.2924957275390625,0.71612548828125,0.0401153564453125
1783152101571775500,6.269775390625,2.2674407958984375,0.779052734375,-0.014862060546875
1783152101581510700,6.2795107421875,2.245452880859375,0.824249267578125,-0.0722808837890625
1783152101591245800,6.289245849609375,2.22222900390625,0.8309783935546875,-0.12420654296875
1783152101600950300,6.2989501953125,2.1977996826171875,0.7955474853515625,-0.157806396484375
1783152101610655000,6.308655029296875,2.173980712890625,0.733856201171875,-0.162078857421875
1783152101620390000,6.318389892578125,2.1538238525390625,0.671539306640625,-0.1376495361328125
1783152101630094600,6.328094482421875,2.133056640625,0.6165618896484375,-0.0948944091796875
1783152101639799300,6.33779931640625,2.105560302734375,0.55975341796875,-0.0460205078125
1783152101649503700,6.347503662109375,2.06768798828125,0.501708984375,-0.0014190673828125
1783152101659208400,6.35720849609375,2.024322509765625,0.453460693359375,0.03277587890625
1783152101668943400,6.366943359375,1.9803314208984375,0.42413330078125,0.0535430908203125
1783152101678648000,6.37664794921875,1.9387969970703125,0.41741943359375,0.067596435546875
1783152101688352800,6.386352783203125,1.899688720703125,0.42230224609375,0.0755462646484375
1783152101698057200,6.39605712890625,1.86181640625,0.43511962890625,0.0779876708984375
1783152101707792400,6.40579248046875,1.823333740234375,0.4510040283203125,0.0773773193359375
1783152101717496800,6.415496826171875,1.78546142578125,0.458953857421875,0.0773773193359375
1783152101727201500,6.425201416015625,1.745758056640625,0.454681396484375,0.0773773193359375
1783152101736906200,6.43490625,1.7030029296875,0.43389892578125,0.073089599609375
1783152101746641200,6.44464111328125,1.6584014892578125,0.41131591796875,0.065155029296875
1783152101756345900,6.454345947265625,1.6095428466796875,0.3966522216796875,0.0541534423828125
1783152101766050300,6.46405029296875,1.56005859375,0.389312744140625,0.0401153564453125
1783152101775755000,6.473755126953125,1.5099639892578125,0.388092041015625,0.02423095703125
1783152101785459700,6.483459716796875,1.4659881591796875,0.387481689453125,0.0120086669921875
1783152101795194600,6.493194580078125,1.4317779541015625,0.4045867919921875,0.0083465576171875
1783152101804899300,6.5028994140625,1.4055023193359375,0.4180145263671875,0.0077362060546875
1783152101814603800,6.512603759765625,1.381072998046875,0.396026611328125,0.0004119873046875
1783152101824308500,6.52230859375,1.3554229736328125,0.3428802490234375,-0.022796630859375
1783152101834043600,6.532043701171875,1.3273162841796875,0.27630615234375,-0.0619049072265625
1783152101843748000,6.541748046875,1.2949371337890625,0.2158203125,-0.1071014404296875
1783152101853452800,6.551452880859375,1.2582855224609375,0.1822357177734375,-0.1480255126953125
1783152101863157200,6.5611572265625,1.2216339111328125,0.2005615234375,-0.1785736083984375
1783152101872892400,6.570892333984375,1.1892547607421875,0.2860870361328125,-0.192626953125
1783152101882627600,6.580627685546875,1.169097900390625,0.42901611328125,-0.1852874755859375
1783152101892332000,6.59033203125,1.1599273681640625,0.601898193359375,-0.156585693359375
1783152101902036700,6.60003662109375,1.1538238525390625,0.7601165771484375,-0.11871337890625
1783152101911741400,6.609741455078125,1.1458892822265625,0.86029052734375,-0.089996337890625
1783152101921476400,6.619476318359375,1.1385498046875,0.8841094970703125,-0.0796051025390625
1783152101931181000,6.62918115234375,1.133056640625,0.8407440185546875,-0.082672119140625
1783152101940885500,6.638885498046875,1.1269378662109375,0.7521820068359375,-0.0844879150390625
1783152101950590200,6.648590087890625,1.1202239990234375,0.6397705078125,-0.0710601806640625
1783152101960325400,6.658325439453125,1.1165618896484375,0.5145416259765625,-0.0380706787109375
1783152101970029800,6.66802978515625,1.1116790771484375,0.387481689453125,0.0040740966796875
1783152101979734500,6.677734619140625,1.1055755615234375,0.2707977294921875,0.0437774658203125
1783152101989439000,6.68743896484375,1.097625732421875,0.1877288818359375,0.073699951171875
1783152101999174100,6.697174072265625,1.0841827392578125,0.1547393798828125,0.0920257568359375
1783152102008878800,6.70687890625,1.06158447265625,0.1638946533203125,0.1005859375
1783152102018583300,6.716583251953125,1.029815673828125,0.201171875,0.1036376953125
1783152102028288000,6.7262880859375,0.989501953125,0.256134033203125,0.10302734375
1783152102038023200,6.736023193359375,0.9442901611328125,0.305633544921875,0.1085205078125
1783152102047727600,6.7457275390625,0.9082489013671875,0.3282318115234375,0.1152496337890625
1783152102057432300,6.755432373046875,0.8954315185546875,0.3239593505859375,0.1268463134765625
1783152102067136800,6.76513671875,0.9045867919921875,0.2982940673828125,0.1494598388671875
1783152102076841500,6.774841552734375,0.91986083984375,0.2555389404296875,0.1812286376953125
1783152102086576600,6.78457666015625,0.92352294921875,0.2060546875,0.2178802490234375
1783152102096281000,6.794281005859375,0.91558837890625,0.170013427734375,0.2600250244140625
1783152102105985800,6.80398583984375,0.8954315185546875,0.1492462158203125,0.3033905029296875
1783152102115690200,6.813690185546875,0.8593902587890625,0.1235809326171875,0.339447021484375
1783152102125425400,6.82342529296875,0.808685302734375,0.0777740478515625,0.354705810546875
1783152102135130000,6.833130126953125,0.7573699951171875,0.033172607421875,0.349822998046875
1783152102144834600,6.84283447265625,0.7158355712890625,0.0166778564453125,0.3333282470703125
1783152102154539300,6.852539306640625,0.6828460693359375,0.020965576171875,0.30645751953125
1783152102164274200,6.862274169921875,0.6535186767578125,0.032562255859375,0.2740631103515625
1783152102174009300,6.87200927734375,0.63092041015625,0.0704345703125,0.2398681640625
1783152102183714000,6.881714111328125,0.6132049560546875,0.12664794921875,0.206878662109375
1783152102193418500,6.89141845703125,0.600982666015625,0.160858154296875,0.17144775390625
1783152102203123200,6.901123291015625,0.597930908203125,0.169403076171875,0.134796142578125
1783152102212858400,6.9108583984375,0.6034393310546875,0.176116943359375,0.106689453125
1783152102222562800,6.920562744140625,0.6162567138671875,0.1846771240234375,0.094482421875
1783152102232267500,6.930267578125,0.62969970703125,0.202392578125,0.0999755859375
1783152102241972000,6.939971923828125,0.6431427001953125,0.2268218994140625,0.1231842041015625
1783152102251707100,6.94970703125,0.655364990234375,0.2530975341796875,0.1586151123046875
1783152102261411800,6.959411865234375,0.665740966796875,0.2732391357421875,0.205657958984375
1783152102271116300,6.9691162109375,0.6724700927734375,0.28790283203125,0.2600250244140625
1783152102280821000,6.978821044921875,0.673065185546875,0.28790283203125,0.31378173828125
1783152102290556000,6.988555908203125,0.6736907958984375,0.2683563232421875,0.359588623046875
1783152102300260600,6.998260498046875,0.6816253662109375,0.235992431640625,0.393798828125
1783152102309965300,7.00796533203125,0.6956787109375,0.202392578125,0.4145660400390625
1783152102319669800,7.017669677734375,0.7140045166015625,0.173675537109375,0.429840087890625
1783152102329405000,7.027405029296875,0.734161376953125,0.1510772705078125,0.4438934326171875
1783152102339109400,7.037109375,0.7494354248046875,0.13031005859375,0.45123291015625
1783152102348814000,7.04681396484375,0.7573699951171875,0.1156463623046875,0.4445037841796875
1783152102358518800,7.056518798828125,0.7549285888671875,0.1174774169921875,0.421295166015625
1783152102368223200,7.06622314453125,0.742095947265625,0.13580322265625,0.384033203125
1783152102377958400,7.07595849609375,0.7176666259765625,0.1626739501953125,0.3369903564453125
1783152102387662800,7.085662841796875,0.6871185302734375,0.1913909912109375,0.278961181640625
1783152102397367600,7.095367431640625,0.6571807861328125,0.2158203125,0.214813232421875
1783152102407072300,7.105072265625,0.63092041015625,0.235992431640625,0.151275634765625
1783152102416807200,7.11480712890625,0.6058807373046875,0.2585906982421875,0.0963134765625
1783152102426512000,7.124511962890625,0.5808258056640625,0.2940216064453125,0.0486602783203125
1783152102436216300,7.13421630859375,0.5594482421875,0.3300628662109375,0.0095672607421875
1783152102445951500,7.143951416015625,0.5423431396484375,0.3551025390625,-0.024017333984375
1783152102455686700,7.153686767578125,0.525848388671875,0.36181640625,-0.049072265625
1783152102465391000,7.16339111328125,0.5081329345703125,0.3447265625,-0.0673980712890625
1783152102475095800,7.173095703125,0.48553466796875,0.317840576171875,-0.080230712890625
1783152102484800500,7.182800537109375,0.459259033203125,0.311126708984375,-0.087554931640625
1783152102494505000,7.1925048828125,0.4305572509765625,0.320892333984375,-0.088775634765625
1783152102504240000,7.202240234375,0.4110107421875,0.3386077880859375,-0.0820465087890625
1783152102513944600,7.211944580078125,0.3975677490234375,0.3624420166015625,-0.0710601806640625
1783152102523649300,7.221649169921875,0.3841400146484375,0.3813629150390625,-0.0606842041015625
1783152102533354000,7.23135400390625,0.371917724609375,0.4039764404296875,-0.0460205078125
1783152102543089000,7.2410888671875,0.3596954345703125,0.4363555908203125,-0.0264739990234375
1783152102552793600,7.250793701171875,0.34259033203125,0.465667724609375,-0.0020294189453125
1783152102562498000,7.260498046875,0.3212127685546875,0.4778900146484375,0.02789306640625
1783152102572202800,7.27020263671875,0.2973785400390625,0.4821624755859375,0.0565948486328125
1783152102581938000,7.27993798828125,0.2662353515625,0.48828125,0.071258544921875
1783152102591642400,7.289642333984375,0.2301788330078125,0.5084381103515625,0.061492919921875
1783152102601347000,7.29934716796875,0.19171142578125,0.534698486328125,0.0272979736328125
1783152102611051500,7.309051513671875,0.1471099853515625,0.5627899169921875,-0.0283050537109375
1783152102620786700,7.31878662109375,0.087249755859375,0.6153411865234375,-0.0985565185546875
1783152102630491400,7.328491455078125,0.017608642578125,0.6965789794921875,-0.1773529052734375
1783152102640195800,7.33819580078125,-0.047149658203125,0.7613372802734375,-0.25677490234375
1783152102649900500,7.347900634765625,-0.09356689453125,0.7784423828125,-0.3257904052734375
1783152102659605000,7.35760498046875,-0.1234893798828125,0.7662200927734375,-0.378326416015625
1783152102669340200,7.367340087890625,-0.1503753662109375,0.743011474609375,-0.4070281982421875
1783152102679044900,7.377044921875,-0.178466796875,0.71490478515625,-0.40399169921875
1783152102688749300,7.386749267578125,-0.1992340087890625,0.6923065185546875,-0.3654937744140625
1783152102698454000,7.3964541015625,-0.216339111328125,0.6898651123046875,-0.295867919921875
1783152102708189200,7.406189208984375,-0.24505615234375,0.71002197265625,-0.204833984375
1783152102717893600,7.4158935546875,-0.283538818359375,0.7680511474609375,-0.099151611328125
1783152102727598300,7.425598388671875,-0.32568359375,0.8395233154296875,-0.0008087158203125
1783152102737333200,7.435333251953125,-0.3715057373046875,0.8486785888671875,0.062103271484375
1783152102747068400,7.445068359375,-0.4130401611328125,0.750946044921875,0.069427490234375
1783152102756773000,7.454773193359375,-0.4405364990234375,0.5792999267578125,0.0285186767578125
1783152102766477600,7.4644775390625,-0.45703125,0.380767822265625,-0.0441741943359375
1783152102776182300,7.474182373046875,-0.4576416015625,0.166961669921875,-0.12298583984375
1783152102785917400,7.48391748046875,-0.4350433349609375,-0.057830810546875,-0.1877288818359375
1783152102795622000,7.493621826171875,-0.38861083984375,-0.30523681640625,-0.2219390869140625
1783152102805326600,7.50332666015625,-0.3366851806640625,-0.3895416259765625,-0.2127838134765625
1783152102815031000,7.513031005859375,-0.2615509033203125,-0.30950927734375,-0.162689208984375
1783152102824735700,7.52273583984375,-0.043487548828125,-0.1348114013671875,-0.0844879150390625
1783152102834471000,7.532470947265625,0.269287109375,0.12786865234375,0.0065155029296875
1783152102844175400,7.54217529296875,0.4323883056640625,0.2213287353515625,0.0908050537109375
1783152102853880000,7.551880126953125,0.450103759765625,0.1425323486328125,0.140899658203125
1783152102863584500,7.56158447265625,0.3737335205078125,-0.01019287109375,0.17083740234375
1783152102873319700,7.571319580078125,0.235687255859375,-0.129302978515625,0.1946563720703125
1783152102883024400,7.5810244140625,0.087249755859375,-0.1726837158203125,0.2264251708984375
1783152102892728800,7.590728759765625,-0.0330963134765625,-0.16290283203125,0.2704010009765625
1783152102902433500,7.60043359375,-0.1100616455078125,-0.115264892578125,0.31134033203125
1783152102912168400,7.61016845703125,-0.147918701171875,-0.055389404296875,0.3461456298828125
1783152102921873200,7.619873046875,-0.1662445068359375,0.0166778564453125,0.3699798583984375
1783152102931577900,7.629577880859375,-0.1778717041015625,0.108917236328125,0.3760833740234375
1783152102941282300,7.6392822265625,-0.1931304931640625,0.21826171875,0.3663177490234375
1783152102950987000,7.648987060546875,-0.215118408203125,0.311737060546875,0.339447021484375
1783152102960722000,7.658721923828125,-0.2334442138671875,0.3441162109375,0.2954559326171875
1783152102970426600,7.668426513671875,-0.2310028076171875,0.3037872314453125,0.240478515625
1783152102980131300,7.67813134765625,-0.194976806640625,0.1974945068359375,0.1848907470703125
1783152102989835800,7.687835693359375,-0.131439208984375,0.0508880615234375,0.141510009765625
1783152102999571000,7.697571044921875,-0.056304931640625,-0.096923828125,0.109130859375
1783152103009275400,7.707275390625,0.016387939453125,-0.228271484375,0.0828704833984375
1783152103019010600,7.717010498046875,0.0805206298828125,-0.3351593017578125,0.064544677734375
1783152103028715300,7.72671533203125,0.1300048828125,-0.410308837890625,0.0498809814453125
1783152103038450400,7.736450439453125,0.160552978515625,-0.4677276611328125,0.0340118408203125
1783152103048155000,7.74615478515625,0.169097900390625,-0.5184326171875,0.01812744140625
1783152103057859600,7.755859619140625,0.1519927978515625,-0.563629150390625,0.0028533935546875
1783152103067564000,7.76556396484375,0.1110687255859375,-0.6033477783203125,-0.012420654296875
1783152103077299200,7.77529931640625,0.05548095703125,-0.6186065673828125,-0.0344085693359375
1783152103087004000,7.78500390625,-0.0037689208984375,-0.6045684814453125,-0.0661773681640625
1783152103096708400,7.794708251953125,-0.051422119140625,-0.5807342529296875,-0.1095428466796875
1783152103106413000,7.8044130859375,-0.0795135498046875,-0.5373687744140625,-0.162689208984375
1783152103116117500,7.814117431640625,-0.0911102294921875,-0.4610137939453125,-0.2176666259765625
1783152103125852700,7.823852783203125,-0.09173583984375,-0.349822998046875,-0.26776123046875
1783152103135557000,7.83355712890625,-0.0825653076171875,-0.2239837646484375,-0.308685302734375
1783152103145261800,7.84326171875,-0.067901611328125,-0.1006011962890625,-0.33740234375
1783152103154966500,7.852966552734375,-0.047149658203125,0.0038604736328125,-0.3514556884765625
1783152103164701400,7.862701416015625,-0.021484375,0.0814361572265625,-0.3465576171875
1783152103174406100,7.87240625,0.0102691650390625,0.1193084716796875,-0.3251800537109375
1783152103184110600,7.882110595703125,0.04693603515625,0.1174774169921875,-0.294647216796875
1783152103193815300,7.891815185546875,0.090301513671875,0.0863189697265625,-0.25921630859375
1783152103203550500,7.901550537109375,0.13671875,0.0399017333984375,-0.2201080322265625
1783152103213255000,7.9112548828125,0.1825408935546875,-0.02362060546875,-0.1852874755859375
1783152103222959600,7.920959716796875,0.2222442626953125,-0.0999755859375,-0.157196044921875
1783152103232664000,7.9306640625,0.2509613037109375,-0.1678009033203125,-0.1291046142578125
1783152103242368800,7.94036865234375,0.2631683349609375,-0.2081146240234375,-0.0948944091796875
1783152103252104000,7.95010400390625,0.2576904296875,-0.2184906005859375,-0.053955078125
1783152103261808400,7.959808349609375,0.236907958984375,-0.2111663818359375,-0.016082763671875
1783152103271513000,7.96951318359375,0.20452880859375,-0.194671630859375,0.01385498046875
1783152103281217500,7.979217529296875,0.166046142578125,-0.1867218017578125,0.0321807861328125
1783152103290952700,7.98895263671875,0.120849609375,-0.192230224609375,0.04193115234375
1783152103300657400,7.998657470703125,0.0689239501953125,-0.198944091796875,0.0431671142578125
1783152103310392600,8.008392578125,0.010894775390625,-0.2081146240234375,0.03704833984375
1783152103320097000,8.018096923828125,-0.051422119140625,-0.225830078125,0.0272979736328125
1783152103329801700,8.0278017578125,-0.1161651611328125,-0.2502593994140625,0.01751708984375
1783152103339536600,8.03753662109375,-0.18212890625,-0.273468017578125,0.00897216796875
1783152103349241300,8.047241455078124,-0.24688720703125,-0.2783660888671875,-0.0008087158203125
1783152103358945800,8.05694580078125,-0.3043212890625,-0.2551422119140625,-0.010589599609375
1783152103368681000,8.066680908203125,-0.3556365966796875,-0.207489013671875,-0.019744873046875
1783152103378385700,8.0763857421875,-0.3977813720703125,-0.1525115966796875,-0.025238037109375
1783152103388090000,8.086090087890625,-0.427703857421875,-0.094482421875,-0.019744873046875
1783152103397794800,8.095794921875,-0.4454193115234375,-0.0395050048828125,-0.0014190673828125
1783152103407499300,8.105499267578125,-0.4521331787109375,0.0099639892578125,0.0260772705078125
1783152103417234400,8.115234375,-0.4509124755859375,0.0625,0.055999755859375
1783152103426939100,8.124939208984374,-0.4472503662109375,0.12298583984375,0.074920654296875
1783152103446348300,8.144348388671874,-0.4552001953125,0.12908935546875,0.0285186767578125
1783152103456083500,8.15408349609375,-0.4802398681640625,0.0172882080078125,-0.046630859375
1783152103465788000,8.163787841796875,-0.5065155029296875,-0.129302978515625,-0.13336181640625
1783152103475492600,8.17349267578125,-0.5107879638671875,-0.24169921875,-0.2091217041015625
1783152103485197000,8.183197021484375,-0.4777984619140625,-0.2808074951171875,-0.2518768310546875
1783152103494932200,8.19293212890625,-0.414276123046875,-0.23193359375,-0.2488250732421875
1783152103504637000,8.202636962890624,-0.3403472900390625,-0.1170806884765625,-0.195068359375
1783152103524046000,8.222046142578124,-0.204742431640625,0.1901702880859375,0.069427490234375
1783152103533750500,8.23175048828125,-0.147918701171875,0.3361663818359375,0.2679595947265625
1783152103543485700,8.241485595703125,-0.09844970703125,0.386871337890625,0.4781036376953125
1783152103553190400,8.2511904296875,-0.060577392578125,0.28057861328125,0.6644134521484375
1783152103562894800,8.260894775390625,-0.0312652587890625,0.0753326416015625,0.8036956787109375
1783152103572599600,8.270599609375,-0.0043792724609375,-0.1482391357421875,0.89166259765625
1783152103582334500,8.28033447265625,0.017608642578125,-0.3736572265625,0.924652099609375
1783152103592069600,8.290069580078125,0.0341033935546875,-0.59234619140625,0.9167022705078125
1783152103601774300,8.2997744140625,0.05120849609375,-0.7469024658203125,0.89227294921875
1783152103611478800,8.309478759765625,0.0664825439453125,-0.7847747802734375,0.8745574951171875
1783152103621214000,8.3192138671875,0.0744171142578125,-0.7157440185546875,0.8672332763671875
1783152103630918700,8.328918701171874,0.0817413330078125,-0.5715789794921875,0.859893798828125
1783152103640623000,8.338623046875,0.097625732421875,-0.3858642578125,0.848907470703125
1783152103650327800,8.348327880859374,0.1239013671875,-0.1793975830078125,0.8318023681640625
1783152103660063000,8.35806298828125,0.1526031494140625,0.0136260986328125,0.8049163818359375
1783152103669767400,8.367767333984375,0.1770477294921875,0.1486358642578125,0.7670440673828125
1783152103679472000,8.37747216796875,0.19293212890625,0.1913909912109375,0.7248992919921875
1783152103689176600,8.387176513671875,0.20025634765625,0.1480255126953125,0.6894683837890625
1783152103698881300,8.39688134765625,0.20330810546875,0.06982421875,0.671142578125
1783152103708616400,8.406616455078124,0.20452880859375,0.0142364501953125,0.6766357421875
1783152103718321000,8.41632080078125,0.20086669921875,-0.02178955078125,0.6992340087890625
1783152103728025600,8.426025634765624,0.19049072265625,-0.0645599365234375,0.7279510498046875
1783152103737730000,8.43572998046875,0.170928955078125,-0.116485595703125,0.7438201904296875
1783152103747465200,8.44546533203125,0.1422271728515625,-0.16961669921875,0.7358856201171875
1783152103757170000,8.455169921875,0.1086273193359375,-0.2184906005859375,0.6943511962890625
1783152103766874400,8.464874267578125,0.0689239501953125,-0.260040283203125,0.6198272705078125
1783152103776579000,8.4745791015625,0.018218994140625,-0.30157470703125,0.5208587646484375
1783152103786314000,8.48431396484375,-0.045928955078125,-0.335784912109375,0.4048004150390625
1783152103796018700,8.494018798828124,-0.1234893798828125,-0.348602294921875,0.280792236328125
1783152103805723100,8.50372314453125,-0.213897705078125,-0.344329833984375,0.151275634765625
1783152103815427800,8.513427734375,-0.3134765625,-0.335784912109375,0.02117919921875
1783152103825132500,8.523132568359374,-0.417327880859375,-0.3217315673828125,-0.1052703857421875
1783152103834867500,8.532867431640625,-0.5132293701171875,-0.2948455810546875,-0.226226806640625
1783152103844572200,8.542572265625,-0.5920257568359375,-0.2557525634765625,-0.3465576171875
1783152103854276600,8.552276611328125,-0.642120361328125,-0.2160491943359375,-0.4699554443359375
1783152103863981300,8.561981201171875,-0.6641082763671875,-0.195281982421875,-0.6037445068359375
1783152103873716500,8.571716552734374,-0.6641082763671875,-0.186126708984375,-0.7509613037109375
1783152103883451600,8.58145166015625,-0.642730712890625,-0.131134033203125,-0.885345458984375
1783152103893156000,8.591156005859375,-0.6005859375,-0.0376739501953125,-0.98492431640625
1783152103902860800,8.60086083984375,-0.5480499267578125,0.0130157470703125,-1.0423431396484375
1783152103912595700,8.610595703125,-0.4991912841796875,0.0203399658203125,-1.0618896484375
1783152103922300400,8.620300537109374,-0.45947265625,0.028289794921875,-1.0508880615234375
1783152103932005000,8.630005126953124,-0.4380950927734375,0.020965576171875,-1.028900146484375
1783152103941709600,8.63970947265625,-0.430145263671875,-0.02239990234375,-1.0069122314453125
1783152103951444700,8.64944482421875,-0.420989990234375,-0.0682220458984375,-0.9775848388671875
1783152103961149200,8.659149169921875,-0.4002227783203125,-0.061492919921875,-0.9360504150390625
1783152103970854000,8.66885400390625,-0.37518310546875,-0.0242462158203125,-0.8651885986328125
1783152103980558600,8.67855859375,-0.3745574951171875,-0.0138702392578125,-0.7705078125
1783152103990263000,8.688262939453125,-0.4380950927734375,-0.051116943359375,-0.68743896484375
1783152103999998200,8.697998291015624,-0.649444580078125,0.035003662109375,-0.587860107421875
1783152104009702700,8.70770263671875,-0.708099365234375,-0.0670013427734375,-0.371612548828125
1783152104019407400,8.717407470703124,-0.6225738525390625,-0.420074462890625,-0.2066802978515625
1783152104029111800,8.72711181640625,-0.52606201171875,-0.762786865234375,-0.154144287109375
1783152104038847000,8.736846923828125,-0.4362640380859375,-0.958251953125,-0.12420654296875
1783152104048551700,8.7465517578125,-0.356231689453125,-1.0052947998046875,-0.0643463134765625
1783152104058256100,8.756256103515625,-0.317138671875,-0.914276123046875,0.0052947998046875
1783152104067960800,8.7659609375,-0.3024749755859375,-0.7505645751953125,0.0401153564453125
1783152104077696000,8.775696044921874,-0.3006439208984375,-0.563018798828125,0.04071044921875
1783152104087400400,8.785400390625,-0.287811279296875,-0.410308837890625,0.02239990234375
1783152104097105200,8.795105224609374,-0.281097412109375,-0.30035400390625,-0.013641357421875
1783152104106809600,8.8048095703125,-0.3055419921875,-0.1812286376953125,-0.058837890625
1783152104116544800,8.814544677734375,-0.357452392578125,-0.02850341796875,-0.089996337890625
1783152104126249500,8.82424951171875,-0.415496826171875,0.1553497314453125,-0.094268798828125
1783152104135954000,8.833953857421875,-0.4576416015625,0.3648834228515625,-0.0728912353515625
1783152104145658600,8.84365869140625,-0.4796295166015625,0.5811309814453125,-0.0374603271484375
1783152104155363000,8.853363037109375,-0.4839019775390625,0.749725341796875,-0.0026397705078125
1783152104165098200,8.86309814453125,-0.4741363525390625,0.8486785888671875,0.03277587890625
1783152104174833400,8.87283349609375,-0.4441986083984375,0.8700714111328125,0.0810394287109375
1783152104184537900,8.882537841796875,-0.39227294921875,0.7882080078125,0.138458251953125
1783152104194242600,8.89224267578125,-0.3293609619140625,0.5487518310546875,0.1946563720703125
1783152104203977700,8.901977783203124,-0.2633819580078125,0.1828460693359375,0.250244140625
1783152104213682200,8.91168212890625,-0.206573486328125,-0.16290283203125,0.30889892578125
1783152104223387000,8.921386962890624,-0.1741943359375,-0.3535003662109375,0.3681488037109375
1783152104233091300,8.93109130859375,-0.1632080078125,-0.332122802734375,0.4176177978515625
1783152104242826500,8.940826416015625,-0.1540374755859375,-0.1079254150390625,0.45123291015625
1783152104252531200,8.95053125,-0.1186065673828125,0.2378082275390625,0.46099853515625
1783152104262235600,8.960235595703125,-0.048370361328125,0.593963623046875,0.423126220703125
1783152104271940400,8.9699404296875,0.04815673828125,0.84442138671875,0.32232666015625
1783152104281644800,8.979644775390625,0.158111572265625,0.888397216796875,0.1647186279296875
1783152104291380000,8.9893798828125,0.2576904296875,0.669708251953125,-0.0344085693359375
1783152104301084700,8.999084716796874,0.305938720703125,0.1883392333984375,-0.27569580078125
1783152104310789000,9.0087890625,0.266845703125,-0.46038818359375,-0.5505828857421875
1783152104320493800,9.018493896484374,0.1477203369140625,-1.0376739501953125,-0.818145751953125
1783152104330229000,9.02822900390625,0.018218994140625,-1.3541107177734375,-1.030120849609375
1783152104339933400,9.037933349609375,-0.0813446044921875,-1.3376007080078125,-1.13641357421875
1783152104349638100,9.04763818359375,-0.147918701171875,-0.985137939453125,-1.12542724609375
1783152104359342600,9.057342529296875,-0.1839752197265625,-0.4029693603515625,-1.0069122314453125
1783152104369077800,9.067077880859374,-0.1876373291015625,0.2720184326171875,-0.808990478515625
1783152104378782500,9.076782470703124,-0.1522064208984375,0.879852294921875,-0.55731201171875
1783152104388487000,9.08648681640625,-0.0789031982421875,1.319061279296875,-0.2848663330078125
1783152104398191600,9.096191650390624,0.020050048828125,1.5866241455078125,-0.025238037109375
1783152104407896000,9.10589599609375,0.1287841796875,1.71612548828125,0.204437255859375
1783152104417631200,9.11563134765625,0.225921630859375,1.71917724609375,0.3822021484375
1783152104427336000,9.1253359375,0.303497314453125,1.57867431640625,0.500701904296875
1783152104437040400,9.135040283203125,0.3615264892578125,1.3092803955078125,0.5593414306640625
1783152104446745000,9.1447451171875,0.4018402099609375,0.9513092041015625,0.569122314453125
1783152104456480000,9.15447998046875,0.4195709228515625,0.5536346435546875,0.5318603515625
1783152104466215200,9.164215087890625,0.4085693359375,0.173065185546875,0.4579315185546875
1783152104475920000,9.173919921875,0.3603057861328125,-0.1091461181640625,0.3650970458984375
1783152104485624300,9.183624267578125,0.2735595703125,-0.2136077880859375,0.2752838134765625
1783152104495359500,9.193359375,0.155670166015625,-0.136627197265625,0.205657958984375
1783152104505064200,9.203064208984374,0.0298309326171875,0.0399017333984375,0.1598358154296875
1783152104514768600,9.2127685546875,-0.0813446044921875,0.249420166015625,0.1268463134765625
1783152104524473300,9.222473388671874,-0.1558685302734375,0.451629638671875,0.0926361083984375
1783152104543913000,9.241912841796875,-0.1662445068359375,0.742401123046875,-0.013641357421875
1783152104553617700,9.25161767578125,-0.1216583251953125,0.816925048828125,-0.0759429931640625
1783152104563322000,9.261322021484375,-0.066680908203125,0.84442138671875,-0.1358184814453125
1783152104573026800,9.27102685546875,-0.0111083984375,0.8437957763671875,-0.18896484375
1783152104582761700,9.28076171875,0.0450897216796875,0.829132080078125,-0.232330322265625
1783152104592466400,9.290466552734374,0.102508544921875,0.788818359375,-0.26165771484375
1783152104602171100,9.300171142578124,0.166656494140625,0.72344970703125,-0.27081298828125
1783152104611875600,9.30987548828125,0.2466888427734375,0.630615234375,-0.26165771484375
1783152104621610800,9.31961083984375,0.34625244140625,0.5169830322265625,-0.235992431640625
1783152104631315200,9.329315185546875,0.456817626953125,0.390533447265625,-0.1956787109375
1783152104641020000,9.33902001953125,0.5594482421875,0.2659149169921875,-0.1413116455078125
1783152104650724400,9.348724365234375,0.6419219970703125,0.1584014892578125,-0.077789306640625
1783152104660459500,9.35845947265625,0.6981201171875,0.066162109375,-0.021575927734375
1783152104670164200,9.368164306640624,0.7256011962890625,-0.043792724609375,0.01751708984375
1783152104679868700,9.37786865234375,0.7256011962890625,-0.1867218017578125,0.0388946533203125
1783152104689573400,9.387573486328124,0.70849609375,-0.332122802734375,0.0474395751953125
1783152104699308500,9.39730859375,0.6846771240234375,-0.4665069580078125,0.0468292236328125
1783152104709013000,9.407012939453125,0.662078857421875,-0.5373687744140625,0.0468292236328125
1783152104718717700,9.4167177734375,0.63580322265625,-0.5117034912109375,0.0535430908203125
1783152104728422100,9.426422119140625,0.6052703857421875,-0.4243621826171875,0.057220458984375
1783152104738157300,9.4361572265625,0.5716705322265625,-0.30767822265625,0.0480499267578125
1783152104747892500,9.445892578125,0.5301361083984375,-0.197723388671875,0.0340118408203125
1783152104757597000,9.455596923828125,0.4720916748046875,-0.129302978515625,0.01873779296875
1783152104767301600,9.465301513671875,0.4012451171875,-0.0963134765625,0.0010223388671875
1783152104777006300,9.47500634765625,0.3321990966796875,-0.1054840087890625,-0.020355224609375
1783152104786741200,9.4847412109375,0.2808990478515625,-0.1806182861328125,-0.046630859375
1783152104796446000,9.494446044921874,0.2540130615234375,-0.3626556396484375,-0.0783843994140625
1783152104806150400,9.504150390625,0.19171142578125,-0.3571624755859375,-0.1022186279296875
1783152104815855000,9.513855224609374,0.1391754150390625,-0.3009490966796875,-0.097930908203125
1783152104825590300,9.52359033203125,0.1263427734375,-0.328460693359375,-0.095489501953125
1783152104835294700,9.533294677734375,0.159332275390625,-0.340057373046875,-0.091217041015625
1783152104844999400,9.54299951171875,0.20391845703125,-0.346771240234375,-0.0808258056640625
1783152104854703900,9.552703857421875,0.2546234130859375,-0.338836669921875,-0.049072265625
1783152104864408600,9.56240869140625,0.304718017578125,-0.2948455810546875,0.0132293701171875
1783152104874143700,9.572143798828124,0.33770751953125,-0.2472076416015625,0.101806640625
1783152104883848200,9.58184814453125,0.34869384765625,-0.23193359375,0.212371826171875
1783152104893553000,9.591552978515624,0.33831787109375,-0.2386474609375,0.3327178955078125
1783152104903257300,9.60125732421875,0.310211181640625,-0.2795867919921875,0.4530487060546875
1783152104912992500,9.610992431640625,0.269287109375,-0.349822998046875,0.567291259765625
1783152104922697200,9.620697265625,0.2185821533203125,-0.413360595703125,0.6650238037109375
1783152104932401700,9.630401611328125,0.162384033203125,-0.45916748046875,0.7328338623046875
1783152104942106400,9.6401064453125,0.1037445068359375,-0.474456787109375,0.7566680908203125
1783152104951841500,9.649841552734374,0.04449462890625,-0.4689483642578125,0.7297821044921875
1783152104961546000,9.6595458984375,-0.008056640625,-0.44635009765625,0.6607513427734375
1783152104971250700,9.669250732421874,-0.048370361328125,-0.4023590087890625,0.564239501953125
1783152104980955100,9.678955078125,-0.0734100341796875,-0.345550537109375,0.4530487060546875
1783152104990659800,9.688659912109374,-0.0862274169921875,-0.2838592529296875,0.3363800048828125
1783152105000395000,9.69839501953125,-0.0886688232421875,-0.2294921875,0.2313079833984375
1783152105010099500,9.708099365234375,-0.0770721435546875,-0.202606201171875,0.1537322998046875
1783152105019804200,9.71780419921875,-0.0544586181640625,-0.2056732177734375,0.1097412109375
1783152105029539000,9.7275390625,-0.0337066650390625,-0.2117767333984375,0.10791015625
1783152105039274200,9.737274169921875,-0.042266845703125,-0.2136077880859375,0.1494598388671875
1783152105048979000,9.74697900390625,-0.09844970703125,-0.2527008056640625,0.212982177734375
1783152105058683400,9.756683349609375,-0.1876373291015625,-0.3247833251953125,0.285675048828125
1783152105068388000,9.76638818359375,-0.273162841796875,-0.3999176025390625,0.357757568359375
1783152105078123300,9.776123291015624,-0.3311920166015625,-0.488494873046875,0.4115142822265625
1783152105087827700,9.78582763671875,-0.3647918701171875,-0.6234893798828125,0.4102935791015625
1783152105097532400,9.795532470703124,-0.38128662109375,-0.802490234375,0.3260040283203125
1783152105107236900,9.80523681640625,-0.38616943359375,-0.983306884765625,0.16412353515625
1783152105116972000,9.814971923828125,-0.38311767578125,-1.0773773193359375,-0.0295257568359375
1783152105126676700,9.8246767578125,-0.3635711669921875,-1.02301025390625,-0.2066802978515625
1783152105136381200,9.834381103515625,-0.3311920166015625,-0.852569580078125,-0.338623046875
1783152105146086000,9.8440859375,-0.289031982421875,-0.6118927001953125,-0.41375732421875
1783152105155790300,9.853790283203125,-0.23895263671875,-0.3553314208984375,-0.4308624267578125
1783152105165525500,9.863525390625,-0.1778717041015625,-0.15435791015625,-0.3960418701171875
1783152105175230200,9.873230224609374,-0.10455322265625,-0.049896240234375,-0.3172454833984375
1783152105184934700,9.8829345703125,-0.0324859619140625,0.0081329345703125,-0.2109527587890625
1783152105194639400,9.892639404296874,0.021881103515625,0.068603515625,-0.1028289794921875
1783152105204374300,9.902374267578125,0.05426025390625,0.102203369140625,-0.011810302734375
1783152105214079000,9.912078857421875,0.081146240234375,0.1186981201171875,0.068206787109375
1783152105223783700,9.92178369140625,0.1177978515625,0.1492462158203125,0.1445770263671875
1783152105233488100,9.931488037109375,0.1746063232421875,0.1840667724609375,0.210540771484375
1783152105243223300,9.941223388671874,0.244842529296875,0.204833984375,0.2606353759765625
1783152105252927700,9.950927734375,0.315704345703125,0.1981048583984375,0.292388916015625
1783152105262632400,9.960632568359374,0.3737335205078125,0.1522979736328125,0.30889892578125
1783152105272337200,9.970337158203124,0.4146728515625,0.0875396728515625,0.32110595703125
1783152105282072000,9.980072021484375,0.4372711181640625,0.025848388671875,0.3345489501953125
1783152105291776800,9.98977685546875,0.4360504150390625,-0.02728271484375,0.344329833984375
1783152105301481200,9.999481201171875,0.4085693359375,-0.0657806396484375,0.3369903564453125
1783152105311216400,10.00921630859375,0.3603057861328125,-0.0853271484375,0.3052215576171875
1783152105320921000,10.018921142578124,0.298004150390625,-0.0865478515625,0.2423095703125
1783152105330656000,10.028656005859375,0.230804443359375,-0.0804290771484375,0.1506805419921875
1783152105340360700,10.038360595703125,0.169708251953125,-0.061492919921875,0.0364532470703125
1783152105350065400,10.0480654296875,0.1122894287109375,-0.00958251953125,-0.085113525390625
1783152105359769900,10.057769775390625,0.0615997314453125,0.068603515625,-0.202392578125
1783152105369505000,10.067505126953124,0.029205322265625,0.1602325439453125,-0.299530029296875
1783152105379209500,10.07720947265625,0.026153564453125,0.2598114013671875,-0.3618316650390625
1783152105388914200,10.0869140625,0.05181884765625,0.386260986328125,-0.3832244873046875
1783152105398619000,10.096618896484374,0.0994720458984375,0.527374267578125,-0.375274658203125
1783152105408353800,10.106353759765625,0.162994384765625,0.630615234375,-0.3532867431640625
1783152105418058500,10.11605859375,0.233856201171875,0.681915283203125,-0.3233489990234375
1783152105427763000,10.125762939453125,0.301666259765625,0.6892547607421875,-0.2848663330078125
1783152105437467600,10.135467529296875,0.3523712158203125,0.6623687744140625,-0.234771728515625
1783152105456907300,10.1549072265625,0.4030609130859375,0.529205322265625,-0.12664794921875
1783152105466612000,10.164612060546874,0.4085693359375,0.455902099609375,-0.081451416015625
1783152105486021000,10.184021240234374,0.384735107421875,0.3349456787109375,-0.0337982177734375
1783152105505460700,10.203460693359375,0.3321990966796875,0.2909698486328125,-0.0771636962890625
1783152105515165400,10.21316552734375,0.2985992431640625,0.306854248046875,-0.1419219970703125
1783152105524870000,10.222869873046875,0.275390625,0.3276214599609375,-0.229888916015625
1783152105534605000,10.23260498046875,0.271728515625,0.3300628662109375,-0.3276214599609375
1783152105544309800,10.242309814453124,0.2802734375,0.3239593505859375,-0.42047119140625
1783152105554014200,10.25201416015625,0.2900543212890625,0.313568115234375,-0.4944000244140625
1783152105563719000,10.261718994140624,0.2906646728515625,0.2952423095703125,-0.5359344482421875
1783152105573423400,10.27142333984375,0.2888336181640625,0.2982940673828125,-0.5365447998046875
1783152105583158500,10.281158447265625,0.2894439697265625,0.312957763671875,-0.5047760009765625
1783152105592863200,10.29086328125,0.2924957275390625,0.2946319580078125,-0.4540863037109375
1783152105602598100,10.30059814453125,0.2955474853515625,0.245758056640625,-0.387481689453125
1783152105612302800,10.310302734375,0.2949371337890625,0.1944427490234375,-0.308685302734375
1783152105622038000,10.3200380859375,0.2845611572265625,0.1504669189453125,-0.2256011962890625
1783152105631742500,10.329742431640625,0.2576904296875,0.1071014404296875,-0.152313232421875
1783152105641447200,10.339447265625,0.2161407470703125,0.0679931640625,-0.11566162109375
1783152105651151600,10.349151611328125,0.1739959716796875,0.0582275390625,-0.11993408203125
1783152105660886800,10.35888671875,0.1373443603515625,0.0863189697265625,-0.166351318359375
1783152105670591500,10.368591552734374,0.1104583740234375,0.1217498779296875,-0.2524871826171875
1783152105680296000,10.3782958984375,0.1031341552734375,0.1480255126953125,-0.3545074462890625
1783152105690000600,10.388000732421874,0.1183929443359375,0.1486358642578125,-0.454681396484375
1783152105699735800,10.39773583984375,0.1458892822265625,0.12298583984375,-0.5444793701171875
1783152105709440300,10.407440185546875,0.163604736328125,0.1132049560546875,-0.6086273193359375
1783152105719145000,10.41714501953125,0.166046142578125,0.14434814453125,-0.630615234375
1783152105728849400,10.426849365234375,0.158721923828125,0.1877288818359375,-0.626953125
1783152105738554000,10.43655419921875,0.1519927978515625,0.2164459228515625,-0.6055755615234375
1783152105748289300,10.446289306640624,0.1471099853515625,0.2256011962890625,-0.5731964111328125
1783152105757993700,10.45599365234375,0.1312255859375,0.219482421875,-0.54998779296875
1783152105767698400,10.465698486328124,0.1159515380859375,0.2201080322265625,-0.5341033935546875
1783152105777403000,10.47540283203125,0.1067962646484375,0.241485595703125,-0.5267791748046875
1783152105787138000,10.485137939453125,0.1098480224609375,0.28546142578125,-0.520660400390625
1783152105796842800,10.4948427734375,0.1171722412109375,0.353271484375,-0.516998291015625
1783152105806547200,10.504547119140625,0.093963623046875,0.5066070556640625,-0.515167236328125
1783152105816252000,10.514251953125,0.06219482421875,0.683135986328125,-0.5011138916015625
1783152105825986800,10.52398681640625,0.091522216796875,0.6422119140625,-0.521270751953125
1783152105835691500,10.53369140625,0.126953125,0.57379150390625,-0.6141204833984375
1783152105845396200,10.543396240234374,0.1764373779296875,0.5493621826171875,-0.7191925048828125
1783152105855100700,10.5531005859375,0.2485198974609375,0.5487518310546875,-0.774169921875
1783152105864835800,10.5628359375,0.308380126953125,0.5426483154296875,-0.7588958740234375
1783152105874540300,10.572540283203125,0.3315887451171875,0.535919189453125,-0.6831512451171875
1783152105884275500,10.582275390625,0.3254852294921875,0.56707763671875,-0.55914306640625
1783152105893980200,10.591980224609374,0.305938720703125,0.6422119140625,-0.3997039794921875
1783152105903684600,10.6016845703125,0.2876129150390625,0.747894287109375,-0.222564697265625
1783152105913419800,10.611419677734375,0.275390625,0.901214599609375,-0.0380706787109375
1783152105923124500,10.62112451171875,0.2705078125,1.0960845947265625,0.1580047607421875
1783152105932829000,10.630828857421875,0.2564544677734375,1.2225341796875,0.341888427734375
1783152105942533600,10.64053369140625,0.2149200439453125,1.2017669677734375,0.4835968017578125
1783152105952268500,10.6502685546875,0.1464996337890625,1.0869293212890625,0.5801239013671875
1783152105961973200,10.65997314453125,0.05792236328125,0.893280029296875,0.6283721923828125
1783152105971678000,10.669677978515624,-0.0465240478515625,0.590301513671875,0.60699462890625
1783152105981382400,10.67938232421875,-0.1503753662109375,0.2060546875,0.499481201171875
1783152105991117600,10.68911767578125,-0.23956298828125,-0.1451873779296875,0.31256103515625
1783152106000822000,10.698822021484375,-0.2694854736328125,-0.30889892578125,0.1317291259765625
1783152106010526700,10.708526611328125,-0.2285614013671875,-0.1818389892578125,0.0334014892578125
1783152106020231400,10.7182314453125,-0.1436614990234375,0.174896240234375,0.0352325439453125
1783152106029935900,10.727935791015625,-0.047149658203125,0.6190032958984375,0.129913330078125
1783152106039671000,10.737671142578124,0.0420379638671875,1.0050811767578125,0.2985076904296875
1783152106049375500,10.74737548828125,0.1196136474609375,1.217041015625,0.5208587646484375
1783152106059080200,10.757080078125,0.1764373779296875,1.219482421875,0.76336669921875
1783152106068785000,10.766784912109374,0.20269775390625,1.0655517578125,1.001007080078125
1783152106078519800,10.776519775390625,0.20208740234375,0.8352508544921875,1.212371826171875
1783152106097929000,10.795928955078125,0.1526031494140625,0.353271484375,1.46649169921875
1783152106107633700,10.805633544921875,0.1477203369140625,0.1920013427734375,1.4872589111328125
1783152106117368800,10.815368896484374,0.157501220703125,0.107696533203125,1.428619384765625
1783152106127073300,10.8250732421875,0.162384033203125,0.0631103515625,1.290557861328125
1783152106136778000,10.834778076171874,0.1507720947265625,0.021575927734375,1.0883636474609375
1783152106146482400,10.844482421875,0.1226806640625,-0.0382843017578125,0.857452392578125
1783152106156187100,10.854187255859374,0.0628204345703125,-0.139068603515625,0.6295928955078125
1783152106165922300,10.86392236328125,-0.0300445556640625,-0.2502593994140625,0.4145660400390625
1783152106175657200,10.8736572265625,-0.133270263671875,-0.30279541015625,0.209320068359375
1783152106185362000,10.88336181640625,-0.2297821044921875,-0.2838592529296875,0.01690673828125
1783152106195066600,10.893066650390624,-0.3134765625,-0.233154296875,-0.152923583984375
1783152106204801500,10.902801513671875,-0.3708953857421875,-0.16351318359375,-0.2909698486328125
1783152106214506200,10.91250634765625,-0.3947296142578125,-0.0651702880859375,-0.3868865966796875
1783152106224210700,10.922210693359375,-0.38739013671875,0.026458740234375,-0.4333038330078125
1783152106233915400,10.931915283203125,-0.348297119140625,0.0844879150390625,-0.434539794921875
1783152106243650600,10.941650634765624,-0.281097412109375,0.1150360107421875,-0.3954315185546875
1783152106253355000,10.95135498046875,-0.203521728515625,0.1199188232421875,-0.336181640625
1783152106263059700,10.961059814453124,-0.1240997314453125,0.102813720703125,-0.2726593017578125
1783152106272764200,10.97076416015625,-0.050201416015625,0.068603515625,-0.2133941650390625
1783152106282499300,10.980499267578125,0.024322509765625,0.027069091796875,-0.168792724609375
1783152106292204000,10.9902041015625,0.1043548583984375,-0.02239990234375,-0.1394805908203125
1783152106301908500,10.999908447265625,0.1794891357421875,-0.0963134765625,-0.12542724609375
1783152106311613200,11.00961328125,0.2289581298828125,-0.184906005859375,-0.1095428466796875
1783152106321317600,11.019317626953125,0.2509613037109375,-0.2575836181640625,-0.0741119384765625
1783152106331052800,11.029052734375,0.2546234130859375,-0.31683349609375,-0.013031005859375
1783152106340757500,11.038757568359374,0.2430267333984375,-0.3785400390625,0.062103271484375
1783152106350462000,11.0484619140625,0.2155303955078125,-0.4573516845703125,0.136627197265625
1783152106360166700,11.058166748046874,0.169708251953125,-0.5294189453125,0.2013702392578125
1783152106369901800,11.06790185546875,0.1116790771484375,-0.59051513671875,0.242919921875
1783152106379606300,11.077606201171875,0.04693603515625,-0.6809234619140625,0.2600250244140625
1783152106389311000,11.08731103515625,-0.0208740234375,-0.7982177734375,0.2728424072265625
1783152106399015400,11.097015380859375,-0.0911102294921875,-0.87457275390625,0.3003387451171875
1783152106408750600,11.10675048828125,-0.1778717041015625,-0.88494873046875,0.347991943359375
1783152106418455300,11.116455322265624,-0.2896575927734375,-0.8672332763671875,0.4017486572265625
1783152106428159700,11.12615966796875,-0.4057159423828125,-0.847686767578125,0.4487762451171875
1783152106437864400,11.135864501953124,-0.497955322265625,-0.7896575927734375,0.46527099609375
1783152106447599400,11.145599365234375,-0.5523223876953125,-0.673583984375,0.4353485107421875
1783152106457334500,11.15533447265625,-0.5755462646484375,-0.556915283203125,0.355926513671875
1783152106467039200,11.165039306640624,-0.576141357421875,-0.4774932861328125,0.240478515625
1783152106476743700,11.17474365234375,-0.565155029296875,-0.4353485107421875,0.1146392822265625
1783152106486448400,11.184448486328124,-0.559051513671875,-0.416412353515625,-0.0050811767578125
1783152106496183600,11.19418359375,-0.563934326171875,-0.406036376953125,-0.1064910888671875
1783152106505888000,11.203887939453125,-0.570037841796875,-0.384033203125,-0.1810150146484375
1783152106515592700,11.2135927734375,-0.573089599609375,-0.344329833984375,-0.223785400390625
1783152106525297200,11.223297119140625,-0.5816497802734375,-0.29547119140625,-0.231719970703125
1783152106535032300,11.2330322265625,-0.5987548828125,-0.2563629150390625,-0.2054595947265625
1783152106544737000,11.242737060546874,-0.6244049072265625,-0.2435302734375,-0.159637451171875
1783152106554441500,11.25244140625,-0.640289306640625,-0.2557525634765625,-0.1113739013671875
1783152106564146200,11.262146240234374,-0.632965087890625,-0.2985076904296875,-0.0680084228515625
1783152106573881300,11.27188134765625,-0.604248046875,-0.3657073974609375,-0.0319671630859375
1783152106583585800,11.281585693359375,-0.562103271484375,-0.4298553466796875,-0.007537841796875
1783152106593290500,11.29129052734375,-0.5150604248046875,-0.4695587158203125,0.0071258544921875
1783152106602995000,11.300994873046875,-0.4698638916015625,-0.4988861083984375,0.0120086669921875
1783152106612699600,11.31069970703125,-0.428924560546875,-0.5263671875,0.0095672607421875
1783152106622434600,11.3204345703125,-0.39166259765625,-0.5422515869140625,0.0065155029296875
1783152106632139300,11.33013916015625,-0.3635711669921875,-0.560577392578125,0.0046844482421875
1783152106641844000,11.339843994140624,-0.343414306640625,-0.5801239013671875,0.0052947998046875
1783152106651548400,11.34954833984375,-0.3360748291015625,-0.5813446044921875,0.01385498046875
1783152106661283600,11.35928369140625,-0.338531494140625,-0.5691375732421875,0.03582763671875
1783152106670984400,11.368984375,-0.3403472900390625,-0.554473876953125,0.071868896484375
1783152106680689000,11.37868896484375,-0.3311920166015625,-0.5367584228515625,0.1128082275390625
1783152106690393600,11.3883935546875,-0.3061370849609375,-0.5281982421875,0.1549530029296875
1783152106700128800,11.398128662109375,-0.280487060546875,-0.5789031982421875,0.2001495361328125
1783152106709833200,11.407833251953125,-0.2694854736328125,-0.6797027587890625,0.247802734375
1783152106719538000,11.417537841796875,-0.282928466796875,-0.7823333740234375,0.2991180419921875
1783152106729242400,11.427242431640625,-0.3153076171875,-0.8299713134765625,0.349822998046875
1783152106738977500,11.4369775390625,-0.350738525390625,-0.7975921630859375,0.4023590087890625
1783152106748712700,11.446712646484375,-0.38800048828125,-0.693756103515625,0.46038818359375
1783152106758417200,11.456417236328125,-0.4338226318359375,-0.5068206787109375,0.527587890625
1783152106768121900,11.466121826171875,-0.497344970703125,-0.2948455810546875,0.5911102294921875
1783152106777826300,11.475826416015625,-0.576141357421875,-0.192230224609375,0.61248779296875
1783152106787561500,11.4855615234375,-0.6500701904296875,-0.2392578125,0.579498291015625
1783152106797266200,11.49526611328125,-0.6940460205078125,-0.3339385986328125,0.5104827880859375
1783152106806970600,11.504970703125,-0.7203216552734375,-0.424957275390625,0.427398681640625
1783152106816675300,11.51467529296875,-0.745361328125,-0.5459136962890625,0.3382110595703125
1783152106826410500,11.524410400390625,-0.7691802978515625,-0.6497650146484375,0.2447509765625
1783152106836115000,11.534114990234375,-0.7636871337890625,-0.6790924072265625,0.1598358154296875
1783152106845819600,11.543819580078125,-0.708099365234375,-0.6424407958984375,0.1005859375
1783152106855524000,11.553524169921875,-0.6085205078125,-0.5715789794921875,0.0877532958984375
1783152106865259300,11.56325927734375,-0.490631103515625,-0.483001708984375,0.1268463134765625
1783152106874964000,11.5729638671875,-0.3971710205078125,-0.410919189453125,0.215423583984375
1783152106884668400,11.58266845703125,-0.347686767578125,-0.3589935302734375,0.3382110595703125
1783152106894373000,11.592373046875,-0.351348876953125,-0.30645751953125,0.497039794921875
1783152106904077600,11.60207763671875,-0.4069366455078125,-0.2423095703125,0.6680908203125
1783152106913812700,11.611812744140625,-0.5083465576171875,-0.2148284912109375,0.8049163818359375
1783152106923517400,11.621517333984375,-0.6213531494140625,-0.2838592529296875,0.8763885498046875
1783152106933222000,11.631221923828125,-0.705047607421875,-0.46038818359375,0.864776611328125
1783152106942926600,11.640926513671875,-0.7331390380859375,-0.7133026123046875,0.781097412109375
1783152106952661500,11.65066162109375,-0.702606201171875,-0.988800048828125,0.647918701171875
1783152106962366200,11.6603662109375,-0.636627197265625,-1.207489013671875,0.500701904296875
1783152106972071000,11.67007080078125,-0.564544677734375,-1.2905731201171875,0.3626556396484375
1783152106981775400,11.679775390625,-0.5113983154296875,-1.2245941162109375,0.244140625
1783152106991510500,11.689510498046875,-0.4790191650390625,-1.0565948486328125,0.1537322998046875
1783152107001215000,11.699215087890625,-0.4716796875,-0.850738525390625,0.0926361083984375
1783152107010919700,11.708919677734375,-0.498565673828125,-0.6564788818359375,0.063323974609375
1783152107020624100,11.7186240234375,-0.559661865234375,-0.5166015625,0.058441162109375
1783152107030359300,11.728359375,-0.6451873779296875,-0.4713897705078125,0.066986083984375
1783152107040094500,11.738094482421875,-0.7331390380859375,-0.5049896240234375,0.0767669677734375
1783152107049799200,11.747799072265625,-0.8021697998046875,-0.561187744140625,0.0798187255859375
1783152107059503600,11.757503662109375,-0.8412628173828125,-0.6082305908203125,0.063934326171875
1783152107069208300,11.767208251953125,-0.846771240234375,-0.630218505859375,0.0120086669921875
1783152107088648000,11.78664794921875,-0.780792236328125,-0.58502197265625,-0.190185546875
1783152107098352600,11.7963525390625,-0.716033935546875,-0.554473876953125,-0.298919677734375
1783152107108057000,11.80605712890625,-0.639678955078125,-0.5691375732421875,-0.367340087890625
1783152107117792300,11.815792236328125,-0.5523223876953125,-0.59051513671875,-0.380157470703125
1783152107127496700,11.82549658203125,-0.4613037109375,-0.556304931640625,-0.3538970947265625
1783152107137201400,11.835201416015625,-0.37518310546875,-0.4597930908203125,-0.308685302734375
1783152107146906000,11.844906005859375,-0.3128662109375,-0.3553314208984375,-0.245147705078125
1783152107156610600,11.854610595703125,-0.285980224609375,-0.29547119140625,-0.157196044921875
1783152107166345700,11.864345703125,-0.3018646240234375,-0.2795867919921875,-0.0606842041015625
1783152107176050200,11.87405029296875,-0.353790283203125,-0.268585205078125,0.03277587890625
1783152107185755000,11.8837548828125,-0.39166259765625,-0.195892333984375,0.109130859375
1783152107195459600,11.89345947265625,-0.38189697265625,-0.0321807861328125,0.1256256103515625
1783152107205194500,11.903194580078125,-0.31103515625,0.2054443359375,0.0804290771484375
1783152107214899200,11.912899169921875,-0.1845703125,0.501708984375,0.01812744140625
1783152107224603600,11.922603759765625,-0.062408447265625,0.7961578369140625,-0.0576171875
1783152107234308400,11.932308349609375,-0.0281982421875,0.99774169921875,-0.0020294189453125
1783152107253748000,11.951748046875,-0.318359375,0.171234130859375,0.1262359619140625
1783152107263452700,11.96145263671875,-0.3189697265625,-0.30035400390625,0.0908050537109375
1783152107273157000,11.9711572265625,-0.2322235107421875,-0.45123291015625,0.0828704833984375
1783152107282892300,11.980892333984375,-0.1754150390625,-0.418243408203125,0.0755462646484375
1783152107292597000,11.990596923828125,-0.1619873046875,-0.3596038818359375,0.0340118408203125
1783152107302301400,12.000301513671875,-0.126556396484375,-0.2533111572265625,-0.0496826171875
1783152107312036600,12.01003662109375,-0.066680908203125,-0.057830810546875,-0.160858154296875
1783152107321741300,12.0197412109375,-0.0086517333984375,0.178558349609375,-0.27020263671875
1783152107331476200,12.029476318359375,0.015777587890625,0.3825836181640625,-0.331298828125
1783152107341181000,12.039180908203125,-0.0312652587890625,0.4742279052734375,-0.311126708984375
