time,seconds_elapsed,z,y,x
1783169050606668800,0.258668701171875,-0.47584874899983404,1.7220359738081692,1.227977906639874
1783169050616647700,0.268647705078125,0.5492635293006897,0.8466764500796794,2.308577094362676
1783169050626596900,0.278596923828125,1.4767735115051268,-0.3629138592153787,3.1229926123067733
1783169050636545800,0.2885458984375,2.0632757613539696,-0.8406921149730682,4.122686663973331
1783169050646494000,0.298493896484375,2.6602158185869453,0.07993804458975791,5.280071569734812
1783169050656473900,0.308473876953125,3.3944127214342354,1.2567600567489863,6.089668873742222
1783169050666422000,0.318422119140625,3.647996437358856,2.1661697341173887,6.448768143105506
1783169050676371000,0.328370849609375,2.829610846740007,2.229762208583951,5.810887003675103
1783169050686319900,0.33831982421875,2.7408155419558287,1.8395961853057146,4.729704463106393
1783169050696298800,0.348298828125,2.063998814931512,1.7720657868683336,3.6839790203660723
1783169050706247700,0.35824755859375,1.230657647243142,1.5830974587172268,2.1223162716045976
1783169050716195800,0.36819580078125,1.2360627211570738,0.8828729680985212,0.6020833384055644
1783169050726175700,0.37817578125,1.2117407653272152,0.5174693378940224,-0.22615860644765196
1783169050736124000,0.3881240234375,0.8959072217166423,0.6855790024116635,-0.4836878085950389
1783169050746072800,0.39807275390625,-0.19677812511920928,0.9158446788519621,-0.9621959495298564
1783169050756021800,0.408021728515625,-1.0674041905850171,0.4661056458815932,-2.0021860634885726
1783169050766000600,0.418000732421875,-1.5236287861824034,-0.42314153342396016,-2.488872578975558
1783169050775949800,0.42794970703125,-2.323702475041151,-0.8880135458573698,-3.136290777558088
1783169050785899000,0.43789892578125,-3.0166870775341987,-1.5915031757518647,-4.279040424245595
1783169050795847000,0.447846923828125,-3.0999229946255684,-2.2635732927709817,-4.662850648756325
1783169050805826800,0.457826904296875,-2.9548773948311804,-2.493388010573387,-4.729440843734145
1783169050815775000,0.46777490234375,-3.0834979295253753,-2.6675042220294474,-4.497513956083357
1783169050825724200,0.47772412109375,-3.2993729693025347,-2.793504929614067,-4.2340442214384675
1783169050835673000,0.487673095703125,-2.797411873924732,-2.917242660702765,-4.252422466433048
1783169050845652200,0.49765234375,-2.1262848829746246,-2.904159014984965,-3.9517619420349597
1783169050855601400,0.507601318359375,-1.9054940141052006,-2.41766319976449,-3.5177383645907043
1783169050865549000,0.517549072265625,-1.7452683808356522,-1.8238348448112607,-3.114309831896424
1783169050875529200,0.527529296875,-1.6835644965946672,-1.4163608361184596,-2.8743387539997696
1783169050885477400,0.537477294921875,-1.9782441930174826,-1.0999569452740252,-2.831345999969542
1783169050895426300,0.54742626953125,-2.9720278515964744,-0.7357808110378682,-3.25697175142467
1783169050905375200,0.557375244140625,-2.8129461276650427,-1.1798859297744928,-4.088019547478854
1783169050915354400,0.567354248046875,-2.3255139083772898,-2.4688377989456054,-4.349829532217979
1783169050925303300,0.57730322265625,-2.4556799189478156,-3.0522499738246203,-4.153417025540769
1783169050935252200,0.587252197265625,-2.4448598342478274,-2.5509227924361824,-4.124010898314416
1783169050945200000,0.5972001953125,-2.371104862207174,-1.9522825071565806,-3.9418314996510744
1783169050955180300,0.60718017578125,-2.1570909401267766,-1.6755523089222608,-3.4066657615467903
1783169050965128200,0.617128173828125,-2.061581816917658,-1.3635516214728354,-2.9579639626696705
1783169050975077000,0.6270771484375,-2.081848359876871,-1.0479374927666039,-2.410115560863912
1783169050985056300,0.63705615234375,-1.7994009530395267,-1.0138725799489765,-2.1066914169713855
1783169050995005200,0.647005126953125,-1.3305237966179846,-1.1356008709114045,-2.0040661781467497
1783169051004954000,0.6569541015625,-1.3277484866857527,-1.1270929356113075,-2.059001298905164
1783169051014903300,0.6669033203125,-1.4789876804232596,-1.1730496540136635,-2.1806587165884674
1783169051024882400,0.67688232421875,-1.1234019721388817,-1.4252847318083046,-2.2474787747994065
1783169051034830000,0.686830078125,-1.0852297701328992,-1.2258574073545634,-1.9574787606254218
1783169051044779300,0.696779296875,-1.1021417419672013,-0.5965829143583774,-1.8339847751647234
1783169051054728200,0.706728271484375,-0.42425650892853733,-0.4007045145578682,-1.7283184150785207
1783169051064707300,0.716707275390625,0.10146832387447356,-0.42378114650174975,-1.524610782957077
1783169051074656300,0.72665625,0.15817220787107944,-0.2503889384713024,-1.1249771125011145
1783169051084605200,0.736605224609375,-0.37606209460198875,0.3607106500826776,-0.5533665076401084
1783169051094553300,0.74655322265625,-0.18786767343282698,0.5545225458074361,-0.4130396799959242
1783169051104533200,0.756533203125,0.043597734186053276,0.4518957726128399,-0.24695421478226778
1783169051114481200,0.766481201171875,-0.03892506619989872,0.29243600914925333,-0.5049159265954047
1783169051124430000,0.77643017578125,-0.21339315983355045,-0.14520232472606,-0.9080290366649627
1783169051134409200,0.7864091796875,-0.22453706966042516,-0.4662602153887972,-1.1179445104505865
1783169051144358100,0.796358154296875,-0.5198538949429988,-0.41162561194691805,-1.4842472083866596
1783169051154307000,0.80630712890625,-0.8754887030661106,-0.11555880854725838,-1.8120653504319488
1783169051164256000,0.816256103515625,-0.6545142943233251,-0.16452044438663868,-1.5108908851623535
1783169051174235100,0.826235107421875,-0.7416004571020602,-0.2516436512401327,-1.068532537027821
1783169051184184300,0.836184326171875,-0.530735938963294,-0.24518300385866312,-1.112693384989351
1783169051194132000,0.846132080078125,-0.7742904283046722,-0.31698585545085367,-0.9033391983482986
1783169051204081400,0.856081298828125,-1.6422569191724061,-0.3954621569249779,-0.03561170386821031
1783169051214060300,0.866060302734375,-2.2906179515630005,-0.6003265578661113,0.178986447840929
1783169051224009200,0.87600927734375,-2.276980471354723,-0.8794074839450419,-0.6828004776090383
1783169051233958100,0.885958251953125,-1.2599410248726606,-1.2226659178368746,-2.017331025650352
1783169051243906300,0.89590625,-0.39898528954982754,-1.4446657241046428,-2.5989035640120504
1783169051253886200,0.90588623046875,-0.4180015401870012,-1.1539067082569003,-2.327700897027552
1783169051263834000,0.915834228515625,-0.2300520336896181,-0.7336455525748431,-1.6879276602402329
1783169051273783300,0.925783203125,0.2186193700492382,-0.31868937143310905,-1.1609595493778586
1783169051283762200,0.93576220703125,0.25564357106387614,0.30778310628701,-0.972159417400509
1783169051293711000,0.945711181640625,0.45050680247247216,0.700218353138864,-0.8260796522527932
1783169051303660000,0.955659912109375,0.8418605742305517,0.7014951681416481,-0.6577570756368338
1783169051313609200,0.965609130859375,0.4962655140846967,0.6713206138260662,-0.4351601802587509
1783169051323588000,0.975588134765625,0.6339139893651008,0.3700561687180772,-0.5966511572889983
1783169051333537000,0.985537109375,0.4639250869721174,0.03531856614053249,-0.80042323294878
1783169051343485200,0.995485107421875,-1.5682728145509957,-0.7500637495428323,-0.847132377153635
1783169051353434000,1.00543408203125,-2.7294594506829974,-1.9022811895385383,-1.0933636844888328
1783169051363413000,1.0154130859375,0.35757542079687116,-0.5954921965122223,-1.3741403816349804
1783169051373362200,1.025362060546875,-0.16969254979491233,0.24895097809005529,-0.8020439660184084
1783169051383311400,1.035311279296875,-0.20851357109844684,-0.14597599424598737,-0.7384567522488534
1783169051393290200,1.045290283203125,0.2760492302328348,0.0739887625302188,-0.605415478502959
1783169051403239200,1.0552392578125,-0.07647533691525459,-0.0635468086939305,-0.5268386392638087
1783169051413187300,1.065187255859375,0.23405834672152995,-0.542290621548146,-0.791265090111643
1783169051423136300,1.07513623046875,0.24352877037823198,-0.3019285350399092,-0.7704848985418676
1783169051433115100,1.085115234375,0.2551648476362228,-0.26074816419389096,-0.571944293794781
1783169051443064300,1.095064208984375,0.12053075174093246,-0.3389223409162834,-0.6102694944053888
1783169051453013200,1.10501318359375,0.06865911020636559,-0.3275429783657193,-0.43808125533722336
1783169051462962200,1.114962158203125,0.4452466899871826,-0.16956059397831558,-0.677421926375851
1783169051472941000,1.124941162109375,0.04023088810145855,-0.1917185036420822,-0.8683405118118971
1783169051482890200,1.13489013671875,0.06375730963945389,-0.3410593894775957,-0.6827920020416378
1783169051492838100,1.144838134765625,0.2353717674076557,-0.3318843320382759,-0.6816469236597419
1783169051502787000,1.154787109375,0.3071364424139261,-0.31810762602239845,-0.5971314881518482
1783169051512766200,1.16476611328125,-0.3680979838550091,-0.29238228793432935,-1.020903282303363
1783169051522715100,1.174715087890625,0.10907704531252384,-0.41970081838555634,-0.8797335010290145
1783169051532664300,1.184664306640625,0.5050274972110986,-0.2247459266381338,-0.26994192633368075
1783169051542643200,1.194643310546875,-0.08564706988632678,-0.26052537002237514,-0.5019443634387105
1783169051552592400,1.20459228515625,-1.1233160474210977,-0.4957042634727433,-1.4382184476613997
1783169051562540300,1.214540283203125,-0.06495791760087014,-0.2444915875284001,-0.9848447845157235
1783169051572489200,1.2244892578125,-0.0376098919481039,-0.24844308336684479,-1.2198436269577593
1783169051582468400,1.23446826171875,0.05513678081035614,-0.26913532265853135,-0.9702345868177712
1783169051592417300,1.244417236328125,0.158051796361804,-0.26420347401322797,-0.941000528222695
1783169051602366200,1.2543662109375,0.0959592050641775,-0.2020318809289485,-0.9070403909537941
1783169051612315100,1.264315185546875,0.1141062716513872,-0.17043693842142818,-0.8053710646145046
1783169051622294300,1.274294189453125,0.10027356113195418,-0.1412970426495187,-0.7172206336051226
1783169051632243200,1.2842431640625,0.12965163130760193,-0.07835249243136495,0.21120598852019756
1783169051642191000,1.294191162109375,0.12735738289058207,-0.06734196319319308,0.18744924709135666
1783169051652140000,1.30414013671875,0.12713701813817024,-0.05463054832126945,0.24227674275683236
1783169051662119200,1.314119140625,0.10974398478865623,-0.05833829853171482,0.18781093827690928
1783169051672068000,1.324068115234375,0.10640694932043551,-0.04181329845469445,0.12040204732734709
1783169051682017000,1.33401708984375,0.09290274010300635,-0.020723785207420586,0.0902718618764542
1783169051691996200,1.34399609375,0.08840192155241966,0.01108604215979576,0.07729085454922169
1783169051701945300,1.3539453125,0.07282032153904437,0.028823760761134326,0.10393704294241032
1783169051711893200,1.363893310546875,0.07825520606935024,0.02822787722721696,0.12390482215075753
1783169051721842200,1.37384228515625,0.0936766470849514,0.007517937882058322,0.12308847339972853
1783169051731821300,1.3838212890625,0.18780863672196865,-0.023982750470750033,0.055393385919928546
1783169051741770200,1.393770263671875,0.2143622971266508,-0.035652620400488375,0.07138003676997032
1783169051751719200,1.40371923828125,0.12481646623611449,-0.0529148304445669,0.11106299496535212
1783169051761668000,1.413668212890625,0.12407236987054347,-0.04508271204680204,0.11017284119259566
1783169051771647200,1.423647216796875,0.12326163800954817,-0.029591128404438494,0.11865916744908317
1783169051781596200,1.43359619140625,0.11216975063085555,-0.026121114206314085,0.09282959266840479
1783169051791544300,1.44354443359375,0.12874562237858772,-0.024930589247494934,0.05331115455208346
1783169051801493200,1.4534931640625,0.1341752462118864,-0.03180120566934347,0.015300298853963612
1783169051811472100,1.46347216796875,0.12692775930166245,-0.04058748298678547,0.008778778997575863
1783169051821445600,1.473445556640625,0.12100596803724765,-0.04713288604225963,0.007566681527765467
1783169051831394600,1.48339453125,0.1288379768371582,-0.037733993251807985,0.014116776741377542
1783169051841373700,1.493373779296875,0.1272656129539013,-0.023834756834805012,0.026453389784425962
1783169051851322600,1.503322509765625,0.12738076376616955,-0.013326843356527387,0.03608091054884717
1783169051861270800,1.513270751953125,0.1249602586209774,0.007093392327055335,0.03608945461490657
1783169051871219700,1.5232197265625,0.1258358724117279,0.02053268308211118,0.032431587411195506
1783169051881198600,1.533198486328125,0.11982172668874264,0.02673804052826017,0.028568724270851817
1783169051891147500,1.5431474609375,0.12232055776715278,0.03236333306413144,0.007927612378203774
1783169051901096700,1.5530966796875,0.11807985145747661,0.02963262945860624,0.002603615760290995
1783169051911046000,1.5630458984375,0.12282383111417293,0.01417659205365926,-0.0075942499547032635
1783169051921024800,1.573024658203125,0.11995792028903961,0.01922510761488229,-0.007054781916295178
1783169051930973700,1.5829736328125,0.12473580221533774,0.03321929230634123,-0.0012376132202683947
1783169051940921900,1.592921875,0.13073650393486022,0.03313702085036784,0.017478284497151615
1783169051950870800,1.602870849609375,0.128968909740448,0.02984546849168837,0.03211732926367549
1783169051960849700,1.612849609375,0.12795067260861395,0.010948058461211621,0.024562979777809232
1783169051970798800,1.622798828125,0.12604279316067696,-0.004350450294464826,0.018163551931129767
1783169051980747800,1.632747802734375,0.13025894955098627,-0.01531107597630471,0.02008061933252029
1783169051990726700,1.6427265625,0.13385551273822785,-0.020715601900964973,0.014514038138877366
1783169052000675600,1.652675537109375,0.13192308337092398,-0.02080744490288198,0.019676911069569175
1783169052010624800,1.662624755859375,0.12685820119678973,-0.015646701138839123,0.021409938557387796
1783169052020572700,1.67257275390625,0.12643792995810507,-0.008683949454128741,0.02674708463452989
1783169052030552600,1.682552490234375,0.1263069970548153,-0.015170644592307507,0.020471671326586508
1783169052040500700,1.692500732421875,0.12122107209265232,-0.01190809913240373,0.018103811967372894
1783169052050449700,1.70244970703125,0.12629822922647,-0.012614895694889128,-0.00675462079278659
1783169052060398800,1.71239892578125,0.13031798626184463,-0.018135558812506496,-0.005221043133514468
1783169052070377500,1.72237744140625,0.12326280705332755,-0.015387721409089863,-0.020627268313674722
1783169052080327000,1.732326904296875,0.12473989386856556,-0.0005833163132891059,-0.005999566925072576
1783169052090274800,1.74227490234375,0.12442892822325229,0.0048683366887271404,0.011011102343618403
1783169052100254700,1.752254638671875,0.12531915506124497,0.01647365348227322,0.016240390432381537
1783169052110203000,1.762202880859375,0.11573007346093654,0.016998152280412612,0.020578896844014524
1783169052120151800,1.77215185546875,0.1242459728717804,0.017406440820358693,0.017900009049050276
1783169052130100700,1.782100830078125,0.12229133167266845,0.029484380094334482,0.013626874332583975
1783169052140079600,1.79207958984375,0.12167524560093879,0.037322416776232416,0.00713241829634644
1783169052150028800,1.80202880859375,0.12375672805011272,0.021254311887547374,-0.0020368555728695354
1783169052159977700,1.811977783203125,0.11372691694498062,0.020468276076391338,-0.0036360229813726616
1783169052169925600,1.821925537109375,0.12719605484902857,0.03076130469497293,-0.0021549027367669623
1783169052179905500,1.831905517578125,0.12481062101721763,0.017189071742631495,0.013907189111306797
1783169052189853700,1.841853759765625,0.1242190848648548,0.012071911391988396,0.01667212263835245
1783169052199802600,1.851802734375,0.11988894670605658,0.0008833587057888508,0.02862258704967098
1783169052209751600,1.86175146484375,0.128284434607625,-0.012742211868986487,0.02795985795777524
1783169052219730700,1.871730712890625,0.12680617874860764,-0.02210051692072302,0.01570452085685683
1783169052229679900,1.881679931640625,0.12651450232565403,-0.023367431584000585,0.0018741849576006642
1783169052239627500,1.89162744140625,0.12038754387795925,-0.022245697545073925,-0.005793518392380792
1783169052249607700,1.901607666015625,0.10872750122249125,-0.027079547442309556,-0.005381610839953646
1783169052259555800,1.911555908203125,0.11935761630833149,-0.015268515476211905,-0.00400004540461814
1783169052269504800,1.9215048828125,0.12759411425590514,0.0008599778302013874,-0.006281039331131615
1783169052279453700,1.93145361328125,0.11756839480400084,-0.002257167809642851,-0.005195139223989099
1783169052289432800,1.941432861328125,0.1277343995094299,-0.0034753479603677985,-0.003391998792160302
1783169052299381800,1.9513818359375,0.12083528764545917,-0.00316745105497539,-0.00838138174440246
1783169052309330700,1.96133056640625,0.12471242133975029,-0.003961706705205142,-0.004876752890623174
1783169052319278600,1.971278564453125,0.1269429568707943,0.002417546003125608,-0.004635226619173772
1783169052329258800,1.9812587890625,0.11420564037263392,0.006994827323406934,0.004422189510802855
1783169052339206700,1.99120654296875,0.12691548434197902,0.027313794589601457,0.005698908044642303
1783169052349155600,2.001155517578125,0.1318523562222719,0.03168656631372869,0.012854599902010521
1783169052359104500,2.0111044921875,0.1209253040164709,0.02413943886980414,0.020721383187780155
1783169052369083600,2.021083740234375,0.1183808802306652,0.019077698500826953,0.024536534728878175
1783169052379032600,2.031032470703125,0.12272037073969841,0.016236520258150994,0.022860877151216846
1783169052388980700,2.040980712890625,0.11987433365881442,0.0053947717156261205,0.00809415545099182
1783169052398960600,2.050960693359375,0.12691489982008933,0.0018858868118375538,0.007004099758539814
1783169052408908500,2.060908447265625,0.1285638360708952,0.005994052783027291,0.010253308529546484
1783169052418857700,2.070857666015625,0.12408756743967532,0.002179462930932641,0.0005403653708402999
1783169052428806700,2.080806640625,0.128588385990262,0.0005069996740669012,-0.002448635261133313
1783169052438785800,2.090785888671875,0.11422726768255233,-0.009188611040636896,0.0038961512053036127
1783169052448734700,2.100734619140625,0.11991641923487185,-0.01434752817377448,0.007028832911819336
1783169052458683600,2.11068359375,0.126807347792387,-0.006187821789458394,-0.0007240376749425195
1783169052468631800,2.1206318359375,0.12141747144758701,-0.01597322967946529,0.0021973022650112395
1783169052478611700,2.13061181640625,0.1193219604730606,-0.025687216301076114,-0.0044333039890392684
1783169052488559600,2.1405595703125,0.13458265796899796,-0.002419591829739511,-0.016966857526428066
1783169052498508800,2.1505087890625,0.12560732435286046,-0.006085749654471874,-0.0061031431764451555
1783169052508457700,2.160457763671875,0.12066636081933975,-0.006006839199364185,-0.005897033565782476
1783169052518436600,2.1704365234375,0.11856675819158553,0.0028068010490387677,-0.004772687444661278
1783169052528385500,2.180385498046875,0.11945756955146788,0.00675648852288723,0.00481669554974651
1783169052538333700,2.190333740234375,0.1276835461050272,0.008967625233717262,0.0073246300999308
1783169052548313600,2.200313720703125,0.12588088059723376,0.007382036542706191,0.014126581182761583
1783169052558261800,2.21026171875,0.1246679976761341,0.011586465962603688,0.021546625348029192
1783169052568210700,2.220210693359375,0.121221656614542,0.010363573104143143,0.018111278321198188
1783169052578159900,2.230159912109375,0.113884737855196,0.012885164003632961,0.0023716861509601585
1783169052588138800,2.240138671875,0.11852291904985904,0.020386223816126585,0.0036009402515483086
1783169052598087700,2.250087646484375,0.12256138078570365,0.027621435766667125,-0.012410491130012087
1783169052608036900,2.260036865234375,0.12525368860960007,0.01927318454030901,-0.0059058790259412484
1783169052617984800,2.26998486328125,0.12839841637611388,0.012480492192879318,-0.005616549252878758
1783169052627964700,2.279964599609375,0.12017010173499583,0.0021016849869862197,-0.0013045775092556141
1783169052637912800,2.289912841796875,0.12496201218664646,-0.0008423325756564736,0.017748883882747032
1783169052647861800,2.29986181640625,0.1302022509276867,-0.0013755992021411657,0.007426597203640267
1783169052657810700,2.309810791015625,0.12332710446119308,-0.007448233646713197,0.004901252577640116
1783169052667789800,2.319789794921875,0.1237836160570383,-0.009603694647550582,-0.0016122295319422847
1783169052677738800,2.32973876953125,0.13501812677681446,-0.006055098787881434,0.0029748059973731867
1783169052687687700,2.339687744140625,0.1272387249469757,-0.008955569469742476,-0.008507551707606762
1783169052697666600,2.34966650390625,0.1275397537201643,-0.001531155090034008,-0.021034798801795113
1783169052707614700,2.35961474609375,0.1311345633417368,-0.005668072231672704,-0.010748919159919023
1783169052717563600,2.369563720703125,0.11586743610501289,-0.007200140637159347,-0.005095430292736273
1783169052727512600,2.3795126953125,0.12454524807929993,-0.0025183760290965434,-0.0005198294728877954
1783169052737491700,2.38949169921875,0.11900281152129173,-0.0029472689656540748,-0.004722528160002548
1783169052747441000,2.39944091796875,0.119147772949934,0.0034791473526507616,0.006416511412221007
1783169052757389800,2.409389892578125,0.12168635151684283,0.023527334853447972,0.00808301300246967
1783169052767337700,2.419337646484375,0.12542436900138854,0.0102951109778136,0.006564913756831083
1783169052777318000,2.42931787109375,0.12766834853589534,0.024673655344359575,-0.004227502051519696
1783169052787265800,2.439265869140625,0.12377718631625174,0.017652268807590007,0.002169626523507759
1783169052797214700,2.449214599609375,0.1275175418883562,0.019026260574534534,0.0006209791592671535
1783169052807163600,2.45916357421875,0.11494739865064621,0.018885829190537332,0.0045992351404740475
1783169052817142800,2.469142822265625,0.12123100896477698,0.009355126713961362,-0.001917952746557421
1783169052827122000,2.479121826171875,0.12572013707756996,0.006056377429515123,0.008006652980763465
1783169052837070800,2.48907080078125,0.12662322339713572,0.008589366505853832,0.015371562575444113
1783169052847050000,2.499050048828125,0.1180973871141672,0.010598112512379885,-0.0018530342841841046
1783169052856999000,2.5089990234375,0.12498597758412361,0.0029509952927008268,0.0043807130019878964
1783169052866946800,2.51894677734375,0.11406886225044727,-0.007848265814967453,0.005704908527166117
1783169052876896000,2.52889599609375,0.11736673475205897,-0.0003841039467602968,-0.0009213794572598999
1783169052886875000,2.538875,0.1191653086066246,-0.009006861265562474,-0.013425378677423577
1783169052896823800,2.54882373046875,0.1142284367263317,-0.004846161389537155,-0.008732225025666411
1783169052906772700,2.558772705078125,0.1291910280585289,-0.0082590385729447,-0.003060013191704638
1783169052916721000,2.568720947265625,0.12754676798284054,-0.013543445249274371,-0.010203357024153228
1783169052926700800,2.57870068359375,0.11887129409611225,-0.00347637087367475,-0.004386562787462025
1783169052936649000,2.58864892578125,0.11827040559351444,-0.006085493926145136,0.006190863700737827
1783169052946598000,2.598597900390625,0.12155424956977366,-0.000025207506492733955,-6.393208168447017e-7
1783169052956576800,2.60857666015625,0.12304945656359195,-0.005365070697106421,0.005581657177655143
1783169052966525700,2.618525634765625,0.12214753928780556,0.007321648124977946,0.004374244445294607
1783169052976475000,2.628474853515625,0.1282809274762869,0.00003890723828226328,0.003723614499857649
1783169052986424000,2.638424072265625,0.11555880854725838,0.0017636121390387416,0.008306839220446999
1783169052996403000,2.64840283203125,0.12049041973054408,0.0023924846271052955,0.0009512682762695476
1783169053006352000,2.658351806640625,0.122581254529953,0.004012450511753559,0.0014651018332107924
1783169053016300000,2.668300048828125,0.12153262225985527,-0.00013451309986412525,0.000013124913876526988
1783169053026249000,2.6782490234375,0.12886544936597347,0.00702989863678813,0.0022973285733838564
1783169053036227800,2.688227783203125,0.11719196270704269,0.011120346288196742,0.0003374677764601074
1783169053046177000,2.698177001953125,0.11479893009066582,0.0036000337859615683,-0.0033326104548526926
1783169053056126000,2.7081259765625,0.1198883621841669,0.006692300712876021,-0.007034339633176568
1783169053066073900,2.718073974609375,0.12093524088859557,0.004320931939035654,-0.007646087456506211
1783169053076053800,2.7280537109375,0.13365502173006533,0.002357011454924941,-0.0002093022189917974
1783169053086002000,2.738001953125,0.12811550778150557,0.005136522638238966,0.0030309994430630467
1783169053095950800,2.747950927734375,0.11360299830436706,0.00537566515635699,0.0006070259824395179
1783169053105929700,2.7579296875,0.12033902856111525,-0.0035182372540235518,0.003623033923169714
1783169053115879000,2.76787890625,0.1207902794599533,-0.0020953648440539836,0.000710426991409622
1783169053125827800,2.777827880859375,0.12153905200064181,-0.001968815854936838,0.0017545794492121786
1783169053135776800,2.78777685546875,0.1189952127367258,-0.0030192382233217357,0.0023145468529546633
1783169053145755600,2.797755615234375,0.11809914067983626,-0.0029136954896152017,-0.0027107225467101668
1783169053155705000,2.807705078125,0.11465922935903072,0.005705335502140223,0.0015394708272302522
1783169053165652700,2.81765283203125,0.12079612467885016,-0.003471840829029679,-0.004070904984010849
1783169053175602000,2.827601806640625,0.12528759087920188,-0.004875643212348222,0.0018923279690672642
1783169053185581000,2.8375810546875,0.1219926409870386,0.0020940496698021887,0.010016960756713524
1783169053195530000,2.847530029296875,0.12183949625194072,-0.0003529781561344862,0.005668841699941549
1783169053205479000,2.85747900390625,0.11405600276887416,0.001802190583758056,0.013005516147403978
1783169053215426800,2.8674267578125,0.11675006415843962,0.003281615486554801,0.007636860687145963
1783169053225407000,2.877406982421875,0.12467618098258972,0.009405614792183041,-0.00184733804987045
1783169053235355000,2.88735498046875,0.1188426525235176,0.010239800594002008,-0.00014953485577134414
1783169053245303800,2.8973037109375,0.11824059497714041,0.012443521183356641,0.00187987548369274
1783169053255283000,2.907282958984375,0.11973287936151027,0.012100662562437355,-0.0021017032532952727
1783169053265232000,2.91723193359375,0.1186819090038538,0.007863828710280359,-0.0014764223782462067
1783169053275180800,2.927180908203125,0.11913082181513308,0.005327442100457847,-0.0019416538533754645
1783169053285129700,2.937129638671875,0.13035247305333614,0.002516293669864535,0.0006287195077282376
1783169053295108900,2.94710888671875,0.126162035626173,0.0028372327199205753,0.000744717420078814
1783169053305057800,2.957057861328125,0.12242635622918605,0.00312573080509901,0.004285518132359721
1783169053315005700,2.967005615234375,0.11644435921013355,-0.0020542656486853958,0.004962456129409838
1783169053324955000,2.976954833984375,0.12722177381217478,0.0021895824661478398,0.003037511953062494
1783169053334933800,2.986933837890625,0.12797113087475298,0.000052935763634741304,-0.005417798681475687
1783169053344883000,2.996883056640625,0.13380992003083228,0.003410027639195323,-0.0020176873648073525
1783169053354832000,3.006831787109375,0.13470482304394243,0.0009581044424325227,-0.012156258357327896
1783169053364780800,3.01678076171875,0.11465279961824416,-0.004712086681090295,-0.007016282815855811
1783169053374760000,3.026760009765625,0.12377952440381049,-0.0015473025072366,0.0006508080419502221
1783169053384707800,3.036707763671875,0.1198883621841669,0.004161320930533111,-0.0044831321968464176
1783169053394657000,3.046656982421875,0.12976385951042174,-0.0007655044797807932,0.005871899124525953
1783169053404636000,3.056635986328125,0.12198270411491394,0.0008905556315556168,0.003942838178775855
1783169053414584800,3.066584716796875,0.11689677915275096,0.007724675967916846,0.005570880055314046
1783169053424533800,3.07653369140625,0.11854279279410838,0.005332848927937448,0.004151902935749967
1783169053434482700,3.086482666015625,0.13185177170038223,-0.00145366940703243,-0.00006393893155036493
1783169053444461800,3.0964619140625,0.12182020702958106,0.002007540430128574,-0.0049424864870379675
1783169053454410800,3.10641064453125,0.11807926693558692,0.002762961907312274,0.00038295830668939743
1783169053464359000,3.11635888671875,0.114638186571002,0.0015431743213906884,0.005963790075504221
1783169053474307800,3.126307861328125,0.12287117738723755,0.0072869056051597,-0.004791677556210197
1783169053484286700,3.13628662109375,0.12316986807286738,0.0020783771766349672,-0.00903332229751395
1783169053494235600,3.146235595703125,0.1290069036632776,-0.0025911490043625234,0.002738446808097069
1783169053504185000,3.15618505859375,0.12451952911615372,-0.0014443901220336556,-0.0009346482183202169
1783169053514134000,3.166134033203125,0.12676117056310177,0.003580342704802751,-0.0008672064365979167
1783169053524113000,3.17611279296875,0.12152093182206153,-0.00023446634300053118,0.008798666441556998
1783169053534061800,3.186061767578125,0.12376081970334052,-0.0018979060431942342,0.007124285222240723
1783169053544010000,3.196010009765625,0.12929741104245185,-0.0003948445364832878,0.004797568440879695
1783169053553988900,3.20598876953125,0.12974515480995177,0.0011412059243768452,0.002853864194313064
1783169053563937800,3.215937744140625,0.12644786683022974,-0.00034695027414709327,0.007724223876767792
1783169053573887000,3.225886962890625,0.12091127549111842,-0.00035071313381195067,0.0020795462204143403
1783169053583836000,3.2358359375,0.12285773338377474,-0.004133410010300576,-0.0006447550437878817
1783169053593814800,3.245814697265625,0.1224111586600542,-0.004051028956472873,0.009621097873500548
1783169053603763700,3.255763671875,0.1156792200565338,0.003541435466520488,0.010151560621545649
1783169053613712000,3.2657119140625,0.12121698043942451,-0.0005426189767196774,0.0087721894265851
1783169053623660800,3.275660888671875,0.12436404629349708,0.003220313753373921,-0.00007433246140135452
1783169053633640000,3.285639892578125,0.11882803947627543,-0.001282075699791312,-0.002316346084396355
1783169053643588900,3.2955888671875,0.12062193715572357,-0.0013884586837142705,0.0037306241959566247
1783169053653538000,3.3055380859375,0.11732990987300872,0.006849500568583607,-0.007183988653379492
1783169053663487000,3.315487060546875,0.11882453234493731,0.011987557576783001,-0.009650136738317086
1783169053673465900,3.3254658203125,0.12196575298011303,0.0007980915751308203,0.00022218225016258655
1783169053683415000,3.3354150390625,0.11807108362913131,0.0063020958188921205,-0.0000010754289454780518
1783169053693363000,3.345363037109375,0.1207639759749174,0.018735972391068934,-0.0003826129592838697
1783169053703342800,3.3553427734375,0.12211305249631405,0.010585691422224043,-0.0028357234661350954
1783169053713291000,3.365291015625,0.11747604034543037,0.01412380242049694,0.00331304038799135
1783169053723240000,3.375239990234375,0.11522738463580608,0.008104067206941545,-0.0009828004922717809
1783169053733188900,3.38518896484375,0.12211188345253467,0.009282974793203174,-0.0005512974713972653
1783169053743168000,3.39516796875,0.1280968030810356,0.0009106485715135932,0.00642508516103262
1783169053753117000,3.405116943359375,0.12764613670408725,-0.009653671269118785,0.0033160429125418884
1783169053763064800,3.41506494140625,0.12704817081093786,-0.0014452669048681853,-0.0010525252772145904
1783169053773013800,3.425013671875,0.1228594869494438,0.005251490787416696,0.002730584874516353
1783169053782993000,3.434992919921875,0.12495499792397022,-0.006128821611218154,-0.0010779882266229832
1783169053792941800,3.44494189453125,0.11822072123289108,0.0007724822098389267,-0.0022721207814800437
1783169053802890800,3.454890869140625,0.12405541873574256,0.00243862532377243,-0.009245469494140707
1783169053812870000,3.464869873046875,0.12121347330808639,0.0021081512603908776,-0.0030689271505223584
1783169053822841300,3.47484130859375,0.12719780841469763,0.006491480911150574,-0.0030579602298137615
1783169053832790300,3.484790283203125,0.12510288196206093,0.005136339975148439,-0.004304964901634957
1783169053842738400,3.494738525390625,0.1270475862890482,0.0030563918959349394,-0.0014824890761403367
1783169053852718300,3.50471826171875,0.14081892201006413,-0.0020177695631980893,-0.0019178871020092629
1783169053862666500,3.51466650390625,0.13738076425492762,0.006113331781141459,-0.008765869283652864
1783169053872615400,3.524615478515625,0.1364846921980381,0.012795184165239334,-0.004940326495992485
1783169053882564600,3.534564697265625,0.12137363230586051,0.009736965638399124,-0.0027018131544697096
1783169053892543500,3.54454345703125,0.11838029570877551,0.006909523660130798,0.004563076981704216
1783169053902492400,3.554492431640625,0.12421850034296512,0.007151040798425674,-0.0004473781559077906
1783169053912440600,3.564440673828125,0.1185293487906456,0.008427563540264964,0.005545066906511784
1783169053922389500,3.574389404296875,0.11149871950149536,-0.00045746144391596317,-0.003661029273054737
1783169053932368600,3.58436865234375,0.12286942382156849,0.006027955052629113,-0.007522977100068237
1783169053942317600,3.594317626953125,0.12616028206050395,0.006052651102468371,0.0034366850339691154
1783169053952266500,3.6042666015625,0.12885200536251068,0.010450959126651286,0.0077131316605955355
1783169053962245400,3.614245361328125,0.121818453463912,-0.0007557502707466483,0.002136318194361229
1783169053972194600,3.624194580078125,0.12122107209265232,-0.0004902677349746227,0.0031728558845774387
1783169053982143500,3.6341435546875,0.12436579985916614,0.005421878918260336,-0.0038542231761617583
1783169053992091400,3.64409130859375,0.11927636776566505,-0.0014129720704630017,-0.007345364643994253
1783169054002071300,3.6540712890625,0.11972528057694434,-0.006210654675774276,-0.0002923248769249767
1783169054012019500,3.66401953125,0.11478782417476177,0.008446523969061672,-0.004122892897452402
1783169054021968400,3.673968505859375,0.1255570554703474,0.012324096054770051,-0.0009110113289949367
1783169054031917600,3.68391748046875,0.12750643597245215,0.014137429087050258,-0.0022608210714533923
1783169054041896400,3.693896484375,0.12032500003576278,0.0012410130370408296,-0.003934558403375558
1783169054051845600,3.703845703125,0.11523381437659264,0.0044768531531095505,0.003383504958450794
1783169054061793500,3.71379345703125,0.11957272036373615,0.01032912284526974,-0.0009240560423582791
1783169054071742500,3.723742431640625,0.12391162635087966,-0.002061133780889213,0.0036260315957319105
1783169054081721600,3.7337216796875,0.12675415630042552,0.000046031098812818523,0.000008267788134980946
1783169054091670500,3.74367041015625,0.11956862871050834,0.0007297025140374898,0.0009241610736353323
1783169054101619500,3.753619384765625,0.1257049395084381,0.006979885482601821,-0.004889336094271857
1783169054111598600,3.7635986328125,0.13094634729325771,0.012242153392359614,0.0021334044326562435
1783169054121547500,3.773547607421875,0.12077391284704207,0.00647909635361284,0.0008304982906789519
1783169054131496400,3.783496337890625,0.12406944726109503,0.0060765434347093104,0.0028877299312967805
1783169054141444400,3.7934443359375,0.11928572011590004,0.012229513106495142,0.0019635346083319745
1783169054151424500,3.803424560546875,0.12557225303947925,0.004987615686841309,0.003389245146070607
1783169054161372400,3.813372314453125,0.12272738500237464,0.0032422698568552732,0.003506553666095715
1783169054171321300,3.8233212890625,0.12092413497269153,-0.000422645858861506,0.005698643183161038
1783169054181270300,3.833270263671875,0.1239145489603281,-0.004685673598200083,-0.002536733384283434
1783169054191249400,3.84324951171875,0.12870470584630966,-0.002354636834748089,-0.0026611477839411234
1783169054201198300,3.8531982421875,0.13274316758215426,0.0020473609838634727,0.0012756028619318384
1783169054211146200,3.863146240234375,0.12361585827469825,0.004862235741503536,-0.00007350591091671959
1783169054221095700,3.873095703125,0.12571253829300402,0.004518281142041087,-0.006866894661379046
1783169054231074600,3.883074462890625,0.12077566641271113,-0.0016607362864539026,-0.0011658152092481032
1783169054241023500,3.8930234375,0.11598784761428832,0.0032681349504739042,0.005212026426708326
1783169054250972400,3.902972412109375,0.11837795762121676,0.00937010508738458,0.004947865915053989
1783169054260951600,3.91295166015625,0.12451076128780841,0.0029989626202732325,-0.004042658420349471
1783169054270900500,3.922900390625,0.12375848161578178,0.008207673711888491,-0.011535169600206426
1783169054280849400,3.932849365234375,0.12331015332639217,0.0029658640682697296,-0.0067241982550593086
1783169054290797600,3.942797607421875,0.12675240273475646,0.0014423442954197526,-0.002956228590244427
1783169054300777500,3.952777587890625,0.12735153767168522,0.009358597312681377,0.0025342197689111343
1783169054310725400,3.962725341796875,0.12810206377804279,0.0064499798569828265,-0.004577441150485538
1783169054320674300,3.97267431640625,0.12496084314286708,-0.0036066461898386477,-0.0016493700756458564
1783169054330623500,3.98262353515625,0.12211772867143153,0.00043367870952934023,0.0007075911469291896
1783169054340602400,3.992602294921875,0.12241408126950264,0.002912014989182353,0.0053689089052961205
1783169054350551300,4.00255126953125,0.12211772867143153,0.002520823714509606,-0.001163808198540937
1783169054360500200,4.012500244140625,0.12585866876542567,0.010597053066454826,-0.00011965117416111752
1783169054370448400,4.022448486328125,0.12975333811640738,0.009438530681096017,-0.0016707804731442592
1783169054380428500,4.032428466796875,0.11374211451411247,0.008084851049818098,-0.00038523189134430136
1783169054390376400,4.04237646484375,0.1307990477770567,0.004560074457153678,0.0009401946118174236
1783169054400325600,4.05232568359375,0.13259294545650482,-0.0009306684462353586,-0.005567673747253138
1783169054410304500,4.062304443359375,0.11852993331253528,-0.005366020545177161,-0.005325825532106683
1783169054420253400,4.07225341796875,0.10910217975378037,0.005138093540817499,-0.0053351687491871415
1783169054430202400,4.082202392578125,0.1281102470844984,0.008599339910596608,-0.003150894929107744
1783169054440150500,4.092150634765625,0.12497428714632987,-0.0075848291058093304,0.0007747817669020151
1783169054450130400,4.10213037109375,0.12347966467440127,0.001780599806457758,-0.0008793287013540975
1783169054460078600,4.11207861328125,0.13096271390616893,-0.00363393605556339,0.0003380842643906362
1783169054470027500,4.122027587890625,0.1284194591641426,0.0029245822098106144,-0.0014438010335667058
1783169054479976400,4.1319765625,0.11360299830436706,0.014820114121586084,-0.002947195900417864
1783169054489955300,4.141955322265625,0.11509878982007503,0.008699987273477018,0.006798183656588662
1783169054499904500,4.151904541015625,0.12078852589428424,0.00022383535113185642,0.0026598326096893285
1783169054509853400,4.161853515625,0.12183540459871292,-0.000815736829675734,0.0034367603824939576
1783169054519801300,4.17180126953125,0.12302782925367355,0.0036651349114254113,0.005000205740355887
1783169054529781200,4.18178125,0.127217682158947,-0.002175553940795362,-0.0028106506736716255
1783169054539729400,4.1917294921875,0.12991115902662276,0.007107640048116445,0.0021093659699428827
1783169054549678600,4.2016787109375,0.12228314836621283,0.009996456824801861,0.007072242224460933
1783169054559657200,4.2116572265625,0.11883972991406917,0.00810768393613398,-0.0014611974096507764
1783169054569606700,4.221606689453125,0.12587503537833689,0.009091616939567029,-0.0031464330977105416
1783169054579555600,4.2315556640625,0.12273147665560245,0.005071494578011333,-0.005979451152228284
1783169054589503500,4.24150341796875,0.12303484351634979,-0.00027461569029837843,-0.006712293188134208
1783169054599483400,4.2514833984375,0.12123802322745322,0.006641191580146551,-0.0034985324731329455
1783169054609431600,4.261431640625,0.12512626283764838,0.00266498142555356,0.0033428989534266293
1783169054619380500,4.27138037109375,0.12811726134717463,-0.00192015440762043,0.0012728900296264326
1783169054629329400,4.281329345703125,0.11659750394523143,-0.0016918620770797132,0.0010123576636076905
1783169054639308500,4.29130859375,0.11645195799469947,-0.004953128895349801,0.0066743791804066855
1783169054649257500,4.301257568359375,0.1189998889118433,-0.0005825856609269976,-0.0019743094473844394
1783169054659206400,4.311206298828125,0.11496201169788836,0.003843523685634136,-0.008348486405087169
1783169054669185300,4.321185302734375,0.11526713212430477,0.005473864833824336,-0.005850904285558499
1783169054679134500,4.331134521484375,0.11511866356432437,-0.0020553250946104525,-0.00328625741234282
1783169054689082400,4.341082275390625,0.11990940497219561,0.00447637822907418,-0.005024168854544405
1783169054699031300,4.35103125,0.12484978398382662,0.009040471274219452,-0.0077248837471823205
1783169054709010400,4.361010498046875,0.13203355800807476,0.0067693114718422286,-0.006776104255521204
1783169054718959600,4.370959716796875,0.12110767484605311,0.005189787195436656,-0.00290227647775755
1783169054728908500,4.380908447265625,0.12813888865709305,0.004941474990174174,0.009261171670060138
1783169054738856400,4.3908564453125,0.1155704989850521,-0.0015261866539716719,-0.0023287828721615367
1783169054748836600,4.400836669921875,0.13187982875108717,0.0023846666468307375,-0.003420462268241681
1783169054758784500,4.410784423828125,0.130837626221776,0.0017878332648426293,-0.003599789474077988
1783169054768733400,4.4207333984375,0.12290449513494968,0.0067885276289656755,0.004102939523512031
1783169054778682400,4.430682373046875,0.12739011611640452,0.0064538888471201055,0.0029102388760380562
1783169054788661500,4.44066162109375,0.11930676290392875,0.006386997623369097,-0.0013074087871587834
1783169054798610400,4.4506103515625,0.11586509801745414,-0.0033445611875504255,0.00028774231664137914
1783169054808559400,4.460559326171875,0.13008067037463186,0.004581519103981554,0.002371839131298475
1783169054818538500,4.47053857421875,0.13007365611195565,0.007038739530369639,0.002353515740029979
1783169054828510000,4.480510009765625,0.12229074715077877,0.0007976531837135553,0.006318761542614083
1783169054838458000,4.4904580078125,0.12019640522003174,0.007675576129183173,0.0056968234021216625
1783169054848407000,4.500406982421875,0.12543781300485132,0.01382675570268184,0.00015814057062380014
1783169054858386000,4.510385986328125,0.12918109118640422,0.0077739219371229405,-0.003892673756717704
1783169054868335000,4.520335205078125,0.1155664073318243,0.0012868249401450157,-0.0015049472177095593
1783169054878284000,4.530283935546875,0.13037877653837204,-0.003604198504425585,-0.00246497675786959
1783169054888232000,4.54023193359375,0.11990882045030593,0.0014990429187193512,-0.0029796437151613643
1783169054898211800,4.5502119140625,0.12709317899644373,0.008632840321399271,-0.0037274843886771123
1783169054908160000,4.560159912109375,0.12141045718491077,0.004037731083482504,0.006747437566751614
1783169054918109000,4.57010888671875,0.111684012940526,0.0007369725050404667,-0.0010630284049198962
1783169054928057900,4.580057861328125,0.13038929793238638,0.0040234102971851825,0.0016783495749579742
1783169054938037000,4.590037109375,0.11901508648097514,0.002720547537691891,0.005247175371902994
1783169054947986000,4.59998583984375,0.12111176649928092,-0.0004634162606671452,-0.007745606874802615
1783169054957934800,4.609934814453125,0.13263327746689318,0.004332366648502647,-0.00381609910588013
1783169054967914000,4.6199140625,0.1299433077305555,0.009325681423768401,-0.004209489187505096
1783169054977863200,4.62986328125,0.12545768674910068,-0.0018443857576698063,-0.009655239888408686
1783169054987810800,4.639810791015625,0.12022329322695731,0.002106507292576134,-0.0039008753294823687
1783169054997760000,4.649760009765625,0.11917641452252864,0.004475318783149123,-0.004241667574190069
1783169055007739100,4.6597392578125,0.12590893764793873,0.00017667174115777016,0.004926708962593693
1783169055017688000,4.66968798828125,0.1253133098423481,-0.002609853704832494,-0.004863091974740382
1783169055027637000,4.679636962890625,0.12202420516908168,0.0031430107334628698,-0.008349475069064647
1783169055037586000,4.6895859375,0.12127543262839316,0.011845299561880528,0.0029115788810537193
1783169055047565000,4.69956494140625,0.13055237953960894,-0.0028051936138421296,-0.0033341356916585935
1783169055057513000,4.709512939453125,0.12142331666648387,-0.010391082165576517,0.0022499504769839403
1783169055067462000,4.7194619140625,0.11783435226380824,-0.0013412220085039733,-0.0010488309162086807
1783169055077410800,4.729410888671875,0.1271118836969137,0.007639481902495026,0.002804332814028021
1783169055087390000,4.739389892578125,0.12336860551536083,0.0017118454191833734,0.0005736032034503296
1783169055097339000,4.7493388671875,0.13204407940208912,0.004508965324424207,-0.0007704067004728131
1783169055107287800,4.759287841796875,0.12037293083071708,-0.003884622881002724,0.0015678863542503676
1783169055117267000,4.769266845703125,0.1211217033714056,0.0007290449269115925,0.0031796712157316502
1783169055127215900,4.7792158203125,0.1248597208559513,0.008606134977564215,-0.0032069359652814452
1783169055137163800,4.789163818359375,0.12889993615746498,-0.0008265870172530412,-0.000438370867667254
1783169055147113000,4.799113037109375,0.11528057612776756,-0.0004506298443302512,0.008171972210844978
1783169055157091800,4.809091796875,0.12904372854232787,0.00696866996884346,-0.0026503866446204484
1783169055167041000,4.819041015625,0.11692016002833842,0.0058709743926301594,0.0018624148901159058
1783169055176990000,4.828989990234375,0.12604571577012538,0.006376951153390109,0.005146514309290797
1783169055186939000,4.83893896484375,0.1215530805259943,0.00288425019942224,-0.0018875125133432447
1783169055196918000,4.84891796875,0.1270861647337675,-0.0010447232799604535,-0.008023980858188588
1783169055206867000,4.858866943359375,0.12528875992298125,0.007687851088866591,-0.011288252484297845
1783169055216815000,4.868815185546875,0.12214403215646744,0.005058817759528756,-0.010435115386836696
1783169055226764000,4.878763916015625,0.1296264968663454,-0.008872603894025086,0.001001968700333964
1783169055236743000,4.888742919921875,0.12438918073475361,-0.001541713016666472,0.010418324082239996
1783169055246691800,4.89869189453125,0.12633330053985117,-0.004208849866688251,-0.005187451391166541
1783169055256641000,4.90864111328125,0.12468728689849376,0.0077676383268088095,-0.0061820656188181595
1783169055266620000,4.918619873046875,0.12633096245229244,0.007087400977686047,0.0038518028902122746
1783169055276568800,4.92856884765625,0.13306231653392314,0.010899397013895213,0.00978119750577025
1783169055286517000,4.93851708984375,0.11540274120271206,0.010658902788907288,-0.0005518777121207676
1783169055296466000,4.9484658203125,0.1267722764790058,0.004471775119192898,0.0025895509877314907
1783169055306444800,4.95844482421875,0.1279670392215252,0.006630779783986508,-0.007375115894863847
1783169055316393700,4.968393798828125,0.13544950393140315,0.0012318798825144766,-0.00238438095034071
1783169055326343200,4.97834326171875,0.12901450244784354,0.00005359335076063871,-0.004029698188665497
1783169055336292000,4.9882919921875,0.12317922042310238,0.0037720293520018457,-0.003070290273835417
1783169055346271000,4.99827099609375,0.1263227791458368,0.010175393588282167,0.0003221449118645978
1783169055356220000,5.008219970703125,0.12332944254875182,0.003751753748953342,-0.008722952590533531
1783169055366168000,5.01816796875,0.12348083371818065,0.008789272992126644,-0.006054532532300799
1783169055376148000,5.02814794921875,0.12093640993237495,0.003716865098662674,-0.0037361474711564368
1783169055386096000,5.03809619140625,0.1267722764790058,0.010302344436198473,0.0015678543882095253
1783169055396045000,5.048045166015625,0.12288052973747253,0.0022611133323982356,-0.002165235474058136
1783169055405994000,5.057993896484375,0.1297650285542011,-0.0027152503080666063,0.0019624203634797596
1783169055415972900,5.067972900390625,0.12871698080599306,0.0013453867269679904,-0.004459495307521138
1783169055425921800,5.077921875,0.12392916200757026,0.0034178821520879864,-0.008227385342644992
1783169055435870000,5.087869873046875,0.11943711128532886,0.003647124330699444,0.0004321740223211236
1783169055445819000,5.09781884765625,0.12422493008375167,0.004562668273039162,-0.003573435756692197
1783169055455798000,5.107798095703125,0.13409808932244777,-0.002540953187085688,-0.008496683253720402
1783169055465747000,5.117746826171875,0.12826105373203753,0.004541114028356969,-0.002385378747472714
1783169055475695900,5.12769580078125,0.11972820318639278,0.00043718584086745974,-0.002690172949025873
1783169055485645000,5.13764501953125,0.12631050418615342,0.0034821430273354053,-0.008699651630048174
1783169055495624200,5.147624267578125,0.13229367024898528,-0.0031752690352499485,-0.006630798050295561
1783169055505573000,5.157572998046875,0.11867489474117755,0.001208279811218381,0.00374686294470448
1783169055515521000,5.16752099609375,0.11747487130165099,0.0019009382504969834,-0.010102371734555344
1783169055525501000,5.1775009765625,0.12360825949013232,0.00029964053370058535,-0.007827172794588841
1783169055535449000,5.187448974609375,0.11477788730263709,0.0037878479756414886,0.0026440391022246328
1783169055545398000,5.19739794921875,0.11941606849730015,0.0005272752771154045,-0.0029540089482834445
1783169055555347000,5.207346923828125,0.11956629062294959,-0.0017489990917965768,0.0005890679173520765
1783169055565326000,5.217326171875,0.12764905931353568,0.0010362842451781035,0.009966954452393111
1783169055575275000,5.22727490234375,0.12809797212481497,0.0029755452120676634,0.009799002590519376
1783169055585223000,5.237222900390625,0.11627484786212444,0.004226239392906427,0.001650520853116177
1783169055595171800,5.247171875,0.12674889560341834,-0.0014549845812842248,0.00013942217042203992
1783169055605151000,5.25715087890625,0.1265986734777689,0.00021864771936088798,-0.00011009104466065763
1783169055615100000,5.267099853515625,0.12046236267983913,-0.0021423823235556484,-0.005387590772879775
1783169055625048800,5.277048828125,0.11746844156086444,0.00042640871852636333,-0.0007274534747353754
1783169055634997800,5.286997802734375,0.1218055939823389,-0.0003984612656757235,-0.011458037826942744
1783169055644977000,5.296976806640625,0.133625795635581,0.005022760065458715,0.0016502011927077545
1783169055654926000,5.306926025390625,0.12525018147826195,0.0008618775263428687,0.004322569056984502
1783169055664873700,5.316873779296875,0.12405483421385287,0.007109101352840662,0.009976905024249572
1783169055674854100,5.326854248046875,0.12585223902463913,0.014080986192077398,0.0038377149993553757
1783169055684802000,5.336802001953125,0.1270510934203863,-0.001377571963518858,0.002729518578725401
1783169055694751000,5.3467509765625,0.12480594484210014,-0.0003212313110008836,0.006039175132964737
1783169055704700000,5.356699951171875,0.12719897745847702,0.004199387918598949,-0.0005542797317611985
1783169055714679000,5.366678955078125,0.11911796233355998,0.007518851197510957,-0.002217965741716034
1783169055724628000,5.3766279296875,0.125848731893301,-0.004529752384126186,-0.004839615201030392
1783169055734575900,5.386575927734375,0.12554711859822273,-0.0005598258398473262,-0.0021148387273817204
1783169055744525000,5.396525146484375,0.1213566811710596,0.00020366934593766926,-0.004844770866760518
1783169055754504000,5.40650390625,0.12480243771076202,0.0006777896637097001,-0.004979964386636857
1783169055764452900,5.416452880859375,0.12869769158363342,0.003082731913588941,-0.0035843407431966623
1783169055774401800,5.42640185546875,0.13079495612382888,0.007210114041902124,-0.0002580161819467321
1783169055784351000,5.43635107421875,0.12496084314286708,0.003115392074175179,0.004311862716590985
1783169055794329900,5.446329833984375,0.11433891136348247,0.003354461527056992,-0.0028617481045468593
1783169055804278800,5.45627880859375,0.12690905460119248,-0.0014670768778771162,0.004435039288399275
1783169055814227000,5.46622705078125,0.11882453234493731,-0.0010437368992716072,0.003303137765196152
1783169055824230400,5.47623046875,0.1310895551562309,0.004346687434799969,0.012728927695727907
1783169055834178600,5.486178466796875,0.12884148396849632,-0.007220562370680272,0.003058547891225316
1783169055844127500,5.49612744140625,0.12061083123981951,-0.003014817776530981,-0.0035737388632580405
1783169055854076400,5.506076416015625,0.13407529296874998,0.0014053367532789705,-0.005265567261830438
1783169055864055300,5.51605517578125,0.13826397683024405,0.0036792365020141002,0.010015003978356253
1783169055874004500,5.52600439453125,0.12524608982503413,0.0020254048803821207,0.00902869692556851
1783169055883953700,5.53595361328125,0.1256961716800928,0.0003391322938725352,0.0027104211526107974
1783169055893901600,5.545901611328125,0.13108254089355467,-0.0066708560660481446,-0.00580541889272863
1783169055903880700,5.555880615234375,0.12823884190022944,-0.003212970697134733,0.003100393721976434
1783169055913829600,5.56582958984375,0.1222539222717285,0.0085932024307549,0.000480301750919898
1783169055923778600,5.575778564453125,0.11312427487671374,0.0019059066865593193,-0.0007166786356829106
1783169055933727500,5.5857275390625,0.11596914291381835,-0.0005358239097520708,0.006327265080300275
1783169055943706600,5.59570654296875,0.12105682144165038,0.008888276387192308,0.003141257738615968
1783169055953655600,5.605655517578125,0.11252689350545406,-0.0008270619412884116,0.0036120416008750904
1783169055963603500,5.615603515625,0.12165478733479976,0.01173358281571418,0.00014393394875805823
1783169055973583400,5.625583251953125,0.12539338934123515,0.003728847797401249,-0.006309269911772571
1783169055983531500,5.635531494140625,0.1277829148262739,0.014642419467121363,-0.003630569917298271
1783169055993480400,5.64548046875,0.13241817341148854,0.006055975570715963,-0.00011421466392930597
1783169056003429400,5.655429443359375,0.13256956458091734,0.003463401794247329,0.0021511524351895787
1783169056013408500,5.665408447265625,0.12882628639936447,0.010556574925594031,0.004023232200671918
1783169056023357400,5.675357421875,0.13286182552576065,0.0015612214347347617,0.0014066838935716077
1783169056033306600,5.685306640625,0.12537994533777236,0.0009747998489066957,-0.0004650482412165729
1783169056043254500,5.695254638671875,0.12478256396651267,0.0036270679233595727,0.00019944526196923106
1783169056053234700,5.705234619140625,0.13196516894698143,0.0066276745114475484,0.0023151228125119815
1783169056063182600,5.7151826171875,0.12672609924972056,0.0032273280160501597,-0.006129926722915843
1783169056073131500,5.725131591796875,0.12059154201745986,-0.0012758651547133922,-0.005031438845547381
1783169056083080400,5.73508056640625,0.12522855416834353,0.0019088292960077523,-0.0007047393194283358
1783169056093059600,5.7450595703125,0.12732406514286995,0.004438128577917814,0.0024792792778578587
1783169056103008500,5.755008544921875,0.12164017428755759,-0.0016099194146692753,-0.0012867901199933838
1783169056112956400,5.764956298828125,0.12298457463383673,0.0018915128350257872,0.0025975559122627598
1783169056122936600,5.7749365234375,0.12208616448938846,0.006545439588092267,-0.00678235133321723
1783169056132884500,5.784884521484375,0.12104045482873915,0.0023149258788675068,-0.00019762034353043418
1783169056142833400,5.79483349609375,0.13675298774540423,0.005577032947354018,0.010331358184840064
1783169056152782300,5.8047822265625,0.13375965114831923,-0.005628105547465383,0.006312379750888795
1783169056162761500,5.814761474609375,0.12867138809859752,-0.004106996927410364,0.004010895592195448
1783169056172710400,5.82471044921875,0.12044248893558979,-0.00325352190323174,0.002385650744230952
1783169056182659300,5.834659423828125,0.12313596580326557,0.0031854981683194636,0.006514007836789824
1783169056192607500,5.844607421875,0.11744915233850478,0.00021269290260970592,0.007251720127346925
1783169056202587600,5.854587646484375,0.1187947217285633,-0.0019962883837521075,0.012352584647026378
1783169056212535300,5.864535400390625,0.1276262629598379,0.003758366152830422,0.012778164531779474
1783169056222484500,5.874484375,0.1276268474817276,-0.0007500877149403095,0.009924581181968097
1783169056232463600,5.884463623046875,0.1277747315198183,-0.0014457418289035558,0.009108296933842939
1783169056242412500,5.89441259765625,0.12822598241865635,0.0019247940501198172,0.010392920212924945
1783169056252361500,5.904361572265625,0.1283797116756439,0.002101173530332744,0.0036591641116538085
1783169056262309600,5.9143095703125,0.1307733288139105,-0.0005719181364402174,0.0053602232753415585
1783169056272289500,5.92428955078125,0.12299041985273361,-0.0012677549134939908,-0.001442330595687963
1783169056282237400,5.934237548828125,0.12583411884605883,0.0012653072280809283,-0.005154037174509721
1783169056292186600,5.9441865234375,0.12643033117353916,0.008211326973699033,0.002602768660208676
1783169056302135600,5.954135498046875,0.12104571552574633,0.00814049022719264,0.0034088266293751074
1783169056312114400,5.964114501953125,0.12523673747479916,0.010054434089735149,-0.0024924424368189648
1783169056322063400,5.9740634765625,0.12643208473920822,0.001728065901622176,-0.0016293182348832487
1783169056332012300,5.98401220703125,0.13630816658735276,-0.0038118864383548494,-0.004312956411845516
1783169056341960400,5.99396044921875,0.1339098732739687,0.002440744215622544,-0.010614412909920792
1783169056351940400,6.0039404296875,0.12642448595464229,-0.0017895137652754784,0.0038283261165022848
1783169056361888500,6.013888427734375,0.12732055801153183,-0.0020334055237472056,0.00226844097643916
1783169056371837400,6.02383740234375,0.12073474988043308,-0.005284260545857251,-0.0021700329488841814
1783169056381816300,6.03381640625,0.12447335188686846,0.003920278716273606,-0.0021771842088783157
1783169056391765500,6.043765625,0.12701426854133605,0.0030961028518155216,0.0022038621532497926
1783169056401714700,6.053714599609375,0.11788579019010066,0.011495426678285002,0.006713507897686213
1783169056411662600,6.06366259765625,0.12806173176765442,0.015519786823540925,0.003122716864105314
1783169056421642500,6.073642578125,0.13030512678027154,0.016449615019559858,-0.00037776097094174474
1783169056431590700,6.083590576171875,0.12297229967415332,0.008985087825171649,-0.0008855232634115964
1783169056441539600,6.09353955078125,0.12222469617724419,-0.0022544278632849455,-0.00036350868330337104
1783169056451488500,6.103488525390625,0.12402210098803043,0.004737951774708926,0.001559710468482808
1783169056461467400,6.11346728515625,0.12057809801399708,0.00764693455658853,0.0016760388868628069
1783169056471416600,6.12341650390625,0.11773498354256152,-0.006571889203600585,-0.004425677805009763
1783169056481365500,6.133365478515625,0.1276134034782648,0.003989836821146309,-0.0017601866352692013
1783169056491313400,6.1433134765625,0.12431670002043246,0.0077138988455757495,0.0091816178983805
1783169056501293300,6.153293212890625,0.11937573648691177,0.007040785356983542,0.0047075497865793296
1783169056511241500,6.163241455078125,0.12356383582651614,-0.004726626663096249,-0.004080748241301626
1783169056521190400,6.1731904296875,0.12820552415251732,0.008053980987519025,-0.0018002954541938379
1783169056531169500,6.18316943359375,0.12671265524625777,0.0058580418458208435,0.0027941150974016634
1783169056541118500,6.193118408203125,0.12835749984383582,0.009043978405557573,0.002023450956135639
1783169056551067600,6.203067626953125,0.1240145022034645,0.0036032486563548445,0.00041229571149451654
1783169056561015600,6.213015625,0.1235614977389574,0.0022175299189984795,0.011002590243599843
1783169056570995500,6.222995361328125,0.1261053370028734,0.009558759527280926,-0.002635464782590861
1783169056580943600,6.232943603515625,0.13493512466847896,0.0119112774701789,-0.0031841350450064056
1783169056590892500,6.242892578125,0.13538053034842013,-0.0029441271604970097,0.004907523059044615
1783169056600841500,6.252841552734375,0.1280447806328535,0.007621982778422534,0.0031762668323819525
1783169056610820600,6.262820556640625,0.1175701483696699,0.0019460195012390613,-0.0008112752836896106
1783169056620769500,6.27276953125,0.11158230613172053,0.0012682663701474666,0.002098815463998471
1783169056630718500,6.282718505859375,0.1229518414080143,0.007634257738105952,0.003734677033277694
1783169056640666400,6.292666259765625,0.13103168748915195,0.004498407397791743,-0.009216734306712169
1783169056650646500,6.302646484375,0.12893559199273585,0.0033483240472152826,0.004444118214820628
1783169056660594400,6.312594482421875,0.12953648049533367,-0.004352276925370097,0.0032592826404492367
1783169056670543400,6.32254345703125,0.13118366318047045,0.002644705822505057,-0.009744326960947364
1783169056680522500,6.3325224609375,0.12579554040133953,0.0007316022101789713,0.0005671597629319876
1783169056690471400,6.342471435546875,0.12654723555147648,0.0030329744877293703,-0.009429773698371719
1783169056700420400,6.35242041015625,0.12744739926159382,0.00041333004124462604,-0.00252547249016352
1783169056710369500,6.36236962890625,0.1198147124260664,-0.002838072970137,0.002720798699441366
1783169056720348700,6.3723486328125,0.12983867831230164,0.0016917890118435025,-0.005103946959332097
1783169056730296600,6.382296630859375,0.11876666467785835,0.011698292306624352,-0.0012050598034256835
1783169056740245500,6.39224560546875,0.11906886249482632,0.0036694092277437446,-0.002108048512402456
1783169056750194400,6.4021943359375,0.12386077294647693,0.004032251190766692,0.0012927917441615136
1783169056760173600,6.412173583984375,0.11907236962616442,0.000732113666832447,0.005997053024289198
1783169056770122500,6.42212255859375,0.12879589126110075,0.0017134528543800115,0.0009228390495176426
1783169056780071400,6.432071533203125,0.11801438500583171,0.005375372895412147,0.003559777124098036
1783169056790019600,6.44201953125,0.12758943808078765,0.008557436997629701,0.004990896772604901
1783169056799999500,6.45199951171875,0.12654255937635897,0.007806983956508338,0.00902953032591904
1783169056809947400,6.461947509765625,0.12280220380425452,0.004036781235411763,-0.0009422287365770898
1783169056819896600,6.471896484375,0.12100596803724765,0.008838957352750003,0.004930832581862342
1783169056829881000,6.481881103515625,0.11890870349705218,0.001730367456562817,0.0077146728804218575
1783169056839830300,6.491830322265625,0.12040449501276015,-0.0011041983822360634,0.01034975464134477
1783169056849779200,6.501779296875,0.1325245563954115,0.006548764056339859,0.007263431114738341
1783169056859728100,6.51172802734375,0.12683482032120227,0.008593786952644586,0.0015232229453278705
1783169056869707000,6.52170703125,0.13207213645279406,0.004558430489338934,0.002185972586821299
1783169056879656200,6.53165625,0.12324468687474727,0.004233509383909404,-0.005770884152175858
1783169056889604000,6.54160400390625,0.1352156951755285,0.00557582737095654,0.00442936759943841
1783169056899553300,6.55155322265625,0.11591010620296001,0.009238770325295626,0.015394479943439364
1783169056909532400,6.561532470703125,0.1193523556113243,-0.0000589636456221342,0.0028579809637158176
1783169056919481300,6.5714814453125,0.12564005757868288,0.005384396452084183,0.00005653194322949275
1783169056929430300,6.58143017578125,0.1259451780050993,-0.0036160716053098437,0.008264276437065564
1783169056939378200,6.591378173828125,0.12744096952080725,0.0012000599721446632,0.0004914778779493645
1783169056949358300,6.6013583984375,0.12579378683567047,0.0004827054830268025,-0.0028715665310737677
1783169056959306200,6.61130615234375,0.13178104455173015,0.003569638647697866,-0.003927409426670056
1783169056969255200,6.621255126953125,0.13372808696627617,0.014601247206516564,-0.00419290052477445
1783169056979234300,6.631234375,0.12924129694104194,0.008389240823872386,-0.00029700105204246937
1783169056989183200,6.641183349609375,0.13223580258190631,0.006844678262993693,0.0039605399447144
1783169056999132200,6.651132080078125,0.12984276996552943,0.004266242609731853,-0.0021230063362279905
1783169057009081000,6.6610810546875,0.12595453035533427,0.004199716712161898,0.009436210859846323
1783169057019060200,6.671060302734375,0.11967208908498286,0.00009929565601050853,0.006322524402278941
1783169057029009200,6.681009033203125,0.12431027027964592,0.0034012963434681296,0.002012992923380807
1783169057038957000,6.69095703125,0.11892331654429435,-0.00437167574558407,0.008333435537249897
1783169057048906000,6.700906005859375,0.1280541329830885,-0.00400591117311269,0.00558599542605516
1783169057058885000,6.710885009765625,0.12490940521657466,0.007877711105160414,0.0044317308031721035
1783169057068834300,6.720834228515625,0.12730302235484123,0.003245192466303706,-0.005116361199622042
1783169057078783200,6.730783203125,0.136579969266057,0.0019249401805922388,-0.011518908018572256
1783169057088762400,6.740762451171875,0.12849603153169153,0.005312755987979471,-0.0027324206385761496
1783169057098711300,6.750711181640625,0.1243067631483078,0.008752265449985861,0.006009677897955407
1783169057108659200,6.7606591796875,0.13418518308401106,0.0032965573273599147,0.005632307369369664
1783169057118608100,6.770608154296875,0.12401099507212639,0.004446384949609637,0.010649235344841145
1783169057128587300,6.780587158203125,0.1235609132170677,-0.002695705357380211,0.003063750935194548
1783169057138536200,6.7905361328125,0.13239070088267327,0.009240779619291425,-0.003822515146934893
1783169057148485000,6.800485107421875,0.12864917626678943,0.004913527537323535,0.0010061060193344018
1783169057158434000,6.81043408203125,0.13059329607188702,0.005559606888517737,0.008305860260446206
1783169057168413200,6.8204130859375,0.1273041913986206,0.012202552034333347,0.01381755633278517
1783169057178362000,6.830362060546875,0.12057049922943114,0.0003913739377632737,0.003557172462591552
1783169057188310300,6.840310302734375,0.12505962734222412,0.003372143314220011,0.005057178358291276
1783169057198259200,6.85025927734375,0.12955284710824488,0.006405958052165806,-0.0008767828345298766
1783169057208238000,6.860238037109375,0.1253647477686405,0.0002174421429634094,0.004520416016911622
1783169057218187000,6.87018701171875,0.1219271745353937,0.004896247608959675,0.0027636634477443294
1783169057228136200,6.88013623046875,0.1274661039620638,0.0030215397782623766,-0.0005608099372475408
1783169057238115300,6.890115234375,0.13240356036424636,0.005293685961328447,-0.0007972507540922379
1783169057248064300,6.900064208984375,0.11609539964199066,0.008508227561041712,0.004715598379005678
1783169057258012400,6.910012451171875,0.12058686584234236,0.006954604910872876,-0.001013951399072539
1783169057267961300,6.91996142578125,0.12118541625738143,0.007990121971070767,0.009460900059819687
1783169057277940200,6.929940185546875,0.12388298477828502,0.009077771077305077,-0.004991042903077322
1783169057287889200,6.93988916015625,0.11580781487226485,0.004288746702484786,-0.0010689147230121307
1783169057297838300,6.94983837890625,0.12448738041222095,-0.002312733921781182,0.004013528223987668
1783169057307787300,6.959787353515625,0.12284019772708415,0.00010696750581264495,-0.00022978331801714374
1783169057317766100,6.96976611328125,0.12119886026084423,-0.00032930501960217953,-0.0025227234106510875
1783169057327715000,6.979715087890625,0.12090016957521438,0.002657601836696267,-0.001977831990920822
1783169057337663200,6.989663330078125,0.12613923927247522,-0.00009874766673892736,-0.004404808546917047
1783169057347612200,6.999612060546875,0.12793664408326147,0.0015009060822427272,0.005126341454230714
1783169057357591000,7.009591064453125,0.12538871316611766,0.009553279634565114,-0.005215949116577394
1783169057367540200,7.019540283203125,0.12717851919233797,0.00043923166748136277,-0.002578764446824789
1783169057377489200,7.0294892578125,0.123138888412714,-0.0021253946561366316,-0.006444792225211858
1783169057387468000,7.039468017578125,0.12778057673871515,0.005880107547156513,0.0069050347146810956
1783169057397417200,7.049417236328125,0.1288333006620407,0.003026544746942818,-0.0000972087302012369
1783169057407365400,7.059365478515625,0.12898702991902827,-0.0011280176492407918,-0.006024840646935627
1783169057417314300,7.069314208984375,0.12779577430784703,0.0060467328183352945,0.003835822153079789
1783169057427293200,7.079293212890625,0.12525251956582067,0.00676715604737401,0.00476577592997346
1783169057437242400,7.089242431640625,0.128842068490386,0.0029313772767782208,0.0004929711487144232
1783169057447191300,7.09919140625,0.126445528742671,0.0025431451441720126,0.005399552922020666
1783169057457140200,7.10914013671875,0.1168646304488182,0.003121383423544466,0.009831317974522243
1783169057467119000,7.119119140625,0.12494096939861773,-0.0017068404505029319,0.0011247730960953048
1783169057477068300,7.129068359375,0.11940671614706516,0.0055685939125716686,-0.0030604099131043764
1783169057487016200,7.13901611328125,0.13048165239095688,0.0035593364493921396,-0.0006529908658820204
1783169057496965000,7.148965087890625,0.1207552081465721,-0.003757927761413157,-0.0016171979680046206
1783169057506944300,7.1589443359375,0.11761164942383766,0.00988046576231718,-0.00039610947838518765
1783169057516893200,7.16889306640625,0.12883505422770977,0.006876169379800558,0.0010296147590852342
1783169057526842000,7.178842041015625,0.12659107469320297,0.0023728666111826895,0.006258891431405208
1783169057536821200,7.1888212890625,0.11761106490194796,0.009756072197668254,-0.0025472162478021344
1783169057546770200,7.198770263671875,0.11910685641765593,0.008568725576624274,-0.0023155994490138255
1783169057556719400,7.20871923828125,0.13018062361776828,0.011103614349104464,0.00833320435427595
1783169057566667300,7.218667236328125,0.12509177604615687,0.008298018876463174,-0.0015215492947609163
1783169057576646100,7.228646240234375,0.12807751385867594,0.01044113185238093,-0.004082289461127948
1783169057586595300,7.23859521484375,0.12972411202192305,0.0029400355072692033,-0.0033768194893375038
1783169057596544300,7.248544189453125,0.13017244031131267,0.002069682413525879,-0.00015498506573494522
1783169057606493200,7.2584931640625,0.11924655714929103,0.007830109103769063,-0.0014348205739675903
1783169057616472300,7.268472412109375,0.12881868761479853,0.00572049653865397,-0.0022083873459065213
1783169057626421200,7.278421142578125,0.13360592189133166,0.006051116732507944,0.006983753373543731
1783169057636369200,7.288369140625,0.13091361406743526,0.005707563991844654,0.004786403159471229
1783169057646318000,7.298318115234375,0.1289677406966686,0.003184657918103039,-0.0005950044677942059
1783169057656297200,7.308297119140625,0.12836568315029143,0.013763079349324107,-0.0009238071638974361
1783169057666246100,7.31824609375,0.1219318507105112,0.014633322845213114,0.003550456739903893
1783169057676195000,7.328195068359375,0.12971066801846026,0.007978906457312404,-0.00317723922792793
1783169057686174200,7.33817431640625,0.13554653456509114,0.0013868512485176324,-0.008037529892928432
1783169057696123100,7.348123046875,0.12223112591803073,0.00626475948318839,-0.00010251480756996897
1783169057706072000,7.358072021484375,0.12986673536300658,-0.0011897212412208319,-0.003738341711531393
1783169057716020200,7.368020263671875,0.11893909863531589,0.001617372068762779,-0.0010354645445593631
1783169057726000400,7.37800048828125,0.1312082130998373,0.008080905527062714,0.0027466044275555757
1783169057735948000,7.387947998046875,0.1316606330424547,0.004697327503375709,-0.0037668117520675876
1783169057745897200,7.397897216796875,0.12866671192348003,-0.00006111907009035348,-0.0024170596626470796
1783169057755846100,7.40784619140625,0.13390636614263057,0.010787314941547811,0.00020394105728482827
1783169057765825300,7.4178251953125,0.13480360724329948,0.004070683505013585,0.000867332302883733
1783169057775774200,7.427774169921875,0.12402502359747886,0.008096358824521303,-0.0033221963754040186
1783169057785722400,7.437722412109375,0.11848784773647784,0.0015237755011767147,-0.0027896033190656453
1783169057795671300,7.44767138671875,0.1249251873075962,-0.00004763853400945663,0.0013539833086659199
1783169057805650200,7.457650146484375,0.12612579526901244,0.008378134907968342,-0.0015194943349924868
1783169057815599000,7.46759912109375,0.12148410694301127,-0.0018629443276673553,0.0051997971327975385
1783169057825579800,7.477579833984375,0.12657061642706394,-0.0006387728275731205,0.00742254664960783
1783169057835559000,7.487558837890625,0.12836568315029143,0.0002836757795885205,0.0018555008067283778
1783169057845507800,7.4975078125,0.12716682875454424,0.008260974801704287,0.0014876173424068838
1783169057855457000,7.50745703125,0.12746376587450503,0.00818038384616375,0.002597373249172233
1783169057865405000,7.517405029296875,0.1282102003276348,0.005677059255726635,0.002429033228231128
1783169057875385000,7.527385009765625,0.12088204939663409,0.0019748802695423364,0.0014936794737237505
1783169057885333000,7.5373330078125,0.1234305648356676,0.005885952766053379,0.008915920733477104
1783169057895282000,7.547281982421875,0.1267243456840515,0.0050864729514345525,0.008291554886347148
1783169057905231000,7.557231201171875,0.12238251708745956,0.002600464821979403,0.0016350766888121142
1783169057915210000,7.5672099609375,0.11804361110031604,0.0013979206318035721,-0.0012897880779666592
1783169057925159000,7.577158935546875,0.12657529260218142,0.00011990005262196064,0.00005347233646316453
1783169057935107000,7.587107177734375,0.13690087178349494,0.008339666061103344,-0.00737868467499502
1783169057945056000,7.597055908203125,0.12432897498011589,0.008403744273260235,0.0002612949844216928
1783169057955035000,7.607034912109375,0.12074001057744026,0.004604973044805228,0.0036988596553361275
1783169057964984000,7.616984130859375,0.13031272556483744,0.012205693839490413,0.003319721861349535
1783169057974933000,7.62693310546875,0.12567571341395378,0.015585691666603087,0.002722260004165582
1783169057984912000,7.636911865234375,0.12463058827519416,0.005789652784727513,0.0014768950189929454
1783169057994860800,7.64686083984375,0.11864508412480354,0.009087379155866802,0.0016489385340944863
1783169058004810000,7.65681005859375,0.11834873152673243,0.012592355069518089,0.0015567050898214801
1783169058014758000,7.6667578125,0.12538345246911048,0.005354951161891222,-0.004771116542082746
1783169058024738000,7.676738037109375,0.13451134629845618,0.004011756392009556,0.0016439404152799398
1783169058034686000,7.68668603515625,0.12793138338625432,0.008984174509719013,0.0038344544631894674
1783169058044635100,7.69663525390625,0.1192524023681879,0.008540485862828791,-0.0004996109520550817
1783169058054584000,7.706583984375,0.12852701119184493,0.010709646595455705,0.0029688597429543733
1783169058064563000,7.71656298828125,0.12912848421633244,0.001195602992735803,0.0009111897109192796
1783169058074512100,7.72651220703125,0.12688859633505345,0.002573065358400345,-0.0035850388586957703
1783169058084460000,7.7364599609375,0.11731120517253875,0.008415215515345334,-0.0007325086757657118
1783169058094440000,7.74643994140625,0.129731710806489,0.0037591333378106354,0.00015608104427810757
1783169058104388000,7.75638818359375,0.12569032646119593,0.0019962883837521075,-0.0012596218393882736
1783169058114337000,7.7663369140625,0.1241886897265911,0.004695427807234228,-0.00540650325261522
1783169058124286000,7.776285888671875,0.12598667905926703,0.004027976874448359,-0.00001947645202744752
1783169058134264800,7.786264892578125,0.12479074727296828,0.006991941246576607,0.003578498378410586
1783169058144214000,7.796214111328125,0.12389642878174781,0.000602240209467709,0.00360046761080157
1783169058154163000,7.806162841796875,0.12209785492718218,0.00038998569827526804,0.00808041233671829
1783169058164110800,7.81611083984375,0.12658815208375454,-0.0024944836968556045,0.002066855702199973
1783169058174090800,7.8260908203125,0.13063128999471663,-0.0015203414350748062,0.0033995113825803854
1783169058184039000,7.836038818359375,0.1267412968188524,0.0036944340711459515,0.0012379031979246064
1783169058193987800,7.84598779296875,0.1322808107674122,0.020373473932407796,-0.0006349528856924735
1783169058203937000,7.85593701171875,0.13437398365437983,0.01040332059264183,-0.0026663028788490918
1783169058213916200,7.865916259765625,0.1319791974723339,0.007273425069078803,0.010384453778679017
1783169058223865000,7.875864990234375,0.13691373126506803,0.004975596455484628,0.008700156236835755
1783169058233814000,7.88581396484375,0.12329787836670875,0.005554601919837296,-0.002769482408821932
1783169058243793000,7.89579296875,0.12255144391357899,0.003701594464294612,-0.007936444138630759
1783169058253741000,7.905740966796875,0.1319791974723339,0.008773162107542157,0.006459236309095285
1783169058263690000,7.91568994140625,0.12539748099446296,0.00392422423902899,0.009766860736452509
1783169058273639000,7.925638916015625,0.12450023989379405,0.005850881452672183,0.01110477425972931
1783169058283618000,7.9356181640625,0.12315233241617679,-0.003255640795081854,0.010394890691014007
1783169058293567000,7.94556689453125,0.12330138549804687,0.004701674884930253,0.005332463622980867
1783169058303516000,7.955515869140625,0.11222820281982421,0.0033431364154443144,0.0006415881224558688
1783169058313463800,7.9654638671875,0.12554478051066398,0.004124642181955278,-0.003716282860061619
1783169058323444000,7.97544384765625,0.11611468886435031,0.0013677081566303968,0.0038612853878992608
1783169058333392000,7.985391845703125,0.1203027882039547,-0.0009737404029816389,0.005711838308162987
1783169058343340800,7.9953408203125,0.13167641513347625,0.003334770445898175,0.0043159909024368965
1783169058353289700,8.005289794921875,0.12389350617229938,0.0029268472321331497,-0.005549998809956014
1783169058363268900,8.015268798828124,0.13317103760540486,-0.0033465339489281176,-0.0005475440302980132
1783169058373218000,8.025218017578124,0.12090250766277312,0.00004142798893153667,0.0025803855817532165
1783169058383167000,8.0351669921875,0.11326806726157665,0.0022264073451980946,0.004918800221596029
1783169058393146000,8.04514599609375,0.1156581772685051,0.003388290731422603,0.004627013629965949
1783169058403095000,8.055094970703125,0.12717676562666894,0.0031888591691851616,-0.0004552809032727964
1783169058413043000,8.06504296875,0.12343641005456447,0.004062536731176078,-0.0017183208257425576
1783169058422992000,8.074991943359375,0.12433072854578495,0.0023708207845687863,-0.006189104997669346
1783169058432971000,8.084970947265624,0.1184896013021469,-0.007057334632985294,0.007228163438534829
1783169058442920000,8.094919921875,0.11669687266647814,0.009620572717115283,0.00308076143549988
1783169058452868900,8.104868896484374,0.11968904021978377,0.002904671932943165,0.0030029538088012487
1783169058462817000,8.114817138671874,0.12043605919480323,0.009818214181065559,0.0024048874509520826
1783169058472797000,8.124796875,0.12162789932787417,0.010582878410629928,0.004016930894870893
1783169058482744800,8.134744873046875,0.125516723459959,-0.0017856047751381992,0.014083388211717828
1783169058492694000,8.144694091796875,0.12267419351041316,-0.000310527253895998,0.004152957244275603
1783169058502643000,8.154642822265625,0.11369535276293755,0.009576295183971524,-0.004089888245693873
1783169058512621800,8.164621826171874,0.12072890466153621,0.005817819433286786,0.007660869467107113
1783169058522570800,8.17457080078125,0.12133271577358246,0.005532280490174889,0.0014604327933702733
1783169058532520000,8.18452001953125,0.12103110247850417,-0.001883402593806386,0.004422668716004409
1783169058542499000,8.1944990234375,0.13090952241420745,0.00433791960645467,0.00481347611277597
1783169058552448000,8.204447998046875,0.12777005534470082,-0.0009932122884318232,-0.005228269742033444
1783169058562396200,8.214396240234375,0.12552958294153213,0.010859320731833577,-0.0039307749941130165
1783169058572345000,8.224344970703125,0.12852175049483774,0.007131934239156544,0.0005678424662328324
1783169058582324000,8.234323974609374,0.12253624634444713,-0.002135623789206147,0.007536925710318609
1783169058592273000,8.24427294921875,0.13106325167119504,0.000027618659287691113,-0.004061326588201336
1783169058602222000,8.25422216796875,0.13060732459723948,-0.0008150061773136258,0.002458111194365483
1783169058612170000,8.264169921875,0.12776187203824518,0.004026186776161194,0.0013490879378397949
1783169058622150000,8.27414990234375,0.12626198886930942,0.011616970698721706,0.001149779673188459
1783169058632098000,8.28409814453125,0.125212772077322,0.008967990559898316,0.0009624792234506457
1783169058642047000,8.294046875,0.12073124274909496,0.006958696564100682,-0.000003573346708435565
1783169058651996000,8.303995849609375,0.12297989845871925,0.0020467399293556806,-0.003869530343147926
1783169058661974800,8.313974853515624,0.12103636317551135,-0.0026353900048881767,0.0011585475015337579
1783169058671924000,8.323924072265624,0.12866495835781097,-0.002100479410588741,0.008075941657577641
1783169058681873000,8.333872802734374,0.12626958765387533,0.002566270291432738,-0.0027894297891296444
1783169058691851800,8.343851806640625,0.12566869915127754,0.002332242339849472,0.006298280443588737
1783169058701801000,8.353801025390625,0.12656944738328457,0.008839907200820743,0.003519895206981164
1783169058711748900,8.363748779296875,0.12492168017625808,0.010672894781641662,-0.0014302063330542294
1783169058721698000,8.373697998046875,0.12641805621385574,0.000960259866900742,0.0049912512531649555
1783169058731677000,8.383677001953124,0.12148059981167315,0.008713540874794125,-0.0018571790238725951
1783169058741626000,8.393626220703124,0.12566811462938784,0.01597085505928844,-0.002060135412935051
1783169058751575000,8.403574951171874,0.1285106445789337,0.008650302912853658,0.000018257175898179412
1783169058761523000,8.41352294921875,0.12522270894944668,0.007778561579622328,0.0059275177523028105
1783169058771502800,8.4235029296875,0.13509820627570152,-0.0010286489279940723,0.0052782646299106995
1783169058781451000,8.433450927734375,0.13061316981613635,0.0018405133001506326,0.000740109743620269
1783169058791400000,8.44339990234375,0.12522212442755698,0.0012154402043670414,-0.0010137093704775907
1783169058801348900,8.453348876953125,0.1264198097795248,0.0017979893326759337,-0.003990293478872627
1783169058811328000,8.463327880859374,0.12477554970383643,0.0021873174438253045,0.0016568729620892553
1783169058821277000,8.47327685546875,0.13241349723637102,0.0051527431206777686,-0.004186357190378476
1783169058831248600,8.48324853515625,0.12942249872684478,0.01049264284390956,0.0015016350221383618
1783169058841227500,8.4932275390625,0.119548754966259,0.011919935700669885,-0.0007356202273484086
1783169058851176400,8.503176513671875,0.11476093616783618,0.007701148961856961,-0.0007896776565234177
1783169058861124600,8.51312451171875,0.13451193082034588,0.0029483649441972375,0.001643755468900781
1783169058871073500,8.523073486328125,0.13510638958215712,0.010095423687249422,0.004826139231526758
1783169058881052400,8.533052490234375,0.126729021859169,0.004342522716335952,0.0021383112199255265
1783169058891001300,8.54300146484375,0.12762977009117601,-0.004116860734298825,-0.005083945350919384
1783169058900950800,8.55295068359375,0.12224632348716258,0.0017682517815381287,-0.0038305340566090304
1783169058910898700,8.562898681640625,0.12000000586509704,0.006004135785624385,0.0031781619619461704
1783169058920878600,8.572878662109375,0.12733283297121525,0.0014924305148422718,-0.004412398198328446
1783169058930826800,8.58282666015625,0.12927753729820252,0.004057056838460266,-0.00007874377503758295
1783169058940775700,8.592775634765625,0.12898293826580046,-0.003698708387464285,0.00019095656565914395
1783169058950724600,8.602724609375,0.13332476686239242,0.005496515057049691,0.0006493079213192686
1783169058960703500,8.612703369140625,0.1294341891646385,0.004455846897698939,-0.0014875876596546732
1783169058970652700,8.622652587890625,0.12524492078125476,0.016413484260253606,-0.007022411162542994
1783169058980601600,8.6326015625,0.12674480395019053,0.0020954379092901943,-0.0013627802489412715
1783169058990580500,8.64258056640625,0.12719663937091827,-0.00592964577730745,-0.00507813209806336
1783169059000529400,8.652529296875,0.1218102701574564,0.004378324682079255,-0.0052570871278527186
1783169059010477600,8.6624775390625,0.11926584637165069,0.0015499328557401894,0.0009877278291387482
1783169059020426500,8.672426513671875,0.12195932323932647,-0.004123655801266431,0.0041657345274579705
1783169059030405600,8.682405517578125,0.11552315271198749,0.003109546855278313,-0.001068385000049602
1783169059040354600,8.6923544921875,0.12869126184284685,0.0029600188493728637,-0.005932597498685936
1783169059050303700,8.7023037109375,0.13183248247802257,0.005373728927597403,0.004757957949698902
1783169059060252700,8.712252685546876,0.13108312541544437,0.0013672332325950264,0.0051138906813226635
1783169059070231600,8.7222314453125,0.12599603140950202,0.009443499117158353,0.006199268486190703
1783169059080179700,8.7321796875,0.1289852763533592,0.011333550647459924,0.004487931669550017
1783169059090128600,8.742128662109375,0.12030571081340312,0.008056026814132929,-0.004382245088659692
1783169059100107800,8.752107666015625,0.11835574578940868,0.006093640699982643,0.0024063076564809307
1783169059110056700,8.762056640625,0.12747954796552657,0.0011368585428223014,0.0050684789245511635
1783169059120005600,8.772005615234375,0.1319704296439886,0.003332468890957534,0.004626317797755473
1783169059129954600,8.78195458984375,0.12703180419802665,0.0024430823031812905,0.0031016877758083864
1783169059139933700,8.79193359375,0.11565993083417415,-0.004752382158860564,-0.0008753101133625022
1783169059149882600,8.801882568359375,0.11700783831179142,0.00704279465097934,0.004793143998333835
1783169059159830500,8.81183056640625,0.1264367609143257,0.006084215284511447,-0.0034188365667359904
1783169059169779500,8.821779541015625,0.12359423096477985,0.000827281136997044,-0.0014841969760367646
1783169059179758600,8.831758544921875,0.12538812864422796,0.0013291297119110822,0.005489025870338082
1783169059189707500,8.84170751953125,0.12673545159995556,0.0029657910030335185,0.006196521119144744
1783169059199656400,8.851656494140625,0.12613982379436492,0.002142638051882386,0.006632723433434148
1783169059209605600,8.861605712890626,0.1315256084859371,0.0009662877488881349,0.0032919953166740015
1783169059219584500,8.87158447265625,0.12793196790814398,0.002239303359389305,0.004730962628207635
1783169059229533700,8.88153369140625,0.1283802961975336,0.0042058176593855025,-0.00482704798040213
1783169059239481600,8.891481689453125,0.12224749253094196,0.011908720186911522,0.010940973416587802
1783169059249461800,8.901461669921876,0.12344576240479946,0.0006565276799723505,0.01036052263053134
1783169059259409700,8.91140966796875,0.12329729384481906,0.008115282720699906,0.0037722785158737678
1783169059269358600,8.921358642578125,0.11970657587647437,0.0006051262862980365,0.005581378045619931
1783169059279307500,8.9313076171875,0.12374328404664993,0.005513356593996286,-0.00040941391583037325
1783169059289286700,8.94128662109375,0.1288286244869232,0.001378558344207704,-0.005749688383808825
1783169059299235600,8.951235595703125,0.13017477839887143,0.0010971110543236135,-0.002783415606874041
1783169059309183500,8.96118359375,0.1252343993872404,0.011636625247262418,-0.000132385074859485
1783169059319132700,8.971132568359375,0.1357084471285343,0.010169840630330145,0.00036996354026487094
1783169059329111600,8.981111572265625,0.12987491866946219,-0.001117459722608328,0.0030661689378554
1783169059339060500,8.991060546875,0.12373919239342213,-0.001247442777827382,-0.009959860274614766
1783169059349009400,9.001009521484375,0.13196984512209892,0.007707980561442672,-0.010278650750068482
1783169059358958600,9.01095849609375,0.1192477261930704,0.011078333777375519,0.004214681385853327
1783169059368937500,9.0209375,0.12897475495934485,0.0064256856659427285,0.000258338125643786
1783169059378886400,9.030886474609375,0.12448621136844157,0.006852715438976883,-0.0004370145942200906
1783169059388834600,9.04083447265625,0.1274783789217472,0.008519735335744917,0.0016139357193722388
1783169059398814700,9.050814697265626,0.12299041985273361,0.0008539864808320999,0.0017730444043758324
1783169059408762600,9.0607626953125,0.13526128788292408,-0.0006556874297559261,0.005244775635551195
1783169059418711600,9.070711669921875,0.1385498080343008,-0.003991371191106737,-0.0017430736723865266
1783169059428660700,9.08066064453125,0.1385498080343008,-0.005785926457680762,0.00039650477272953135
1783169059438639600,9.0906396484375,0.12807400672733782,0.0056117389345541595,-0.000761568090179935
1783169059448588500,9.100588623046875,0.1268774904191494,0.005141710270009934,0.0013652490547741763
1783169059458536700,9.11053662109375,0.12014262920618056,0.0027854294674471017,0.005864097127271816
1783169059468485600,9.120485595703125,0.12777297795414924,0.0073055372403934594,-0.0068438265963341105
1783169059478464500,9.130464599609375,0.12358195600509643,-0.0005755713982507586,-0.0021754006750459667
1783169059488413700,9.14041357421875,0.12702186732590198,-0.0005372852144762873,0.005542724252375774
1783169059498362600,9.150362548828125,0.12267886968553066,0.0031661358807235952,0.0010398487441430914
1783169059508311600,9.1603115234375,0.1267161623775959,0.009979286494292318,0.00019839951577596364
1783169059518290400,9.17029052734375,0.1297048227995634,0.0018596563920378684,-0.008626497345580719
1783169059528239600,9.180239501953125,0.12431202384531498,0.00862217279691249,-0.006782981520879547
1783169059538187500,9.1901875,0.120419692581892,0.019587328523397445,0.0010978554064175114
1783169059548167400,9.20016748046875,0.12131927177011965,0.0048805020505562425,0.004130551332933828
1783169059558115600,9.210115478515625,0.12027239306569099,0.007103548394888639,0.003648736332473345
1783169059568064800,9.220064697265625,0.1198234802544117,0.005009462192468345,0.0035621654440066773
1783169059578013700,9.230013671875,0.12580898440480232,0.008147942881286143,-0.003599901355220936
1783169059587992600,9.23999267578125,0.1268599547624588,0.0013203618835657834,-0.00540200289072236
1783169059597941800,9.249941650390625,0.12222528069913387,0.006728212276473641,-0.0055328672953532075
1783169059607889700,9.2598896484375,0.11953414191901683,0.0035163740905001756,-0.008617706684349104
1783169059617838600,9.269838623046875,0.11698854908943175,0.002233019749075174,0.006702628027356695
1783169059627817700,9.279817626953125,0.13614216237068175,0.014199790266156196,0.02190052595277084
1783169059637766700,9.2897666015625,0.110255441442132,0.0011626505712047219,0.06621856235356535
1783169059647715600,9.299715576171875,0.11653846723437308,-0.010314875124208629,0.021037995405879337
1783169059657664500,9.30966455078125,0.13494330797493456,0.008565364575758575,-0.034334409374813545
1783169059667643600,9.3196435546875,0.13584113359749317,0.016494951998628674,-0.04820834238720126
1783169059677592600,9.329592529296875,0.12401917837858199,0.01650437741409987,-0.06620142398909665
1783169059687540500,9.33954052734375,0.11338964781463146,0.013069032670557498,-0.06662717512049712
1783169059697520400,9.349520263671875,0.12176993814706802,0.008261851584538817,-0.0209198968679877
1783169059707468500,9.359468505859375,0.13718261133432388,0.0036332784684374926,0.01202602870693663
1783169059717417500,9.36941748046875,0.1290951664686203,-0.008589585701562463,0.03756501391005004
1783169059727366700,9.37936669921875,0.11996727263927459,-0.00006875438727438449,0.03833036084291525
1783169059737345800,9.389345703125,0.12625497460663318,0.0041944194825366135,0.02153574091112241
1783169059747294700,9.399294677734375,0.1196744271725416,-0.0030958471234887835,0.01016344970545033
1783169059757242600,9.40924267578125,0.11922726792693138,0.0017939707446843385,-0.008920336042868439
1783169059767191600,9.419191650390625,0.12431553097665309,0.004313917676359415,-0.025607691641326525
1783169059777170700,9.429170654296875,0.1226724399447441,0.006472447417117655,-0.02053406903831055
1783169059787119600,9.43911962890625,0.1151917288005352,0.0017997428983449935,-0.007650259024836122
1783169059797068500,9.449068603515625,0.1307505324602127,0.007296002227067947,0.0055740144397830585
1783169059807017500,9.459017578125,0.1280535484611988,-0.00292644537333399,0.02973288866241928
1783169059816996600,9.46899658203125,0.12805296393930912,-0.006057948332093656,0.03344705719720805
1783169059826960000,9.4789599609375,0.1258048927515745,0.004514372151903808,0.029085124244214965
1783169059836907800,9.48890771484375,0.12700082453787326,0.0033603798111900684,0.009126775017916224
1783169059846888000,9.498887939453125,0.12266367211639881,0.005233480206690728,-0.013916714991477784
1783169059856835800,9.5088359375,0.12745090639293194,-0.0016181027211248874,-0.008728286352776922
1783169059866784800,9.51878466796875,0.12550269493460656,-0.007073518582805991,-0.006211031418398488
1783169059876733700,9.528733642578125,0.12251052738130092,-0.012622457946836948,-0.007176677563181147
1783169059886712800,9.538712890625,0.13043956681489943,-0.00599445464182645,-0.0007951369996415451
1783169059896661800,9.548661865234376,0.13088789510428905,-0.0022364538151770827,0.0002243856236920692
1783169059906610700,9.558610595703126,0.1253518882870674,0.004183496229723096,0.014921743298578075
1783169059916558800,9.568558837890626,0.12460253122448921,0.0015227525878697633,0.01146616861775983
1783169059926537700,9.578537841796875,0.12160685653984546,-0.0019733824322000146,0.010017545278603211
1783169059936486700,9.588486572265625,0.121456634414196,0.005526435271278023,0.0007598122412222437
1783169059946435600,9.598435546875,0.12055763974785803,0.008552724289894103,-0.01071950126918964
1783169059956384800,9.608384765625,0.12399813559055328,0.000945354558713734,-0.03221763413326116
1783169059966363600,9.61836376953125,0.13177636837661266,0.002526230541989207,-0.03238883739814628
1783169059976312600,9.6283125,0.13820844725072384,0.00708809509743005,-0.009362376155366656
1783169059986260700,9.6382607421875,0.13207389001846312,0.007368592539243399,0.01188778471344849
1783169059996241000,9.648240966796875,0.12608955491185186,0.0012025076575577257,0.028382248088310004
1783169060006188500,9.6581884765625,0.11576514477431774,0.004325498516298831,0.04473654265736695
1783169060016137700,9.6681376953125,0.11965689151585102,0.009982720560394226,0.03391127945876214
1783169060026087000,9.6780869140625,0.1289344229489565,0.017611206144839523,-0.0019257210653042419
1783169060036065800,9.688065673828126,0.1235445466041565,0.018136435595341026,-0.020183312522014604
1783169060046014700,9.6980146484375,0.1187555587619543,0.023236169887147842,-0.018570253585476895
1783169060055963600,9.707963623046876,0.12114800685644149,0.004891936760023236,-0.020228590135578997
1783169060065911800,9.717911865234376,0.1245896717429161,0.001295117844454944,-0.008395152258139568
1783169060075891700,9.7278916015625,0.11606325093805789,0.00001530716698616743,0.0003326842867769301
1783169060085840000,9.73783984375,0.1241413434535265,0.006672536566480994,-0.019063711074669844
1783169060095788800,9.747788818359375,0.12638766107559204,0.01603504286929965,-0.03135300524411723
1783169060105737700,9.75773779296875,0.12040332596898078,0.022743783260323107,-0.02448257376864785
1783169060115716600,9.767716552734376,0.12623977703750133,0.023633279445953666,-0.021564690727682318
1783169060125665800,9.777665771484376,0.12908522959649563,0.013531791344098746,0.019202991681196727
1783169060135613700,9.78761376953125,0.11935761630833149,0.009832279239036143,0.032810882752097675
1783169060145593600,9.797593505859375,0.11741232745945453,-0.0021434783020988107,0.024581848875060677
1783169060155541800,9.807541748046875,0.13162789981663225,-0.003498728835955262,0.02390876506922068
1783169060165490700,9.81749072265625,0.1331283675074577,-0.0012179609550163149,0.0026473704203381202
1783169060175440000,9.82743994140625,0.12489596121311188,-0.0008386793138459325,-0.012808386140107176
1783169060185418800,9.837418701171876,0.12310089448988437,-0.0050487712895497675,-0.008749831464304587
1783169060195368000,9.847367919921876,0.1178670854896307,0.0017354820230975746,-0.006473253418004606
1783169060205316900,9.85731689453125,0.12280220380425452,0.0058549000406637785,-0.026726030430058015
1783169060215264800,9.8672646484375,0.13806290130019186,-0.008295278930105269,-0.011246561917173676
1783169060225244700,9.87724462890625,0.12564181114435194,-0.011694273718632757,0.024691786939383016
1783169060235192800,9.88719287109375,0.1226461364597082,-0.015658903033286334,0.05596226728248875
1783169060245141800,9.897141845703125,0.1271346800506115,-0.019241437695175407,0.07181691665016114
1783169060255120600,9.90712060546875,0.13491349735856056,-0.017815167751722035,0.058186510070064104
1783169060265069800,9.91706982421875,0.13581424559056757,-0.005774820541776716,0.02347232586373575
1783169060275018800,9.927018798828126,0.1266845981955528,0.0011545403299853204,-0.0046417748055580885
1783169060284966700,9.936966552734376,0.12309563379287719,0.011704977775737643,-0.026939878676715306
1783169060294946600,9.946946533203125,0.1254915890187025,0.01674943821635097,-0.041481554882833734
1783169060304894700,9.956894775390625,0.11082593480646609,0.01961903883591294,-0.06232346831089817
1783169060314843600,9.96684375,0.13177753742039203,0.03392396997697651,-0.05667733391639776
1783169060324792800,9.976792724609375,0.1277343995094299,0.03624806554298848,-0.05350263113672845
1783169060334771700,9.986771728515626,0.12324059522151946,0.04581011300589889,-0.04759562644949183
1783169060344721000,9.996720947265626,0.11905132683813571,0.053430013425089413,-0.03270415727487998
1783169060354669800,10.006669921875,0.12324176426529884,0.045931657026335594,-0.010366226285533048
1783169060364617700,10.01661767578125,0.12802899854183197,0.044007922422140834,-0.0007669977505458519
1783169060374598000,10.026597900390625,0.1361105981886387,0.029023996040970085,0.015427863906521814
1783169060384545800,10.0365458984375,0.1310246732264757,0.013847579295001923,0.032284452291775956
1783169060394494700,10.04649462890625,0.12788462163507938,0.018129421332664788,0.03764255439197877
1783169060404473900,10.056473876953126,0.12608721682429314,0.011595343388803303,0.04384336581046227
1783169060414422800,10.0664228515625,0.12265198167860507,-0.005955803131870925,0.030480784420273264
1783169060424371700,10.076371826171876,0.13148410743176936,-0.012644377517700195,0.024153522194083777
1783169060434319600,10.086319580078126,0.12505261307954788,-0.015268478943593799,0.0061965782013605345
1783169060444299800,10.0962998046875,0.12265841141939163,-0.016603307743929326,-0.0037946518903525426
1783169060454247700,10.10624755859375,0.12565174801647663,-0.015128084092214703,-0.0029875187776517123
1783169060464196600,10.116196533203125,0.11996785716116427,-0.022984788941964505,0.006815415635891258
1783169060474145500,10.1261455078125,0.12445698527395725,-0.016695443006791173,0.009595748803112656
1783169060484124700,10.136124755859376,0.12939210358858108,-0.029925949849374592,0.021123849341715684
1783169060494073600,10.146073486328126,0.12864274652600288,-0.04260181848388165,0.030287867080501744
1783169060504022800,10.156022705078126,0.13477905732393264,-0.042494156858325,0.01647749397375155
1783169060513971000,10.165970947265626,0.12295417949557304,-0.034163660484366115,-0.0007354860841413028
1783169060523950800,10.175950927734375,0.13147943125665187,-0.013537271236814558,-0.021774840046756432
1783169060533898800,10.185898681640625,0.12773673759698867,0.009993643813207744,-0.026703359657234978
1783169060543847700,10.19584765625,0.11861118185520171,0.020402298168092966,-0.033006231794261834
1783169060553826800,10.205826904296876,0.1160673425912857,0.022210187840275467,-0.029878640108928083
1783169060563775700,10.215775634765626,0.12953238884210586,0.027351861577667294,-0.01922030357560143
1783169060573724700,10.225724609375,0.12444237222671509,0.026074936977028847,0.0008130448323790915
1783169060583673600,10.235673583984376,0.11980536007583141,0.0242417667331174,0.0016869966744168777
1783169060593652700,10.24565283203125,0.12279518954157828,0.02521963532194495,-0.00383171223354293
1783169060603600600,10.2556005859375,0.11471651250422,0.028458251916989682,-0.0023921809497172942
1783169060613549800,10.2655498046875,0.12489303860366344,0.023485687668807802,-0.009460568982968107
1783169060623498800,10.275498779296875,0.1319265905022621,0.0049068055355921385,-0.017705170321895274
1783169060633477600,10.2854775390625,0.12594283991754054,0.011904592001065611,-0.009154941666475496
1783169060643426600,10.295426513671876,0.13132804008722304,0.0035598479060456154,-0.000764385668351315
1783169060653375700,10.305375732421876,0.13297522277235985,0.004886128073744476,-0.00287982033406588
1783169060663323600,10.31532373046875,0.1286374858289957,-0.008636676246300339,0.016939718357753007
1783169060673303800,10.3253037109375,0.11562018334567546,-0.006871347074210644,0.02887889989829855
1783169060683252000,10.335251953125,0.1227992811948061,-0.004080985703319311,0.019628733679442664
1783169060693201000,10.345200927734375,0.12384206824600696,-0.006941818494535982,0.027588314381777307
1783169060703179800,10.3551796875,0.1256359659254551,-0.020656345994397998,0.023049163981643504
1783169060713128700,10.365128662109376,0.12743629334568976,-0.014204685636982321,0.012607892848656047
1783169060723078000,10.375077880859376,0.12593991730809212,-0.007325776310823857,-0.008488595845387317
1783169060733026800,10.38502685546875,0.12609247752130032,-0.013841697543486952,0.0010836442179745062
1783169060743005700,10.395005615234375,0.12983458665907383,-0.011031462428346276,0.0013034495646716095
1783169060752954600,10.40495458984375,0.12938508932590484,0.0012440087117254733,-0.007212493228656239
1783169060762902800,10.41490283203125,0.13117898700535296,0.017166859910823402,-0.0023374162718886506
1783169060772851700,10.424851806640625,0.12504618333876133,0.0191954796615988,-0.003397474118298851
1783169060782830600,10.43483056640625,0.125046767860651,0.01931921563912183,-0.0072776948188198725
1783169060792779800,10.44477978515625,0.13297463825047015,0.023295060467533765,-0.01790515215669293
1783169060802728700,10.454728759765626,0.1247463236093521,0.021314481109566984,-0.024771791089745237
1783169060812676600,10.464676513671876,0.13057868302464484,0.023947167700715363,-0.021364635827648453
1783169060822656500,10.474656494140625,0.1287818627357483,0.024435681870020924,-0.015405533343704881
1783169060832604700,10.484604736328125,0.13177578385472297,0.010478029796667397,0.002069317087344825
1783169060842553600,10.4945537109375,0.13162497720718383,-0.0014622545722872019,0.006386330903088673
1783169060852532700,10.50453271484375,0.1271387717038393,0.007731617165356874,0.014038288694666697
1783169060862481700,10.514481689453126,0.12818681945204735,0.004130670063942671,0.01005367375462083
1783169060872430600,10.5244306640625,0.1251946518987417,0.0035089945016428827,0.005316550813685171
1783169060882379500,10.534379638671876,0.12729250096082687,0.0007332461779937147,0.007270794720575213
1783169060892358700,10.544358642578125,0.12789397398531435,-0.002341119766049087,0.01073055695274379
1783169060902307600,10.5543076171875,0.12341069109141826,-0.00923738208580762,0.013466347725340165
1783169060912255500,10.56425537109375,0.11817337495982647,-0.012989829954504966,0.006150821097183507
1783169060922204700,10.57420458984375,0.11997019524872302,-0.001346336575038731,0.001249904162972234
1783169060932183600,10.58418359375,0.12550737110972404,-0.004207790420763195,-0.013087856102036312
1783169060942132700,10.5941328125,0.1211696341663599,-0.0006708849988877772,-0.02346109893353423
1783169060952081700,10.60408154296875,0.1265589259892702,0.0015060937140136956,-0.028816490770131348
1783169060962029600,10.614029541015626,0.13015198204517364,-0.005131736865267157,-0.015142745088518131
1783169060972009700,10.624009765625,0.12760697373747826,-0.007334471073932945,0.0025081697289133444
1783169060981957600,10.63395751953125,0.13209843993782996,-0.004566540730558335,0.01773600156828761
1783169060991906600,10.643906494140625,0.1204284604102373,0.0022625381045043467,0.014356549447157885
1783169061001885700,10.6538857421875,0.12611702744066713,0.01313486444838345,-0.0005610060146587784
1783169061011834600,10.663834716796876,0.12865852861702443,0.0196268568161875,-0.012533261276443953
1783169061021783600,10.673783447265626,0.12835983793139458,0.025740225129947066,-0.012236047878558746
1783169061031732500,10.683732421875,0.12821253841519356,0.011759447909332811,-0.008519844933599233
1783169061041711600,10.693711669921875,0.12686579998135566,0.003982018840871751,-0.015783079685515258
1783169061051660500,10.70366064453125,0.12761515704393386,-0.0023384163523092866,0.003056437561707571
1783169061061608400,10.7136083984375,0.12761223443448544,-0.006301949688419699,0.013369721233739983
1783169061071557600,10.7235576171875,0.1256692836731672,-0.0002323109185323119,0.024707516514766027
1783169061081536500,10.73353662109375,0.12641454908251762,-0.00043528614472597833,0.02299504775778623
1783169061091485700,10.743485595703126,0.12611293578743935,0.0018716390907764435,0.018910050316341222
1783169061101434600,10.7534345703125,0.11593874777555466,0.016510661024414,0.010283310942165553
1783169061111382800,10.7633828125,0.11908172197639942,0.007510010303929448,0.001501223459362518
1783169061121362700,10.77336279296875,0.13210370063483715,-0.0005174480028450488,-0.007214048148214351
1783169061131310600,10.783310546875,0.1253700084656477,-0.010697810027189553,-0.01292771765385987
1783169061141259800,10.793259765625,0.11878829198777675,-0.020789470854774117,-0.01866677276251139
1783169061151238700,10.80323876953125,0.13315291742682456,-0.011806611519306898,-0.012605600426869932
1783169061161187600,10.8131875,0.1261234571814537,-0.016397592571377753,-0.005502074864867609
1783169061171136500,10.823136474609376,0.12358254052698611,-0.005399009499326348,-0.006670771584368776
1783169061181085700,10.833085693359376,0.1297176822811365,-0.00016845190208405255,0.009783519610308575
1783169061191064600,10.843064697265625,0.12447861258387564,0.010947181678377091,-0.0005880929531063884
1783169061201013500,10.853013427734375,0.12013736850917339,0.014748400592245161,-0.005185537424471112
1783169061210961700,10.862961669921875,0.12537176203131675,0.007195647125132381,-0.008119598136213607
1783169061220910600,10.87291064453125,0.1283633450627327,0.019641762124374507,-0.019205681395204736
1783169061230889500,10.882889404296876,0.12582359745204447,0.02177102923803031,-0.01053971055576112
1783169061240838400,10.89283837890625,0.12806816150844097,0.01938807962425053,0.004495903200985049
1783169061250787800,10.902787841796876,0.12447861258387564,0.012748568544536829,0.014819933741784188
1783169061260766500,10.912766357421875,0.12822072172164917,0.01330660428609699,0.03232006931114011
1783169061270715600,10.922715576171875,0.12582535101771353,0.008850282464362681,0.035171300873660945
1783169061280663800,10.932663818359375,0.1240361295133829,0.01556066682320088,0.026818469370307865
1783169061290612700,10.94261279296875,0.12717910371422766,0.00850632786490023,0.014806099295965394
1783169061300591600,10.952591552734376,0.1270300506323576,0.0009982903223484754,0.00574988246334251
1783169061310540800,10.962540771484376,0.12673662064373492,0.0017361030776053667,-0.008838989318790845
1783169061320489700,10.97248974609375,0.12135434308350085,0.006682400373369455,-0.018952046844142024
1783169061330438700,10.982438720703126,0.12135434308350085,-0.0030337051400914786,-0.023959785153693517
1783169061340417500,10.99241748046875,0.12943828081786632,-0.004780512274801731,-0.010778882756631355
1783169061350366700,11.00236669921875,0.12839198663532733,-0.005264971323497593,0.010528090899914968
1783169061360314600,11.012314697265625,0.11253098515868186,-0.003634630175307393,0.015759084605285897
1783169061370263600,11.022263671875,0.12180793206989765,-0.010944880123436451,0.01706549787860131
1783169061380242700,11.03224267578125,0.1303361064404249,-0.010326455964148044,0.0026492701164796016
1783169061390191600,11.042191650390626,0.12584931641519068,-0.011284231613017618,-0.013208062115334904
1783169061400140500,11.052140625,0.12256079626381397,0.009104038029722868,-0.021794405547040513
1783169061410119400,11.062119384765625,0.1260018766283989,0.014219225618988274,-0.031238548551592974
1783169061420068600,11.072068603515625,0.13168810557126998,0.015112594262138008,-0.021769223156722726
1783169061430016500,11.0820166015625,0.133635147985816,0.012818528508208691,-0.0015700280789867974
1783169061439965700,11.091965576171875,0.12211305249631405,0.005337159776873887,0.010136561698524747
1783169061449944800,11.10194482421875,0.12286182503700256,0.011149243589118122,0.02214184901153203
1783169061459893800,11.111893798828126,0.1257049395084381,0.0039743469910696145,0.028114142053900285
1783169061469842700,11.1218427734375,0.13393091606199742,0.012026391749829054,0.017869272559136153
1783169061479791600,11.13179150390625,0.12585048545897007,0.013976393306441605,-0.0026607042551244375
1783169061489770800,11.141770751953125,0.11732114204466343,0.00035670448318123814,-0.0020231855238322166
1783169061499719700,11.1517197265625,0.12330489262938499,0.00937448900155723,-0.003818765987001825
1783169061509667600,11.16166748046875,0.1289899525284767,0.012261406082101165,-0.016003613401285838
1783169061519616500,11.171616455078125,0.13452537482380866,0.006757255707867443,0.0012121665392915018
1783169061529595600,11.181595703125,0.12195289349853992,-0.00842862298619002,0.001022595929831732
1783169061539544600,11.191544677734376,0.11895663429200648,-0.008330679037049413,0.010608129299606662
1783169061549493500,11.201493408203126,0.1213520049959421,0.0030072555245831607,0.01315875906391302
1783169061559472600,11.21147265625,0.1195575227946043,0.0019257804308086632,0.005170459157170262
1783169061569421600,11.221421630859375,0.12464286323487758,0.004087963433377444,-0.00016719381004804743
1783169061579370800,11.231370849609375,0.127032973241806,0.004363675102218985,-0.010069442145910578
1783169061589318400,11.241318359375,0.13002630983889102,-0.005683963920548558,-0.012070678416127339
1783169061599298800,11.251298828125,0.12478957822918892,-0.007039835508912801,-0.0003640817887498997
1783169061609246700,11.261246826171876,0.12763269270062447,-0.007788206190802157,0.002517004343451117
1783169061619195600,11.271195556640626,0.12763269270062447,0.003722381523996591,0.0002896351629169658
1783169061629144600,11.28114453125,0.12254559869468211,0.007154803658090531,0.01340632006721571
1783169061639123700,11.291123779296875,0.12703589585125447,0.014746245167776941,0.004491580364783294
1783169061649072600,11.30107275390625,0.12209902397096156,0.019644830864295363,-0.007676916419609915
1783169061659020500,11.3110205078125,0.13018120813965797,0.008818535619229078,-0.013979286233137827
1783169061668969700,11.3209697265625,0.13317571378052234,0.00473115670774132,-0.0031001008902094324
1783169061678948600,11.330948486328126,0.12434417254924773,0.011407821460068225,0.010462654131022282
1783169061688897500,11.3408974609375,0.12988251745402812,0.0008828837817534804,0.02626443623371888
1783169061698846500,11.350846435546876,0.12808628168702124,-0.002990596650727093,0.02215098901592428
1783169061708825600,11.36082568359375,0.11970599135458469,-0.0026803616577759383,0.011427578756597358
1783169061718774500,11.3707744140625,0.12105331431031226,0.003887107099033892,0.0020122348715551196
1783169061728723500,11.380723388671875,0.12584347119629383,0.009522080778703094,-0.01919470562675269
1783169061738671600,11.390671630859375,0.13137713992595673,0.00946987566743046,-0.02045239123738138
1783169061748651500,11.400651611328126,0.11730535995364189,0.008291004613786936,-0.01703802763307467
1783169061758599400,11.410599365234376,0.11715396878421305,0.00039626930858939886,-0.00754332348506432
1783169061768548600,11.420548583984376,0.12238836230635643,-0.01102919740602374,0.004107136208016891
1783169061778497800,11.430497802734376,0.12642331691086292,-0.011321787144429982,0.005735322502561029
1783169061788476700,11.4404765625,0.12298282106816769,-0.011068579568341374,0.010453804104286245
1783169061798425600,11.450425537109375,0.1303144791305065,0.0015197569131851195,0.007215895328717306
1783169061808373800,11.460373779296875,0.12447861258387564,-0.0020705226637423037,0.005733570649358443
1783169061818322700,11.47032275390625,0.11655015767216682,-0.004537716494873166,-0.00038554470188682897
1783169061828334600,11.48033447265625,0.12358663218021392,0.005398498042672872,-0.008185780969666667
1783169061838283500,11.490283447265625,0.12239362300336361,0.016789697161503137,-0.0050923501363722605
1783169061848232400,11.500232421875,0.12524024460613728,0.009368168858624994,-0.007876125932027935
1783169061858211600,11.510211669921874,0.12328969506025314,0.005776281846500933,-0.007667443055077455
1783169061868160500,11.520160400390624,0.12344167075157164,0.00869837983828038,0.0018839962488505987
1783169061878109700,11.530109619140624,0.12119827573895453,0.008513232529722154,0.014393883499572983
1783169061888057300,11.540057373046874,0.13107844924032688,0.009743979901075362,0.018423428993311244
1783169061898037800,11.550037841796875,0.13018296170532703,-0.0003422010337933898,0.0182197253980441
1783169061907985700,11.559985595703125,0.12584931641519068,0.0024799071822315453,0.014711689877626485
1783169061917934600,11.5699345703125,0.12076280693113803,0.0016986571440473198,0.0016355339173605898
1783169061927883500,11.579883544921875,0.131385907754302,0.007111329842545091,0.000728853130666539
1783169061937862700,11.589862548828124,0.134976041200757,0.010435067437775433,-0.0024384335275273766
1783169061947811600,11.5998115234375,0.1289899525284767,-0.0037550416845828294,-0.0076507636316237035
1783169061957759700,11.609759765625,0.1229991876810789,-0.00030859102513641117,-0.0034852522956294704
1783169061967708700,11.619708740234374,0.1270394029825926,0.0032814693560823797,-0.0016637159781181252
1783169061977687600,11.6296875,0.12973229532837868,-0.002235905825905502,0.007182390922159538
1783169061987636500,11.639636474609375,0.12180091780722141,-0.00013290566466748715,0.01349355539267417
1783169061997585400,11.64958544921875,0.12479250083863734,-0.0003920315248891711,0.004366922509475262
1783169062007564500,11.659564453125,0.11970423778891563,0.0075531187932938336,-0.0059748497548134764
1783169062017513500,11.669513427734374,0.12299568054974079,0.009501585979945958,-0.006020178171549924
1783169062027462400,11.67946240234375,0.13721242195069788,0.004389795924164355,-0.013647353148320688
1783169062037410600,11.68941064453125,0.12778408387005327,0.0017312077067792415,-0.009299329418849082
1783169062047390500,11.699390380859375,0.12688801181316375,0.0012216507494449615,-0.0014673280396265908
1783169062057338400,11.70933837890625,0.1232996319323778,0.0014459975572302937,0.005768922807241324
1783169062067287800,11.719287841796875,0.12883914588093756,0.0019555545145645736,0.004806772377353627
1783169062077236700,11.72923681640625,0.12778992908895015,-0.0000903086319565773,0.01986695831553079
1783169062087215600,11.739215576171874,0.12015548868775366,0.010167721738480032,0.013019489873829298
1783169062097164500,11.74916455078125,0.12703531132936477,0.022396650323085486,0.0030081711233244275
1783169062107112700,11.75911279296875,0.13047580717206,0.015395393258891998,-0.007463349017454311
1783169062117061600,11.7690615234375,0.13121814997196196,0.013471622122079132,-0.017556101257004773
1783169062127040500,11.77904052734375,0.12971885132491587,0.014292765779234468,-0.021623489976522976
1783169062136989700,11.78898974609375,0.13061667694747447,0.004721694759652019,-0.0018000442924443632
1783169062146938600,11.798938720703125,0.14347206686735153,0.009160042533278465,0.0047637620694004
1783169062156917500,11.80891748046875,0.16411854905486106,0.013163652151450513,0.00634787176020036
1783169062166866400,11.818866455078124,0.08256254787445068,0.006532543573901057,-0.006776729305784102
1783169062176815600,11.828815673828124,0.13238777827322482,0.0018494272589683531,-0.01971069917473942
1783169062186763500,11.838763427734374,0.11024258196055889,-0.009545425121672451,-0.009910127964930142
1783169062196743400,11.848743408203125,0.12042261519134044,-0.011944777880981564,0.00224405488303164
1783169062206691600,11.858691650390625,0.11998130116462707,-0.010064663222804665,0.026903770750295368
1783169062216640500,11.868640625,0.12342998031377792,-0.010427030261792243,0.039058812114782626
1783169062226589700,11.878589599609375,0.13211129941940306,-0.013631379261054098,0.021531781688635235
