time,seconds_elapsed,z,y,x
1783169050606668800,0.258668701171875,0.10118012130260468,0.6267049312591553,-0.8228135108947754
1783169050616647700,0.268647705078125,-0.1006278246641159,1.096495270729065,-0.7995240688323975
1783169050626596900,0.278596923828125,-0.33709707856178284,1.5064641237258911,-0.5921743512153625
1783169050636545800,0.2885458984375,-0.6683902144432068,2.015435218811035,-0.2878096401691437
1783169050646494000,0.298493896484375,-1.0616165399551392,2.6431684494018555,-0.006067440379410982
1783169050656473900,0.308473876953125,-1.4839786291122437,3.141731023788452,0.133565753698349
1783169050666422000,0.318422119140625,-1.782159686088562,3.477125406265259,0.03243542090058327
1783169050676371000,0.328370849609375,-1.8714444637298584,3.7440032958984375,-0.26382166147232056
1783169050686319900,0.33831982421875,-1.8540209531784058,3.747270345687866,-0.6936984658241272
1783169050696298800,0.348298828125,-1.7390387058258057,3.5441386699676514,-1.1335545778274536
1783169050706247700,0.35824755859375,-1.6171519756317139,3.2787230014801025,-1.4344971179962158
1783169050716195800,0.36819580078125,-1.5056354999542236,2.9808287620544434,-1.618356704711914
1783169050726175700,0.37817578125,-1.2794079780578613,2.7839202880859375,-1.8181118965148926
1783169050736124000,0.3881240234375,-0.9397246837615967,2.4768943786621094,-2.039924144744873
1783169050746072800,0.39807275390625,-0.5675577521324158,2.1022157669067383,-2.2346508502960205
1783169050756021800,0.408021728515625,-0.3111174702644348,1.8143190145492554,-2.37930965423584
1783169050766000600,0.418000732421875,-0.23210495710372925,1.6088529825210571,-2.4576609134674072
1783169050775949800,0.42794970703125,-0.208238422870636,1.3388721942901611,-2.3960182666778564
1783169050785899000,0.43789892578125,-0.09049554914236069,0.937786340713501,-2.2333178520202637
1783169050795847000,0.447846923828125,0.10930893570184708,0.6662887930870056,-2.040480852127075
1783169050805826800,0.457826904296875,0.2732110619544983,0.473408043384552,-1.850986123085022
1783169050815775000,0.46777490234375,0.30538636445999146,0.2351061999797821,-1.7015920877456665
1783169050825724200,0.47772412109375,0.13288410007953644,0.06322525441646576,-1.5946224927902222
1783169050835673000,0.487673095703125,-0.22398093342781067,0.0248074010014534,-1.498229742050171
1783169050845652200,0.49765234375,-0.6306408047676086,0.15823577344417572,-1.3577662706375122
1783169050855601400,0.507601318359375,-0.9388093948364258,0.4536067843437195,-1.2099782228469849
1783169050865549000,0.517549072265625,-1.1344239711761475,0.7793310880661011,-1.078243613243103
1783169050875529200,0.527529296875,-1.2685861587524414,0.8357576727867126,-1.007409691810608
1783169050885477400,0.537477294921875,-1.386502981185913,0.55934077501297,-1.053302526473999
1783169050895426300,0.54742626953125,-1.4010087251663208,0.3359226882457733,-1.1362606287002563
1783169050905375200,0.557375244140625,-1.2430340051651,0.05526573583483696,-1.2140824794769287
1783169050915354400,0.567354248046875,-1.0366334915161133,-0.240439310669899,-1.2508751153945923
1783169050925303300,0.57730322265625,-0.8581998348236084,-0.38925036787986755,-1.2223446369171143
1783169050935252200,0.587252197265625,-0.6983169317245483,-0.47861698269844055,-1.1382232904434204
1783169050945200000,0.5972001953125,-0.5573944449424744,-0.43002572655677795,-1.0091180801391602
1783169050955180300,0.60718017578125,-0.464738130569458,-0.28554168343544006,-0.8730377554893494
1783169050965128200,0.617128173828125,-0.4179359972476959,-0.19276943802833557,-0.7419750690460205
1783169050975077000,0.6270771484375,-0.37700334191322327,-0.08667082339525223,-0.6260198950767517
1783169050985056300,0.63705615234375,-0.3115697205066681,0.049520302563905716,-0.5259063243865967
1783169050995005200,0.647005126953125,-0.25211262702941895,0.1047535389661789,-0.4519694447517395
1783169051004954000,0.6569541015625,-0.1975356489419937,0.058720797300338745,-0.4031526446342468
1783169051014903300,0.6669033203125,-0.11992363631725311,0.09497570991516113,-0.34635499119758606
1783169051024882400,0.67688232421875,-0.038706276565790176,0.053296975791454315,-0.2877017855644226
1783169051034830000,0.686830078125,0.0441179983317852,0.02688613533973694,-0.227873757481575
1783169051044779300,0.696779296875,0.11928145587444305,0.05863181874155998,-0.17383554577827454
1783169051054728200,0.706728271484375,0.1721607744693756,0.10962726920843124,-0.1310451626777649
1783169051064707300,0.716707275390625,0.18401743471622467,0.12015953660011292,-0.1116136685013771
1783169051074656300,0.72665625,0.10941781103610992,-0.0037078955210745335,-0.13909319043159485
1783169051084605200,0.736605224609375,-0.0170181542634964,0.05300731584429741,-0.20494118332862854
1783169051094553300,0.74655322265625,-0.15309596061706543,0.10977807641029358,-0.31105318665504456
1783169051104533200,0.756533203125,-0.23768088221549988,0.18490958213806152,-0.4242290258407593
1783169051114481200,0.766481201171875,-0.23480947315692902,0.2500867545604706,-0.5214000344276428
1783169051124430000,0.77643017578125,-0.1561942994594574,0.2322709858417511,-0.5726118683815002
1783169051134409200,0.7864091796875,-0.03411542996764183,0.10006704926490784,-0.5928317308425903
1783169051144358100,0.796358154296875,0.10329435765743256,-0.03890175372362137,-0.5755693912506104
1783169051154307000,0.80630712890625,0.21527589857578278,-0.1036795973777771,-0.5262956023216248
1783169051164256000,0.816256103515625,0.29006677865982056,-0.15007959306240082,-0.4777570962905884
1783169051174235100,0.826235107421875,0.35365980863571167,-0.06247483566403389,-0.41688087582588196
1783169051184184300,0.836184326171875,0.28966429829597473,0.11501739174127579,-0.3436940014362335
1783169051194132000,0.846132080078125,0.039284441620111465,0.419805645942688,-0.26371893286705017
1783169051204081400,0.856081298828125,-0.29801130294799805,0.7231320142745972,-0.19344530999660492
1783169051214060300,0.866060302734375,-0.46222829818725586,0.7395355105400085,-0.1389572024345398
1783169051224009200,0.87600927734375,-0.2893337309360504,0.5700476765632629,-0.0847189873456955
1783169051233958100,0.885958251953125,0.046925779432058334,0.33454564213752747,-0.023089708760380745
1783169051243906300,0.89590625,0.3134256601333618,0.1243351548910141,0.041351333260536194
1783169051253886200,0.90588623046875,0.44802504777908325,0.07843930274248123,0.12167748063802719
1783169051263834000,0.915834228515625,0.4461938738822937,0.08739738166332245,0.18722480535507202
1783169051273783300,0.925783203125,0.3497363328933716,0.04350632429122925,0.19549019634723663
1783169051283762200,0.93576220703125,0.22636084258556366,0.033672068268060684,0.12586665153503418
1783169051293711000,0.945711181640625,0.07875412702560425,0.14690646529197693,0.024575060233473778
1783169051303660000,0.955659912109375,-0.08974219858646393,0.13222365081310272,-0.1164126843214035
1783169051313609200,0.965609130859375,-0.19829489290714264,0.26955944299697876,-0.27045291662216187
1783169051323588000,0.975588134765625,-0.25593101978302,0.3996618092060089,-0.3956129550933838
1783169051333537000,0.985537109375,-0.17962652444839478,-0.02416464127600193,-0.5003299713134766
1783169051343485200,0.995485107421875,0.1475025862455368,-0.47198742628097534,-0.4476742148399353
1783169051353434000,1.00543408203125,0.26971328258514404,-0.10186807811260223,-0.1586906909942627
1783169051363413000,1.0154130859375,0.15842166543006897,-0.25193560123443604,-0.043164368718862534
1783169051373362200,1.025362060546875,0.14507520198822021,-0.20072299242019653,0.05270303040742874
1783169051383311400,1.035311279296875,0.09067296236753464,-0.20191316306591034,0.034614574164152145
1783169051393290200,1.045290283203125,0.05079701915383339,-0.23369917273521423,-0.045192450284957886
1783169051403239200,1.0552392578125,0.06902448832988739,-0.2433113306760788,-0.06046168506145477
1783169051413187300,1.065187255859375,0.0718141496181488,-0.26770561933517456,-0.05270443111658096
1783169051423136300,1.07513623046875,0.046802010387182236,-0.3276081085205078,-0.05509115755558014
1783169051433115100,1.085115234375,0.0240635946393013,-0.2940436899662018,-0.03865456208586693
1783169051443064300,1.095064208984375,-0.021696437150239944,-0.3046846091747284,-0.02030032128095627
1783169051453013200,1.10501318359375,-0.039562106132507324,-0.353435754776001,-0.0196126289665699
1783169051462962200,1.114962158203125,-0.04778168350458145,-0.33913642168045044,0.016719015315175056
1783169051472941000,1.124941162109375,-0.06945032626390457,-0.3190952241420746,0.04901126027107239
1783169051482890200,1.13489013671875,-0.07771465182304382,-0.3129065930843353,0.09308870136737823
1783169051492838100,1.144838134765625,-0.10343116521835327,-0.3491498827934265,0.11584117263555527
1783169051502787000,1.154787109375,-0.04368927329778671,-0.4007265269756317,-0.11268813908100128
1783169051512766200,1.16476611328125,-0.030432024970650673,-0.33240312337875366,-0.2819923460483551
1783169051522715100,1.174715087890625,-0.10165028274059296,-0.39103206992149353,-0.34857189655303955
1783169051532664300,1.184664306640625,-0.16316629946231842,-0.45124223828315735,-0.43284013867378235
1783169051542643200,1.194643310546875,-0.17020131647586823,-0.39034774899482727,-0.22164025902748108
1783169051552592400,1.20459228515625,-0.05689814314246178,-0.10009703040122986,0.03461775928735733
1783169051562540300,1.214540283203125,-0.003688450902700424,-0.0633760318160057,-0.04670186713337898
1783169051572489200,1.2244892578125,-0.0023600365966558456,-0.034072257578372955,-0.01804942823946476
1783169051582468400,1.23446826171875,0.0009486749768257141,0.0015251529403030872,-0.0010592583566904068
1783169051592417300,1.244417236328125,0.0012848302721977234,0.008139867335557938,0.004061093553900719
1783169051602366200,1.2543662109375,0.002710152417421341,0.012755392119288445,0.0033428394235670567
1783169051612315100,1.264315185546875,0.0012813974171876907,0.01709708571434021,0.0037492590490728617
1783169051622294300,1.274294189453125,0.0018079038709402084,0.021923799067735672,0.0036861421540379524
1783169051632243200,1.2842431640625,0.001865265890955925,0.028117381036281586,0.0032024336978793144
1783169051642191000,1.294191162109375,0.00018481165170669556,0.02682068943977356,0.001759266946464777
1783169051652140000,1.30414013671875,0.0017952155321836472,0.026016443967819214,0.005052790977060795
1783169051662119200,1.314119140625,0.0017384905368089676,0.023680852726101875,0.004992337431758642
1783169051672068000,1.324068115234375,0.0026301033794879913,0.019773228093981743,0.0031914995051920414
1783169051682017000,1.33401708984375,0.001554718241095543,0.013784842565655708,0.001431948971003294
1783169051691996200,1.34399609375,0.0016510430723428726,0.010612821206450462,0.0031252806074917316
1783169051701945300,1.3539453125,0.00031759776175022125,0.010915355756878853,0.005608145613223314
1783169051711893200,1.363893310546875,-0.002992473542690277,-0.05683593451976776,-0.006140145007520914
1783169051721842200,1.37384228515625,0.0034688878804445267,-0.015948157757520676,-0.005617366638034582
1783169051731821300,1.3838212890625,0.0008917767554521561,-0.001826803432777524,0.0003574574366211891
1783169051741770200,1.393770263671875,-0.0019191894680261612,-0.0006377021782100201,0.00057237409055233
1783169051751719200,1.40371923828125,-0.0003361925482749939,0.00037532951682806015,-0.00006517767906188965
1783169051761668000,1.413668212890625,-0.0009623020887374878,0.001484003383666277,-0.000534426886588335
1783169051771647200,1.423647216796875,-0.00022460706532001495,0.0016310098581016064,0.00003575626760721207
1783169051781596200,1.43359619140625,-0.0016736313700675964,-0.002177310409024358,0.001355085987597704
1783169051791544300,1.44354443359375,0.0006340034306049347,-0.001153626013547182,-0.0015738531947135925
1783169051801493200,1.4534931640625,0.0015059225261211395,-0.0023872023448348045,0.00007224641740322113
1783169051811472100,1.46347216796875,0.0015865471214056015,-0.0000014356337487697601,0.0006800792180001736
1783169051821445600,1.473445556640625,0.002382032573223114,0.00017060432583093643,0.000611636321991682
1783169051831394600,1.48339453125,0.00215933658182621,0.00030757952481508255,-0.0004824269562959671
1783169051841373700,1.493373779296875,0.0005931314080953598,0.0023574144579470158,-0.00011198129504919052
1783169051851322600,1.503322509765625,0.00081595778465271,0.0014115311205387115,0.0010047778487205505
1783169051861270800,1.513270751953125,0.0018905438482761383,0.00022535910829901695,0.0006324676796793938
1783169051871219700,1.5232197265625,-0.0015775077044963837,0.0003375476226210594,0.0001374799758195877
1783169051881198600,1.533198486328125,0.0009756665676832199,0.0008534020744264126,-0.00017464254051446915
1783169051891147500,1.5431474609375,-0.0015028119087219238,0.00011649914085865021,0.0003027981147170067
1783169051901096700,1.5530966796875,-0.0021994952112436295,0.0022076135501265526,-0.0014186692424118519
1783169051911046000,1.5630458984375,0.0011250562965869904,0.0017868708819150925,0.00006716325879096985
1783169051921024800,1.573024658203125,-0.0017458312213420868,0.0010209460742771626,0.00035425182431936264
1783169051930973700,1.5829736328125,-0.00007523037493228912,-0.001405460061505437,-0.0016116932965815067
1783169051940921900,1.592921875,-0.0009298380464315414,0.002518441528081894,0.002090366557240486
1783169051950870800,1.602870849609375,0.0004139617085456848,0.0007522744126617908,-0.00011502066627144814
1783169051960849700,1.612849609375,0.000847257673740387,0.0009522777982056141,-0.0008583087474107742
1783169051970798800,1.622798828125,-0.0006016772240400314,-0.002485955134034157,-0.0005862186662852764
1783169051980747800,1.632747802734375,-0.0029649659991264343,-0.0037102103233337402,0.0007267193868756294
1783169051990726700,1.6427265625,-0.0009215474128723145,0.0011414862237870693,-0.0012247134000062943
1783169052000675600,1.652675537109375,0.0007879342883825302,0.0002788882702589035,-0.0016779834404587746
1783169052010624800,1.662624755859375,0.00003322027623653412,0.001307185273617506,-0.00018940819427371025
1783169052020572700,1.67257275390625,0.00014027953147888184,0.0012408723123371601,-0.001596622634679079
1783169052030552600,1.682552490234375,-0.0006207376718521118,-0.0010719378478825092,0.00104942312464118
1783169052040500700,1.692500732421875,-0.0007997006177902222,-0.00015075039118528366,0.0004592663608491421
1783169052050449700,1.70244970703125,-0.0008814781904220581,-0.0006601894274353981,-0.0003833700902760029
1783169052060398800,1.71239892578125,0.0007169507443904877,-0.00010998034849762917,0.0008840281516313553
1783169052070377500,1.72237744140625,0.00013722293078899384,-0.00014068791642785072,-0.0012877495028078556
1783169052080327000,1.732326904296875,0.0013758577406406403,0.0012518791481852531,-0.0008970634080469608
1783169052090274800,1.74227490234375,0.0018681585788726807,0.0014163521118462086,-0.000883414875715971
1783169052100254700,1.752254638671875,0.0011262018233537674,0.002703724429011345,0.0000726599246263504
1783169052110203000,1.762202880859375,-0.00032641924917697906,0.00022019119933247566,0.001113747712224722
1783169052120151800,1.77215185546875,-0.0006686355918645859,0.00006652669981122017,-0.0006758966483175755
1783169052130100700,1.782100830078125,-0.0002792011946439743,0.0007865214720368385,0.0013894406147301197
1783169052140079600,1.79207958984375,-0.0002456456422805786,0.0013274098746478558,0.0006631966680288315
1783169052150028800,1.80202880859375,-0.0003827828913927078,0.0022522457875311375,0.0016302014701068401
1783169052159977700,1.811977783203125,-0.0009308625012636185,0.00004421919584274292,-0.0007248320616781712
1783169052169925600,1.821925537109375,0.00009639374911785126,0.00034487154334783554,0.0012724408879876137
1783169052179905500,1.831905517578125,-0.0008823182433843613,0.002652234397828579,0.0019060070626437664
1783169052189853700,1.841853759765625,0.00039480067789554596,0.00001802481710910797,0.001355588436126709
1783169052199802600,1.851802734375,-0.0010454356670379639,-0.0010275323875248432,0.0007667634636163712
1783169052209751600,1.86175146484375,-0.000045530498027801514,-0.00021622143685817719,0.00043580494821071625
1783169052219730700,1.871730712890625,0.0004466213285923004,0.0015071099624037743,0.002140760887414217
1783169052229679900,1.881679931640625,-0.00016380660235881805,0.0042770602740347385,0.0001997128129005432
1783169052239627500,1.89162744140625,0.0004162304103374481,0.0022027241066098213,-0.002089273650199175
1783169052249607700,1.901607666015625,0.00001547299325466156,-0.000039406586438417435,0.0012203855440020561
1783169052259555800,1.911555908203125,0.0014897994697093964,0.0012112138792872429,-0.0004142629913985729
1783169052269504800,1.9215048828125,0.002579299733042717,0.002177142072468996,0.0003415425308048725
1783169052279453700,1.93145361328125,-0.00040317513048648834,0.0033888807520270348,-0.001357820350676775
1783169052289432800,1.941432861328125,0.0016444232314825058,-0.0009775906801223755,-0.001064232550561428
1783169052299381800,1.9513818359375,-0.0006035510450601578,-0.001091041136533022,-0.00043173134326934814
1783169052309330700,1.96133056640625,0.0004033166915178299,0.0005968702025711536,-0.001523053739219904
1783169052319278600,1.971278564453125,0.0012078583240509033,-0.0004870360717177391,0.0012450357899069786
1783169052329258800,1.9812587890625,-0.0002177990972995758,0.0014219116419553757,0.0007789884693920612
1783169052339206700,1.99120654296875,-0.0016172900795936584,-0.0013983759563416243,-0.0004918714985251427
1783169052349155600,2.001155517578125,-0.0007205028086900711,-0.0004549897275865078,0.0007084454409778118
1783169052359104500,2.0111044921875,-0.0008725691586732864,-0.0006898804567754269,0.00018060719594359398
1783169052369083600,2.021083740234375,-0.0007832087576389313,0.0012302510440349579,-0.002590751741081476
1783169052379032600,2.031032470703125,-0.0000982433557510376,0.0015178723260760307,0.000053767114877700806
1783169052388980700,2.040980712890625,-0.0005272645503282547,0.002241196110844612,0.00014868192374706268
1783169052398960600,2.050960693359375,-0.0027565956115722656,0.00030774157494306564,-0.0020612087100744247
1783169052408908500,2.060908447265625,-0.0009625237435102463,0.0021165995858609676,0.000619132537394762
1783169052418857700,2.070857666015625,-0.0004967357963323593,0.002220728900283575,-0.0002975272946059704
1783169052428806700,2.080806640625,-0.0007216408848762512,0.00032914336770772934,0.00004550209268927574
1783169052438785800,2.090785888671875,-0.000021763145923614502,0.0005379351787269115,0.0011254139244556427
1783169052448734700,2.100734619140625,-0.001034379005432129,0.001333777792751789,-0.0006231553852558136
1783169052458683600,2.11068359375,-0.0004010796546936035,0.0019489680416882038,0.0005422439426183701
1783169052468631800,2.1206318359375,0.0007358621805906296,0.0013224552385509014,0.000601460225880146
1783169052478611700,2.13061181640625,0.0006967131048440933,-0.002495985012501478,0.000926632434129715
1783169052488559600,2.1405595703125,0.0006322730332612991,0.001478506252169609,0.0011614677496254444
1783169052498508800,2.1505087890625,0.00018246471881866455,0.0031541669741272926,-0.0005930229090154171
1783169052508457700,2.160457763671875,0.0016640610992908478,-0.00008215894922614098,0.0009663756936788559
1783169052518436600,2.1704365234375,0.0008478034287691116,-0.00004807068035006523,0.0015040677972137928
1783169052528385500,2.180385498046875,0.0010602883994579315,0.000026634428650140762,0.0009095245040953159
1783169052538333700,2.190333740234375,-0.0012425463646650314,-0.0009664581157267094,-0.000666001345962286
1783169052548313600,2.200313720703125,-0.0010641906410455704,0.002485085278749466,0.000137274619191885
1783169052558261800,2.21026171875,0.0002586003392934799,0.002143401652574539,0.0008267671801149845
1783169052568210700,2.220210693359375,-0.00025986693799495697,0.0018512969836592674,-0.000568031333386898
1783169052578159900,2.230159912109375,0.001033896580338478,-0.0034499913454055786,-0.00034725479781627655
1783169052588138800,2.240138671875,0.0006816145032644272,0.00007589207962155342,-0.0007401769980788231
1783169052598087700,2.250087646484375,0.00043580494821071625,-0.0030176357831805944,0.0016609285958111286
1783169052608036900,2.260036865234375,0.000319870188832283,-0.0011627092026174068,0.0012903637252748013
1783169052617984800,2.26998486328125,-0.0008311476558446884,-0.0017035973723977804,0.0005534673109650612
1783169052627964700,2.279964599609375,-0.0006838273257017136,-0.0028874962590634823,0.0010455502197146416
1783169052637912800,2.289912841796875,-0.0007799677550792694,0.001835087314248085,-0.000697488896548748
1783169052647861800,2.29986181640625,0.000185476616024971,0.00046423403546214104,-0.0017087175510823727
1783169052657810700,2.309810791015625,-0.00021612830460071564,0.0000748801976442337,-0.0007803398184478283
1783169052667789800,2.319789794921875,0.0011145435273647308,0.0003649243153631687,-0.0018890262581408024
1783169052677738800,2.32973876953125,0.0018634237349033356,0.0010512210428714752,0.0013461816124618053
1783169052687687700,2.339687744140625,-0.0008357968181371689,0.0011578239500522614,-0.0013921801000833511
1783169052697666600,2.34966650390625,-0.0005356594920158386,-0.0015439530834555626,-0.0026827482506632805
1783169052707614700,2.35961474609375,0.0009482540190219879,-0.0008256416767835617,-0.001503857783973217
1783169052717563600,2.369563720703125,-0.000810498371720314,-0.0017170016653835773,0.0012594377622008324
1783169052727512600,2.3795126953125,0.001653626561164856,0.0012366431765258312,-0.0011569997295737267
1783169052737491700,2.38949169921875,0.0010251197963953018,0.00039508426561951637,0.0009508919902145863
1783169052747441000,2.39944091796875,-0.0004868190735578537,0.0010421406477689743,-0.00017789239063858986
1783169052757389800,2.409389892578125,0.0009126719087362289,-0.00015787966549396515,0.0009851101785898209
1783169052767337700,2.419337646484375,0.0012683719396591187,0.001520728226751089,-0.0006380872800946236
1783169052777318000,2.42931787109375,-0.001867765560746193,0.0008871620520949364,0.00039655063301324844
1783169052787265800,2.439265869140625,0.0008849408477544785,-0.00022761011496186256,0.00012556929141283035
1783169052797214700,2.449214599609375,0.00030410662293434143,0.0021452661603689194,-0.0036060516722500324
1783169052807163600,2.45916357421875,0.0010670330375432968,-0.0005572210066020489,-0.00014816783368587494
1783169052817142800,2.469142822265625,-0.0014954600483179092,-0.00024536484852433205,0.00009737582877278328
1783169052827122000,2.479121826171875,-0.0009407717734575272,-0.0011496408842504025,0.00030090799555182457
1783169052837070800,2.48907080078125,0.0005697738379240036,-0.0004897098988294601,0.0009525837376713753
1783169052847050000,2.499050048828125,0.0012454167008399963,0.0018683946691453457,-0.0015233401209115982
1783169052856999000,2.5089990234375,-0.0006960276514291763,0.0011544013395905495,0.00002422323450446129
1783169052866946800,2.51894677734375,-0.0008165165781974792,-0.0006479634903371334,-0.0011112894862890244
1783169052876896000,2.52889599609375,-0.000507056713104248,0.0005150390788912773,0.0001193569041788578
1783169052886875000,2.538875,0.0012026093900203705,-0.0008734213188290596,0.0010356451384723186
1783169052896823800,2.54882373046875,-0.0009007547050714493,-0.0008648992516100407,0.0012947707436978817
1783169052906772700,2.558772705078125,0.0005907192826271057,-0.0027228817343711853,0.0011520362459123135
1783169052916721000,2.568720947265625,0.0011901967227458954,0.0006750454194843769,-0.0019630631431937218
1783169052926700800,2.57870068359375,0.0009334627538919449,0.00010226760059595108,0.0001382320187985897
1783169052936649000,2.58864892578125,-0.0005576405674219131,-0.00145435007289052,0.003509793896228075
1783169052946598000,2.598597900390625,0.0008084885776042938,0.0005156388506293297,-0.0006610131822526455
1783169052956576800,2.60857666015625,0.0001608077436685562,0.0003316146321594715,-0.0005302517674863338
1783169052966525700,2.618525634765625,0.00007596239447593689,0.00241644773632288,0.0006928364746272564
1783169052976475000,2.628474853515625,-0.000906744971871376,-0.0009436630643904209,-0.0004025213420391083
1783169052986424000,2.638424072265625,-0.0009377766400575638,-0.0007230676710605621,-0.000382925383746624
1783169052996403000,2.64840283203125,-0.000940440222620964,0.0004726913757622242,-0.00008118897676467896
1783169053006352000,2.658351806640625,-0.0001630745828151703,-0.000395315233618021,-0.000770222395658493
1783169053016300000,2.668300048828125,0.0009360127151012421,0.001174884382635355,-0.00018778955563902855
1783169053026249000,2.6782490234375,0.001208081841468811,-0.0014886227436363697,0.00012064818292856216
1783169053036227800,2.688227783203125,0.0005657263100147247,0.0017841360531747341,0.0010511567816138268
1783169053046177000,2.698177001953125,-0.00005577877163887024,0.0018638893961906433,-0.0010736007243394852
1783169053056126000,2.7081259765625,0.0000435560941696167,-0.0010091285221278667,0.0004697008989751339
1783169053066073900,2.718073974609375,0.0000417027622461319,0.0005673929117619991,0.0005178507417440414
1783169053076053800,2.7280537109375,0.0006539635360240936,0.0008401009254157543,0.00038442667573690414
1783169053086002000,2.738001953125,-0.0003955624997615814,-0.0012676925398409367,0.00048764748498797417
1783169053095950800,2.747950927734375,0.00008913315832614899,-0.0003331894986331463,-0.0006141024641692638
1783169053105929700,2.7579296875,-0.00028331950306892395,0.0004950235597789288,-0.00028112391009926796
1783169053115879000,2.76787890625,0.000009628012776374817,0.0005613360553979874,0.00015669967979192734
1783169053125827800,2.777827880859375,0.0001780875027179718,0.000640899408608675,-0.0006634164601564407
1783169053135776800,2.78777685546875,-0.0005076751112937927,-0.00008827401325106621,-0.0000623408704996109
1783169053145755600,2.797755615234375,0.00024408847093582153,0.0015213582664728165,0.0002841898240149021
1783169053155705000,2.807705078125,0.0009618103504180908,0.0014305445365607738,-0.00120078818872571
1783169053165652700,2.81765283203125,0.00019515864551067352,-0.000040528830140829086,-0.000257604755461216
1783169053175602000,2.827601806640625,-0.0007393453270196915,0.00021034106612205505,0.00008620927110314369
1783169053185581000,2.8375810546875,0.0008594822138547897,-0.00000975700095295906,-0.00047382107004523277
1783169053195530000,2.847530029296875,0.0006046183407306671,-0.0014771586284041405,0.0013416558504104614
1783169053205479000,2.85747900390625,-0.0012618433684110641,-0.0023397605400532484,-0.0014247503131628036
1783169053215426800,2.8674267578125,0.00012007169425487518,0.00038412073627114296,0.0027380362153053284
1783169053225407000,2.877406982421875,-0.0017658360302448273,0.0007750517688691616,-0.0012834444642066956
1783169053235355000,2.88735498046875,-0.0008118916302919388,-0.0003605200909078121,0.00026518385857343674
1783169053245303800,2.8973037109375,0.0001433640718460083,-0.0017306881491094828,0.0015016011893749237
1783169053255283000,2.907282958984375,0.0007207375019788742,-0.0004188148304820061,-0.0015157600864768028
1783169053265232000,2.91723193359375,-0.000014554709196090698,-0.0022281825076788664,0.0007268786430358887
1783169053275180800,2.927180908203125,0.001042453572154045,0.0022147693671286106,-0.0004297317937016487
1783169053285129700,2.937129638671875,0.0002768971025943756,-0.0006493525579571724,0.0012553399428725243
1783169053295108900,2.94710888671875,0.00030459463596343994,-0.000551082193851471,0.0006018001586198807
1783169053305057800,2.957057861328125,-0.0013820789754390717,-0.00030521024018526077,-0.0015700804069638252
1783169053315005700,2.967005615234375,0.0000389833003282547,0.001555273775011301,-0.0004132036119699478
1783169053324955000,2.976954833984375,0.0021796394139528275,0.0013243318535387516,0.0008856276981532574
1783169053334933800,2.986933837890625,-0.0013194885104894638,0.0013384465128183365,-0.0008102729916572571
1783169053344883000,2.996883056640625,-0.000555865466594696,-0.0007206457667052746,0.00020788563415408134
1783169053354832000,3.006831787109375,0.0008683931082487106,-0.00037736445665359497,-0.0006685610860586166
1783169053364780800,3.01678076171875,-0.0018477179110050201,-0.0010208236053586006,0.0004144180566072464
1783169053374760000,3.026760009765625,0.00039626285433769226,-0.0008277446031570435,0.00023785047233104706
1783169053384707800,3.036707763671875,-0.0003976002335548401,0.0004654047079384327,0.00007361173629760742
1783169053394657000,3.046656982421875,0.00045567750930786133,-0.0002533826045691967,0.00010024337098002434
1783169053404636000,3.056635986328125,0.0003504827618598938,0.0002105124294757843,0.0008447817526757717
1783169053414584800,3.066584716796875,-0.0009057298302650452,0.0006587225943803787,0.0008575646206736565
1783169053424533800,3.07653369140625,0.0010683517903089523,0.0013127680867910385,-0.0004590884782373905
1783169053434482700,3.086482666015625,0.00025076232850551605,-0.0000925818458199501,0.0013119135983288288
1783169053444461800,3.0964619140625,0.00044621527194976807,0.0014592180959880352,0.001709524542093277
1783169053454410800,3.10641064453125,0.0011775195598602295,0.0008421638049185276,0.0012269597500562668
1783169053464359000,3.11635888671875,-0.00141800194978714,0.0033724289387464523,-0.0011054500937461853
1783169053474307800,3.126307861328125,-0.0008092038333415985,0.00041152583435177803,-0.0004977164790034294
1783169053484286700,3.13628662109375,-0.0005127862095832825,0.0016818605363368988,0.001275886781513691
1783169053494235600,3.146235595703125,-0.00017776153981685638,0.0004687909968197346,-0.00023492425680160522
1783169053504185000,3.15618505859375,0.0015223398804664612,0.000495007261633873,-0.00009124679490923882
1783169053514134000,3.166134033203125,-0.0003123115748167038,0.003442860208451748,-0.0007205517031252384
1783169053524113000,3.17611279296875,-0.0016650203615427017,-0.0007520937360823154,0.0007758378051221371
1783169053534061800,3.186061767578125,-0.000559808686375618,0.0005616433918476105,0.0016469578258693218
1783169053544010000,3.196010009765625,0.001255204901099205,0.0016184323467314243,0.00039325281977653503
1783169053553988900,3.20598876953125,0.0008669160306453705,0.0016847453080117702,0.0009429291822016239
1783169053563937800,3.215937744140625,0.0006148386746644974,0.0031096991151571274,0.000840366818010807
1783169053573887000,3.225886962890625,-0.0006773285567760468,0.001057200599461794,-0.0005916147492825985
1783169053583836000,3.2358359375,0.0004487261176109314,-0.0005536656826734543,-0.00018539326265454292
1783169053593814800,3.245814697265625,0.00006363354623317719,0.00008469400927424431,0.000684129074215889
1783169053603763700,3.255763671875,0.002009030431509018,-0.00014148978516459465,-0.002946960274130106
1783169053613712000,3.2657119140625,0.00012431107461452484,0.003866034559905529,-0.001471302006393671
1783169053623660800,3.275660888671875,0.0010127704590559006,-0.00003887852653861046,-0.0011747595854103565
1783169053633640000,3.285639892578125,0.001116100698709488,-0.00018561864271759987,-0.00033719511702656746
1783169053643588900,3.2955888671875,0.00018899887800216675,-0.0005169925279915333,-0.0015205731615424156
1783169053653538000,3.3055380859375,-0.0007753316313028336,-0.00030074361711740494,0.0005574915558099747
1783169053663487000,3.315487060546875,-0.001445004716515541,0.0009239609353244305,0.000615500845015049
1783169053673465900,3.3254658203125,0.00014090724289417267,0.00003393227234482765,0.0004067090339958668
1783169053683415000,3.3354150390625,0.0008290261030197144,0.00021420326083898544,0.0006564348004758358
1783169053693363000,3.345363037109375,0.00046230852603912354,0.00015241792425513268,-0.0006495798006653786
1783169053703342800,3.3553427734375,-0.0002521853893995285,-0.000045169610530138016,-0.0015434273518621922
1783169053713291000,3.365291015625,0.0008128136396408081,-0.003117658430710435,0.0008142692968249321
1783169053723240000,3.375239990234375,-0.0009886417537927628,0.002194726839661598,0.0019111018627882004
1783169053733188900,3.38518896484375,-0.0008131396025419235,0.0019928589463233948,-0.001083888579159975
1783169053743168000,3.39516796875,-0.0000664982944726944,0.0022407681681215763,0.0013477806933224201
1783169053753117000,3.405116943359375,0.0008914414793252945,-0.0006538215093314648,-0.0010573198087513447
1783169053763064800,3.41506494140625,0.00042873434722423553,0.0007509062997996807,-0.0001517576165497303
1783169053773013800,3.425013671875,-0.0007337369024753571,-0.001206783577799797,0.001127092633396387
1783169053782993000,3.434992919921875,0.0021515991538763046,-0.00033795135095715523,-0.001520535908639431
1783169053792941800,3.44494189453125,-0.0005597658455371857,-0.0026264055632054806,0.0012496844865381718
1783169053802890800,3.454890869140625,0.0006052646785974503,-0.0009695840999484062,0.00048819929361343384
1783169053812870000,3.464869873046875,-0.0001414865255355835,-0.0009671873413026333,-0.0015443251468241215
1783169053822841300,3.47484130859375,0.001202234998345375,0.0001301141455769539,-0.0016889064572751522
1783169053832790300,3.484790283203125,-0.0006896741688251495,-0.0006091790273785591,-0.0013501527719199657
1783169053842738400,3.494738525390625,0.0008504781872034073,0.000009787268936634064,-0.00034749414771795273
1783169053852718300,3.50471826171875,0.0011966899037361145,0.0010018148459494114,-0.0019152965396642685
1783169053862666500,3.51466650390625,0.0004872586578130722,0.0024722260423004627,-0.0012616030871868134
1783169053872615400,3.524615478515625,0.0005991104990243912,-0.0006729667074978352,-0.00005918601527810097
1783169053882564600,3.534564697265625,-0.00029008835554122925,0.0011997674591839314,-0.0023319022729992867
1783169053892543500,3.54454345703125,0.0003069918602705002,0.00028443895280361176,-0.00005969265475869179
1783169053902492400,3.554492431640625,-0.0007138941437005997,0.0016036438755691051,0.0006998637691140175
1783169053912440600,3.564440673828125,0.0012126360088586807,0.004061209037899971,-0.0008988315239548683
1783169053922389500,3.574389404296875,0.000028964132070541382,-0.000009675044566392899,0.00009926920756697655
1783169053932368600,3.58436865234375,0.0009141992777585983,-0.0016144956462085247,0.0005528056062757969
1783169053942317600,3.594317626953125,-0.0008390732109546661,-0.0007557151839137077,0.0007567554712295532
1783169053952266500,3.6042666015625,0.001094914972782135,-0.0026452282909303904,0.001052099745720625
1783169053962245400,3.614245361328125,-0.0001620817929506302,-0.00014593126252293587,-0.001095527783036232
1783169053972194600,3.624194580078125,0.0023050718009471893,-0.00047856010496616364,0.00005549052730202675
1783169053982143500,3.6341435546875,-0.001737026497721672,-0.002265738556161523,0.0007612775079905987
1783169053992091400,3.64409130859375,-0.0015181135386228561,-0.000992481131106615,0.0019373293034732342
1783169054002071300,3.6540712890625,-0.0008061118423938751,-0.00031421612948179245,-0.0017115697264671326
1783169054012019500,3.66401953125,0.0010527744889259338,-0.0025909526739269495,0.0017856932245194912
1783169054021968400,3.673968505859375,-0.0005837064236402512,-0.0007206159643828869,0.0002679117023944855
1783169054031917600,3.68391748046875,0.000771842896938324,-0.0012833420187234879,0.000714257825165987
1783169054041896400,3.693896484375,-0.00041036680340766907,-0.0004617166705429554,-0.00016315188258886337
1783169054051845600,3.703845703125,0.0006034988909959793,0.0007428312674164772,0.0019620507955551147
1783169054061793500,3.71379345703125,0.002048168331384659,-0.0006628092378377914,-0.000003635883331298828
1783169054071742500,3.723742431640625,0.000795949250459671,-0.0013022343628108501,-0.0005610352382063866
1783169054081721600,3.7337216796875,0.0008729174733161926,-0.0006098197773098946,0.002231971360743046
1783169054091670500,3.74367041015625,-0.00019367970526218414,0.0021486827172338963,0.0007459274493157864
1783169054101619500,3.753619384765625,0.0006897710263729095,-0.0003705746494233608,0.0003905496560037136
1783169054111598600,3.7635986328125,-0.0014271754771471024,0.00046006543561816216,-0.0007186569273471832
1783169054121547500,3.773547607421875,0.0012162383645772934,0.0008541545830667019,0.00042268726974725723
1783169054131496400,3.783496337890625,-0.0010144244879484177,-0.0014508110471069813,-0.0016364683397114277
1783169054141444400,3.7934443359375,-0.0001818593591451645,-0.00046170549467206,-0.0012092175893485546
1783169054151424500,3.803424560546875,0.00029697827994823456,-0.0011437409557402134,-0.00018017180263996124
1783169054161372400,3.813372314453125,-0.0004249643534421921,0.0018546604551374912,0.0011487416923046112
1783169054171321300,3.8233212890625,-0.0014742501080036163,0.0006136274896562099,0.0033964496105909348
1783169054181270300,3.833270263671875,-0.0018184315413236618,-0.0016470951959490776,-0.00026938458904623985
1783169054191249400,3.84324951171875,-0.0008778031915426254,-0.0006023370660841465,0.00045978883281350136
1783169054201198300,3.8531982421875,0.0008920002728700638,-0.00039937999099493027,0.001075859647244215
1783169054211146200,3.863146240234375,0.0011236947029829025,-0.0015975357964634895,-0.0003478662110865116
1783169054221095700,3.873095703125,0.00019423849880695343,-0.0008676238358020782,0.0009255539625883102
1783169054231074600,3.883074462890625,-0.0010736919939517975,-0.0009728190489113331,-0.001596991904079914
1783169054241023500,3.8930234375,0.0010843891650438309,0.0005824035033583641,0.0011602905578911304
1783169054250972400,3.902972412109375,0.0007301885634660721,-0.0002069571055471897,0.0008993009105324745
1783169054260951600,3.91295166015625,0.0008578281849622726,0.0008882232941687107,0.00047895777970552444
1783169054270900500,3.922900390625,-0.001342741772532463,0.0009992769919335842,-0.0007173344492912292
1783169054280849400,3.932849365234375,-0.0002899765968322754,0.0028224019333720207,-0.00033213384449481964
1783169054290797600,3.942797607421875,-0.00019996240735054016,0.0021182624623179436,-0.0021721115335822105
1783169054300777500,3.952777587890625,-0.0013063549995422363,0.00007082149386405945,-0.0005718623287975788
1783169054310725400,3.962725341796875,0.000005519017577171326,0.002125184051692486,0.00014852313324809074
1783169054320674300,3.97267431640625,-0.00006238184869289398,-0.0013264110311865807,0.0007343948818743229
1783169054330623500,3.98262353515625,-0.0014347080141305923,-0.0017575768288224936,-0.00004990585148334503
1783169054340602400,3.992602294921875,-0.0005262289196252823,0.00039466749876737595,0.0007591345347464085
1783169054350551300,4.00255126953125,-0.000596802681684494,0.00024925870820879936,-0.0004912195727229118
1783169054360500200,4.012500244140625,-0.000632869079709053,-0.0004758131690323353,-0.0004375712014734745
1783169054370448400,4.022448486328125,-0.0017487332224845886,0.0007857261225581169,-0.0012279977090656757
1783169054380428500,4.032428466796875,0.0005704294890165329,0.000026972033083438873,0.0008818050846457481
1783169054390376400,4.04237646484375,0.0004330091178417206,-0.0013059400953352451,-0.00019757403060793877
1783169054400325600,4.05232568359375,-0.0017406493425369263,-0.0025408058427274227,-0.0007298714481294155
1783169054410304500,4.062304443359375,0.001390429213643074,-0.0009018965065479279,-0.00024384493008255959
1783169054420253400,4.07225341796875,0.000019785016775131226,-0.0016041849739849567,-0.0004120008088648319
1783169054430202400,4.082202392578125,-0.0011357609182596207,0.0009974571876227856,-0.001952905673533678
1783169054440150500,4.092150634765625,-0.00007244758307933807,0.0012856223620474339,-0.00016512209549546242
1783169054450130400,4.10213037109375,-0.00003223493695259094,0.00039372965693473816,-0.00012970203533768654
1783169054460078600,4.11207861328125,-0.0006336960941553116,0.0006992598064243793,0.00031136907637119293
1783169054470027500,4.122027587890625,-0.0007071979343891144,0.0008920729160308838,-0.0009807967580854893
1783169054479976400,4.1319765625,-0.0012687556445598602,0.002516699954867363,0.0010053319856524467
1783169054489955300,4.141955322265625,0.0010961312800645828,-0.0018109364900738,-0.0018005743622779846
1783169054499904500,4.151904541015625,-0.0006112419068813324,0.001970447599887848,-0.0015376824885606766
1783169054509853400,4.161853515625,-0.0007060505449771881,-0.00034863315522670746,0.0006335931830108166
1783169054519801300,4.17180126953125,-0.00010112673044204712,0.00117862643674016,-0.000017020851373672485
1783169054529781200,4.18178125,-0.0005365535616874695,0.0004936615005135536,-0.0010700351558625698
1783169054539729400,4.1917294921875,-0.0011325608938932419,-0.000827837735414505,-0.0015012244693934917
1783169054549678600,4.2016787109375,-0.0004606451839208603,0.0006281123496592045,-0.0005803029052913189
1783169054559657200,4.2116572265625,0.0006202179938554764,0.00030251825228333473,-0.0002874615602195263
1783169054569606700,4.221606689453125,-0.0003345254808664322,-0.0004612761549651623,0.00040842220187187195
1783169054579555600,4.2315556640625,0.00018236041069030762,0.00087391072884202,-0.0008328775875270367
1783169054589503500,4.24150341796875,-0.000054661184549331665,0.0007705800235271454,-0.00048746587708592415
1783169054599483400,4.2514833984375,-0.0010968446731567383,-0.0008079200051724911,-0.00003239233046770096
1783169054609431600,4.261431640625,0.0006184987723827362,-0.001573312096297741,0.0005804006941616535
1783169054619380500,4.27138037109375,0.001335427165031433,0.0003154170699417591,-0.0004763919860124588
1783169054629329400,4.281329345703125,0.0004901383072137833,0.0002978402189910412,-0.0006926404312252998
1783169054639308500,4.29130859375,0.0008434932678937912,0.001684805378317833,-0.00173660134896636
1783169054649257500,4.301257568359375,-0.0016106106340885162,0.0017135674133896828,-0.002685484942048788
1783169054659206400,4.311206298828125,-0.0002395380288362503,-0.000008955597877502441,-0.000287041999399662
1783169054669185300,4.321185302734375,0.0005961619317531586,0.0010978542268276215,-0.0017352690920233727
1783169054679134500,4.331134521484375,0.00006838329136371613,-0.0016781275626271963,-0.001783827319741249
1783169054689082400,4.341082275390625,0.0006992854177951813,0.0003213738091289997,0.00003724219277501106
1783169054699031300,4.35103125,-0.00004921481013298035,0.00039183348417282104,-0.0013264580629765987
1783169054709010400,4.361010498046875,0.0004887431859970093,0.0012688124552369118,-0.0001509389840066433
1783169054718959600,4.370959716796875,0.00007975101470947266,-0.0014764410443603992,-0.0005584689788520336
1783169054728908500,4.380908447265625,0.0008600577712059021,0.0011931117624044418,0.0010519446805119514
1783169054738856400,4.3908564453125,-0.0008786674588918686,0.001237213145941496,-0.00046598678454756737
1783169054748836600,4.400836669921875,-0.0005319230258464813,0.0008846106939017773,-0.0012212586589157581
1783169054758784500,4.410784423828125,0.0005853045731782913,0.0009172633290290833,-0.0005231732502579689
1783169054768733400,4.4207333984375,-0.000019233673810958862,-0.0016335123218595982,0.0015516956336796284
1783169054778682400,4.430682373046875,0.0004557427018880844,0.000014550052583217621,0.0018631531856954098
1783169054788661500,4.44066162109375,0.0008341781795024872,0.00016981223598122597,0.0009001540020108223
1783169054798610400,4.4506103515625,0.0016557779163122177,0.002919237595051527,-0.0016151778399944305
1783169054808559400,4.460559326171875,-0.0003522448241710663,0.0011389139108359814,0.00024317577481269836
1783169054818538500,4.47053857421875,-0.0008040890097618103,0.0002513257786631584,0.0015257117338478565
1783169054828510000,4.480510009765625,-0.0023234207183122635,-0.0008877082727849483,-0.0005451622419059277
1783169054838458000,4.4904580078125,0.0004893746227025986,-0.0004958873614668846,-0.0016859369352459908
1783169054848407000,4.500406982421875,-0.0002046450972557068,0.003464766312390566,-0.0012760758399963379
1783169054858386000,4.510385986328125,-0.00015150941908359528,0.00027527427300810814,0.0012315893545746803
1783169054868335000,4.520335205078125,-0.0009416695684194565,-0.0006621587090194225,0.00011599110439419746
1783169054878284000,4.530283935546875,-0.00021931715309619904,0.0004460965283215046,-0.00033560674637556076
1783169054888232000,4.54023193359375,0.000469377264380455,0.0022581112571060658,-0.0011569252237677574
1783169054898211800,4.5502119140625,-0.001004289835691452,0.0012202290818095207,-0.00006192177534103394
1783169054908160000,4.560159912109375,-0.0005984250456094742,0.00017547095194458961,-0.0012161359190940857
1783169054918109000,4.57010888671875,-0.0006218403577804565,0.0010863090865314007,-0.00037429481744766235
1783169054928057900,4.580057861328125,0.00012144632637500763,0.00011452147737145424,0.001914159394800663
1783169054938037000,4.590037109375,-0.00014149583876132965,0.0013237162493169308,-0.0016536549665033817
1783169054947986000,4.59998583984375,0.00003347359597682953,-0.0002728486433625221,-0.0008078352548182011
1783169054957934800,4.609934814453125,0.0007185433059930801,0.001178329810500145,-0.00015532271936535835
1783169054967914000,4.6199140625,0.0008977744728326797,0.0005871080793440342,-0.001983849797397852
1783169054977863200,4.62986328125,-0.0006999429315328598,0.00028052274137735367,-0.0011798590421676636
1783169054987810800,4.639810791015625,0.0001392178237438202,0.00182329211384058,-0.0003585405647754669
1783169054997760000,4.649760009765625,-0.002793358638882637,0.0005837050266563892,0.0013150549493730068
1783169055007739100,4.6597392578125,-0.0004716143012046814,-0.0010453504510223866,-0.0015334622003138065
1783169055017688000,4.66968798828125,0.0005193091928958893,0.0003554043360054493,0.00022501731291413307
1783169055027637000,4.679636962890625,0.00006790272891521454,0.0007263827137649059,-0.0007006973028182983
1783169055037586000,4.6895859375,-0.0007701944559812546,0.0006563859060406685,0.000676007941365242
1783169055047565000,4.69956494140625,-0.0018253400921821594,0.0004886067472398281,0.00013378821313381195
1783169055057513000,4.709512939453125,0.001132763922214508,0.0003032628446817398,0.0005950941704213619
1783169055067462000,4.7194619140625,0.00023660995066165924,-0.0014589508064091206,-0.001230236142873764
1783169055077410800,4.729410888671875,0.0008928738534450531,0.0028443951159715652,-0.00047876685857772827
1783169055087390000,4.739389892578125,-0.0002727918326854706,-0.0026635548565536737,-0.0006681177765130997
1783169055097339000,4.7493388671875,0.0002629421651363373,-0.002069479553028941,0.002234615385532379
1783169055107287800,4.759287841796875,0.0003566853702068329,-0.0006633303128182888,-0.0017364239320158958
1783169055117267000,4.769266845703125,0.0030249692499637604,-0.0015650046989321709,0.0006106924265623093
1783169055127215900,4.7792158203125,0.0010678116232156754,-0.0007426203228533268,0.00017899414524435997
1783169055137163800,4.789163818359375,0.000489305704832077,-0.0012892382219433784,-0.00027021346613764763
1783169055147113000,4.799113037109375,0.00007838010787963867,-0.0005169212818145752,0.0001271301880478859
1783169055157091800,4.809091796875,0.0009347610175609589,-0.00023441854864358902,0.0006890292279422283
1783169055167041000,4.819041015625,0.002046896144747734,0.0017309943214058876,0.0017369827255606651
1783169055176990000,4.828989990234375,0.0023493897169828415,-0.0025089592672884464,0.0004625720903277397
1783169055186939000,4.83893896484375,0.0005173999816179276,0.000042615458369255066,0.0015773717314004898
1783169055196918000,4.84891796875,0.002261025831103325,0.0016810190863907337,-0.00030724145472049713
1783169055206867000,4.858866943359375,0.001288173720240593,0.0005244086496531963,0.0023415382020175457
1783169055216815000,4.868815185546875,-0.00015722401440143585,0.00022727716714143753,-0.00019426504150032997
1783169055226764000,4.878763916015625,-0.0018456671386957169,-0.0008097575046122074,-0.0015319711528718472
1783169055236743000,4.888742919921875,0.0007234476506710052,0.0007908311672508717,-0.0008629709482192993
1783169055246691800,4.89869189453125,-0.0004834979772567749,-0.0007649874314665794,0.0003170762211084366
1783169055256641000,4.90864111328125,-0.001870032399892807,-0.00024380255490541458,-0.0015281401574611664
1783169055266620000,4.918619873046875,0.0008690301328897476,0.0004198569804430008,0.0026751267723739147
1783169055276568800,4.92856884765625,-0.00009593181312084198,-0.0019985795952379704,0.0013444791547954082
1783169055286517000,4.93851708984375,-0.0007324274629354477,-0.00024036085233092308,0.0023889709264039993
1783169055296466000,4.9484658203125,-0.0007147472351789474,0.001570028718560934,0.0011743963696062565
1783169055306444800,4.95844482421875,0.0003446582704782486,-0.0003682202659547329,-0.0010381578467786312
1783169055316393700,4.968393798828125,0.0012453347444534302,0.0009626452811062336,-0.00019914936274290085
1783169055326343200,4.97834326171875,0.00017501041293144226,-0.00008823815733194351,-0.00018503470346331596
1783169055336292000,4.9882919921875,0.00022881664335727692,-0.0002767113037407398,-0.0014109564945101738
1783169055346271000,4.99827099609375,0.0012687798589468002,0.0020405049435794353,0.00032142968848347664
1783169055356220000,5.008219970703125,-0.00017925165593624115,-0.0005398998036980629,-0.0014793379232287407
1783169055366168000,5.01816796875,-0.0008652824908494949,-0.0006030164659023285,-0.00037519168108701706
1783169055376148000,5.02814794921875,0.0006344970315694809,-0.0013582473620772362,-0.00017493311315774918
1783169055386096000,5.03809619140625,-0.00043928995728492737,0.0010646963492035866,-0.0004726746119558811
1783169055396045000,5.048045166015625,0.0009789075702428818,-0.0015197312459349632,0.000993434339761734
1783169055405994000,5.057993896484375,-0.000816594809293747,0.0011921660043299198,-0.0019171340391039848
1783169055415972900,5.067972900390625,0.001621311530470848,0.00028668809682130814,0.0014057755470275879
1783169055425921800,5.077921875,-0.0007507670670747757,-0.0011655334383249283,-0.0002935873344540596
1783169055435870000,5.087869873046875,0.0005133133381605148,-0.0012765824794769287,-0.0000888872891664505
1783169055445819000,5.09781884765625,-0.00047205761075019836,0.0010875053703784943,0.0016821147873997688
1783169055455798000,5.107798095703125,0.0009853597730398178,0.0004687323234975338,0.0014324071817100048
1783169055465747000,5.117746826171875,0.0010583307594060898,0.00046606920659542084,0.000006817281246185303
1783169055475695900,5.12769580078125,0.002498134970664978,0.0009832554496824741,0.000761877279728651
1783169055485645000,5.13764501953125,-0.00014771521091461182,0.0006218645721673965,-0.0016815727576613426
1783169055495624200,5.147624267578125,-0.001347450539469719,-0.00002121739089488983,0.0009449031203985214
1783169055505573000,5.157572998046875,0.0013151783496141434,0.0030667181126773357,0.0006761904805898666
1783169055515521000,5.16752099609375,-0.00005191192030906677,0.001173315104097128,0.0014474252238869667
1783169055525501000,5.1775009765625,0.00046181119978427887,0.001143487635999918,-0.0013512908481061459
1783169055535449000,5.187448974609375,0.0007158946245908737,0.0019856211729347706,-0.00036582816392183304
1783169055545398000,5.19739794921875,-0.0006401874125003815,-0.001961982576176524,-0.0012230994179844856
1783169055555347000,5.207346923828125,0.0009733382612466812,-0.0009685009717941284,0.00029324041679501534
1783169055565326000,5.217326171875,-0.00016170181334018707,-0.0018737094942480326,0.0005864542908966541
1783169055575275000,5.22727490234375,-0.0005404595285654068,-0.0014426643028855324,0.0012339171953499317
1783169055585223000,5.237222900390625,-0.0015063881874084473,-0.0009888620115816593,0.0008355085738003254
1783169055595171800,5.247171875,0.00005687586963176727,0.00021428987383842468,0.00003567524254322052
1783169055605151000,5.25715087890625,0.00009495951235294342,-0.0019359465222805738,0.0011238427832722664
1783169055615100000,5.267099853515625,-0.0004556998610496521,0.0023207776248455048,0.0007982263341546059
1783169055625048800,5.277048828125,0.0008686892688274384,0.00036788173019886017,0.0013052923604846
1783169055634997800,5.286997802734375,0.0004614517092704773,-0.0004342133179306984,0.001111594494432211
1783169055644977000,5.296976806640625,0.00013414956629276276,0.0009429072961211205,0.00010784901678562164
1783169055654926000,5.306926025390625,-0.0003208555281162262,0.0010685790330171585,0.0008184793405234814
1783169055664873700,5.316873779296875,-0.0007339101284742355,-0.0003620712086558342,-0.0015762350521981716
1783169055674854100,5.326854248046875,0.0010659340769052505,0.00044385530054569244,-0.0012207217514514923
1783169055684802000,5.336802001953125,-0.0003114528954029083,-0.000746843870729208,-0.0005733072757720947
1783169055694751000,5.3467509765625,-0.0002643708139657974,-0.0026709814555943012,0.0013641160912811756
1783169055704700000,5.356699951171875,-0.001192750409245491,0.0009221555665135384,0.0003222879022359848
1783169055714679000,5.366678955078125,0.0006310660392045975,-0.002633399795740843,0.000571864191442728
1783169055724628000,5.3766279296875,0.0013354718685150146,-0.0006621279753744602,0.000887715257704258
1783169055734575900,5.386575927734375,-0.00036517344415187836,-0.000046483706682920456,0.0009151431731879711
1783169055744525000,5.396525146484375,-0.0013113953173160553,0.00020784791558980942,-0.00016689905896782875
1783169055754504000,5.40650390625,0.0012561548501253128,0.001012203749269247,-0.0014963648281991482
1783169055764452900,5.416452880859375,0.001049492508172989,-0.0008954186923801899,0.00032949866726994514
1783169055774401800,5.42640185546875,0.0008010528981685638,-0.0013910690322518349,-0.0026949536986649036
1783169055784351000,5.43635107421875,0.0007432624697685242,-0.0001705423928797245,-0.0008440571837127209
1783169055794329900,5.446329833984375,-0.0007105302065610886,0.0013845441862940788,-0.00009990064427256584
1783169055804278800,5.45627880859375,-0.0004362240433692932,-0.0009710215963423252,-0.0012352061457931995
1783169055814227000,5.46622705078125,-0.0012165587395429611,-0.00039101624861359596,0.0007839598692953587
1783169055824230400,5.47623046875,-0.0010128282010555267,-0.0018869135528802872,0.00029740016907453537
1783169055834178600,5.486178466796875,-0.0012575089931488037,-0.0016537676565349102,0.0003182506188750267
1783169055844127500,5.49612744140625,0.0013001896440982819,-0.0018095625564455986,-0.000251132994890213
1783169055854076400,5.506076416015625,0.0029598046094179153,0.0009978003799915314,0.0017667431384325027
1783169055864055300,5.51605517578125,0.002029828727245331,0.002232175786048174,0.0004109279252588749
1783169055874004500,5.52600439453125,0.000982845202088356,0.0019139228388667107,-0.0007707579061388969
1783169055883953700,5.53595361328125,0.0007857717573642731,0.0007264195010066032,-0.0008173631504178047
1783169055893901600,5.545901611328125,0.0015533119440078735,0.00016194116324186325,0.000009587500244379044
1783169055903880700,5.555880615234375,0.001067018136382103,-0.0018812362104654312,-0.000005326233804225922
1783169055913829600,5.56582958984375,0.001157853752374649,-0.0005236081779003143,0.0008122674189507961
1783169055923778600,5.575778564453125,-0.00044190697371959686,-0.00036781327798962593,-0.00044527696445584297
1783169055933727500,5.5857275390625,0.0014847926795482635,0.00002551265060901642,-0.0003656866028904915
1783169055943706600,5.59570654296875,-0.0005237627774477005,-0.0029875878244638443,0.000019140541553497314
1783169055953655600,5.605655517578125,-0.00003748759627342224,-0.0014458862133324146,0.00017808005213737488
1783169055963603500,5.615603515625,-0.00023669376969337463,0.0004452248103916645,-0.000615009106695652
1783169055973583400,5.625583251953125,-0.0006961114704608917,-0.0008534076623618603,0.0006103748455643654
1783169055983531500,5.635531494140625,-0.000009547919034957886,-0.0016773892566561699,0.000725423451513052
1783169055993480400,5.64548046875,0.0002063494175672531,0.00022585783153772354,0.0008433596231043339
1783169056003429400,5.655429443359375,-0.0006131064146757126,0.00029110535979270935,-0.00009167613461613655
1783169056013408500,5.665408447265625,-0.0015879366546869278,-0.0028821087907999754,0.0030288193374872208
1783169056023357400,5.675357421875,0.00013459660112857819,0.0006681513041257858,0.0006506168283522129
1783169056033306600,5.685306640625,-0.0017000902444124222,-0.0009250338189303875,-0.00038304831832647324
1783169056043254500,5.695254638671875,-0.002819949761033058,-0.0005178363062441349,0.0007466641254723072
1783169056053234700,5.705234619140625,-0.0004977528005838394,-0.001327157486230135,-0.00034293998032808304
1783169056063182600,5.7151826171875,-0.001414945349097252,-0.0009937295690178871,0.0001249769702553749
1783169056073131500,5.725131591796875,0.000055734068155288696,-0.0006477930583059788,0.0014360598288476467
1783169056083080400,5.73508056640625,-0.0012572035193443298,0.0017008488066494465,0.0006959675811231136
1783169056093059600,5.7450595703125,0.000005895271897315979,0.0009644599631428719,-0.002272561192512512
1783169056103008500,5.755008544921875,0.00039338506758213043,0.0010230494663119316,-0.0005412399768829346
1783169056112956400,5.764956298828125,0.000464610755443573,0.0008484655991196632,0.0018666256219148636
1783169056122936600,5.7749365234375,-0.00040757469832897186,0.0005874759517610073,-0.00045405328273773193
1783169056132884500,5.784884521484375,0.0005676932632923126,0.000924374908208847,-0.0000945553183555603
1783169056142833400,5.79483349609375,0.0002132263034582138,0.0002426058053970337,0.0009518004953861237
1783169056152782300,5.8047822265625,-0.0003700610250234604,0.0007184790447354317,-0.0001238514669239521
1783169056162761500,5.814761474609375,-0.0007199998944997787,0.0010529719293117523,-0.0013683466240763664
1783169056172710400,5.82471044921875,0.0010318830609321594,-0.0010655662044882774,0.00048374850302934647
1783169056182659300,5.834659423828125,-0.0002083517611026764,0.0004926496185362339,-0.0005010883323848248
1783169056192607500,5.844607421875,0.0006190333515405655,0.0006544529460370541,0.001165794674307108
1783169056202587600,5.854587646484375,0.0005686990916728973,0.0007186350412666798,-0.0007788459770381451
1783169056212535300,5.864535400390625,0.000796319916844368,-0.0016679461114108562,-0.00008436432108283043
1783169056222484500,5.874484375,0.0009441245347261429,0.0010641911067068577,0.0003476003184914589
1783169056232463600,5.884463623046875,0.0009214002639055252,0.001531294547021389,-0.0013310560025274754
1783169056242412500,5.89441259765625,-0.0005601160228252411,-0.000018665101379156113,0.0002476661466062069
1783169056252361500,5.904361572265625,-0.0004880782216787338,0.001126985065639019,-0.0006701881065964699
1783169056262309600,5.9143095703125,0.000008335337042808533,-0.0014706621877849102,0.0002938760444521904
1783169056272289500,5.92428955078125,-0.0011953003704547882,0.0011915569193661213,0.0005494882352650166
1783169056282237400,5.934237548828125,0.000604730099439621,0.00016384338960051537,-0.0006334874778985977
1783169056292186600,5.9441865234375,-0.0012329109013080597,0.001044777687638998,0.0004679993726313114
1783169056302135600,5.954135498046875,0.0000033285468816757202,-0.00044286390766501427,-0.001307263970375061
1783169056312114400,5.964114501953125,0.0012930482625961304,-0.0007755840197205544,0.0011669010855257511
1783169056322063400,5.9740634765625,0.0009979698807001114,0.0011376310139894485,-0.00006880564615130424
1783169056332012300,5.98401220703125,0.0009429734200239182,0.002173947636038065,0.0007647681050002575
1783169056341960400,5.99396044921875,-0.00016916170716285706,-0.00012356135994195938,0.0007887366227805614
1783169056351940400,6.0039404296875,-0.0010944753885269165,0.0008092042990028858,0.0009133280254900455
1783169056361888500,6.013888427734375,-0.0011189766228199005,0.0009623360820114613,-0.0005785748362541199
1783169056371837400,6.02383740234375,0.00010954029858112335,-0.0003861794248223305,0.001702385488897562
1783169056381816300,6.03381640625,-0.00011310167610645294,0.0006537851877510548,0.0004397807642817497
1783169056391765500,6.043765625,-0.0005856640636920929,-0.0013692481443285942,0.0012924270704388618
1783169056401714700,6.053714599609375,-0.0006461180746555328,-0.0009599202312529087,-0.001125989481806755
1783169056411662600,6.06366259765625,0.001210564747452736,0.000795362051576376,0.0022464380599558353
1783169056421642500,6.073642578125,-0.0017716418951749802,-0.0004342193715274334,0.0003702412359416485
1783169056431590700,6.083590576171875,0.0001373291015625,-0.0022366156335920095,0.0007024449296295643
1783169056441539600,6.09353955078125,0.00017381273210048676,0.0005980529822409153,-0.0007636253722012043
1783169056451488500,6.103488525390625,0.001118311658501625,0.0019263196736574173,0.00018581142649054527
1783169056461467400,6.11346728515625,0.000858653336763382,0.0014751800335943699,0.001366923563182354
1783169056471416600,6.12341650390625,0.000008059665560722351,-0.0012532370164990425,-0.0014387336559593678
1783169056481365500,6.133365478515625,0.0013750605285167694,-0.0028926788363605738,0.0025147292762994766
1783169056491313400,6.1433134765625,0.0005938094109296799,-0.00026854872703552246,0.00018818816170096397
1783169056501293300,6.153293212890625,0.0000329483300447464,-0.00041022850200533867,0.0013626422733068466
1783169056511241500,6.163241455078125,-0.00013333186507225037,0.0006999392062425613,-0.000007997266948223114
1783169056521190400,6.1731904296875,-0.00008512847125530243,-0.0017107543535530567,-0.0016373195685446262
1783169056531169500,6.18316943359375,-0.00012049451470375061,0.0024052411317825317,-0.0014612129889428616
1783169056541118500,6.193118408203125,-0.0009175781160593033,-0.0001173047348856926,0.0013364371843636036
1783169056551067600,6.203067626953125,0.00009355507791042328,-0.0009491085074841976,0.001161164604127407
1783169056561015600,6.213015625,-0.001225775107741356,-0.0006830589845776558,0.0010514422319829464
1783169056570995500,6.222995361328125,-0.0014534685760736465,-0.0020913691259920597,0.00022354302927851677
1783169056580943600,6.232943603515625,0.0012560319155454636,0.0009789890609681606,0.0005500465631484985
1783169056590892500,6.242892578125,-0.00028337351977825165,-0.001545078121125698,0.002390970941632986
1783169056600841500,6.252841552734375,-0.0007283873856067657,0.0012256745249032974,0.00023833801969885826
1783169056610820600,6.262820556640625,0.0011762101203203201,0.0002751927822828293,0.0012381915003061295
1783169056620769500,6.27276953125,0.0012819375842809677,-0.0011655772104859352,0.0002725296653807163
1783169056630718500,6.282718505859375,0.0011478215456008911,0.0003703460097312927,0.00136586744338274
1783169056640666400,6.292666259765625,-0.00044767744839191437,-0.0008083689026534557,-0.0013673347420990467
1783169056650646500,6.302646484375,0.0005990155041217804,-0.00034493347629904747,0.0010704430751502514
1783169056660594400,6.312594482421875,-0.0006382893770933151,0.001135517843067646,-0.001995920203626156
1783169056670543400,6.32254345703125,0.001349620521068573,0.0015627597458660603,0.0008721919730305672
1783169056680522500,6.3325224609375,-0.0006141941994428635,-0.0003131707198917866,0.000401877798140049
1783169056690471400,6.342471435546875,0.000851944088935852,-0.000027513131499290466,-0.0017238250002264977
1783169056700420400,6.35242041015625,0.00024820491671562195,-0.0009316559880971909,0.0015092524699866772
1783169056710369500,6.36236962890625,-0.0003406442701816559,0.00044975336641073227,-0.00032610446214675903
1783169056720348700,6.3723486328125,0.001581091433763504,-0.00017369259148836136,0.0003775032237172127
1783169056730296600,6.382296630859375,-0.00029833801090717316,0.0010687741450965405,-0.0014917799271643162
1783169056740245500,6.39224560546875,0.0013099443167448044,-0.001463891938328743,-0.0002795089967548847
1783169056750194400,6.4021943359375,0.0016615577042102814,0.0022582458332180977,-0.0012736693024635315
1783169056760173600,6.412173583984375,-0.0012609940022230148,0.0011754045262932777,0.000011838041245937347
1783169056770122500,6.42212255859375,-0.0013003498315811157,-0.0028523963410407305,0.0011929548345506191
1783169056780071400,6.432071533203125,0.0004919581115245819,-0.003990631550550461,0.0013538096100091934
1783169056790019600,6.44201953125,-0.0005619432777166367,-0.0007779202423989773,0.0011964957229793072
1783169056799999500,6.45199951171875,-0.0007086843252182007,-0.001287116203457117,-0.0009585344232618809
1783169056809947400,6.461947509765625,0.001197097823023796,0.000050005968660116196,0.0006770160980522633
1783169056819896600,6.471896484375,0.0010586138814687729,-0.0002674432471394539,-0.00022046919912099838
1783169056829881000,6.481881103515625,0.002160182222723961,0.000014629680663347244,0.0015316857025027275
1783169056839830300,6.491830322265625,-0.0014257635921239853,0.0011430112645030022,-0.0016710320487618446
1783169056849779200,6.501779296875,-0.0006963182240724564,-0.0000738934613764286,0.0018976624123752117
1783169056859728100,6.51172802734375,0.0014810822904109955,0.0011967006139457226,0.0003271959722042084
1783169056869707000,6.52170703125,0.0004165433347225189,-0.0007657441310584545,0.0011458839289844036
1783169056879656200,6.53165625,0.00047992728650569916,0.0006523891352117062,-0.00040460843592882156
1783169056889604000,6.54160400390625,-0.00034013018012046814,0.00035692984238266945,-0.00029860856011509895
1783169056899553300,6.55155322265625,0.0011834632605314255,-0.001688377931714058,0.00008701765909790993
1783169056909532400,6.561532470703125,0.002094544470310211,0.0013852515257894993,0.000057112425565719604
1783169056919481300,6.5714814453125,-0.00010575912892818451,-0.0022446371149271727,-0.0034670489840209484
1783169056929430300,6.58143017578125,-0.0015678741037845612,-0.001442332286387682,0.0005462276749312878
1783169056939378200,6.591378173828125,0.0006350912153720856,0.0013396055437624454,0.0002980208955705166
1783169056949358300,6.6013583984375,-0.0018332023173570633,0.0011201179586350918,-0.0002054031938314438
1783169056959306200,6.61130615234375,-0.0003650002181529999,-0.0012090825475752354,-0.0007082074880599976
1783169056969255200,6.621255126953125,-0.0006963759660720825,-0.00007009226828813553,0.0003630653955042362
1783169056979234300,6.631234375,-0.00020608678460121155,0.001154695637524128,0.00013749580830335617
1783169056989183200,6.641183349609375,0.0017920862883329391,0.000627466943114996,-0.001568672712892294
1783169056999132200,6.651132080078125,-0.0003680028021335602,0.0007196124643087387,0.001048149075359106
1783169057009081000,6.6610810546875,0.0003512240946292877,0.001304995734244585,-0.0005293134599924088
1783169057019060200,6.671060302734375,0.0010052956640720367,0.00014412403106689453,-0.0005737878382205963
1783169057029009200,6.681009033203125,0.0008303094655275345,-0.0002926187589764595,0.00023270584642887115
1783169057038957000,6.69095703125,0.0009155292063951492,-0.003652995452284813,0.0007482939399778843
1783169057048906000,6.700906005859375,0.0007343869656324387,-0.0012114648707211018,-0.0002568666823208332
1783169057058885000,6.710885009765625,0.0011921841651201248,0.0011355788446962833,-0.0005231830291450024
1783169057068834300,6.720834228515625,-0.001051824539899826,-0.000176986213773489,0.0005553173832595348
1783169057078783200,6.730783203125,0.0006757676601409912,0.00219509145244956,0.0022371038794517517
1783169057088762400,6.740762451171875,-0.0007443390786647797,0.0021075368858873844,-0.000631050206720829
1783169057098711300,6.750711181640625,-0.000026084482669830322,0.00035118218511343,0.0005330173298716545
1783169057108659200,6.7606591796875,0.00030970945954322815,-0.0020859353244304657,-0.00015176599845290184
1783169057118608100,6.770608154296875,0.0016202516853809357,-0.0015415851958096027,0.000953978393226862
1783169057128587300,6.780587158203125,0.00018102116882801056,0.0009981892071664333,-0.0006785881705582142
1783169057138536200,6.7905361328125,0.00010112673044204712,0.00024318275973200798,0.0002295495942234993
1783169057148485000,6.800485107421875,0.0007575154304504395,0.003400716930627823,-0.00017041712999343872
1783169057158434000,6.81043408203125,-0.0001535508781671524,0.0009990776889026165,-0.0018969448283314705
1783169057168413200,6.8204130859375,-0.0006890241056680679,0.000964658334851265,-0.00028731487691402435
1783169057178362000,6.830362060546875,0.00013229437172412872,0.0025534997694194317,0.00011588772758841515
1783169057188310300,6.840310302734375,-0.00017573870718479156,0.0000549941323697567,-0.0003264099359512329
1783169057198259200,6.85025927734375,-0.0009696278721094131,0.00309818796813488,-0.00223376601934433
1783169057208238000,6.860238037109375,0.0010506846010684967,0.0005846414715051651,-0.0007147896103560925
1783169057218187000,6.87018701171875,0.0006168559193611145,0.0011814557947218418,-0.00029214518144726753
1783169057228136200,6.88013623046875,-0.00024413876235485077,-0.00011224253103137016,0.00022266386076807976
1783169057238115300,6.890115234375,-0.0003125816583633423,-0.0013506123796105385,-0.0004633660428225994
1783169057248064300,6.900064208984375,-0.0002591349184513092,0.0010437294840812683,-0.00046681473031640053
1783169057258012400,6.910012451171875,0.0006127841770648956,-0.00034777214750647545,-0.0001325877383351326
1783169057267961300,6.91996142578125,0.0007237531244754791,-0.0008669272065162659,-0.002199149690568447
1783169057277940200,6.929940185546875,0.0003120284527540207,0.0015112757682800293,-0.0014063268899917603
1783169057287889200,6.93988916015625,0.0007630065083503723,-0.000940865371376276,-0.0002261204645037651
1783169057297838300,6.94983837890625,-0.00047696009278297424,0.0010226834565401077,0.0019310400821268559
1783169057307787300,6.959787353515625,-0.0014851279556751251,-0.0003813984803855419,-0.0016248533502221107
1783169057317766100,6.96976611328125,-0.00030854344367980957,-0.002744421362876892,0.0012202016077935696
1783169057327715000,6.979715087890625,0.0004775896668434143,-0.00035335635766386986,-0.0015404112637043
1783169057337663200,6.989663330078125,0.00034869275987148285,-0.000534451100975275,0.0012657614424824715
1783169057347612200,6.999612060546875,0.0020311586558818817,-0.0005023879930377007,-0.0003344663418829441
1783169057357591000,7.009591064453125,-0.0001531653106212616,-0.001719186082482338,0.0006383867003023624
1783169057367540200,7.019540283203125,-0.00018623284995555878,-0.0010205754078924656,0.0021935030817985535
1783169057377489200,7.0294892578125,0.0006071235984563828,-0.00007248995825648308,-0.0005066758021712303
1783169057387468000,7.039468017578125,0.00010686367750167847,0.0012713209725916386,-0.0026375646702945232
1783169057397417200,7.049417236328125,0.00032257847487926483,0.0013453569263219833,-0.0016593853943049908
1783169057407365400,7.059365478515625,-0.001673201099038124,0.0006765332072973251,-0.002147972583770752
1783169057417314300,7.069314208984375,0.0006602611392736435,0.0011029052548110485,0.000788162462413311
1783169057427293200,7.079293212890625,-0.0005196910351514816,-0.0020774933509528637,-0.00020385067909955978
1783169057437242400,7.089242431640625,0.00005235709249973297,-0.0009033055976033211,0.001958902459591627
1783169057447191300,7.09919140625,0.0005666892975568771,0.0012464243918657303,0.000023504719138145447
1783169057457140200,7.10914013671875,-0.0002833902835845947,0.0012552128173410892,0.004610799252986908
1783169057467119000,7.119119140625,0.0011790785938501358,-0.0014327303506433964,0.0008092639036476612
1783169057477068300,7.129068359375,0.000070938840508461,-0.0006423043087124825,-0.0011172667145729065
1783169057487016200,7.13901611328125,-0.0006798505783081055,0.00044392189010977745,-0.0023689917288720608
1783169057496965000,7.148965087890625,0.00103815458714962,0.0025472864508628845,0.002502196468412876
1783169057506944300,7.1589443359375,0.0012713614851236343,-0.0005174209363758564,-0.00010112859308719635
1783169057516893200,7.16889306640625,-0.0005526375025510788,-0.0004236777313053608,-0.0015719924122095108
1783169057526842000,7.178842041015625,-0.0024996958673000336,0.0010645035654306412,0.0007871855050325394
1783169057536821200,7.1888212890625,0.0011453721672296524,0.0002186833880841732,0.0006273956969380379
1783169057546770200,7.198770263671875,-0.000057367607951164246,-0.0009085922501981258,0.001149461604654789
1783169057556719400,7.20871923828125,0.0012177526950836182,0.0022669611498713493,-0.000010611489415168762
1783169057566667300,7.218667236328125,-0.00039450451731681824,-0.002463572658598423,0.0012691658921539783
1783169057576646100,7.228646240234375,-0.0007457751780748367,0.0019788462668657303,0.002426842227578163
1783169057586595300,7.23859521484375,-0.00019653141498565674,-0.00044051697477698326,-0.002443918026983738
1783169057596544300,7.248544189453125,0.0000825691968202591,0.004193116910755634,0.0013966266997158527
1783169057606493200,7.2584931640625,0.0005900990217924118,0.00005473289638757706,0.002180561888962984
1783169057616472300,7.268472412109375,0.0011325832456350327,0.0004502125084400177,0.001424224115908146
1783169057626421200,7.278421142578125,0.0006707031279802322,0.00015606265515089035,-0.00017532380297780037
1783169057636369200,7.288369140625,-0.001401768997311592,-0.002698047086596489,-0.002380420919507742
1783169057646318000,7.298318115234375,0.0010294895619153976,0.0015313350595533848,0.0011272537522017956
1783169057656297200,7.308297119140625,0.00019592046737670898,0.0005156053230166435,-0.00044933753088116646
1783169057666246100,7.31824609375,0.0008238237351179123,-0.0030817685183137655,0.0017457129433751106
1783169057676195000,7.328195068359375,-0.0019069816917181015,0.00011189421638846397,-0.0011352947913110256
1783169057686174200,7.33817431640625,0.001248413696885109,0.0010271533392369747,0.000889850314706564
1783169057696123100,7.348123046875,0.00007901899516582489,-0.00010655447840690613,-0.0006499895825982094
1783169057706072000,7.358072021484375,-0.0006822366267442703,-0.0015279161743819714,-0.0013710693456232548
1783169057716020200,7.368020263671875,0.0018376465886831284,-0.0007300330325961113,0.002734459936618805
1783169057726000400,7.37800048828125,0.0012643411755561829,-0.0005000075325369835,0.0003885813057422638
1783169057735948000,7.387947998046875,0.0011769887059926987,-0.0013354416005313396,-0.0009584454819560051
1783169057745897200,7.397897216796875,0.0014424342662096024,-0.0005413857288658619,0.001340594608336687
1783169057755846100,7.40784619140625,-0.0018415097147226334,-0.0005216784775257111,-0.002624852117151022
1783169057765825300,7.4178251953125,-0.00017192214727401733,-0.001512189395725727,0.0011487635783851147
1783169057775774200,7.427774169921875,-0.00020254775881767273,-0.0016240421682596207,0.0017381212674081326
1783169057785722400,7.437722412109375,0.0005990192294120789,-0.001458768267184496,-0.001548124011605978
1783169057795671300,7.44767138671875,-7.245689630508423e-7,0.0023330403491854668,-0.002075695898383856
1783169057805650200,7.457650146484375,0.0005824882537126541,-0.0004928149282932281,0.0002476908266544342
1783169057815599000,7.46759912109375,0.00026903487741947174,0.0022086952812969685,0.0018282770179212093
1783169057825579800,7.477579833984375,-0.0012922696769237518,0.0021748621948063374,-0.002035878598690033
1783169057835559000,7.487558837890625,-0.00041795335710048676,-0.0015447749756276608,0.002772724721580744
1783169057845507800,7.4975078125,-0.0009143929928541183,0.0009043361060321331,0.00003290083259344101
1783169057855457000,7.50745703125,0.00012530386447906494,-0.0009875735267996788,-0.00038814451545476913
1783169057865405000,7.517405029296875,0.0012400057166814804,-0.0016690348275005817,0.0007362533360719681
1783169057875385000,7.527385009765625,-0.0005640201270580292,0.000866561196744442,-0.0007356754504144192
1783169057885333000,7.5373330078125,-0.000862782821059227,-0.0000982317142188549,-0.0007403627969324589
1783169057895282000,7.547281982421875,-0.0005746278911828995,0.0007001841440796852,0.0011488841846585274
1783169057905231000,7.557231201171875,0.00037464313209056854,-0.0005758632905781269,0.0012785554863512516
1783169057915210000,7.5672099609375,-0.00045386701822280884,-0.0013633603230118752,0.00032301340252161026
1783169057925159000,7.577158935546875,0.00017595291137695312,-0.0007337490096688271,-0.0005763815715909004
1783169057935107000,7.587107177734375,0.0009458735585212708,-0.00028580566868185997,0.00028381915763020515
1783169057945056000,7.597055908203125,-0.0006040893495082855,0.0006609875708818436,-0.0007332256063818932
1783169057955035000,7.607034912109375,0.001004192978143692,0.0008868235163390636,-0.0009827632457017899
1783169057964984000,7.616984130859375,0.0017179716378450394,0.0003678170032799244,0.0013084625825285912
1783169057974933000,7.62693310546875,0.00005908869206905365,0.0005369274877011776,-0.001595714595168829
1783169057984912000,7.636911865234375,-0.0012608040124177933,0.0007907161489129066,-0.0002655182033777237
1783169057994860800,7.64686083984375,0.0007365681231021881,-0.0001618964597582817,-0.001578989438712597
1783169058004810000,7.65681005859375,0.0007269345223903656,-0.0006851721554994583,-0.0010085729882121086
1783169058014758000,7.6667578125,-0.0002994462847709656,0.0030863964930176735,-0.000022404827177524567
1783169058024738000,7.676738037109375,-0.0002704039216041565,0.001192143652588129,-0.0014004753902554512
1783169058034686000,7.68668603515625,-0.0006962437182664871,0.0003250185400247574,-0.00033787451684474945
1783169058044635100,7.69663525390625,-0.0004961173981428146,-0.0032268573995679617,0.0012052021920681
1783169058054584000,7.706583984375,0.00016647763550281525,-0.0005953880026936531,-0.0023378669284284115
1783169058064563000,7.71656298828125,-0.0016383267939090729,0.00006932299584150314,-0.0002551986835896969
1783169058074512100,7.72651220703125,-0.0001847725361585617,0.0013777343556284904,-0.0007452201098203659
1783169058084460000,7.7364599609375,-0.0008989013731479645,-0.0007644547149538994,-0.0005268435925245285
1783169058094440000,7.74643994140625,-0.0009375177323818207,0.00012157903984189034,-0.000999288633465767
1783169058104388000,7.75638818359375,-0.000809159129858017,0.0012087714858353138,-0.00010916357859969139
1783169058114337000,7.7663369140625,0.0009061824530363083,-0.0003784727305173874,0.00161416782066226
1783169058124286000,7.776285888671875,-0.0008650887757539749,-0.0008483496494591236,-0.0018407804891467094
1783169058134264800,7.786264892578125,-0.000693049281835556,0.0004691164940595627,0.001156606711447239
1783169058144214000,7.796214111328125,-0.002086315304040909,0.0005086003802716732,-0.00046839145943522453
1783169058154163000,7.806162841796875,0.0008998885750770569,-0.00038808630779385567,0.001250412780791521
1783169058164110800,7.81611083984375,-0.0014649368822574615,0.0015615299344062805,-0.001613131258636713
1783169058174090800,7.8260908203125,0.0008765142410993576,0.00035724835470318794,-0.0006333538331091404
1783169058184039000,7.836038818359375,-0.0000898074358701706,-0.0008116536773741245,-0.0006094793789088726
1783169058193987800,7.84598779296875,0.0002790391445159912,0.00037345290184020996,0.00009732367470860481
1783169058203937000,7.85593701171875,0.0002259816974401474,0.0020609982311725616,-0.00006312550976872444
1783169058213916200,7.865916259765625,-0.0007252991199493408,0.0004484541714191437,0.0010045357048511505
1783169058223865000,7.875864990234375,0.00011241622269153595,-0.0009600603953003883,0.00008361740037798882
1783169058233814000,7.88581396484375,0.00019257701933383942,0.0009440993890166283,-0.0017161471769213676
1783169058243793000,7.89579296875,0.0005117077380418777,0.0003192313015460968,-0.00039672525599598885
1783169058253741000,7.905740966796875,-0.0025309547781944275,-0.000005674548447132111,0.0007372484542429447
1783169058263690000,7.91568994140625,-0.00041638314723968506,0.000005352776497602463,-0.0019674082286655903
1783169058273639000,7.925638916015625,-0.0010342374444007874,-0.002793895546346903,0.0013367757201194763
1783169058283618000,7.9356181640625,0.0009575951844453812,0.0009275251068174839,0.001092761754989624
1783169058293567000,7.94556689453125,-0.0017788037657737732,0.0010188715532422066,-0.0016622780822217464
1783169058303516000,7.955515869140625,-0.0007456950843334198,-0.0010034493170678616,-0.0004447866231203079
1783169058313463800,7.9654638671875,-0.00014355406165122986,0.000060749705880880356,0.0006540333852171898
1783169058323444000,7.97544384765625,0.000681290403008461,0.000590289942920208,0.0007210611365735531
1783169058333392000,7.985391845703125,0.00035079196095466614,-0.0014321142807602882,0.0006116055883467197
1783169058343340800,7.9953408203125,0.0003690440207719803,-0.0001491643488407135,-0.00030847080051898956
1783169058353289700,8.005289794921875,0.0005714427679777145,0.0006937258876860142,-0.0005931626074016094
1783169058363268900,8.015268798828124,0.00022079236805438995,-0.0009612506255507469,0.0002592839300632477
1783169058373218000,8.025218017578124,0.00007831491529941559,-0.00023260992020368576,0.0004435749724507332
1783169058383167000,8.0351669921875,-0.000083189457654953,-0.0013716411776840687,0.0010145879350602627
1783169058393146000,8.04514599609375,0.0044311340898275375,0.0029330928809940815,0.0000031194649636745453
1783169058403095000,8.055094970703125,0.0006560217589139938,-0.0009060120210051537,-0.0008081411942839622
1783169058413043000,8.06504296875,0.002274690195918083,0.0010266443714499474,0.0010914918966591358
1783169058422992000,8.074991943359375,0.0010506343096494675,-0.0002096034586429596,0.0008301381021738052
1783169058432971000,8.084970947265624,0.0021414663642644882,-0.001674608327448368,0.0015324139967560768
1783169058442920000,8.094919921875,-0.0002600383013486862,-0.000038710422813892365,0.00041303038597106934
1783169058452868900,8.104868896484374,0.0004257243126630783,-0.0011045071296393871,0.00038373563438653946
1783169058462817000,8.114817138671874,-0.00028831884264945984,0.002365014050155878,0.00013011135160923004
1783169058472797000,8.124796875,0.0000765342265367508,-0.0005873660556972027,0.0017367959953844547
1783169058482744800,8.134744873046875,0.0007941816002130508,0.0036785569973289967,-0.001502149272710085
1783169058492694000,8.144694091796875,0.0003390461206436157,-0.0015769251622259617,-0.0013380986638367176
1783169058502643000,8.154642822265625,-0.0007195957005023956,0.0007225289009511471,0.0019888104870915413
1783169058512621800,8.164621826171874,0.00043967925012111664,0.0018770089372992516,-0.001367837656289339
1783169058522570800,8.17457080078125,-0.0005260538309812546,-0.0006477693095803261,0.0010035550221800804
1783169058532520000,8.18452001953125,-0.00037638284265995026,0.0026127384044229984,0.0008376399055123329
1783169058542499000,8.1944990234375,-0.00006394833326339722,0.001375420019030571,-0.00009788013994693756
1783169058552448000,8.204447998046875,-0.0004343930631875992,0.0013381359167397022,-0.0006052120588719845
1783169058562396200,8.214396240234375,-0.0013036727905273438,0.0014275568537414074,-0.001546594314277172
1783169058572345000,8.224344970703125,0.000514734536409378,-0.00031494908034801483,0.00019378121942281723
1783169058582324000,8.234323974609374,0.0007364396005868912,-0.0019145866390317678,0.0015873899683356285
1783169058592273000,8.24427294921875,0.0015425775200128555,-0.00010310439392924309,0.0020675580017268658
1783169058602222000,8.25422216796875,0.0008895453065633774,-0.0006997711025178432,0.00150368083268404
1783169058612170000,8.264169921875,0.0021271146833896637,-0.0029855621978640556,0.0016365721821784973
1783169058622150000,8.27414990234375,-0.000944020226597786,-0.00045095663517713547,0.00027735624462366104
1783169058632098000,8.28409814453125,0.002135658636689186,0.0017645270563662052,-0.0014126859605312347
1783169058642047000,8.294046875,0.002008410170674324,0.0005839308723807335,-0.001598414033651352
1783169058651996000,8.303995849609375,0.0005929414182901382,0.002161055337637663,0.0013068285770714283
1783169058661974800,8.313974853515624,-0.0005259141325950623,0.0008300547488033772,-0.00018375925719738007
1783169058671924000,8.323924072265624,0.0007814317941665649,0.0010297917760908604,-0.0006258441135287285
1783169058681873000,8.333872802734374,-0.00008064135909080505,-0.004530754871666431,0.0024339361116290092
1783169058691851800,8.343851806640625,-0.00042658671736717224,-0.0026889124419540167,-0.000024428125470876694
1783169058701801000,8.353801025390625,-0.0006339307874441147,-0.0021043019369244576,0.0007989769801497459
1783169058711748900,8.363748779296875,-0.00012127123773097992,0.0012257145717740059,0.0019334838725626469
1783169058721698000,8.373697998046875,-0.0001664571464061737,0.00003798864781856537,-0.0002653910778462887
1783169058731677000,8.383677001953124,0.0006303600966930389,-0.0027364923153072596,-0.0005247825756669044
1783169058741626000,8.393626220703124,0.001957254484295845,-0.0007356614805757999,0.0008477149531245232
1783169058751575000,8.403574951171874,0.0014075785875320435,0.0001485077664256096,-0.0004156883805990219
1783169058761523000,8.41352294921875,-0.000034224241971969604,0.0015963171608746052,-0.0009196172468364239
1783169058771502800,8.4235029296875,-0.0015117451548576355,-0.0004045157693326473,0.0001901215873658657
1783169058781451000,8.433450927734375,0.000440472736954689,-0.0018553168047219515,-0.0005963956937193871
1783169058791400000,8.44339990234375,-0.0013262685388326645,-0.0029778392054140568,-0.0007101129740476608
1783169058801348900,8.453348876953125,-0.0002591107040643692,0.000054887495934963226,-0.00018423935398459435
1783169058811328000,8.463327880859374,-0.00035471655428409576,-0.0005951900966465473,-0.0012180786579847336
1783169058821277000,8.47327685546875,-0.0003661215305328369,-0.002153851091861725,-0.00196445407345891
1783169058831248600,8.48324853515625,-0.00031152553856372833,-0.001886469777673483,0.0006283996626734734
1783169058841227500,8.4932275390625,0.0007156580686569214,-0.001321855466812849,0.00015488872304558754
1783169058851176400,8.503176513671875,0.001030709594488144,0.00001851329579949379,0.00029869936406612396
1783169058861124600,8.51312451171875,0.0006383825093507767,-0.0002544764429330826,0.0022793342359364033
1783169058871073500,8.523073486328125,0.0009086932986974716,-0.0007274537347257137,-0.0005015386268496513
1783169058881052400,8.533052490234375,0.000758003443479538,-0.001950679114088416,-0.0004496588371694088
1783169058891001300,8.54300146484375,0.0006152577698230743,-0.001583961769938469,-0.003453437704592943
1783169058900950800,8.55295068359375,-0.00045125558972358704,-0.0005624173209071159,-0.0006789891049265862
1783169058910898700,8.562898681640625,0.0003359746187925339,0.0019460143521428108,0.0010581910610198975
1783169058920878600,8.572878662109375,0.0002073179930448532,0.0018459251150488853,-0.0011721178889274597
1783169058930826800,8.58282666015625,-0.00043264031410217285,0.0010501723736524582,-0.0014762505888938904
1783169058940775700,8.592775634765625,-0.00009999796748161316,-0.0016330983489751816,-0.0017968942411243916
1783169058950724600,8.602724609375,-0.0002086535096168518,0.0015645590610802174,0.00014295242726802826
1783169058960703500,8.612703369140625,0.0010231807827949524,-0.001015207264572382,-0.00014184089377522469
1783169058970652700,8.622652587890625,-0.0003901589661836624,-0.0027167010121047497,-0.00004064105451107025
1783169058980601600,8.6326015625,-0.000942472368478775,-0.0005257576704025269,-0.0014927159063518047
1783169058990580500,8.64258056640625,-0.0012079887092113495,0.0004026205278933048,-0.0008540893904864788
1783169059000529400,8.652529296875,0.0003578066825866699,0.0005547543987631798,-0.00019849417731165886
1783169059010477600,8.6624775390625,-0.00031836889684200287,0.0011057625524699688,0.0002491832710802555
1783169059020426500,8.672426513671875,0.00008614175021648407,0.0005905255675315857,-0.0002280808985233307
1783169059030405600,8.682405517578125,0.001710403710603714,-0.0009458521381020546,0.0008976375684142113
1783169059040354600,8.6923544921875,-0.0006894189864397049,-0.0005704089999198914,0.00023666908964514732
1783169059050303700,8.7023037109375,0.001487981528043747,0.0018338928930461407,-0.0005846498534083366
1783169059060252700,8.712252685546876,-0.0002319682389497757,-0.0010514515452086926,-0.0009212414734065533
1783169059070231600,8.7222314453125,0.0011496804654598236,0.0008761445060372353,-0.000292203389108181
1783169059080179700,8.7321796875,0.000015636906027793884,-0.00016166316345334053,-0.00074373884126544
1783169059090128600,8.742128662109375,0.0005245674401521683,0.00007988512516021729,-0.00026490213349461555
1783169059100107800,8.752107666015625,-0.0017566811293363571,0.000010190065950155258,0.0012682732194662094
1783169059110056700,8.762056640625,-0.0004962068051099777,0.0014935708604753017,0.0008970284834504128
1783169059120005600,8.772005615234375,-0.000711856409907341,-0.0013047573156654835,0.0005674273706972599
1783169059129954600,8.78195458984375,-0.0005347561091184616,-0.0010381750762462616,0.0003767451271414757
1783169059139933700,8.79193359375,-0.0007726941257715225,0.003219424746930599,-0.00038822367787361145
1783169059149882600,8.801882568359375,-0.00010131113231182098,0.002025796100497246,0.00009354203939437866
1783169059159830500,8.81183056640625,-0.00016480684280395508,-0.0009913654066622257,0.0007160017266869545
1783169059169779500,8.821779541015625,0.0014021974056959152,0.0008113281801342964,0.0018206806853413582
1783169059179758600,8.831758544921875,-0.00017478317022323608,0.002818129025399685,0.0008053393103182316
1783169059189707500,8.84170751953125,-0.00013590045273303986,0.00046868808567523956,-0.0002106567844748497
1783169059199656400,8.851656494140625,0.0010262783616781235,0.000059312209486961365,-0.00009880121797323227
1783169059209605600,8.861605712890626,-0.0003042370080947876,-0.0010136752389371395,0.00046445755288004875
1783169059219584500,8.87158447265625,-0.0018030032515525818,0.001047363504767418,0.0007537803612649441
1783169059229533700,8.88153369140625,-0.0005808789283037186,0.0007360400632023811,-0.00010988255962729454
1783169059239481600,8.891481689453125,-0.0008213035762310028,0.002197099383920431,-0.000557413324713707
1783169059249461800,8.901461669921876,0.0006133411079645157,0.00007962016388773918,0.0007006637752056122
1783169059259409700,8.91140966796875,-0.00025591254234313965,-0.00009133201092481613,-0.0004092068411409855
1783169059269358600,8.921358642578125,-0.0004364755004644394,0.0008892440237104893,0.00006084144115447998
1783169059279307500,8.9313076171875,0.001053541898727417,0.0006565763615071774,0.0005977554246783257
1783169059289286700,8.94128662109375,-0.0007848385721445084,0.0016107871197164059,0.0013551581650972366
1783169059299235600,8.951235595703125,-0.00009180977940559387,-0.0021275959443300962,0.0003101048059761524
1783169059309183500,8.96118359375,-0.0005136542022228241,-0.0007747099734842777,0.0007961317896842957
1783169059319132700,8.971132568359375,0.00016653165221214294,0.002039151731878519,0.0003779567778110504
1783169059329111600,8.981111572265625,-0.0007815547287464142,-0.000645581167191267,0.00008261250331997871
1783169059339060500,8.991060546875,0.0003574006259441376,-0.00023560039699077606,-0.0013641295954585075
1783169059349009400,9.001009521484375,-0.0012056082487106323,0.0010019703768193722,0.0013437727466225624
1783169059358958600,9.01095849609375,-0.0008921753615140915,0.00010938383638858795,-0.00020743394270539284
1783169059368937500,9.0209375,0.00015950575470924377,0.0009783734567463398,-0.0016657807864248753
1783169059378886400,9.030886474609375,-0.0008603818714618683,-0.001920322421938181,0.0010351035743951797
1783169059388834600,9.04083447265625,0.0002576131373643875,-0.0012579942122101784,0.0003647860139608383
1783169059398814700,9.050814697265626,-0.0009127091616392136,0.003072485327720642,0.0002543264999985695
1783169059408762600,9.0607626953125,0.00031234510242938995,-0.0015366477891802788,-0.0005323714576661587
1783169059418711600,9.070711669921875,0.0003229249268770218,0.0012570153921842575,0.000380747951567173
1783169059428660700,9.08066064453125,-0.0008933395147323608,-0.0006018709391355515,0.0010585226118564606
1783169059438639600,9.0906396484375,0.0014406908303499222,-0.00044232606887817383,-0.0013589868322014809
1783169059448588500,9.100588623046875,-0.001838725060224533,-0.00005643395707011223,-0.00003166729584336281
1783169059458536700,9.11053662109375,0.0002212170511484146,0.0013752798549830914,0.0013535027392208576
1783169059468485600,9.120485595703125,-0.0009143557399511337,0.00150337815284729,0.0007010283879935741
1783169059478464500,9.130464599609375,0.0002925526350736618,-0.0011880863457918167,0.0015094205737113953
1783169059488413700,9.14041357421875,0.0005902927368879318,-0.0008301576599478722,0.0019083619117736816
1783169059498362600,9.150362548828125,-0.0008213017135858536,-0.0008013634942471981,0.0010348600335419178
1783169059508311600,9.1603115234375,-0.0006700344383716583,0.002055409364402294,0.00023937365040183067
1783169059518290400,9.17029052734375,0.001149401068687439,0.0015213065780699253,0.0004170727916061878
1783169059528239600,9.180239501953125,-0.00009669177234172821,0.0005713570863008499,0.0007132161408662796
1783169059538187500,9.1901875,-0.00004030950367450714,-0.00005005067214369774,-0.0011539808474481106
1783169059548167400,9.20016748046875,0.0006824713200330734,-0.0016151908785104752,-0.0011044465936720371
1783169059558115600,9.210115478515625,0.000376066192984581,0.0011542979627847672,0.00129284942522645
1783169059568064800,9.220064697265625,0.0007044337689876556,0.0009484356269240379,0.00027339160442352295
1783169059578013700,9.230013671875,-0.0005671847611665726,-0.0009520198218524456,-0.00023742811754345894
1783169059587992600,9.23999267578125,-0.0004715770483016968,0.0001049884594976902,-0.001585520338267088
1783169059597941800,9.249941650390625,0.0015099216252565384,0.00046584801748394966,-0.0006637419573962688
1783169059607889700,9.2598896484375,0.00014904700219631195,-0.00007770303636789322,0.00019592652097344398
1783169059617838600,9.269838623046875,-0.0016083233058452606,0.0015623602084815502,0.0006159674376249313
1783169059627817700,9.279817626953125,-0.001413647085428238,0.0013788682408630848,-0.0009526349604129791
1783169059637766700,9.2897666015625,-0.0025707725435495377,-0.0007255659438669682,0.00020640064030885696
1783169059647715600,9.299715576171875,-0.00252709724009037,-0.00042409636080265045,0.0006098696030676365
1783169059657664500,9.30966455078125,-0.00042421743273735046,0.001078139990568161,-0.0017176317051053047
1783169059667643600,9.3196435546875,0.00021361000835895538,-0.0011876774951815605,0.0011639087460935116
1783169059677592600,9.329592529296875,0.0005364306271076202,-0.0006705066189169884,-0.0005769906565546989
1783169059687540500,9.33954052734375,0.001086374744772911,-0.0011235103011131287,0.0023050825111567974
1783169059697520400,9.349520263671875,0.001718195155262947,0.003192504867911339,-0.00017440225929021835
1783169059707468500,9.359468505859375,0.001101939007639885,-0.0005505681037902832,0.00180139672011137
1783169059717417500,9.36941748046875,-0.00036980584263801575,0.0007224809378385544,0.00027861492708325386
1783169059727366700,9.37936669921875,-0.0018129721283912659,-0.0002405177801847458,-0.0012617572210729122
1783169059737345800,9.389345703125,-0.0009342897683382034,0.0008306223899126053,-0.0015923394821584225
1783169059747294700,9.399294677734375,-0.0019934289157390594,-0.004052549600601196,0.00011021923273801804
1783169059757242600,9.40924267578125,-0.0006005968898534775,0.0007788324728608131,-0.0007758620195090771
1783169059767191600,9.419191650390625,0.0007448326796293259,0.0008312966674566269,-0.0013758721761405468
1783169059777170700,9.429170654296875,0.00019563548266887665,-0.00027506938204169273,-0.001833469606935978
1783169059787119600,9.43911962890625,0.0021394770592451096,0.0007459865882992744,0.0010203737765550613
1783169059797068500,9.449068603515625,0.00057973712682724,0.003116108477115631,0.00042524514719843864
1783169059807017500,9.459017578125,-0.0001409146934747696,-0.0024355167988687754,-0.00007889093831181526
1783169059816996600,9.46899658203125,-0.0018688160926103592,-0.0028150128200650215,0.0007463358342647552
1783169059826960000,9.4789599609375,0.0005229692906141281,-0.0014589312486350536,0.002358347177505493
1783169059836907800,9.48890771484375,0.000011611729860305786,0.001975465565919876,-0.0004443689249455929
1783169059846888000,9.498887939453125,-0.001169499009847641,0.0012143338099122047,0.0011087870225310326
1783169059856835800,9.5088359375,-0.0011592656373977661,-0.0008264514617621899,0.0008907755836844444
1783169059866784800,9.51878466796875,-0.0009281039237976074,-0.001367339864373207,0.0002348390407860279
1783169059876733700,9.528733642578125,0.00018939748406410217,0.0005360385403037071,0.0003272267058491707
1783169059886712800,9.538712890625,-0.0006870478391647339,-0.0009135198779404163,0.0012116627767682076
1783169059896661800,9.548661865234376,-0.0017898883670568466,0.001981089822947979,-0.0012465277686715126
1783169059906610700,9.558610595703126,-0.000027941539883613586,0.0006124912761151791,-0.00002040807157754898
1783169059916558800,9.568558837890626,-0.001146223396062851,-0.001286256592720747,0.002131389919668436
1783169059926537700,9.578537841796875,-0.0014644712209701538,0.00081657525151968,-0.0004777088761329651
1783169059936486700,9.588486572265625,-0.0006461385637521744,0.001834279391914606,0.00027401791885495186
1783169059946435600,9.598435546875,0.0006851758807897568,-0.0018291650339961052,0.0008268901146948338
1783169059956384800,9.608384765625,-0.0003959350287914276,-0.000791539903730154,0.0007849037647247314
1783169059966363600,9.61836376953125,0.0004911646246910095,0.0012457780539989471,0.00016758311539888382
1783169059976312600,9.6283125,-0.0005968417972326279,0.0006321165710687637,0.00005533406510949135
1783169059986260700,9.6382607421875,0.0001104939728975296,-0.0012379549443721771,-0.0008722450584173203
1783169059996241000,9.648240966796875,0.0007743574678897858,0.001541160512715578,0.0007287729531526566
1783169060006188500,9.6581884765625,-0.0014057066291570663,-0.000030903611332178116,-0.00044221850112080574
1783169060016137700,9.6681376953125,-0.0010538287460803986,-0.0012898105196654797,-0.0007686126045882702
1783169060026087000,9.6780869140625,-0.0024535860866308212,-0.0005537127144634724,-0.0004184073768556118
1783169060036065800,9.688065673828126,0.0003290809690952301,-0.001945009920746088,-0.0003872220404446125
1783169060046014700,9.6980146484375,0.0010231006890535355,-0.0017713718116283417,0.00048283254727721214
1783169060055963600,9.707963623046876,0.00008785165846347809,0.0017063324339687824,0.00006621750071644783
1783169060065911800,9.717911865234376,-0.00022506900131702423,-0.0019318119157105684,-0.00012899190187454224
1783169060075891700,9.7278916015625,0.002033475786447525,-0.0012036869302392006,-0.00004508160054683685
1783169060085840000,9.73783984375,0.0022036507725715637,0.000794749241322279,0.0014838390052318573
1783169060095788800,9.747788818359375,0.0005567464977502823,0.002169553656131029,-0.001542617566883564
1783169060105737700,9.75773779296875,0.0005828440189361572,0.0009881756268441677,0.002957858145236969
1783169060115716600,9.767716552734376,0.0018349289894104004,0.002798750065267086,-0.00251786969602108
1783169060125665800,9.777665771484376,0.0004572756588459015,0.0000056265853345394135,-0.0001492542214691639
1783169060135613700,9.78761376953125,-0.000163201242685318,0.0009984886273741722,0.0005635903216898441
1783169060145593600,9.797593505859375,-0.0017975829541683197,-0.0017504263669252396,0.0013667996972799301
1783169060155541800,9.807541748046875,-0.0019530039280653,-0.00030637020245194435,-0.0005868356674909592
1783169060165490700,9.81749072265625,-0.0002515111118555069,0.0034958249889314175,-0.0003317049704492092
1783169060175440000,9.82743994140625,-0.0006798636168241501,0.00047638406977057457,0.002260378561913967
1783169060185418800,9.837418701171876,-0.0007608234882354736,-0.0028536326717585325,-0.0015665837563574314
1783169060195368000,9.847367919921876,0.0006532985717058182,0.0005554021336138248,-0.0006466340273618698
1783169060205316900,9.85731689453125,0.0004567578434944153,0.0012773852795362473,0.0008964017033576965
1783169060215264800,9.8672646484375,-0.000752696767449379,-0.0006374018266797066,0.00012113852426409721
1783169060225244700,9.87724462890625,0.00008406862616539001,-0.0008682981133460999,0.00003272155299782753
1783169060235192800,9.88719287109375,0.001591680571436882,-0.0005802982486784458,0.0008908300660550594
1783169060245141800,9.897141845703125,0.000045983120799064636,-0.0008777733892202377,0.0007278444245457649
1783169060255120600,9.90712060546875,-0.0016333330422639847,-0.0013866070657968521,-0.0012616715393960476
1783169060265069800,9.91706982421875,-0.0006583500653505325,0.0019202399998903275,0.0011599408462643623
1783169060275018800,9.927018798828126,-0.0006733406335115433,-0.0008999197743833065,-0.0005529229529201984
1783169060284966700,9.936966552734376,0.000141853466629982,-0.00016355561092495918,0.0005243257619440556
1783169060294946600,9.946946533203125,0.0009124316275119781,-0.0021996248979121447,-0.00005089351907372475
1783169060304894700,9.956894775390625,0.0021990053355693817,0.0008587492629885674,-0.001279675867408514
1783169060314843600,9.96684375,0.002100301906466484,0.0015692375600337982,-0.0013263695873320103
1783169060324792800,9.976792724609375,0.0024113599210977554,-0.0006039016880095005,0.00009336182847619057
1783169060334771700,9.986771728515626,0.002514546737074852,-0.0001674010418355465,0.00031536398455500603
1783169060344721000,9.996720947265626,0.002967018634080887,-0.001081664115190506,0.0003936612047255039
1783169060354669800,10.006669921875,0.0026204977184534073,-0.0013493960723280907,-0.0000392599031329155
1783169060364617700,10.01661767578125,0.000758415088057518,0.0007824646309018135,0.0001468951813876629
1783169060374598000,10.026597900390625,0.00007704086601734161,0.00017373450100421906,-0.0004067039117217064
1783169060384545800,10.0365458984375,0.0008269865065813065,0.000380129087716341,0.0009435187093913555
1783169060394494700,10.04649462890625,-0.00003733113408088684,-0.0005478416569530964,-0.0016677379608154297
1783169060404473900,10.056473876953126,-0.0028056874871253967,-0.0004367874935269356,0.0012138020247220993
1783169060414422800,10.0664228515625,-0.001013152301311493,-0.0008521457202732563,-0.00162582378834486
1783169060424371700,10.076371826171876,-0.0033572670072317123,0.0017689373344182968,0.0013934019953012466
1783169060434319600,10.086319580078126,-0.0010005515068769455,0.0011603464372456074,-0.002875580918043852
1783169060444299800,10.0962998046875,-0.0006111990660429001,0.0010066819377243519,0.002215317450463772
1783169060454247700,10.10624755859375,-0.0008393768221139908,-0.0018533237744122744,-0.0008400953374803066
1783169060464196600,10.116196533203125,0.0006514601409435272,0.0018058596178889275,-0.0006270422600209713
1783169060474145500,10.1261455078125,0.0002981051802635193,-0.0009341873228549957,0.0009475750848650932
1783169060484124700,10.136124755859376,0.00003471970558166504,0.0001310771331191063,0.0012285388074815273
1783169060494073600,10.146073486328126,0.001530870795249939,-0.0010800682939589024,-0.0011808248236775398
1783169060504022800,10.156022705078126,0.00016307085752487183,-0.00046807387843728065,-0.00011769076809287071
1783169060513971000,10.165970947265626,-0.00041310861706733704,-0.0015471810474991798,0.0022170012816786766
1783169060523950800,10.175950927734375,0.001828473061323166,-0.0021527837961912155,-0.0004996894858777523
1783169060533898800,10.185898681640625,0.001806512475013733,0.0007752911187708378,0.00023215124383568764
1783169060543847700,10.19584765625,0.000602230429649353,0.0008653062395751476,-0.0004107360728085041
1783169060553826800,10.205826904296876,0.0018747281283140182,0.000694353599101305,0.0010128826834261417
1783169060563775700,10.215775634765626,-0.0005519445985555649,-0.0001203073188662529,-0.000658783596009016
1783169060573724700,10.225724609375,0.0005217511206865311,-0.0006716102361679077,0.00026943255215883255
1783169060583673600,10.235673583984376,-0.00033658556640148163,0.003633123356848955,-0.001111416146159172
1783169060593652700,10.24565283203125,-0.00009543821215629578,-0.0005303719080984592,0.00033202581107616425
1783169060603600600,10.2556005859375,-0.0019247625023126602,-0.001941048540174961,-0.0014336495660245419
1783169060613549800,10.2655498046875,0.0001426413655281067,-0.00027101580053567886,-0.000387073028832674
1783169060623498800,10.275498779296875,0.0008672866970300674,-0.0004537086933851242,0.0013240077532827854
1783169060633477600,10.2854775390625,0.000053338706493377686,0.0006735515780746937,0.0008545429445803165
1783169060643426600,10.295426513671876,0.00036599300801754,0.00012067938223481178,-0.00014201225712895393
1783169060653375700,10.305375732421876,0.002228856086730957,-0.00014979112893342972,-0.0006747380830347538
1783169060663323600,10.31532373046875,0.00013135001063346863,0.0023043123073875904,-0.0005985717289149761
1783169060673303800,10.3253037109375,-0.00005738064646720886,0.00016313139349222183,0.0001219138503074646
1783169060683252000,10.335251953125,0.000022513791918754578,-0.0018161297775804996,0.0009067477658390999
1783169060693201000,10.345200927734375,0.0011306367814540863,-0.0020076448563486338,0.0031135291792452335
1783169060703179800,10.3551796875,0.0006217062473297119,0.001923979725688696,-0.0027251853607594967
1783169060713128700,10.365128662109376,-0.00006030872464179993,0.0012379377149045467,-0.0006377468816936016
1783169060723078000,10.375077880859376,-0.0009814966470003128,-0.0013463939540088177,0.0006645387038588524
1783169060733026800,10.38502685546875,-0.00016195513308048248,-0.002585100941359997,-0.0007380908355116844
1783169060743005700,10.395005615234375,-0.0008759479969739914,-0.0004969164729118347,-0.0001982678659260273
1783169060752954600,10.40495458984375,-0.00048049911856651306,-0.00020684627816081047,-0.0000333515927195549
1783169060762902800,10.41490283203125,-0.0005057994276285172,0.0005702641792595387,-0.0005476078949868679
1783169060772851700,10.424851806640625,-0.0011433977633714676,0.0001291879452764988,-0.0013313596136868
1783169060782830600,10.43483056640625,-0.00016441941261291504,-0.0019107935950160027,0.0009528337977826595
1783169060792779800,10.44477978515625,0.0001595914363861084,0.0015367846935987473,-0.00029944442212581635
1783169060802728700,10.454728759765626,-0.000011382624506950378,-0.00018281862139701843,-0.0006933258846402168
1783169060812676600,10.464676513671876,0.0006229262799024582,-0.0007514189928770065,0.001890458632260561
1783169060822656500,10.474656494140625,0.000023448839783668518,-0.0005769822746515274,-0.0007444731891155243
1783169060832604700,10.484604736328125,-0.002009207382798195,0.0008013681508600712,-0.0008935690857470036
1783169060842553600,10.4945537109375,-0.0001460593193769455,-0.0006023840978741646,0.0005882135592401028
1783169060852532700,10.50453271484375,-0.00035065971314907074,0.0009512361139059067,-0.0018941941671073437
1783169060862481700,10.514481689453126,-0.00039087235927581787,-0.0014330921694636345,-0.0003516911529004574
1783169060872430600,10.5244306640625,0.0004246942698955536,0.0003184415400028229,-0.0007562399841845036
1783169060882379500,10.534379638671876,0.0004747621715068817,0.0009157885797321796,0.001148186158388853
1783169060892358700,10.544358642578125,0.000003995373845100403,-0.00047990307211875916,-0.0026335730217397213
1783169060902307600,10.5543076171875,-0.0014112088829278946,-0.0007933573797345161,-0.0015547261573374271
1783169060912255500,10.56425537109375,-0.0009003039449453354,0.0018317978829145432,-0.002879758831113577
1783169060922204700,10.57420458984375,0.0028028227388858795,-0.0017855737823992968,0.0006169718690216541
1783169060932183600,10.58418359375,-0.0002810526639223099,-0.0039790328592062,-0.001046961173415184
1783169060942132700,10.5941328125,0.0007807500660419464,0.0019161403179168701,0.0009469473734498024
1783169060952081700,10.60408154296875,0.0006288103759288788,0.0001724320463836193,-0.0009541623294353485
1783169060962029600,10.614029541015626,0.001492740586400032,0.0012345006689429283,-0.0005509601905941963
1783169060972009700,10.624009765625,0.0010224599391222,-0.0011782464571297169,-0.00037472276017069817
1783169060981957600,10.63395751953125,-0.0003972705453634262,-0.0027686862740665674,-0.00020827492699027061
1783169060991906600,10.643906494140625,0.00013915449380874634,0.0004511936567723751,-0.0019328147172927856
1783169061001885700,10.6538857421875,-0.0005364902317523956,0.0019289818592369556,-0.0003503640182316303
1783169061011834600,10.663834716796876,0.00005242973566055298,-0.0013737319968640804,-0.0015874309465289116
1783169061021783600,10.673783447265626,-0.000024536624550819397,-0.002665631240233779,0.0004754532128572464
1783169061031732500,10.683732421875,-0.0016733445227146149,-0.0006619254127144814,-0.0005710823461413383
1783169061041711600,10.693711669921875,0.0007978025823831558,-0.000528234988451004,0.0008995155803859234
1783169061051660500,10.70366064453125,0.0009692907333374023,0.0008775079622864723,-0.00036766519770026207
1783169061061608400,10.7136083984375,0.0008012466132640839,-0.000844758003950119,-0.0005149380303919315
1783169061071557600,10.7235576171875,-0.000005764886736869812,0.0008769347332417965,-0.00047748489305377007
1783169061081536500,10.73353662109375,0.00031541287899017334,0.0016993191093206406,0.0011526360176503658
1783169061091485700,10.743485595703126,0.00042028725147247314,0.000685766339302063,0.001107377465814352
1783169061101434600,10.7534345703125,-0.00022792629897594452,-0.0012016156688332558,-0.0002636178396642208
1783169061111382800,10.7633828125,-0.00005133822560310364,0.00037149805575609207,-0.0007461747154593468
1783169061121362700,10.77336279296875,0.0010858308523893356,-0.0005310471169650555,-0.0001416369341313839
1783169061131310600,10.783310546875,-0.0008012577891349792,-0.0007862490601837635,-0.0004960955120623112
1783169061141259800,10.793259765625,0.00037266500294208527,0.00009712157770991325,0.00012735044583678246
1783169061151238700,10.80323876953125,0.0013377442955970764,-0.0007097315974533558,0.00015653111040592194
1783169061161187600,10.8131875,-0.000772545114159584,-0.001180844847112894,-0.0011153947561979294
1783169061171136500,10.823136474609376,0.0002054218202829361,-0.0010473690927028656,0.0006702085956931114
1783169061181085700,10.833085693359376,0.0007007699459791183,-0.002425022190436721,0.001118951477110386
1783169061191064600,10.843064697265625,-0.0008005723357200623,-0.00042277853935956955,0.00037746457383036613
1783169061201013500,10.853013427734375,-0.00002985261380672455,-0.0016843178309500217,0.0020720339380204678
1783169061210961700,10.862961669921875,-0.00038661621510982513,-0.000749440398067236,0.0005242461338639259
1783169061220910600,10.87291064453125,0.00016066431999206543,-0.00039710430428385735,0.0007847030647099018
1783169061230889500,10.882889404296876,0.00027582235634326935,0.0007899673655629158,-0.0009213089942932129
1783169061240838400,10.89283837890625,-0.0006610769778490067,-0.0012857001274824142,0.0014073587954044342
1783169061250787800,10.902787841796876,-0.0014308709651231766,-0.000980885699391365,-0.002545134164392948
1783169061260766500,10.912766357421875,-0.002580823376774788,-0.0026685309130698442,0.00012388592585921288
1783169061270715600,10.922715576171875,-0.000334128737449646,0.0016264328733086586,-0.0008270638063549995
1783169061280663800,10.932663818359375,-0.001161837950348854,0.0019641215912997723,-0.0019091060385107994
1783169061290612700,10.94261279296875,-0.0019613876938819885,0.001773838885128498,-0.0013300920836627483
1783169061300591600,10.952591552734376,0.00036221928894519806,-0.0017995904199779034,-0.0005660313181579113
1783169061310540800,10.962540771484376,0.0005204509943723679,0.0005280310288071632,-0.002884187735617161
1783169061320489700,10.97248974609375,-0.0007365625351667404,-0.0014136796817183495,0.00010148249566555023
1783169061330438700,10.982438720703126,0.000046137720346450806,0.0017279735766351223,0.00036366982385516167
1783169061340417500,10.99241748046875,0.00232713483273983,-0.0003125406801700592,-0.00002967892214655876
1783169061350366700,11.00236669921875,0.0002396032214164734,0.00035877060145139694,-0.000006671063601970673
1783169061360314600,11.012314697265625,0.00004492513835430145,-0.00044257426634430885,0.0004652412608265877
1783169061370263600,11.022263671875,-0.001031016930937767,-0.001396198756992817,0.0006056074053049088
1783169061380242700,11.03224267578125,-0.0009324792772531509,0.0001681419089436531,-0.0013440926559269428
1783169061390191600,11.042191650390626,-0.0003722216933965683,0.0004183952696621418,-0.000056910794228315353
1783169061400140500,11.052140625,0.0018403325229883194,-0.0022327816113829613,-0.0006515947170555592
1783169061410119400,11.062119384765625,0.0010496918112039566,-0.00183972273953259,-0.0016583851538598537
1783169061420068600,11.072068603515625,0.0010590143501758575,-0.001929204910993576,-0.0004389234818518162
1783169061430016500,11.0820166015625,0.0010432861745357513,0.000989269930869341,0.00015777722001075745
1783169061439965700,11.091965576171875,0.000339411199092865,-0.0000879787839949131,-0.001566353254020214
1783169061449944800,11.10194482421875,-0.0007237773388624191,0.0022017154842615128,-0.00011336943134665489
1783169061459893800,11.111893798828126,-0.0016950331628322601,-0.00012295786291360855,-0.00027475692331790924
1783169061469842700,11.1218427734375,-0.0019808970391750336,0.002211411017924547,0.0022319876588881016
1783169061479791600,11.13179150390625,0.00007532909512519836,0.002749902196228504,-0.0009542182087898254
1783169061489770800,11.141770751953125,0.0007133632898330688,-0.0006302287802100182,0.001039009541273117
1783169061499719700,11.1517197265625,-0.00021208450198173523,-0.002243039198219776,-0.0005202717147767544
1783169061509667600,11.16166748046875,0.0015826430171728134,-0.0015566120855510235,0.0002742614597082138
1783169061519616500,11.171616455078125,0.0008872915059328079,-0.0011640624143183231,-0.0003878003917634487
1783169061529595600,11.181595703125,0.00048413313925266266,-0.0006926609203219414,0.002257172018289566
1783169061539544600,11.191544677734376,-0.00047700293362140656,-0.0003943867050111294,-0.001678713597357273
1783169061549493500,11.201493408203126,-0.0009028036147356033,0.0014036893844604492,0.0005561127327382565
1783169061559472600,11.21147265625,0.0009150691330432892,0.0021781367249786854,0.0001758132129907608
1783169061569421600,11.221421630859375,-0.00008831731975078583,0.0008215303532779217,0.0009048189967870712
1783169061579370800,11.231370849609375,-0.0005365274846553802,-0.0003878111019730568,0.00029921624809503555
1783169061589318400,11.241318359375,0.0014713089913129807,0.0003124503418803215,-0.0002511916682124138
1783169061599298800,11.251298828125,0.00027395226061344147,-0.0015525612980127335,0.0015192781575024128
1783169061609246700,11.261246826171876,0.0012533962726593018,-0.0027332587633281946,0.0003194371238350868
1783169061619195600,11.271195556640626,-0.000837717205286026,-0.0010354933328926563,0.0004403446801006794
1783169061629144600,11.28114453125,-0.0008378922939300537,-0.000568680465221405,0.000995970331132412
1783169061639123700,11.291123779296875,0.00017677247524261475,-0.0015431307256221771,-0.001098073087632656
1783169061649072600,11.30107275390625,0.00009418651461601257,0.0006265989504754543,-0.0007262649014592171
1783169061659020500,11.3110205078125,0.0017157848924398422,0.0007592244073748589,-0.0013885926455259323
1783169061668969700,11.3209697265625,-0.0006997734308242798,0.00023674266412854195,0.0003316681832075119
1783169061678948600,11.330948486328126,0.00098414346575737,-0.0003805779851973057,0.002131165936589241
1783169061688897500,11.3408974609375,-0.0017317496240139008,-0.00021144282072782516,-0.0013633361086249352
1783169061698846500,11.350846435546876,-0.0014720913022756577,-0.00041916919872164726,0.001191167626529932
1783169061708825600,11.36082568359375,-0.0010492205619812012,-0.0005547432228922844,0.00004977639764547348
1783169061718774500,11.3707744140625,-0.000913664698600769,0.0010519418865442276,-0.0005188081413507462
1783169061728723500,11.380723388671875,-0.0005037840455770493,0.0009652753360569477,-0.000600187573581934
1783169061738671600,11.390671630859375,0.000668007880449295,0.0004909662529826164,0.002115704119205475
1783169061748651500,11.400651611328126,0.0002794172614812851,-0.000002779066562652588,0.0015972121618688107
1783169061758599400,11.410599365234376,0.0022411011159420013,-0.00010504433885216713,0.00006003584712743759
1783169061768548600,11.420548583984376,0.0006859172135591507,0.0003878488205373287,0.0009833513759076595
1783169061778497800,11.430497802734376,0.0000954940915107727,-0.001490478403866291,0.0007367422804236412
1783169061788476700,11.4404765625,-0.000627642497420311,-0.0006475741975009441,0.0005494803190231323
1783169061798425600,11.450425537109375,0.001922333613038063,0.0010091783478856087,0.00017077894881367683
1783169061808373800,11.460373779296875,0.00109955295920372,-0.0009613153524696827,0.00040194718167185783
1783169061818322700,11.47032275390625,-0.0008517466485500336,-0.00014505628496408463,-0.0005306913517415524
1783169061828334600,11.48033447265625,0.0006521586328744888,-0.00010097865015268326,-0.002409327309578657
1783169061838283500,11.490283447265625,0.0009088870137929916,0.0009222081862390041,-0.0015334137715399265
1783169061848232400,11.500232421875,0.0008978862315416336,-0.002799894195050001,0.0010312884114682674
1783169061858211600,11.510211669921874,0.00039641372859477997,0.00029043806716799736,0.00019665388390421867
1783169061868160500,11.520160400390624,0.001920752227306366,0.0015018670819699764,-0.0005703582428395748
1783169061878109700,11.530109619140624,-0.0016817059367895126,0.0001188875176012516,-0.00048220762982964516
1783169061888057300,11.540057373046874,-0.0008144788444042206,-0.00010132137686014175,0.00023473333567380905
1783169061898037800,11.550037841796875,0.0001272149384021759,0.0016012373380362988,-0.0027219075709581375
1783169061907985700,11.559985595703125,-0.00046866200864315033,-0.0003526718355715275,-0.0008209766820073128
1783169061917934600,11.5699345703125,-0.0006636064499616623,-0.0003140559419989586,0.0022200867533683777
1783169061927883500,11.579883544921875,-0.0013117417693138123,0.0008193841204047203,0.0011987704783678055
1783169061937862700,11.589862548828124,-0.0016118790954351425,-0.00027171289548277855,0.0012435116805136204
1783169061947811600,11.5998115234375,0.0007949844002723694,-0.001255149021744728,0.001666226889938116
1783169061957759700,11.609759765625,0.0007776729762554169,0.001367798075079918,0.0009157480672001839
1783169061967708700,11.619708740234374,0.0018593557178974152,0.0004537864588201046,0.0018050605431199074
1783169061977687600,11.6296875,-0.0017958339303731918,-0.0007225321605801582,-0.0027803704142570496
1783169061987636500,11.639636474609375,0.0017534904181957245,-0.0008499985560774803,0.0010679676197469234
1783169061997585400,11.64958544921875,0.0003404170274734497,-0.002782654482871294,-0.0003365837037563324
1783169062007564500,11.659564453125,0.00040617212653160095,-0.0001591220498085022,-0.000951266847550869
1783169062017513500,11.669513427734374,0.00009591318666934967,-0.0006816345266997814,0.0008919066749513149
1783169062027462400,11.67946240234375,0.0003287568688392639,-0.000444621779024601,-0.001458998303860426
1783169062037410600,11.68941064453125,0.0006693750619888306,0.0003993343561887741,-0.0001093083992600441
1783169062047390500,11.699390380859375,-0.0005108155310153961,0.001137828454375267,-0.0016523487865924835
1783169062057338400,11.70933837890625,-0.0006727352738380432,0.0008552670478820801,-0.0006520655006170273
1783169062067287800,11.719287841796875,-0.0009294897317886353,0.00006602471694350243,0.00040245335549116135
