time,seconds_elapsed,z,y,x
1783153245051529000,0.189529052734375,-0.008701324462890625,0.00016373395919799805,0.008737310767173767
1783153245061240300,0.199240234375,-0.0255279541015625,-0.012910649180412292,0.008147090673446655
1783153245070952000,0.208951904296875,-0.023568153381347656,-0.00976032018661499,-0.019076764583587646
1783153245080663300,0.218663330078125,-0.008545875549316406,-0.015622913837432861,-0.0022308677434921265
1783153245090375000,0.228375,-0.03479480743408203,0.007708847522735596,0.00002039968967437744
1783153245100086300,0.238086181640625,-0.005687713623046875,0.01839582622051239,0.004483640193939209
1783153245109797600,0.247797607421875,-0.025641441345214844,0.010227024555206299,0.001940891146659851
1783153245119509200,0.25750927734375,-0.019704818725585938,-0.020066112279891968,-0.0073448121547698975
1783153245129220900,0.267220947265625,-0.014132499694824219,-0.0211125910282135,0.020069748163223267
1783153245138932200,0.27693212890625,-0.008873939514160156,0.020996898412704468,0.03046637773513794
1783153245148643800,0.286643798828125,-0.006165504455566406,0.006481483578681946,0.00402340292930603
1783153245158355200,0.296355224609375,-0.005873680114746094,0.01772710680961609,0.011059865355491638
1783153245168066800,0.30606689453125,-0.026226043701171875,0.010254845023155212,-0.0009517073631286621
1783153245177778200,0.315778076171875,0.002399444580078125,-0.006171628832817078,-0.02388419210910797
1783153245187489800,0.32548974609375,-0.025272369384765625,0.01027950644493103,0.016171306371688843
1783153245197201200,0.335201171875,0.005618095397949219,-0.0019064396619796753,-0.014456674456596375
1783153245206912800,0.344912841796875,-0.008421897888183594,-0.03878048062324524,-0.020747750997543335
1783153245216624000,0.3546240234375,-0.035831451416015625,0.010976612567901611,0.032894641160964966
1783153245226335700,0.364335693359375,0.00007915496826171875,-0.0009007453918457031,-0.01212911307811737
1783153245236047000,0.374047119140625,-0.004553794860839844,-0.012438192963600159,-0.011808857321739197
1783153245245758500,0.383758544921875,-0.006725311279296875,0.011130094528198242,0.009344935417175293
1783153245255470000,0.393469970703125,-0.013467788696289062,-0.0027877837419509888,-0.0003674924373626709
1783153245265181700,0.403181640625,-0.0014619827270507812,-0.005135297775268555,-0.021502867341041565
1783153245274893000,0.41289306640625,-0.015361785888671875,-0.01903975009918213,-0.006895691156387329
1783153245284604700,0.422604736328125,-0.01958179473876953,-0.016279250383377075,-0.002188354730606079
1783153245294316000,0.43231591796875,0.0019006729125976562,-0.01837867498397827,-0.02094489336013794
1783153245304027600,0.442027587890625,-0.02843475341796875,-0.004074513912200928,0.00999140739440918
1783153245313739000,0.451739013671875,-0.013692855834960938,0.010189265012741089,0.005155771970748901
1783153245323450600,0.46145068359375,0.03798103332519531,-0.022781267762184143,-0.05076363682746887
1783153245333162000,0.471161865234375,-0.01899242401123047,-0.0035934150218963623,0.029844477772712708
1783153245342873600,0.48087353515625,-0.02320384979248047,0.0033334195613861084,0.017468199133872986
1783153245352585000,0.4905849609375,0.0007171630859375,-0.013216763734817505,-0.02270500361919403
1783153245362296600,0.500296630859375,-0.020351409912109375,0.017378881573677063,0.012758821249008179
1783153245372008000,0.510008056640625,0.015207290649414062,-0.01805327832698822,-0.003934383392333984
1783153245381719600,0.519719482421875,-0.015562057495117188,-0.012964785099029541,0.010226055979728699
1783153245391431000,0.529430908203125,-0.019903182983398438,0.008452311158180237,0.017119795083999634
1783153245401142500,0.539142578125,-0.0030794143676757812,-0.010531514883041382,-0.0254441499710083
1783153245410854000,0.54885400390625,-0.0030078887939453125,-0.0007058084011077881,-0.027169615030288696
1783153245420565500,0.5585654296875,-0.009981155395507812,-0.007668852806091309,0.0038474947214126587
1783153245430276900,0.56827685546875,-0.009782791137695312,-0.009861931204795837,0.0225161612033844
1783153245439988500,0.577988525390625,-0.011934280395507812,-0.02375030517578125,-0.00829249620437622
1783153245449699800,0.587699951171875,-0.0046596527099609375,-0.016249626874923706,-0.024536430835723877
1783153245459411500,0.597411376953125,-0.030411720275878906,0.014648497104644775,0.01342935860157013
1783153245469122800,0.607122802734375,-0.006348609924316406,0.028537064790725708,-0.010287970304489136
1783153245478834400,0.61683447265625,-0.0015382766723632812,-0.009646907448768616,0.003805413842201233
1783153245488545800,0.6265458984375,0.0008440017700195312,-0.007236510515213013,-0.007758721709251404
1783153245498257400,0.63625732421875,0.012589454650878906,-0.030572116374969482,-0.014761656522750854
1783153245507969000,0.645968994140625,-0.020565032958984375,0.02188567817211151,0.03252774477005005
1783153245517680400,0.655680419921875,-0.01551055908203125,0.0027979761362075806,0.0012445449829101562
1783153245527391700,0.665391845703125,0.0012235641479492188,-0.0020131468772888184,-0.010630026459693909
1783153245537103400,0.675103271484375,0.0012054443359375,0.014558270573616028,-0.012775316834449768
1783153245546815000,0.68481494140625,-0.0082244873046875,-0.013932079076766968,0.02536429464817047
1783153245556526300,0.6945263671875,-0.008077621459960938,0.014724969863891602,0.020435407757759094
1783153245566238000,0.704238037109375,0.0038242340087890625,0.009597629308700562,-0.017537951469421387
1783153245575949300,0.71394921875,-0.010357856750488281,0.0023276805877685547,-0.035826340317726135
1783153245585661000,0.723660888671875,-0.019596099853515625,-0.009248882532119751,0.037837207317352295
1783153245595372300,0.733372314453125,-0.016905784606933594,-0.0349324494600296,0.006920143961906433
1783153245605084000,0.743083984375,-0.007205963134765625,0.005733951926231384,0.004421040415763855
1783153245614795300,0.752795166015625,0.007040977478027344,0.010409608483314514,-0.016812682151794434
1783153245624507000,0.7625068359375,-0.007205963134765625,0.002831071615219116,0.00009319186210632324
1783153245634218200,0.77221826171875,-0.03063488006591797,0.007547855377197266,0.02567853033542633
1783153245643929900,0.781929931640625,-0.00186920166015625,-0.03954759240150452,-0.019388854503631592
1783153245653641200,0.79164111328125,-0.006550788879394531,-0.005925595760345459,0.0019793063402175903
1783153245663352800,0.801352783203125,-0.018215179443359375,0.01295211911201477,0.008982032537460327
1783153245673064200,0.811064208984375,-0.006137847900390625,0.005732119083404541,0.011218249797821045
1783153245682775800,0.82077587890625,-0.015440940856933594,0.008279770612716675,0.01594187319278717
1783153245692487200,0.830487060546875,-0.0010595321655273438,0.012851357460021973,-0.010302826762199402
1783153245702198800,0.84019873046875,0.0036706924438476562,-0.006082117557525635,-0.007686585187911987
1783153245711910100,0.84991015625,-0.019928932189941406,-0.0036855190992355347,0.013835504651069641
1783153245721621800,0.859621826171875,-0.010176658630371094,0.001029685139656067,-0.0026722997426986694
1783153245731333400,0.86933349609375,0.0017633438110351562,0.0010724514722824097,-0.002769172191619873
1783153245741044700,0.879044677734375,-0.005331993103027344,-0.0013542622327804565,-0.007515549659729004
1783153245750756400,0.88875634765625,-0.024077415466308594,0.010562270879745483,0.013650745153427124
1783153245760467700,0.8984677734375,-0.011904716491699219,-0.006089046597480774,-0.005381286144256592
1783153245770179300,0.908179443359375,0.023611068725585938,-0.010867983102798462,-0.019097432494163513
1783153245779890700,0.917890625,-0.005031585693359375,0.015210539102554321,0.01191440224647522
1783153245789602300,0.927602294921875,-0.012007713317871094,-0.0015182346105575562,-0.011682569980621338
1783153245799313700,0.937313720703125,-0.011797904968261719,-0.0272161066532135,-0.0018675923347473145
1783153245809025300,0.947025390625,-0.018662452697753906,0.01332022249698639,0.019323110580444336
1783153245818736600,0.956736572265625,0.009905815124511719,-0.01020917296409607,-0.02570095658302307
1783153245828448300,0.9664482421875,-0.013796806335449219,-0.0029135942459106445,0.010182544589042664
1783153245838159600,0.97615966796875,-0.022986412048339844,0.025267645716667175,0.024116501212120056
1783153245847871200,0.985871337890625,0.0032930374145507812,0.003718659281730652,0.011916697025299072
1783153245857582600,0.99558251953125,0.010301589965820312,0.008369207382202148,-0.004732236266136169
1783153245867294200,1.005294189453125,-0.015773773193359375,0.005875259637832642,-0.002552419900894165
1783153245877005800,1.015005859375,-0.022574424743652344,0.010431140661239624,0.016296833753585815
1783153245886717200,1.02471728515625,-0.0033636093139648438,-0.013337850570678711,-0.021555617451667786
1783153245896428800,1.0344287109375,0.0014047622680664062,-0.01070144772529602,0.00007905066013336182
1783153245906140200,1.04414013671875,-0.00803375244140625,-0.005926534533500671,0.02617602050304413
1783153245915851800,1.053851806640625,-0.007904052734375,-0.008292362093925476,0.002169564366340637
1783153245925563100,1.063563232421875,-0.0054187774658203125,0.027215808629989624,0.011411488056182861
1783153245935274800,1.073274658203125,-0.0006227493286132812,-0.006140977144241333,-0.010103851556777954
1783153245944986000,1.082986083984375,0.013516426086425781,-0.022343620657920837,-0.005253911018371582
1783153245954697700,1.09269775390625,-0.02201366424560547,0.006510794162750244,0.025525838136672974
1783153245964409000,1.1024091796875,-0.0028228759765625,-0.010188966989517212,-0.010468438267707825
1783153245974120700,1.11212060546875,0.006638526916503906,-0.005255192518234253,-0.015139713883399963
1783153245983832000,1.12183203125,-0.005238533020019531,0.018431365489959717,0.001682281494140625
1783153245993543700,1.131543701171875,-0.009859085083007812,-0.0029464513063430786,0.008689969778060913
1783153246003255300,1.14125537109375,-0.014405250549316406,0.0018093734979629517,0.006110832095146179
1783153246012966700,1.150966552734375,0.0023136138916015625,-0.005229279398918152,0.0035187602043151855
1783153246022678300,1.16067822265625,0.004628181457519531,0.020700886845588684,-0.017698615789413452
1783153246032389600,1.1703896484375,-0.011926651000976562,0.003992184996604919,0.020237982273101807
1783153246042101200,1.180101318359375,-0.014086723327636719,-0.0032502412796020508,0.0010415464639663696
1783153246051812600,1.1898125,-0.011498451232910156,-0.007841706275939941,0.017416775226593018
1783153246061524200,1.199524169921875,0.009873390197753906,-0.0008160769939422607,-0.027745917439460754
1783153246071235600,1.209235595703125,0.0002994537353515625,-0.002980828285217285,0.0081157386302948
1783153246080947200,1.218947265625,-0.02559375762939453,0.016079694032669067,0.008122652769088745
1783153246090658800,1.228658935546875,0.014862060546875,0.011107414960861206,-0.0058226436376571655
1783153246100370200,1.2383701171875,-0.004215240478515625,0.0014538019895553589,0.003833368420600891
1783153246110081500,1.24808154296875,-0.008847236633300781,-0.014935582876205444,0.003974258899688721
1783153246119793200,1.257793212890625,-0.0016355514526367188,-0.0005073696374893188,0.006240710616111755
1783153246129504800,1.2675048828125,-0.011014938354492188,0.030338719487190247,0.011045843362808228
1783153246139216100,1.277216064453125,-0.003772735595703125,-0.007948815822601318,-0.019824251532554626
1783153246148927700,1.286927734375,-0.013127326965332031,-0.0006967484951019287,0.004023909568786621
1783153246158639000,1.29663916015625,-0.012907981872558594,0.022916719317436218,0.008638367056846619
1783153246168350700,1.306350830078125,-0.017394065856933594,-0.00801423192024231,-0.00542469322681427
1783153246178062000,1.31606201171875,0.00408172607421875,-0.012584954500198364,-0.005419716238975525
1783153246187773700,1.325773681640625,-0.0006971359252929688,0.0017482936382293701,-0.0030553042888641357
1783153246197485000,1.335485107421875,-0.012457847595214844,0.0016087740659713745,0.018269672989845276
1783153246207196700,1.34519677734375,-0.009902000427246094,-0.01965750753879547,0.0012845546007156372
1783153246216908300,1.354908203125,-0.00032138824462890625,-0.005199164152145386,0.0011763572692871094
1783153246226619600,1.36461962890625,-0.005023956298828125,-0.0002898871898651123,-0.0012216120958328247
1783153246236331300,1.374331298828125,-0.0002288818359375,0.006951883435249329,-0.0012853443622589111
1783153246246042600,1.384042724609375,-0.016706466674804688,0.02337382733821869,0.005658656358718872
1783153246255754200,1.393754150390625,-0.01642322540283203,-0.007445961236953735,0.0008863061666488647
1783153246265465600,1.403465576171875,0.01681041717529297,-0.011968925595283508,-0.02264140546321869
1783153246275177200,1.41317724609375,-0.007006645202636719,-0.0021812021732330322,0.020144551992416382
1783153246284888600,1.422888671875,-0.013942718505859375,0.009803369641304016,0.031779155135154724
1783153246294600200,1.43260009765625,-0.00429534912109375,-0.006891116499900818,-0.011098399758338928
1783153246304311600,1.4423115234375,0.005190849304199219,0.0025888383388519287,-0.013354390859603882
1783153246314023200,1.452023193359375,-0.006664276123046875,-0.0044541507959365845,-0.0036301463842391968
1783153246323734500,1.461734619140625,-0.020679473876953125,-0.016265615820884705,-0.005890786647796631
1783153246333446100,1.471446044921875,-0.015630722045898438,0.00272291898727417,-0.005872681736946106
1783153246343157800,1.48115771484375,-0.0012388229370117188,-0.0020311176776885986,0.010909289121627808
1783153246352869000,1.490869140625,0.0011453628540039062,0.0003581196069717407,-0.010085269808769226
1783153246362580700,1.500580810546875,-0.003582000732421875,-0.0019407272338867188,0.004179805517196655
1783153246372292000,1.5102919921875,-0.01999378204345703,0.002912774682044983,0.004316210746765137
1783153246382003700,1.520003662109375,0.010937690734863281,0.0003938823938369751,-0.01708078384399414
1783153246391715000,1.529715087890625,0.010753631591796875,0.012102276086807251,-0.009759068489074707
1783153246401426700,1.5394267578125,-0.017671585083007812,0.00483916699886322,0.01880010962486267
1783153246411138000,1.549137939453125,-0.0032444000244140625,0.011878088116645813,-0.002439066767692566
1783153246420849700,1.558849609375,0.003871917724609375,-0.016623377799987793,0.018818378448486328
1783153246430561000,1.56856103515625,-0.015023231506347656,-0.00933830440044403,-0.009600833058357239
1783153246440272600,1.578272705078125,-0.017128944396972656,0.00023822486400604248,-0.01423463225364685
1783153246449984300,1.587984375,-0.0097808837890625,0.011834800243377686,0.01445634663105011
1783153246459695600,1.597695556640625,0.0021562576293945312,0.018699869513511658,0.004888862371444702
1783153246469407200,1.6074072265625,0.0021181106567382812,-0.005269914865493774,-0.028117015957832336
1783153246479118600,1.61711865234375,-0.021450042724609375,-0.01442311704158783,-0.0039057284593582153
1783153246488830200,1.626830322265625,-0.009324073791503906,0.0021834373474121094,-0.003808945417404175
1783153246498541600,1.63654150390625,-0.023291587829589844,-0.004852756857872009,0.003287583589553833
1783153246508253200,1.646253173828125,-0.004073143005371094,-0.021194323897361755,-0.001614212989807129
1783153246517964800,1.65596484375,-0.006363868713378906,0.02147991955280304,0.007688194513320923
1783153246527676200,1.66567626953125,0.00081634521484375,-0.004371076822280884,-0.0017691850662231445
1783153246537387800,1.6753876953125,-0.010966300964355469,0.016782134771347046,-0.00860433280467987
1783153246547099100,1.68509912109375,-0.013140678405761719,0.03304024040699005,0.012529686093330383
1783153246556810800,1.694810791015625,0.008267402648925781,0.018480002880096436,-0.01365804672241211
1783153246566522000,1.704522216796875,-0.02718067169189453,-0.017023861408233643,0.003079324960708618
1783153246576233700,1.714233642578125,-0.014957427978515625,-0.007433652877807617,-0.0016513913869857788
1783153246585945000,1.723945068359375,0.006478309631347656,-0.019139647483825684,-0.0039436668157577515
1783153246595656700,1.73365673828125,-0.0030460357666015625,0.0022509992122650146,0.022167012095451355
1783153246605368000,1.7433681640625,-0.017116546630859375,0.007096156477928162,0.009999707341194153
1783153246615079700,1.75307958984375,-0.012111663818359375,0.00003236532211303711,0.005441024899482727
1783153246624791300,1.762791259765625,-0.0072002410888671875,0.011862695217132568,-0.006390288472175598
1783153246634502700,1.772502685546875,0.007049560546875,0.013966068625450134,-0.010791540145874023
1783153246644214300,1.78221435546875,-0.00013637542724609375,0.0018476396799087524,0.019911497831344604
1783153246653925600,1.791925537109375,-0.009543418884277344,0.004342406988143921,0.0008363127708435059
1783153246663637200,1.80163720703125,-0.011744499206542969,-0.0004386305809020996,0.0029235482215881348
1783153246673348600,1.8113486328125,0.016701698303222656,0.0066911280155181885,-0.006568819284439087
1783153246683060200,1.821060302734375,0.009366989135742188,-0.00025150179862976074,-0.004131987690925598
1783153246692771600,1.830771484375,-0.014323234558105469,0.025823146104812622,0.0031442344188690186
1783153246702483200,1.840483154296875,0.011811256408691406,0.01115727424621582,0.014949038624763489
1783153246712194600,1.850194580078125,0.0022096633911132812,0.001670151948928833,-0.02500373125076294
1783153246721906200,1.85990625,-0.009602546691894531,-0.014890164136886597,0.0224115252494812
1783153246731617800,1.86961767578125,-0.004734992980957031,-0.002866894006729126,-0.0015321820974349976
1783153246741329200,1.8793291015625,0.00005340576171875,-0.00506061315536499,-0.0062378644943237305
1783153246751040800,1.889040771484375,-0.016427040100097656,0.009437590837478638,0.012386798858642578
1783153246760752000,1.898752197265625,0.005043983459472656,0.00004357099533081055,-0.004102423787117004
1783153246770463700,1.908463623046875,-0.0044498443603515625,0.007282614707946777,-0.0062461793422698975
1783153246780175000,1.918175048828125,0.005045890808105469,-0.006843969225883484,0.010422170162200928
1783153246789886700,1.92788671875,-0.02092742919921875,-0.016031086444854736,0.015102952718734741
1783153246799598000,1.93759814453125,0.010026931762695312,0.017248883843421936,-0.0040038228034973145
1783153246809309700,1.947309814453125,-0.008975982666015625,-0.013583317399024963,0.007692620158195496
1783153246819021300,1.957021240234375,-0.008823394775390625,0.007770508527755737,0.0006519407033920288
1783153246828732700,1.966732666015625,0.019573211669921875,-0.004187434911727905,-0.01580527424812317
1783153246838444300,1.9764443359375,-0.013707160949707031,0.0005933940410614014,0.022270038723945618
1783153246848155600,1.98615576171875,-0.0040721893310546875,0.002710103988647461,0.0005711764097213745
1783153246857867300,1.9958671875,0.0054168701171875,0.012140125036239624,-0.011120453476905823
1783153246867578600,2.00557861328125,-0.006439208984375,0.0145263671875,0.0032177120447158813
1783153246877290200,2.015290283203125,-0.0063304901123046875,-0.013904809951782227,-0.020406067371368408
1783153246887001600,2.025001708984375,0.005547523498535156,-0.009077847003936768,0.0012678951025009155
1783153246896713200,2.034713134765625,-0.0039615631103515625,0.0075525641441345215,0.010696575045585632
1783153246906424800,2.0444248046875,0.0008153915405273438,0.014547690749168396,0.0035446137189865112
1783153246916136200,2.05413623046875,0.00786590576171875,0.016604885458946228,-0.005843698978424072
1783153246925847800,2.063847900390625,-0.0063915252685546875,0.018742188811302185,-0.0011219680309295654
1783153246935559200,2.07355908203125,-0.0015916824340820312,-0.009985119104385376,0.010236471891403198
1783153246945270800,2.083270751953125,-0.0015630722045898438,-0.021526917815208435,-0.011094242334365845
1783153246954982100,2.092982177734375,0.007875442504882812,-0.011920273303985596,0.017314180731773376
1783153246964693800,2.10269384765625,-0.013446807861328125,0.014064282178878784,0.00993482768535614
1783153246974405400,2.1124052734375,-0.006160736083984375,-0.007299497723579407,-0.004381433129310608
1783153246984116700,2.12211669921875,-0.0013380050659179688,0.009365782141685486,-0.0015847086906433105
1783153246993828000,2.131828125,0.00104522705078125,0.016446515917778015,0.01742003858089447
1783153247003539700,2.141539794921875,-0.001323699951171875,-0.0001283586025238037,0.005270645022392273
1783153247013251300,2.151251220703125,-0.006014823913574219,0.013995826244354248,-0.0020728856325149536
1783153247022962700,2.160962646484375,0.005855560302734375,-0.0004142671823501587,0.00264054536819458
1783153247032674300,2.17067431640625,-0.015425682067871094,-0.02848494052886963,0.009690806269645691
1783153247042385700,2.1803857421875,-0.010449409484863281,0.005118474364280701,0.005084037780761719
1783153247052097300,2.19009716796875,0.010916709899902344,-0.013687744736671448,-0.00909152626991272
1783153247061808600,2.19980859375,-0.0010404586791992188,0.005317986011505127,0.0027482807636260986
1783153247071520300,2.209520263671875,-0.008084297180175781,0.010057702660560608,-0.006801053881645203
1783153247081232000,2.21923193359375,0.0014715194702148438,0.009947016835212708,-0.0018318891525268555
1783153247090943200,2.228943115234375,-0.0009059906005859375,-0.013818219304084778,0.002997279167175293
1783153247100654800,2.23865478515625,0.001453399658203125,-0.011289700865745544,0.009698420763015747
1783153247110366200,2.2483662109375,-0.007988929748535156,-0.003980532288551331,0.007042676210403442
1783153247120077800,2.258077880859375,-0.012567520141601562,-0.008734315633773804,-0.009580954909324646
1783153247129789200,2.2677890625,0.008832931518554688,-0.0012932568788528442,0.02580629289150238
1783153247139500800,2.277500732421875,0.0016202926635742188,0.000967860221862793,0.0018672347068786621
1783153247149212200,2.287212158203125,-0.000759124755859375,-0.0083523690700531,-0.0029523074626922607
1783153247158923800,2.296923828125,-0.005458831787109375,0.010624513030052185,0.01814207434654236
1783153247168635400,2.306635498046875,0.013467788696289062,0.01280282437801361,0.010808795690536499
1783153247178346800,2.3163466796875,0.0014801025390625,-0.0035455673933029175,-0.015235841274261475
1783153247188058400,2.326058349609375,-0.017381668090820312,-0.02002909779548645,0.01313529908657074
1783153247197769700,2.335769775390625,-0.005322456359863281,-0.007981717586517334,0.008240997791290283
1783153247207481300,2.3454814453125,0.0065402984619140625,0.010990425944328308,-0.0035825222730636597
1783153247217192700,2.355192626953125,-0.014759063720703125,0.02734212577342987,-0.0036600232124328613
1783153247226904300,2.364904296875,0.004324913024902344,-0.008425354957580566,0.013026446104049683
1783153247236616000,2.374615966796875,-0.012220382690429688,0.01072143018245697,-0.001226961612701416
1783153247246327300,2.384327392578125,0.016239166259765625,-0.01512204110622406,-0.0035303980112075806
1783153247256039000,2.394038818359375,-0.009928703308105469,0.006377622485160828,0.008215397596359253
1783153247265750300,2.403750244140625,0.009069442749023438,-0.0006800144910812378,-0.008536770939826965
1783153247275462000,2.4134619140625,0.001850128173828125,-0.00790165364742279,0.012767776846885681
1783153247285173200,2.42317333984375,-0.0028934478759765625,0.013304635882377625,0.010118052363395691
1783153247294884900,2.432884765625,0.01598644256591797,-0.010455012321472168,-0.006615340709686279
1783153247304596200,2.44259619140625,0.003948211669921875,0.003958567976951599,-0.009055033326148987
1783153247314307800,2.452307861328125,-0.010243415832519531,0.010837674140930176,0.00531400740146637
1783153247324019200,2.462019287109375,0.013459205627441406,-0.00134296715259552,-0.01144970953464508
1783153247333730800,2.471730712890625,-0.007952690124511719,0.024466723203659058,0.010070934891700745
1783153247343442400,2.4814423828125,-0.0031080245971679688,-0.0018960833549499512,-0.011078760027885437
1783153247353153800,2.49115380859375,0.0087127685546875,-0.01845414936542511,-0.010865122079849243
1783153247362865400,2.500865478515625,-0.0008401870727539062,0.01710893213748932,0.0085829496383667
1783153247372576800,2.51057666015625,-0.0008172988891601562,0.007749930024147034,0.003764525055885315
1783153247382288400,2.520288330078125,0.0015535354614257812,0.010090559720993042,-0.012745901942253113
1783153247392000000,2.53,-0.007892608642578125,0.0028052330017089844,-0.007909148931503296
1783153247401711400,2.53971142578125,-0.007756233215332031,-0.00895412266254425,0.011202320456504822
1783153247411423000,2.549423095703125,0.004145622253417969,-0.006563887000083923,-0.0076718926429748535
1783153247421134300,2.55913427734375,0.008780479431152344,0.0006092935800552368,-0.021809086203575134
1783153247430846000,2.568845947265625,-0.007846832275390625,0.010071426630020142,0.004370525479316711
1783153247440557300,2.578557373046875,0.0017042160034179688,-0.00881299376487732,-0.0003803521394729614
1783153247450269000,2.58826904296875,0.004031181335449219,-0.0013720840215682983,0.004135921597480774
1783153247459980300,2.597980224609375,-0.005448341369628906,-0.0037036538124084473,0.004271596670150757
1783153247469692000,2.60769189453125,-0.005351066589355469,0.012950152158737183,-0.00035919249057769775
1783153247479403300,2.6174033203125,0.004153251647949219,0.003488868474960327,-0.014731347560882568
1783153247489115000,2.627114990234375,-0.024173736572265625,0.003484770655632019,0.006394520401954651
1783153247498826500,2.636826416015625,0.0068359375,-0.020058348774909973,-0.010215610265731812
1783153247508537900,2.646537841796875,-0.005051612854003906,0.008584722876548767,-0.0007684379816055298
1783153247518249500,2.65624951171875,-0.007323265075683594,0.0013230443000793457,-0.003135368227958679
1783153247527960800,2.6659609375,-0.0048465728759765625,0.003716498613357544,-0.003111317753791809
1783153247537672400,2.67567236328125,0.007006645202636719,0.003600001335144043,-0.007680326700210571
1783153247547383800,2.6853837890625,0.011597633361816406,-0.017590820789337158,-0.012342065572738647
1783153247557095400,2.695095458984375,-0.014495849609375,-0.015058085322380066,0.01138143241405487
1783153247566807000,2.70480712890625,-0.007182121276855469,-0.012108579277992249,-0.007610157132148743
1783153247576518400,2.714518310546875,-0.007061004638671875,0.009279310703277588,-0.016808509826660156
1783153247586230000,2.72422998046875,0.004818916320800781,0.013604030013084412,0.013937652111053467
1783153247595941400,2.73394140625,0.0000324249267578125,0.013438582420349121,-0.012104645371437073
1783153247605653000,2.743653076171875,-0.014086723327636719,0.01809285581111908,0.023501619696617126
1783153247615364400,2.7533642578125,0.012055397033691406,-0.014938950538635254,-0.01670682430267334
1783153247625076000,2.763075927734375,0.007142066955566406,-0.012446045875549316,-0.009394019842147827
1783153247634787300,2.772787353515625,0.0023174285888671875,0.0044150203466415405,0.011923477053642273
1783153247644499000,2.7824990234375,-0.009484291076660156,-0.0050169676542282104,-0.00690557062625885
1783153247654210600,2.79221044921875,0.000091552734375,-0.002522215247154236,0.019138723611831665
1783153247663922000,2.801921875,-0.009325027465820312,0.00699499249458313,0.002314850687980652
1783153247673633500,2.811633544921875,0.00025081634521484375,-0.014248088002204895,-0.0023459792137145996
1783153247683345000,2.821344970703125,0.009661674499511719,0.01889650523662567,0.011788740754127502
1783153247693056500,2.831056396484375,0.0024328231811523438,0.001930341124534607,-0.000202864408493042
1783153247702767900,2.840767822265625,0.0023908615112304688,0.013614624738693237,-0.007231757044792175
1783153247712479500,2.8504794921875,-0.004704475402832031,-0.010034322738647461,0.00715598464012146
1783153247722191000,2.860191162109375,-0.006977081298828125,0.006556317210197449,0.009536966681480408
1783153247731902500,2.86990234375,-0.018629074096679688,0.008915349841117859,0.014062255620956421
1783153247741614000,2.879614013671875,0.021697044372558594,0.004003837704658508,-0.012209519743919373
1783153247751325400,2.889325439453125,0.007216453552246094,-0.005482867360115051,-0.0023819655179977417
1783153247761037000,2.899037109375,0.004746437072753906,0.015683114528656006,0.014397576451301575
1783153247770748400,2.90874853515625,0.00701904296875,-0.010411694645881653,-0.0024657100439071655
1783153247780460000,2.9184599609375,-0.01194000244140625,0.001243695616722107,-0.004857450723648071
1783153247790171400,2.92817138671875,-0.007035255432128906,-0.00824691355228424,-0.004804700613021851
1783153247799883000,2.937883056640625,0.007208824157714844,0.0013657063245773315,0.0023124516010284424
1783153247809594600,2.9475947265625,-0.00939178466796875,0.0036455094814300537,-0.004761040210723877
1783153247819306000,2.957305908203125,0.00018310546875,0.015414118766784668,-0.009358420968055725
1783153247829017600,2.967017578125,-0.009241104125976562,0.0008601993322372437,-0.002164021134376526
1783153247838729000,2.97672900390625,0.005040168762207031,0.010376781225204468,-0.0021521151065826416
1783153247848440600,2.986440673828125,-0.009177207946777344,0.010033473372459412,0.014223262667655945
1783153247858152000,2.99615185546875,0.0027513504028320312,-0.016027286648750305,0.00006292760372161865
1783153247867863600,3.005863525390625,0.009764671325683594,-0.004100888967514038,-0.0070275962352752686
1783153247877575200,3.0155751953125,-0.004523277282714844,-0.011149674654006958,0.0025938451290130615
1783153247887286500,3.02528662109375,-0.01151275634765625,-0.00160159170627594,-0.01165860891342163
1783153247896998100,3.034998046875,0.0028028488159179688,0.014732658863067627,-0.0019001215696334839
1783153247906709500,3.04470947265625,-0.013719558715820312,0.0073699951171875,0.01004725694656372
1783153247916421000,3.054421142578125,0.00534820556640625,-0.009060919284820557,-0.020691707730293274
1783153247926132500,3.064132568359375,-0.004160881042480469,0.005103573203086853,0.017350628972053528
1783153247935844000,3.073843994140625,-0.008806228637695312,-0.011631220579147339,-0.0018548369407653809
1783153247945555500,3.083555419921875,0.00311279296875,0.005044668912887573,-0.0040905773639678955
1783153247955267000,3.09326708984375,-0.0063571929931640625,0.0048445165157318115,0.005428731441497803
1783153247964978700,3.102978759765625,-0.008606910705566406,0.0023521482944488525,-0.001748502254486084
1783153247974690000,3.11268994140625,-0.0061187744140625,0.002198323607444763,0.007444530725479126
1783153247984401700,3.122401611328125,0.010460853576660156,0.013930946588516235,-0.0021763741970062256
1783153247994113000,3.132113037109375,-0.0014886856079101562,0.008991584181785583,-0.006988361477851868
1783153248003824600,3.14182470703125,-0.008527755737304688,0.0016688704490661621,0.00021973252296447754
1783153248013536300,3.151536376953125,-0.001323699951171875,-0.0006562322378158569,-0.0022195130586624146
1783153248023247600,3.16124755859375,-0.0060024261474609375,-0.00035525858402252197,-0.0021535158157348633
1783153248032959200,3.170959228515625,0.0035181045532226562,-0.016654521226882935,0.004975318908691406
1783153248042670600,3.180670654296875,-0.005951881408691406,-0.002133280038833618,-0.0044382065534591675
1783153248052382200,3.19038232421875,-0.008205413818359375,0.021504074335098267,0.012088268995285034
1783153248062093600,3.200093505859375,0.0036993026733398438,-0.002334997057914734,0.002327457070350647
1783153248071805200,3.20980517578125,0.0012845993041992188,0.00017514824867248535,-0.007212147116661072
1783153248081516500,3.2195166015625,0.005974769592285156,0.00034351646900177,-0.004819080233573914
1783153248091228200,3.229228271484375,0.0011663436889648438,0.009812965989112854,0.007006704807281494
1783153248100939800,3.238939697265625,0.0152740478515625,0.0026994794607162476,0.009164109826087952
1783153248110651100,3.248651123046875,-0.00382232666015625,0.004899859428405762,-0.010023310780525208
1783153248120362800,3.25836279296875,-0.015522003173828125,-0.006832882761955261,-0.012068420648574829
1783153248130074000,3.26807421875,-0.0034885406494140625,-0.0042492300271987915,-0.01648680865764618
1783153248139785700,3.27778564453125,0.0059967041015625,0.005469769239425659,0.002766236662864685
1783153248149497000,3.2874970703125,0.0058917999267578125,0.005208268761634827,-0.01378476619720459
1783153248159208700,3.297208740234375,0.0010852813720703125,-0.011356711387634277,-0.011169135570526123
1783153248168920300,3.30692041015625,-0.0059967041015625,-0.015870273113250732,0.007763862609863281
1783153248178631700,3.316631591796875,0.005877494812011719,-0.0037763863801956177,0.012374535202980042
1783153248188343300,3.32634326171875,0.0057773590087890625,0.012882962822914124,0.004907280206680298
1783153248198054700,3.3360546875,-0.02492523193359375,0.0008470714092254639,0.023685380816459656
1783153248207766300,3.345766357421875,0.008450508117675781,-0.008695542812347412,0.002247542142868042
1783153248217477600,3.3554775390625,-0.0034685134887695312,-0.003779470920562744,-0.012230560183525085
1783153248227189200,3.365189208984375,0.008355140686035156,-0.008480876684188843,0.0042555928230285645
1783153248236900600,3.374900634765625,0.0058612823486328125,0.0011342018842697144,0.0017491132020950317
1783153248246612200,3.3846123046875,0.0034036636352539062,0.0010578781366348267,-0.0007727444171905518
1783153248256323800,3.39432373046875,-0.0013589859008789062,-0.020087704062461853,0.006333053112030029
1783153248266035200,3.40403515625,0.0033740997314453125,-0.01038341224193573,-0.0030513405799865723
1783153248275746800,3.413746826171875,0.0056743621826171875,0.00862586498260498,-0.012386932969093323
1783153248285458200,3.423458251953125,0.0055789947509765625,0.017847254872322083,-0.007444456219673157
1783153248295169800,3.433169677734375,0.010190010070800781,0.029209062457084656,0.0020695477724075317
1783153248304881400,3.44288134765625,0.007670402526855469,-0.0018767714500427246,0.0021770894527435303
1783153248314592800,3.4525927734375,-0.008933067321777344,-0.008793964982032776,0.0021738260984420776
1783153248324304400,3.462304443359375,-0.0017175674438476562,-0.008643299341201782,-0.009490057826042175
1783153248334015700,3.472015625,0.017142295837402344,-0.006080850958824158,-0.025956496596336365
1783153248343727400,3.481727294921875,0.0003719329833984375,0.003328487277030945,0.007348105311393738
1783153248353438700,3.491438720703125,-0.006695747375488281,0.010333895683288574,0.004905804991722107
1783153248363150300,3.501150390625,0.007542610168457031,0.010221511125564575,-0.0022654086351394653
1783153248372861700,3.51086181640625,0.0050640106201171875,-0.004125654697418213,0.0072739869356155396
1783153248382573300,3.5205732421875,-0.002071380615234375,0.007829651236534119,0.007527574896812439
1783153248392285000,3.530284912109375,0.0003261566162109375,-0.001546323299407959,0.002898305654525757
1783153248401996300,3.539996337890625,0.0026798248291015625,0.012608751654624939,0.0006963759660720825
1783153248411708000,3.5497080078125,-0.009139060974121094,0.007808685302734375,0.002782002091407776
1783153248421419300,3.559419189453125,0.000431060791015625,-0.006326720118522644,0.0003519207239151001
1783153248431131000,3.569130859375,0.00042724609375,0.0031923651695251465,-0.006566449999809265
1783153248440842200,3.57884228515625,0.0004215240478515625,0.017385736107826233,0.01699689030647278
1783153248450553900,3.588553955078125,0.0004138946533203125,0.012390241026878357,0.00020737946033477783
1783153248460265500,3.598265380859375,-0.006656646728515625,-0.011417150497436523,0.00023828446865081787
1783153248469976800,3.607976806640625,-0.0065441131591796875,-0.00640435516834259,-0.006852462887763977
1783153248479688400,3.6176884765625,0.007697105407714844,-0.0014149993658065796,0.009828656911849976
1783153248489399800,3.62739990234375,-0.004207611083984375,-0.010921373963356018,0.009582147002220154
1783153248499111400,3.637111328125,0.002925872802734375,-0.0012627243995666504,0.0023329854011535645
1783153248508822800,3.64682275390625,0.012296676635742188,0.00823204219341278,0.004681318998336792
1783153248518534400,3.656534423828125,-0.0067386627197265625,0.012801527976989746,-0.011727318167686462
1783153248528246000,3.66624609375,0.00043201446533203125,-0.0037756264209747314,0.01411004364490509
1783153248537957400,3.675957275390625,0.0004291534423828125,0.005994141101837158,0.023206263780593872
1783153248547669000,3.6856689453125,-0.0019311904907226562,-0.019884929060935974,-0.03376530110836029
1783153248557380400,3.69538037109375,0.012228965759277344,-0.0006615519523620605,-0.004920482635498047
1783153248567092000,3.705092041015625,-0.00681304931640625,0.013420119881629944,0.011556848883628845
1783153248576803300,3.71480322265625,-0.006690025329589844,0.020487546920776367,0.006803259253501892
1783153248586515000,3.724514892578125,0.0028362274169921875,0.008317679166793823,0.004311501979827881
1783153248596226600,3.7342265625,-0.0019216537475585938,0.005657389760017395,0.008977025747299194
1783153248605938000,3.74393798828125,0.007531166076660156,0.007975667715072632,0.004207879304885864
1783153248615649500,3.7536494140625,0.0003376007080078125,0.007729560136795044,-0.0006533265113830566
1783153248625361000,3.76336083984375,-0.004378318786621094,0.00765623152256012,-0.0031338632106781006
1783153248635072500,3.773072509765625,-0.0043087005615234375,0.0027656853199005127,-0.012582451105117798
1783153248644784000,3.7827841796875,-0.004225730895996094,0.005132153630256653,-0.01199793815612793
1783153248654495500,3.79249560546875,0.0005540847778320312,0.0168788880109787,-0.011826157569885254
1783153248664207000,3.80220703125,-0.008864402770996094,0.009764954447746277,-0.0021806061267852783
1783153248673918500,3.81191845703125,-0.011059761047363281,0.016951918601989746,0.009772777557373047
1783153248683630000,3.821630126953125,-0.013226509094238281,-0.0044570863246917725,0.00969606637954712
1783153248693341400,3.831341552734375,-0.0012331008911132812,-0.0018529444932937622,0.007094889879226685
1783153248703053000,3.841052978515625,0.0011434555053710938,-0.006529271602630615,-0.007059693336486816
1783153248712764400,3.850764404296875,-0.01299285888671875,-0.006249159574508667,-0.011503025889396667
1783153248722476000,3.86047607421875,-0.003360748291015625,0.0033330917358398438,-0.013750895857810974
1783153248732187600,3.870187744140625,0.0037641525268554688,0.0012089908123016357,-0.0017748922109603882
1783153248741899000,3.87989892578125,0.003696441650390625,-0.010759755969047546,-0.0041182637214660645
1783153248751610600,3.889610595703125,0.005992889404296875,0.003488793969154358,-0.013320386409759521
1783153248761322000,3.899322021484375,0.0035390853881835938,-0.0011621713638305664,0.012772291898727417
1783153248771033600,3.90903369140625,-0.0035734176635742188,-0.010383933782577515,-0.010782033205032349
1783153248780745200,3.9187451171875,0.0011987686157226562,-0.015032440423965454,-0.0032792985439300537
1783153248790456600,3.92845654296875,-0.015301704406738281,0.008818477392196655,0.01546904444694519
1783153248800168200,3.938168212890625,-0.0079803466796875,-0.005395293235778809,-0.012950271368026733
1783153248809879600,3.947879638671875,0.008639335632324219,-0.0028312206268310547,0.0133608877658844
1783153248819591200,3.957591064453125,-0.010334968566894531,0.0065753161907196045,0.0015146583318710327
1783153248829302500,3.967302490234375,0.011023521423339844,0.02759459614753723,-0.005538821220397949
1783153248839014100,3.97701416015625,0.0037717819213867188,0.003420919179916382,0.00630033016204834
1783153248848725800,3.986725830078125,0.003704071044921875,0.0009566396474838257,0.02017796039581299
1783153248858437000,3.99643701171875,-0.0034236907958984375,-0.0085848867893219,-0.015500813722610474
1783153248868148700,4.006148681640625,0.008401870727539062,0.000979095697402954,-0.01067662239074707
1783153248877860000,4.015860107421875,0.0035533905029296875,0.008079379796981812,0.0012508481740951538
1783153248887571700,4.02557177734375,0.0034990310668945312,-0.0037693381309509277,0.008439958095550537
1783153248897283000,4.035282958984375,0.010499954223632812,0.003247275948524475,0.0012071579694747925
1783153248906994700,4.04499462890625,0.0056247711181640625,-0.010644897818565369,0.010635480284690857
1783153248916706300,4.054706298828125,-0.0038890838623046875,-0.0034594088792800903,0.008077189326286316
1783153248926417700,4.064417724609375,0.00559234619140625,0.010610267519950867,0.0009116679430007935
1783153248936129300,4.07412939453125,0.005496978759765625,0.0010721087455749512,0.014884471893310547
1783153248945840600,4.083840576171875,-0.004006385803222656,0.0012841969728469849,-0.02064487338066101
1783153248955552300,4.09355224609375,0.007839202880859375,-0.005684226751327515,0.005741402506828308
1783153248965264000,4.103263916015625,-0.01583576202392578,0.013129472732543945,0.005678743124008179
1783153248974975200,4.112975341796875,-0.010869026184082031,0.0036065280437469482,-0.0017872452735900879
1783153248984686800,4.122686767578125,-0.005982398986816406,0.02232109010219574,0.007636532187461853
1783153248994398200,4.132398193359375,0.00353240966796875,-0.008595645427703857,0.005070999264717102
1783153249004109800,4.14210986328125,-0.008298873901367188,-0.0156252384185791,-0.011463910341262817
1783153249013821200,4.1518212890625,0.008320808410644531,-0.0035911649465560913,0.007648244500160217
1783153249023532800,4.16153271484375,-0.013010978698730469,-0.008295685052871704,-0.006744295358657837
1783153249033244400,4.171244384765625,-0.0010328292846679688,-0.003617912530899048,0.009649097919464111
1783153249042955800,4.180955810546875,0.010756492614746094,0.008331835269927979,0.01175709068775177
1783153249052667400,4.19066748046875,0.0035076141357421875,0.012785300612449646,0.011423960328102112
1783153249062378800,4.200378662109375,0.005803108215332031,0.005509361624717712,0.013506412506103516
1783153249072090400,4.21009033203125,0.0010042190551757812,-0.008649274706840515,0.006479114294052124
1783153249081802000,4.219802001953125,-0.0037202835083007812,0.01739223301410675,0.013465404510498047
1783153249091513300,4.229513427734375,-0.0013017654418945312,0.007801145315170288,0.010861262679100037
1783153249101225000,4.239224853515625,0.003429412841796875,0.007730960845947266,0.010710567235946655
1783153249110936300,4.248936279296875,-0.015454292297363281,0.00289781391620636,-0.005746752023696899
1783153249120648000,4.25864794921875,-0.005784034729003906,0.017034515738487244,-0.001140981912612915
1783153249130359300,4.268359375,0.013151168823242188,0.0003295987844467163,0.013149261474609375
1783153249140071000,4.27807080078125,-0.008253097534179688,0.009569123387336731,-0.0032875388860702515
1783153249149782300,4.2877822265625,-0.00106048583984375,-0.01206575334072113,-0.0032555758953094482
1783153249159494000,4.297493896484375,-0.005755424499511719,-0.00020828843116760254,0.0014829188585281372
1783153249169205500,4.30720556640625,0.006110191345214844,-0.007319048047065735,-0.007988110184669495
1783153249178916900,4.316916748046875,-0.005766868591308594,-0.007307335734367371,0.006242021918296814
1783153249188628500,4.32662841796875,0.010807991027832031,0.0023482590913772583,-0.012836799025535583
1783153249198339800,4.33633984375,0.0012063980102539062,0.018728166818618774,-0.012758702039718628
1783153249208051500,4.346051513671875,-0.015286445617675781,0.0019392967224121094,-0.007635787129402161
1783153249217763000,4.35576318359375,-0.0009126663208007812,0.004089385271072388,0.011243700981140137
1783153249227474400,4.365474365234375,-0.005606651306152344,0.013612210750579834,-0.01739242672920227
1783153249237186000,4.37518603515625,-0.0008058547973632812,-0.0006785690784454346,-0.0007085204124450684
1783153249246897400,4.3848974609375,0.0015583038330078125,-0.01261003315448761,-0.005372107028961182
1783153249256609000,4.394609130859375,0.0015277862548828125,0.006380617618560791,-0.010133534669876099
1783153249266320600,4.404320556640625,-0.012621879577636719,0.015805184841156006,0.006433397531509399
1783153249276032000,4.414031982421875,-0.005351066589355469,0.0060118138790130615,-0.019538313150405884
1783153249285743600,4.42374365234375,-0.000560760498046875,0.015213802456855774,-0.01234579086303711
1783153249295455000,4.433455078125,-0.0029058456420898438,-0.00398215651512146,-0.012055173516273499
1783153249305166600,4.44316650390625,-0.0005064010620117188,-0.0016175806522369385,-0.0048743486404418945
1783153249314878000,4.4528779296875,0.011277198791503906,0.0032333284616470337,-0.014178231358528137
1783153249324589600,4.462589599609375,-0.0030345916748046875,0.003240734338760376,0.0072748661041259766
1783153249334301200,4.47230126953125,-0.0006227493286132812,0.0009538978338241577,-0.006830856204032898
1783153249344012500,4.482012451171875,0.00409698486328125,-0.010833263397216797,-0.013689413666725159
1783153249353724200,4.49172412109375,-0.0006685256958007812,0.008640989661216736,0.005345478653907776
1783153249363435500,4.501435546875,-0.0006647109985351562,0.005972430109977722,0.00982491672039032
1783153249373147100,4.511147216796875,-0.00536346435546875,0.008172571659088135,0.002628922462463379
1783153249382858800,4.520858642578125,-0.0005636215209960938,-0.015450149774551392,0.0026194602251052856
1783153249392570000,4.530570068359375,0.008864402770996094,-0.008068755269050598,0.0002506375312805176
1783153249402281700,4.54028173828125,0.0016527175903320312,0.003893643617630005,0.014290288090705872
1783153249411993000,4.5499931640625,-0.0007266998291015625,-0.005528196692466736,-0.00004270672798156738
1783153249421704700,4.55970458984375,-0.007778167724609375,-0.005317598581314087,-0.014309749007225037
1783153249431416000,4.569416015625,0.0017728805541992188,0.013777360320091248,0.0024398118257522583
1783153249441127700,4.579127685546875,-0.0006055831909179688,0.011426374316215515,0.00001679360866546631
1783153249450839000,4.588839111328125,0.008819580078125,-0.0004267692565917969,-0.011944830417633057
1783153249460550700,4.598550537109375,-0.007808685302734375,0.008886903524398804,-0.002299979329109192
1783153249470262300,4.60826220703125,-0.0029697418212890625,0.0017316639423370361,-0.0022844821214675903
1783153249479973600,4.6179736328125,-0.005274772644042969,-0.005245685577392578,-0.011801719665527344
1783153249489685200,4.627685302734375,0.008941650390625,-0.0025683343410491943,-0.0069846659898757935
1783153249499396600,4.637396728515625,0.0017347335815429688,-0.002521425485610962,0.00745747983455658
1783153249509108200,4.647108154296875,0.006422996520996094,0.035357579588890076,0.002773493528366089
1783153249518819800,4.65681982421875,-0.0007524490356445312,0.01817721128463745,0.0002890676259994507
1783153249528531200,4.66653125,-0.0054492950439453125,0.010814324021339417,0.0002574026584625244
1783153249538242800,4.676242919921875,-0.0053539276123046875,-0.01743626594543457,0.00027811527252197266
1783153249547954200,4.6859541015625,-0.009977340698242188,0.01340147852897644,-0.002219289541244507
1783153249557665800,4.695665771484375,-0.005092620849609375,-0.0054269880056381226,0.014501631259918213
1783153249567377400,4.70537744140625,-0.00029277801513671875,-0.012166321277618408,-0.0021904557943344116
1783153249577088800,4.7150888671875,-0.012063026428222656,-0.00018846988677978516,0.0024119168519973755
1783153249586800400,4.72480029296875,-0.009519577026367188,0.011418238282203674,0.0020576566457748413
1783153249596511700,4.73451171875,0.0024051666259765625,0.011174842715263367,-0.009832993149757385
1783153249606223400,4.744223388671875,0.004721641540527344,-0.02449178695678711,0.007068008184432983
1783153249615934700,4.753934814453125,-0.0024175643920898438,0.015938937664031982,0.0023306608200073242
1783153249625646300,4.763646240234375,-0.0047321319580078125,0.006253331899642944,0.02345810830593109
1783153249635358000,4.77335791015625,-0.0022983551025390625,-0.014920219779014587,-0.014685377478599548
1783153249645069300,4.7830693359375,-0.006977081298828125,-0.0007167011499404907,0.008904322981834412
1783153249654781000,4.792781005859375,-0.009207725524902344,0.018360167741775513,-0.010047346353530884
1783153249664492300,4.8024921875,-0.013770103454589844,-0.005658134818077087,-0.0006029307842254639
1783153249674204000,4.812203857421875,0.0005826950073242188,-0.0007370114326477051,0.020395204424858093
1783153249683915500,4.82191552734375,-0.0017766952514648438,0.0016878396272659302,-0.00804908573627472
1783153249693627000,4.831626953125,0.01708507537841797,-0.0006390213966369629,-0.01040630042552948
1783153249703338500,4.84133837890625,-0.006739616394042969,0.02533051371574402,0.01098257303237915
1783153249713049900,4.8510498046875,-0.0042724609375,0.0061345696449279785,0.020189493894577026
1783153249722761500,4.860761474609375,0.0005092620849609375,0.008389174938201904,0.003461107611656189
1783153249732473000,4.87047314453125,-0.011269569396972656,0.015253067016601562,0.010557517409324646
1783153249742184400,4.880184326171875,0.007744789123535156,-0.0017080307006835938,-0.00147208571434021
1783153249751896000,4.88989599609375,0.0052642822265625,0.005441397428512573,-0.0013015419244766235
1783153249761607400,4.899607421875,0.00047016143798828125,0.007763281464576721,0.010465607047080994
1783153249771319000,4.909319091796875,0.00988006591796875,0.00993645191192627,0.008021846413612366
1783153249781030400,4.919030517578125,0.009718894958496094,-0.016121268272399902,-0.013156265020370483
1783153249790742000,4.928741943359375,-0.009278297424316406,-0.004137575626373291,-0.0176708847284317
1783153249800453600,4.93845361328125,0.002651214599609375,0.012472033500671387,0.006308957934379578
1783153249810165000,4.9481650390625,-0.004451751708984375,0.00991116464138031,-0.0030669718980789185
1783153249819876600,4.957876708984375,-0.004374504089355469,0.00027176737785339355,0.004194080829620361
1783153249829588000,4.967587890625,-0.011362075805664062,0.007335364818572998,0.006563246250152588
1783153249839299600,4.977299560546875,0.0029506683349609375,0.000037357211112976074,0.0017771273851394653
1783153249849011200,4.98701123046875,-0.0018091201782226562,-0.01873849332332611,-0.0031007379293441772
1783153249858722600,4.99672265625,-0.0017833709716796875,0.00029571354389190674,-0.019612431526184082
1783153249868434200,5.00643408203125,0.007666587829589844,-0.006772056221961975,-0.005070194602012634
1783153249878145500,5.0161455078125,0.007537841796875,-0.004245162010192871,0.011409655213356018
1783153249887857200,5.025857177734375,-0.0019979476928710938,-0.008541464805603027,0.001837030053138733
1783153249897568800,5.03556884765625,-0.004324913024902344,0.017496809363365173,-0.010217458009719849
1783153249907280100,5.045280029296875,0.007511138916015625,-0.006279841065406799,-0.0009975582361221313
1783153249916991500,5.054991455078125,-0.009090423583984375,0.01495949923992157,-0.007900193333625793
1783153249926703000,5.064703125,0.009896278381347656,0.002943277359008789,0.022922232747077942
1783153249936414700,5.074414794921875,-0.00675201416015625,-0.02070660889148712,-0.012852787971496582
1783153249946126000,5.0841259765625,0.00043773651123046875,-0.0036493390798568726,0.0018586516380310059
1783153249955837700,5.093837646484375,0.009862899780273438,0.006003901362419128,0.0022569000720977783
1783153249965549300,5.10354931640625,0.004998207092285156,-0.003280133008956909,0.0023626387119293213
1783153249975260700,5.1132607421875,-0.0021467208862304688,0.006254047155380249,0.00935634970664978
1783153249984972300,5.12297216796875,0.000240325927734375,-0.008029893040657043,-0.016779765486717224
1783153249994683600,5.13268359375,0.00024127960205078125,0.011171802878379822,0.0023039430379867554
1783153250004395300,5.142395263671875,-0.0068302154541015625,-0.0031383931636810303,0.018547892570495605
1783153250014106600,5.152106689453125,0.005046844482421875,-0.0055519938468933105,-0.0007359981536865234
1783153250023818200,5.161818359375,0.00024700164794921875,0.022564828395843506,0.003843441605567932
1783153250033529900,5.17152978515625,0.0025959014892578125,0.012827455997467041,0.010761961340904236
1783153250043241200,5.1812412109375,0.00019741058349609375,0.007906466722488403,0.008202895522117615
1783153250052952800,5.190952880859375,-0.0021562576293945312,-0.0015294551849365234,-0.008321702480316162
1783153250062664200,5.200664306640625,0.009653091430664062,0.000849992036819458,0.0013239532709121704
1783153250072375800,5.210375732421875,0.0024366378784179688,-0.006112650036811829,-0.010264575481414795
1783153250082087200,5.220087158203125,0.004744529724121094,-0.006182551383972168,-0.0031122565269470215
1783153250091798800,5.229798828125,0.014081954956054688,-0.015550851821899414,-0.005441412329673767
1783153250101510400,5.239510498046875,-0.00028228759765625,-0.005822286009788513,-0.0008340179920196533
1783153250111221800,5.2492216796875,0.0091400146484375,0.0012256354093551636,-0.005440995097160339
1783153250120933400,5.258933349609375,0.008976936340332031,0.010510280728340149,0.008462131023406982
1783153250130644700,5.268644775390625,0.008832931518554688,0.007923498749732971,-0.005542352795600891
1783153250140356400,5.2783564453125,-0.003082275390625,-0.013276442885398865,0.013411283493041992
1783153250150068000,5.28806787109375,0.0016717910766601562,-0.027406439185142517,0.006098330020904541
1783153250159779300,5.297779296875,0.0016412734985351562,-0.0012238472700119019,-0.03163878619670868
1783153250169491000,5.307490966796875,-0.012509346008300781,-0.008151933550834656,-0.009947896003723145
1783153250179202300,5.317202392578125,-0.014650344848632812,0.006167501211166382,-0.004927650094032288
1783153250188914000,5.326913818359375,-0.00028514862060546875,0.003597348928451538,0.016316741704940796
1783153250198625500,5.33662548828125,0.004433631896972656,-0.008055076003074646,-0.00035105645656585693
1783153250208337000,5.3463369140625,-0.005057334899902344,0.0014399886131286621,0.011457428336143494
1783153250218048500,5.356048583984375,-0.007334709167480469,-0.005755424499511719,-0.02189330756664276
1783153250227759900,5.365759765625,-0.00015735626220703125,-0.0034170150756835938,0.008877754211425781
1783153250237471500,5.375471435546875,-0.007216453552246094,0.0013538748025894165,-0.010076135396957397
1783153250247182800,5.385182861328125,-0.004726409912109375,0.004089832305908203,0.006828919053077698
1783153250256894500,5.39489453125,0.0000743865966796875,-0.0075736939907073975,0.000024586915969848633
1783153250266606000,5.404606201171875,-0.006987571716308594,0.023272663354873657,-0.0000013262033462524414
1783153250276317400,5.4143173828125,-0.002166748046875,-0.0006559938192367554,-0.014266371726989746
1783153250286029000,5.424029052734375,0.004929542541503906,-0.0006424039602279663,-0.014112621545791626
1783153250295740400,5.433740478515625,0.009554862976074219,0.006380721926689148,0.009633705019950867
1783153250305452000,5.4434521484375,-0.004731178283691406,-0.003201305866241455,-0.01168029010295868
1783153250315163600,5.45316357421875,0.00004863739013671875,-0.0149763822555542,-0.009384319186210632
1783153250324875000,5.462875,-0.004660606384277344,0.004335269331932068,-0.009423613548278809
1783153250334586600,5.472586669921875,-0.002223968505859375,0.0020258426666259766,-0.0138874351978302
1783153250344298000,5.482298095703125,-0.004534721374511719,-0.005070775747299194,0.0030279457569122314
1783153250354009600,5.492009521484375,-0.0021066665649414062,-0.0025736987590789795,0.002894788980484009
1783153250363721200,5.50172119140625,-0.0020809173583984375,-0.007293730974197388,-0.002174586057662964
1783153250373432600,5.5114326171875,-0.006755828857421875,-0.01440073549747467,0.0003007054328918457
1783153250383144200,5.521144287109375,-0.008994102478027344,-0.009503930807113647,0.00750027596950531
1783153250392855600,5.53085546875,0.0005712509155273438,0.01419764757156372,-0.0020670443773269653
1783153250402567200,5.540567138671875,-0.018274307250976562,-0.007281288504600525,-0.004413619637489319
1783153250412278500,5.550278564453125,-0.006196022033691406,0.014030501246452332,-0.008960962295532227
1783153250421990100,5.559990234375,-0.0013828277587890625,0.006792441010475159,0.007699444890022278
1783153250431701800,5.56970166015625,-0.0037126541137695312,0.006736144423484802,-0.0065782517194747925
1783153250441413000,5.5794130859375,-0.0154266357421875,0.006393492221832275,0.005279541015625
1783153250451124700,5.589124755859375,-0.005757331848144531,0.003821060061454773,0.00045634806156158447
1783153250460836000,5.598836181640625,0.0013942718505859375,-0.001058340072631836,0.005011945962905884
1783153250470547700,5.608547607421875,-0.0009832382202148438,0.010738760232925415,0.007307618856430054
1783153250480259300,5.61825927734375,-0.00096893310546875,0.003498390316963196,-0.007022038102149963
1783153250489970700,5.627970703125,-0.0033168792724609375,-0.0013213753700256348,-0.0049219876527786255
1783153250499682300,5.637682373046875,0.001445770263671875,0.01047864556312561,0.013962790369987488
1783153250509393700,5.6473935546875,-0.0009326934814453125,-0.008702784776687622,0.004461944103240967
1783153250519105300,5.657105224609375,-0.012685775756835938,-0.010909289121627808,0.0021208971738815308
1783153250528816600,5.666816650390625,0.013417243957519531,-0.01560908555984497,-0.0002914518117904663
1783153250538528300,5.6765283203125,-0.0009260177612304688,0.013072699308395386,-0.0001964271068572998
1783153250548240000,5.686239990234375,-0.0009126663208007812,0.008146166801452637,0.002079680562019348
1783153250557951200,5.695951171875,-0.015020370483398438,-0.003703683614730835,0.0020208507776260376
1783153250567662800,5.705662841796875,-0.0030040740966796875,0.00812879204750061,-0.014630705118179321
1783153250577374200,5.715374267578125,-0.007658958435058594,-0.003832191228866577,-0.00011698901653289795
1783153250587085800,5.7250859375,-0.007527351379394531,0.008005321025848389,0.018863186240196228
1783153250596797400,5.73479736328125,0.00672149658203125,-0.013248801231384277,0.013749748468399048
1783153250606508800,5.7445087890625,-0.00279998779296875,-0.005849868059158325,-0.0004585832357406616
1783153250616220400,5.754220458984375,-0.009817123413085938,0.003665611147880554,-0.02401842176914215
1783153250625931800,5.763931884765625,-0.009647369384765625,0.0107811838388443,0.0000711977481842041
1783153250635643400,5.773643310546875,-0.0024232864379882812,0.015371158719062805,-0.0070207566022872925
1783153250645355000,5.78335498046875,-0.004730224609375,-0.013078480958938599,0.00036334991455078125
1783153250655066400,5.79306640625,-0.009362220764160156,-0.015100643038749695,-0.009255185723304749
1783153250664778000,5.802778076171875,0.0072765350341796875,-0.0006082355976104736,0.0027017295360565186
1783153250674489300,5.8124892578125,0.0048065185546875,0.006584390997886658,0.0050957053899765015
1783153250684201000,5.822200927734375,0.00238037109375,-0.016724616289138794,0.00969502329826355
1783153250693912300,5.831912353515625,-0.0000019073486328125,0.000319063663482666,0.009737938642501831
1783153250703624000,5.8416240234375,-0.0117645263671875,0.007601827383041382,-0.0021025091409683228
1783153250713335600,5.85133544921875,-0.006855964660644531,0.0004767179489135742,0.009786978363990784
1783153250723047000,5.861046875,0.021500587463378906,-0.011361077427864075,0.014080807566642761
1783153250732758500,5.870758544921875,-0.000049591064453125,0.007718756794929504,0.008942082524299622
1783153250742470000,5.880469970703125,0.007018089294433594,0.007705628871917725,0.0018192827701568604
1783153250752181500,5.890181396484375,0.004540443420410156,-0.0017254948616027832,-0.010349169373512268
1783153250761893000,5.89989306640625,0.004466056823730469,-0.013407915830612183,0.008630067110061646
1783153250771604500,5.9096044921875,-0.0003147125244140625,-0.0013579726219177246,-0.0008961856365203857
1783153250781316000,5.919316162109375,-0.0026569366455078125,0.005784183740615845,0.008740037679672241
1783153250791027500,5.92902734375,-0.000263214111328125,0.0007519125938415527,-0.010207563638687134
1783153250800739000,5.938739013671875,0.035056114196777344,0.007916063070297241,-0.003056168556213379
1783153250810450700,5.94845068359375,-0.010258674621582031,0.012380838394165039,-0.0005635172128677368
1783153250820162000,5.958162109375,-0.010088920593261719,0.012290015816688538,-0.0030481815338134766
1783153250829873700,5.967873779296875,0.011263847351074219,0.0072650909423828125,0.0016841739416122437
1783153250839585000,5.9775849609375,-0.010105133056640625,0.002498328685760498,0.004209429025650024
1783153250849296600,5.987296630859375,-0.0028705596923828125,0.0024578720331192017,-0.014548301696777344
1783153250859008000,5.997008056640625,-0.00046634674072265625,0.004716590046882629,0.004672408103942871
1783153250868719600,6.0067197265625,0.0019044876098632812,0.004691988229751587,-0.018683090806007385
1783153250878431200,6.01643115234375,0.0018711090087890625,-0.004743173718452454,0.0003207176923751831
1783153250888142600,6.026142578125,-0.000518798828125,0.000052735209465026855,0.0025230050086975098
1783153250897854200,6.035854248046875,-0.0005064010620117188,-0.006893754005432129,-0.004551291465759277
1783153250907565600,6.045565673828125,0.01598072052001953,0.004993334412574768,-0.004558101296424866
1783153250917277200,6.055277099609375,0.003940582275390625,0.0071540772914886475,0.007317826151847839
1783153250926988800,6.06498876953125,0.010933876037597656,0.000030621886253356934,-0.009537696838378906
1783153250936700200,6.0747001953125,-0.0033788681030273438,-0.00002586841583251953,0.006960824131965637
1783153250946411800,6.084411865234375,-0.00331878662109375,-0.004676908254623413,0.013997599482536316
1783153250956123100,6.094123046875,-0.0009088516235351562,-0.007006242871284485,0.0020794719457626343
1783153250965834800,6.103834716796875,0.010882377624511719,-0.01613500714302063,0.004374861717224121
1783153250975546400,6.11354638671875,-0.0010690689086914062,0.005380064249038696,0.006687819957733154
1783153250985257700,6.1232578125,-0.00576019287109375,0.012292683124542236,0.0042578428983688354
1783153250994969300,6.13296923828125,0.00139617919921875,-0.0020332932472229004,0.006455734372138977
1783153251004680700,6.1426806640625,-0.000988006591796875,0.023782163858413696,-0.005561336874961853
1783153251014392300,6.152392333984375,0.0037393569946289062,0.014025941491127014,-0.005435630679130554
1783153251024104000,6.16210400390625,-0.008092880249023438,0.011327728629112244,-0.0005504786968231201
1783153251033815300,6.171815185546875,0.0038166046142578125,0.013551488518714905,-0.0003952980041503906
1783153251043527000,6.18152685546875,0.006110191345214844,0.0017288029193878174,-0.009832367300987244
1783153251053238300,6.19123828125,0.0036563873291015625,0.00899246335029602,-0.00039152801036834717
1783153251062950000,6.200949951171875,0.0012378692626953125,-0.007752850651741028,0.011363133788108826
1783153251072661500,6.21066162109375,-0.0034856796264648438,-0.00027398765087127686,0.004085645079612732
1783153251082372900,6.220372802734375,-0.005780220031738281,-0.007330834865570068,0.0016950219869613647
1783153251092084500,6.23008447265625,-0.008042335510253906,-0.004966139793395996,0.0015827715396881104
1783153251101795800,6.2397958984375,0.0015153884887695312,0.007123291492462158,-0.0007143169641494751
1783153251111507500,6.249507568359375,0.010912895202636719,-0.009530782699584961,-0.0027962923049926758
1783153251121219000,6.259218994140625,0.015443801879882812,0.007165804505348206,-0.0003066211938858032
1783153251130930400,6.268930419921875,-0.015414237976074219,-0.0000692903995513916,0.004607349634170532
1783153251140642000,6.27864208984375,-0.0010309219360351562,0.006879866123199463,-0.007035896182060242
1783153251150353400,6.288353515625,-0.008069038391113281,-0.0048316121101379395,-0.006831124424934387
1783153251160065000,6.29806494140625,0.0061931610107421875,0.002251178026199341,0.0005525499582290649
1783153251169776400,6.3077763671875,-0.0009746551513671875,-0.004789113998413086,-0.004306241869926453
1783153251179488000,6.317488037109375,0.0013971328735351562,0.004821568727493286,-0.001961618661880493
1783153251189199600,6.32719970703125,-0.010393142700195312,-0.0046186745166778564,-0.004192918539047241
1783153251198911000,6.336910888671875,-0.005504608154296875,0.0026936084032058716,0.003028377890586853
1783153251208622600,6.34662255859375,0.004008293151855469,-0.006705343723297119,0.0007656961679458618
1783153251218334000,6.356333984375,-0.000762939453125,-0.008887946605682373,-0.006222188472747803
1783153251228045600,6.366045654296875,0.0016031265258789062,-0.006378591060638428,0.00791865587234497
1783153251237757200,6.375757080078125,-0.00548553466796875,-0.0039183348417282104,-0.013368099927902222
1783153251247468500,6.385468505859375,0.004021644592285156,0.005507797002792358,-0.008405238389968872
1783153251257180200,6.39518017578125,0.003955841064453125,0.028903454542160034,0.0012391656637191772
1783153251266891500,6.4048916015625,0.006244659423828125,-0.013785496354103088,-0.00597989559173584
1783153251276603100,6.41460302734375,-0.0032854080200195312,0.00516471266746521,0.005636587738990784
1783153251286314800,6.424314697265625,-0.010294914245605469,-0.009040981531143188,-0.018086016178131104
1783153251296026000,6.434026123046875,0.0016469955444335938,-0.008827552199363708,0.0009623020887374878
1783153251305737700,6.44373779296875,-0.0030908584594726562,-0.013500511646270752,0.005684956908226013
1783153251315449000,6.453448974609375,-0.005391120910644531,-0.024876683950424194,-0.013323336839675903
1783153251325160700,6.46316064453125,0.0135345458984375,0.008437812328338623,0.005880981683731079
1783153251334872000,6.4728720703125,-0.007871627807617188,0.003767341375350952,0.019991621375083923
1783153251344583700,6.482583740234375,-0.005385398864746094,-0.0009454786777496338,0.0007993727922439575
1783153251354295300,6.49229541015625,-0.0005960464477539062,-0.0035656392574310303,0.012471646070480347
1783153251364006700,6.502006591796875,0.013537406921386719,-0.0011522769927978516,-0.0066511183977127075
1783153251373718300,6.51171826171875,0.0062465667724609375,-0.0010703355073928833,-0.0019757598638534546
1783153251383429600,6.5214296875,-0.003269195556640625,0.008427023887634277,0.005261719226837158
1783153251393141200,6.531141357421875,-0.012624740600585938,0.0037523508071899414,0.005261510610580444
1783153251402852900,6.540852783203125,0.004063606262207031,0.01074923574924469,-0.0019102245569229126
1783153251412564200,6.550564208984375,-0.0007076263427734375,0.015336841344833374,-0.006440773606300354
1783153251422275800,6.56027587890625,-0.0053997039794921875,-0.006042361259460449,0.01258358359336853
1783153251431987200,6.5699873046875,-0.0006036758422851562,0.0058906227350234985,-0.023081615567207336
1783153251441698800,6.57969873046875,-0.010003089904785156,-0.0012103170156478882,0.017526239156723022
1783153251451410400,6.589410400390625,0.006646156311035156,-0.012842699885368347,-0.0015704929828643799
1783153251461121800,6.599121826171875,-0.00287628173828125,-0.010101735591888428,0.00319574773311615
1783153251470833400,6.60883349609375,0.011301040649414062,-0.009817838668823242,0.0031741559505462646
1783153251480544800,6.618544677734375,-0.0030088424682617188,0.002288028597831726,0.003154262900352478
1783153251490256400,6.62825634765625,0.0017652511596679688,0.0025984644889831543,0.0033579766750335693
1783153251499967700,6.6379677734375,-0.012385368347167969,-0.0021520256996154785,0.003447994589805603
1783153251509679400,6.647679443359375,-0.0027666091918945312,0.011948689818382263,0.012728706002235413
1783153251519391000,6.657390869140625,0.006697654724121094,-0.00237882137298584,-0.0038699209690093994
1783153251529102300,6.667102294921875,0.0018768310546875,0.009433016180992126,0.0031744837760925293
1783153251538814000,6.67681396484375,0.008912086486816406,-0.00019404292106628418,0.0009106844663619995
1783153251548525300,6.686525390625,-0.007712364196777344,0.0022832900285720825,0.0009231120347976685
1783153251558237000,6.69623681640625,-0.0052280426025390625,0.01401887834072113,0.0009952038526535034
1783153251567948500,6.705948486328125,-0.012210845947265625,0.006668120622634888,-0.015756279230117798
1783153251577660000,6.715659912109375,-0.004940986633300781,0.009023785591125488,0.0057284533977508545
1783153251587371500,6.72537158203125,0.006903648376464844,0.0016434341669082642,0.010198846459388733
1783153251597083000,6.735082763671875,0.0020847320556640625,0.008852779865264893,0.0005852431058883667
1783153251606794500,6.74479443359375,-0.007361412048339844,0.008822217583656311,-0.0016912519931793213
1783153251616505900,6.754505859375,0.00688934326171875,-0.0006246268749237061,0.0030756592750549316
1783153251626217500,6.764217529296875,-0.0026397705078125,0.004091009497642517,0.003117278218269348
1783153251635929000,6.77392919921875,0.004471778869628906,0.013553693890571594,0.012572288513183594
1783153251645640400,6.783640380859375,0.006752967834472656,-0.0031489282846450806,0.010096028447151184
1783153251655352000,6.79335205078125,-0.0027723312377929688,-0.010157838463783264,0.007719561457633972
1783153251665063400,6.8030634765625,-0.0074291229248046875,-0.00510600209236145,-0.011212363839149475
1783153251674775000,6.812775146484375,-0.0025959014892578125,-0.011853635311126709,0.0029598474502563477
1783153251684486700,6.822486572265625,-0.004904747009277344,0.00023046135902404785,-0.015948548913002014
1783153251694198000,6.832197998046875,-0.004811286926269531,0.0026977956295013428,-0.012955278158187866
1783153251703909600,6.84190966796875,0.004693031311035156,-0.006645500659942627,0.0015863031148910522
1783153251713621200,6.851621337890625,0.0022678375244140625,-0.0018236935138702393,0.004172995686531067
1783153251723332600,6.86133251953125,-0.0024776458740234375,-0.0041419267654418945,0.011193618178367615
1783153251733044200,6.871044189453125,-0.00007534027099609375,0.007926493883132935,-0.010090500116348267
1783153251742755600,6.880755615234375,0.002277374267578125,-0.004088282585144043,0.006530165672302246
1783153251752467200,6.89046728515625,0.013997077941894531,0.002870708703994751,0.006054222583770752
1783153251762178800,6.9001787109375,0.0019893646240234375,0.016893550753593445,-0.0011932849884033203
1783153251771890200,6.90989013671875,-0.0027532577514648438,-0.004573136568069458,0.005862325429916382
1783153251781601800,6.919601806640625,-0.005057334899902344,-0.006676957011222839,-0.0013248622417449951
1783153251791313200,6.929313232421875,-0.0002689361572265625,-0.004324600100517273,0.010442689061164856
1783153251801024800,6.939024658203125,0.0020971298217773438,0.005332589149475098,0.012715741991996765
1783153251810736000,6.948736083984375,-0.014413833618164062,0.0028306245803833008,0.012652531266212463
1783153251820447700,6.95844775390625,0.009371757507324219,0.0100172758102417,0.007709130644798279
1783153251830159400,6.968159423828125,0.00921630859375,0.0003804713487625122,0.01002095639705658
1783153251839870700,6.97787060546875,-0.0027055740356445312,0.01455622911453247,0.007589936256408691
1783153251849582300,6.987582275390625,0.016173362731933594,-0.0067586153745651245,0.0002610236406326294
1783153251859293700,6.997293701171875,0.0111846923828125,0.00013490021228790283,0.0048225075006484985
1783153251869005300,7.00700537109375,0.01099395751953125,-0.0022774934768676758,0.004602298140525818
1783153251878717000,7.016717041015625,0.006091117858886719,0.002352803945541382,-0.005199819803237915
1783153251888428300,7.02642822265625,0.00128936767578125,0.011963173747062683,0.0020355582237243652
1783153251898140000,7.036139892578125,-0.0010852813720703125,0.011877894401550293,-0.002730920910835266
1783153251907851300,7.045851318359375,0.008356094360351562,0.0023171454668045044,-0.009597942233085632
1783153251917563000,7.05556298828125,-0.0059051513671875,-0.014032512903213501,0.004665777087211609
1783153251927274500,7.0652744140625,0.008316993713378906,0.01663854718208313,0.011736735701560974
1783153251936985900,7.07498583984375,-0.005947113037109375,0.006831303238868713,-0.00014100968837738037
1783153251946697500,7.084697509765625,-0.0058441162109375,0.0020131468772888184,0.0023588091135025024
1783153251956408800,7.094408935546875,-0.00574493408203125,0.0019764304161071777,-0.01642116904258728
1783153251966120400,7.104120361328125,0.006122589111328125,-0.002535015344619751,0.009608834981918335
1783153251975831800,7.113831787109375,0.006018638610839844,0.0068680644035339355,0.01177738606929779
1783153251985543400,7.12354345703125,-0.005847930908203125,-0.00019346177577972412,0.004550158977508545
1783153251995255000,7.133255126953125,-0.0010395050048828125,-0.011902868747711182,-0.004853606224060059
1783153252004966400,7.14296630859375,-0.010438919067382812,0.00948740541934967,-0.0024467408657073975
1783153252014678000,7.152677978515625,-0.0008516311645507812,-0.002613455057144165,0.004689648747444153
1783153252024389400,7.162389404296875,-0.000835418701171875,0.009263813495635986,-0.011840268969535828
1783153252034101000,7.17210107421875,0.010951042175292969,-0.016782641410827637,-0.006905585527420044
1783153252043812600,7.1818125,-0.0010051727294921875,-0.007255002856254578,-0.001994609832763672
1783153252053524000,7.19152392578125,0.013136863708496094,-0.0000673830509185791,0.012135609984397888
1783153252063235600,7.201235595703125,0.008211135864257812,0.007111892104148865,-0.018753886222839355
1783153252072947000,7.210947021484375,0.008069038391113281,-0.00982639193534851,-0.013645440340042114
1783153252082658600,7.220658447265625,0.012648582458496094,0.011642172932624817,-0.0015023648738861084
1783153252092370000,7.230369873046875,0.0030241012573242188,0.00909513235092163,-0.003685504198074341
1783153252102081500,7.24008154296875,0.0029802322387695312,-0.002711877226829529,0.010647132992744446
1783153252111793200,7.249793212890625,0.000576019287109375,0.011518344283103943,-0.015510529279708862
1783153252121504500,7.25950439453125,0.007625579833984375,-0.012270137667655945,-0.0012108981609344482
1783153252131216100,7.269216064453125,0.00043392181396484375,0.020892873406410217,-0.0012148618698120117
1783153252140927700,7.278927734375,0.005126953125,-0.005407482385635376,-0.006157189607620239
1783153252150639000,7.28863916015625,-0.009088516235351562,0.006343409419059753,0.0008654743432998657
1783153252160350700,7.298350830078125,-0.004227638244628906,-0.0008164197206497192,-0.013192057609558105
1783153252170062000,7.30806201171875,0.0005693435668945312,0.011425316333770752,-0.005647867918014526
1783153252179773700,7.317773681640625,-0.0017910003662109375,0.004284918308258057,0.00860583782196045
1783153252189485300,7.3274853515625,-0.0017709732055664062,0.0017534494400024414,-0.0012153685092926025
1783153252199196700,7.33719677734375,0.0006122589111328125,-0.005395799875259399,0.024734094738960266
1783153252208908300,7.346908203125,-0.006461143493652344,-0.016962751746177673,0.0006413906812667847
1783153252218619600,7.35661962890625,-0.0039958953857421875,0.01639571785926819,0.000661015510559082
1783153252228331300,7.366331298828125,-0.006283760070800781,0.004415661096572876,0.002916097640991211
1783153252238043000,7.37604296875,-0.010883331298828125,-0.011904537677764893,-0.0018691271543502808
1783153252247754200,7.385754150390625,0.0034265518188476562,0.011951416730880737,-0.004160493612289429
1783153252257465900,7.3954658203125,0.0010175704956054688,0.0071608275175094604,-0.004118010401725769
1783153252267177200,7.40517724609375,-0.0013475418090820312,-0.00007706880569458008,0.024518519639968872
1783153252276888800,7.414888916015625,-0.0013217926025390625,0.007045194506645203,0.0077193379402160645
1783153252286600200,7.42460009765625,0.0034132003784179688,0.002450704574584961,0.00756382942199707
1783153252296311800,7.434311767578125,0.012780189514160156,0.00953228771686554,-0.004131391644477844
1783153252306023400,7.4440234375,-0.010977745056152344,-0.009683281183242798,-0.003977760672569275
1783153252315734800,7.45373486328125,-0.0060825347900390625,0.0001262277364730835,-0.01341228187084198
1783153252325446400,7.4634462890625,0.010504722595214844,0.004890903830528259,-0.005922943353652954
1783153252335157800,7.47315771484375,0.0032644271850585938,0.016583025455474854,0.005862712860107422
1783153252344869400,7.482869384765625,-0.0015020370483398438,-0.014298200607299805,-0.01556125283241272
1783153252354581000,7.4925810546875,0.005587577819824219,0.016660228371620178,0.0011519938707351685
1783153252364292400,7.502292236328125,-0.013339042663574219,-0.00480256974697113,-0.0012483000755310059
1783153252374004000,7.51200390625,0.012778282165527344,-0.000014394521713256836,0.0011025816202163696
1783153252383715600,7.521715576171875,0.0031414031982421875,0.01870773732662201,0.008005574345588684
1783153252393427000,7.531427001953125,-0.0016145706176757812,0.0043936073780059814,0.0008916556835174561
1783153252403138600,7.541138671875,0.000762939453125,0.009031414985656738,-0.003972798585891724
1783153252412850000,7.550849853515625,0.010167121887207031,0.0087662935256958,0.0008919984102249146
1783153252422561500,7.5605615234375,-0.00177764892578125,0.0014473646879196167,0.010265693068504333
1783153252432273000,7.57027294921875,0.012375831604003906,0.0084313303232193,0.005359336733818054
1783153252441984500,7.579984619140625,-0.001949310302734375,-0.0010676085948944092,0.005473211407661438
1783153252451696000,7.589696044921875,-0.016038894653320312,0.02725893259048462,0.005413651466369629
1783153252461407500,7.599407470703125,0.0077686309814453125,-0.006098687648773193,0.00989466905593872
1783153252471119000,7.609119140625,0.000579833984375,-0.003470107913017273,0.000287473201751709
1783153252480830500,7.61883056640625,-0.0017871856689453125,-0.001225486397743225,-0.0020425766706466675
1783153252490542000,7.6285419921875,-0.004118919372558594,0.0010975152254104614,0.011858418583869934
1783153252500253700,7.638253662109375,0.005367279052734375,0.005788818001747131,-0.00007852911949157715
1783153252509965000,7.647965087890625,-0.004134178161621094,0.0012724697589874268,-0.00016126036643981934
1783153252519676700,7.6576767578125,-0.006421089172363281,-0.00580577552318573,0.006817296147346497
1783153252529388000,7.667387939453125,-0.008652687072753906,-0.005419045686721802,-0.00004407763481140137
1783153252539099600,7.677099609375,-0.0037984848022460938,0.013676121830940247,0.009292110800743103
1783153252548811300,7.686811279296875,-0.010799407958984375,-0.007851287722587585,-0.0026034414768218994
1783153252558522600,7.696522705078125,-0.0012044906616210938,-0.0006551891565322876,0.01860089600086212
1783153252568234200,7.706234130859375,0.0035247802734375,-0.009889796376228333,-0.010097995400428772
1783153252577945600,7.715945556640625,-0.010662078857421875,-0.012139484286308289,0.008825287222862244
1783153252587657200,7.7256572265625,-0.0057735443115234375,-0.0024062544107437134,0.006299853324890137
1783153252597368600,7.73536865234375,0.0037384033203125,-0.007126167416572571,0.013285055756568909
1783153252607080200,7.745080078125,0.006026268005371094,0.011708706617355347,0.013042181730270386
1783153252616791800,7.754791748046875,0.005930900573730469,-0.0002034008502960205,-0.017629683017730713
1783153252626503200,7.764503173828125,0.0011281967163085938,-0.019032418727874756,-0.014835655689239502
1783153252636214800,7.77421484375,0.005812644958496094,0.009363412857055664,0.011283636093139648
1783153252645926100,7.783926025390625,0.001007080078125,0.0020902305841445923,0.008771702647209167
1783153252655637800,7.7936376953125,-0.0013685226440429688,0.004410788416862488,0.0037772655487060547
1783153252665349400,7.803349365234375,-0.008403778076171875,0.004397094249725342,0.006156012415885925
1783153252675060700,7.813060791015625,0.0011510848999023438,-0.014564305543899536,-0.012807011604309082
1783153252684772400,7.8227724609375,-0.0059356689453125,0.02570386230945587,-0.01750168204307556
1783153252694484000,7.83248388671875,0.001232147216796875,0.011264398694038391,-0.014708459377288818
1783153252704195300,7.8421953125,0.005915641784667969,-0.003160223364830017,-0.01449015736579895
1783153252713907000,7.851906982421875,0.01287841796875,0.02043125033378601,-0.00020207464694976807
1783153252723618300,7.861618408203125,-0.0014553070068359375,-0.0033913999795913696,0.011774107813835144
1783153252733330000,7.871329833984375,0.0032739639282226562,0.006081640720367432,0.006730988621711731
1783153252743041300,7.881041259765625,0.00321197509765625,-0.010672315955162048,0.004127442836761475
1783153252752753000,7.8907529296875,0.0031604766845703125,-0.010493263602256775,0.008855894207954407
1783153252762464500,7.900464599609375,0.010172843933105469,0.003865182399749756,-0.010093629360198975
1783153252772176000,7.91017578125,-0.004120826721191406,0.0015092641115188599,0.01599840819835663
1783153252781887500,7.919887451171875,-0.0016918182373046875,-0.00310729444026947,-0.0006029307842254639
1783153252791598800,7.929598876953125,0.000690460205078125,0.01807628571987152,-0.014686420559883118
1783153252801310500,7.939310546875,-0.006390571594238281,-0.005820050835609436,-0.017052724957466125
1783153252811022000,7.94902197265625,-0.006285667419433594,0.0059919655323028564,0.016164734959602356
1783153252820733400,7.9587333984375,0.005593299865722656,-0.0011106878519058228,0.00421181321144104
1783153252830445000,7.968445068359375,0.005504608154296875,-0.0008593946695327759,-0.0170743465423584
1783153252840156400,7.978156494140625,-0.006358146667480469,-0.0055522918701171875,0.009080871939659119
1783153252849868000,7.987867919921875,0.005513191223144531,0.01791335642337799,0.011256858706474304
1783153252859579600,7.99757958984375,-0.0016431808471679688,0.0010222643613815308,0.006392523646354675
1783153252869291000,8.007291015625,-0.0016193389892578125,0.0079546719789505,0.006260469555854797
1783153252879002600,8.017002685546874,0.012549400329589844,0.019995927810668945,-0.021835222840309143
1783153252888714000,8.0267138671875,0.0005712509155273438,-0.008527874946594238,0.004455164074897766
1783153252898425600,8.036425537109375,-0.0017824172973632812,-0.017571181058883667,0.00222855806350708
1783153252908137200,8.04613720703125,-0.00176239013671875,-0.005619049072265625,-0.0051267147064208984
1783153252917848600,8.0558486328125,0.010037422180175781,-0.007932677865028381,-0.00506947934627533
1783153252927560200,8.065560302734376,-0.0019073486328125,0.013507217168807983,-0.010008826851844788
1783153252937271600,8.075271484375,-0.0018711090087890625,0.0017409920692443848,0.004257664084434509
1783153252946983200,8.084983154296875,-0.004191398620605469,0.0017160624265670776,-0.0004355311393737793
1783153252956694800,8.09469482421875,0.017070770263671875,-0.014846444129943848,-0.00964324176311493
1783153252966406100,8.10440625,0.007370948791503906,0.001771584153175354,-0.018757343292236328
1783153252976117800,8.11411767578125,-0.0068721771240234375,0.028099745512008667,0.00960591435432434
1783153252985829000,8.1238291015625,0.0026693344116210938,-0.012214317917823792,0.023828670382499695
1783153252995540700,8.133540771484375,-0.0020837783813476562,0.002004191279411316,-0.0023785382509231567
1783153253005252400,8.14325244140625,0.0026607513427734375,0.013858780264854431,-0.002422928810119629
1783153253014963700,8.152963623046874,0.0026149749755859375,0.00420929491519928,-0.00010830163955688477
1783153253024675300,8.16267529296875,0.014338493347167969,-0.0053307414054870605,0.011521920561790466
1783153253034386700,8.17238671875,0.009398460388183594,0.002107784152030945,-0.007472023367881775
1783153253044098300,8.182098388671875,-0.000164031982421875,0.004539519548416138,-0.0070272088050842285
1783153253053809700,8.1918095703125,-0.007224082946777344,0.009057626128196716,0.009659498929977417
1783153253063521300,8.201521240234374,-0.016521453857421875,0.004148110747337341,-0.002303406596183777
1783153253073233000,8.21123291015625,0.0025892257690429688,-0.007806628942489624,-0.0020604729652404785
1783153253082944300,8.2209443359375,0.011962890625,0.001628577709197998,-0.004292815923690796
1783153253092655900,8.23065576171875,-0.007077217102050781,0.015616372227668762,0.004995778203010559
1783153253102367500,8.240367431640625,-0.011669158935546875,0.0011749416589736938,-0.016243577003479004
1783153253112078800,8.250078857421874,0.012057304382324219,0.008044719696044922,-0.006807595491409302
1783153253121790500,8.25979052734375,0.007143974304199219,-0.006327703595161438,0.0002857893705368042
1783153253131501800,8.269501708984375,-0.0023984909057617188,0.0009573698043823242,-0.011802703142166138
1783153253141213400,8.27921337890625,-0.0023517608642578125,-0.006115615367889404,0.00042134523391723633
1783153253150925000,8.288925048828125,-0.0070133209228515625,0.012819632887840271,-0.01580333709716797
1783153253160636400,8.298636474609374,0.0025243759155273438,0.0032989084720611572,-0.001320570707321167
1783153253170348000,8.30834814453125,-0.00693511962890625,-0.0014603585004806519,0.010444238781929016
1783153253180059400,8.318059326171875,0.014369964599609375,0.01975148916244507,0.010303184390068054
1783153253189771000,8.32777099609375,-0.009405136108398438,-0.008601069450378418,-0.011021926999092102
1783153253199482400,8.337482421875,0.00017547607421875,0.005785956978797913,-0.008283555507659912
1783153253209194000,8.347194091796876,0.0025272369384765625,-0.0036688894033432007,0.0012458115816116333
1783153253218905600,8.356905517578125,0.011899948120117188,-0.0037809908390045166,0.005967766046524048
1783153253228617000,8.366616943359375,0.004637718200683594,0.008168578147888184,0.010436862707138062
1783153253238328600,8.37632861328125,-0.007205009460449219,-0.008390024304389954,-0.006069093942642212
1783153253248040000,8.3860400390625,-0.007080078125,-0.0009533166885375977,-0.0012890994548797607
1783153253257751600,8.39575146484375,-0.011677742004394531,-0.010464444756507874,-0.015592515468597412
1783153253267463200,8.405463134765625,-0.00208282470703125,-0.0010479390621185303,0.0030220746994018555
1783153253277174500,8.415174560546875,0.00030994415283203125,-0.003209039568901062,0.014714494347572327
1783153253286886100,8.42488623046875,-0.004397392272949219,0.008845329284667969,-0.0043326616287231445
1783153253296597800,8.43459765625,-0.009027481079101562,0.00887209177017212,0.00283244252204895
1783153253306309000,8.44430908203125,-0.006518363952636719,-0.0076410770416259766,0.009938016533851624
1783153253316020700,8.454020751953125,0.005356788635253906,0.013625353574752808,0.0073287636041641235
1783153253325732000,8.463732177734375,0.0029211044311523438,-0.0005512982606887817,0.0120583176612854
1783153253335443700,8.473443603515625,-0.00653839111328125,0.004167497158050537,0.0026437491178512573
1783153253345155300,8.4831552734375,0.010053634643554688,-0.0004948079586029053,0.007339745759963989
1783153253354866700,8.49286669921875,-0.004240989685058594,0.015938296914100647,-0.0021690726280212402
1783153253364578300,8.502578369140625,0.0005464553833007812,0.006255611777305603,-0.015939190983772278
1783153253374289700,8.51228955078125,0.0005359649658203125,-0.0009100437164306641,-0.0015738904476165771
1783153253384001300,8.522001220703125,-0.0018262863159179688,-0.0031892359256744385,-0.003871515393257141
1783153253393712600,8.531712646484374,0.007624626159667969,0.015925928950309753,-0.003945484757423401
1783153253403424300,8.54142431640625,-0.008975028991699219,-0.005122959613800049,-0.020444482564926147
1783153253413136000,8.551135986328125,0.00058746337890625,0.011558830738067627,-0.0015257596969604492
1783153253422847200,8.56084716796875,0.0052776336669921875,0.011313110589981079,0.0029511600732803345
1783153253432558800,8.570558837890625,0.002838134765625,-0.01700735092163086,0.01464475691318512
1783153253442270200,8.580270263671874,-0.004273414611816406,-0.007305920124053955,0.00019282102584838867
1783153253451981800,8.58998193359375,-0.0018472671508789062,-0.004883036017417908,0.0026299208402633667
1783153253461693400,8.599693359375,-0.015938758850097656,0.007029175758361816,0.002616405487060547
1783153253471404800,8.60940478515625,-0.010969161987304688,0.013862937688827515,0.0025459378957748413
1783153253481116400,8.619116455078125,-0.006075859069824219,-0.00037485361099243164,-0.00929570198059082
1783153253490828000,8.628828125,-0.013044357299804688,-0.009898528456687927,-0.00933779776096344
1783153253500539400,8.638539306640626,-0.0010576248168945312,-0.014500826597213745,0.012039989233016968
1783153253510251000,8.6482509765625,-0.010462760925292969,-0.004954040050506592,-0.01655222475528717
1783153253519962400,8.65796240234375,-0.010287284851074219,-0.0025160610675811768,0.0025888681411743164
1783153253529674000,8.667674072265624,0.004010200500488281,0.002292633056640625,0.011937007308006287
1783153253539385300,8.67738525390625,0.008653640747070312,-0.0024513155221939087,-0.00706520676612854
1783153253549097000,8.687096923828125,-0.007971763610839844,-0.01894436776638031,0.00008831918239593506
1783153253558808600,8.69680859375,-0.007843017578125,-0.011677712202072144,-0.009356826543807983
1783153253568520000,8.70652001953125,-0.007716178894042969,-0.01130746304988861,-0.002452343702316284
1783153253578231600,8.7162314453125,-0.014655113220214844,-0.0018725097179412842,-0.00949956476688385
1783153253587943000,8.72594287109375,-0.014410018920898438,0.0027524977922439575,-0.006839662790298462
1783153253597654500,8.735654541015625,-0.00003910064697265625,0.0005251318216323853,-0.0019284486770629883
1783153253607366100,8.7453662109375,0.0023069381713867188,-0.011426359415054321,0.0073248594999313354
1783153253617077500,8.755077392578125,-0.01891613006591797,0.0051860511302948,-0.013780489563941956
1783153253626789000,8.7647890625,-0.004473686218261719,0.002575129270553589,0.0031317174434661865
1783153253636500700,8.774500732421876,0.009729385375976562,0.0071289390325546265,-0.006135493516921997
1783153253646212000,8.784212158203125,0.0048618316650390625,0.0024773329496383667,0.0010011494159698486
1783153253655923700,8.793923828125,0.007138252258300781,-0.018520429730415344,-0.013224750757217407
1783153253665635000,8.803635009765625,0.016427040100097656,0.01216539740562439,-0.00849294662475586
1783153253675346700,8.8133466796875,0.002025604248046875,0.012082546949386597,0.000864371657371521
1783153253685058000,8.82305810546875,-0.005069732666015625,-0.0044812411069869995,-0.0015882700681686401
1783153253694769700,8.832769775390625,-0.004986763000488281,0.005067154765129089,-0.008762866258621216
1783153253704481300,8.842481201171875,0.009225845336914062,0.0003898441791534424,0.010248437523841858
1783153253714192600,8.852192626953125,0.00201416015625,0.007448598742485046,0.005571022629737854
1783153253723904300,8.861904296875,-0.014495849609375,0.007382825016975403,-0.0015527606010437012
1783153253733615600,8.87161572265625,0.023412704467773438,-0.004388391971588135,0.014863058924674988
1783153253743327200,8.8813271484375,0.0018510818481445312,0.0008487701416015625,0.005404412746429443
1783153253753038800,8.891038818359375,-0.0005331039428710938,-0.00857950747013092,0.01717279851436615
1783153253762750200,8.900750244140625,0.0018405914306640625,0.020160958170890808,0.0004933178424835205
1783153253772461800,8.9104619140625,0.01123046875,0.005702421069145203,0.0029839128255844116
1783153253782173200,8.920173095703126,-0.0007219314575195312,-0.0012268126010894775,0.007675603032112122
1783153253791884800,8.929884765625,0.006348609924316406,0.0035017579793930054,0.01447179913520813
1783153253801596400,8.939596435546875,-0.010229110717773438,0.008270233869552612,-0.004459694027900696
1783153253811307800,8.949307861328125,-0.0147705078125,-0.008287161588668823,-0.01641187071800232
1783153253821019400,8.959019287109374,-0.0003986358642578125,-0.012853339314460754,-0.008989676833152771
1783153253830730800,8.968730712890626,-0.0003871917724609375,-0.014934912323951721,-0.011048033833503723
1783153253840442400,8.9784423828125,0.0019750595092773438,-0.00527094304561615,0.008004069328308105
1783153253850154000,8.988154052734375,-0.007470130920410156,-0.0026591122150421143,-0.003923088312149048
1783153253859865300,8.997865234375,-0.004993438720703125,0.0020347386598587036,0.0008279383182525635
1783153253869577000,9.007576904296876,0.004504203796386719,-0.005000486969947815,0.0006715655326843262
1783153253879288300,9.017288330078125,0.002071380615234375,0.011566340923309326,-0.008899018168449402
1783153253889000000,9.027,-0.00032138824462890625,0.006720647215843201,-0.0018823742866516113
1783153253898711600,9.036711669921875,-0.0026683807373046875,-0.00280115008354187,-0.0017676353454589844
1783153253908423000,9.0464228515625,0.004437446594238281,0.00666499137878418,0.002943366765975952
1783153253918134500,9.056134521484376,-0.007404327392578125,0.004199430346488953,0.007692903280258179
1783153253927846000,9.065845947265625,-0.0002155303955078125,0.008841946721076965,0.007707953453063965
1783153253937557500,9.0755576171875,-0.011981010437011719,-0.010027840733528137,-0.011332675814628601
1783153253947269000,9.08526904296875,0.002338409423828125,0.004091277718544006,0.017083793878555298
1783153253956980500,9.09498046875,0.006999969482421875,0.0014458000659942627,-0.013892248272895813
1783153253966692000,9.104692138671876,0.004530906677246094,0.006132751703262329,0.007614538073539734
1783153253976403500,9.114403564453125,-0.0002536773681640625,0.005976036190986633,-0.0042530447244644165
1783153253986115000,9.124114990234375,-0.0002460479736328125,0.00828753411769867,0.0006164312362670898
1783153253995826400,9.133826416015625,0.004466056823730469,-0.0013218820095062256,-0.0017177611589431763
1783153254005538000,9.1435380859375,-0.005031585693359375,0.0032382458448410034,-0.0017718076705932617
1783153254015249700,9.153249755859376,-0.00023937225341796875,0.012660905718803406,0.007647663354873657
1783153254024961000,9.1629609375,-0.0072956085205078125,0.007745593786239624,-0.004221826791763306
1783153254034672600,9.172672607421875,-0.00011157989501953125,0.005317762494087219,-0.015945225954055786
1783153254044384300,9.18238427734375,-0.00246429443359375,-0.004186466336250305,0.0007744133472442627
1783153254054095600,9.192095703125,0.011701583862304688,0.012369722127914429,-0.006332039833068848
1783153254063807200,9.20180712890625,-0.004958152770996094,-0.01585841178894043,-0.0034962892532348633
1783153254073518600,9.2115185546875,-0.004878044128417969,-0.0016392171382904053,0.024843990802764893
1783153254083230200,9.221230224609375,0.0022706985473632812,-0.008503258228302002,0.0009209811687469482
1783153254092941800,9.23094189453125,-0.004828453063964844,0.0011707842350006104,-0.0038854479789733887
1783153254102653200,9.240653076171874,-0.0000438690185546875,0.010509178042411804,0.019641339778900146
1783153254112364800,9.25036474609375,0.004664421081542969,0.005858391523361206,0.0025777220726013184
1783153254122076200,9.260076171875,0.006934165954589844,0.0009406805038452148,0.002393558621406555
1783153254131787800,9.269787841796875,-0.0073070526123046875,0.0031074434518814087,0.0000896751880645752
1783153254141499400,9.27949951171875,-0.004825592041015625,0.0007041096687316895,-0.004418417811393738
1783153254151210800,9.289210693359376,0.016442298889160156,-0.00406762957572937,0.00039121508598327637
1783153254160922400,9.29892236328125,0.006751060485839844,-0.011006966233253479,0.00977867841720581
1783153254170633700,9.3086337890625,0.004282951354980469,0.017485246062278748,-0.004649311304092407
1783153254180345300,9.318345458984375,0.001861572265625,-0.013349473476409912,0.002576857805252075
1783153254190056700,9.328056640625,-0.005225181579589844,0.005825042724609375,0.005031377077102661
1783153254199768300,9.337768310546876,-0.000431060791015625,-0.0013964176177978516,0.012047216296195984
1783153254209480000,9.34747998046875,-0.007489204406738281,-0.008491694927215576,-0.0023614317178726196
1783153254219191300,9.35719140625,0.006756782531738281,0.017369896173477173,0.009486034512519836
1783153254228903000,9.36690283203125,-0.00042247772216796875,-0.00416189432144165,-0.007235482335090637
1783153254238614500,9.376614501953124,0.011348724365234375,0.01221802830696106,-0.0072560906410217285
1783153254248326000,9.386325927734376,-0.005326271057128906,0.012017041444778442,-0.00032807886600494385
1783153254258037500,9.39603759765625,-0.0028743743896484375,-0.0019656866788864136,0.011481374502182007
1783153254267748900,9.405748779296875,-0.009890556335449219,0.002720937132835388,-0.009924620389938354
1783153254277460500,9.41546044921875,-0.0026559829711914062,0.0075566768646240234,-0.009613215923309326
1783153254287172000,9.425172119140624,0.0021028518676757812,-0.001981958746910095,0.009581044316291809
1783153254296883500,9.434883544921876,0.0020608901977539062,-0.009011790156364441,0.004460155963897705
1783153254306595000,9.444594970703125,-0.0003261566162109375,-0.004094839096069336,0.004417479038238525
1783153254316306400,9.454306396484375,0.0043888092041015625,0.010044068098068237,0.00443132221698761
1783153254326018000,9.46401806640625,-0.005096435546875,0.007642343640327454,0.01144765317440033
1783153254335729400,9.4737294921875,-0.005003929138183594,0.010213345289230347,-0.012310594320297241
1783153254345441000,9.48344091796875,-0.007279396057128906,0.009985700249671936,0.0065896958112716675
1783153254355152600,9.493152587890625,-0.0048065185546875,0.00505925714969635,0.01586708426475525
1783153254364864000,9.502864013671875,-0.004721641540527344,0.00043633580207824707,-0.0031965821981430054
1783153254374575600,9.51257568359375,-0.002285003662109375,-0.008875086903572083,-0.012525707483291626
1783153254384287000,9.522286865234374,-0.004605293273925781,0.01005333662033081,-0.0030427128076553345
1783153254393998600,9.53199853515625,0.004883766174316406,0.007474184036254883,0.01105189323425293
1783153254403710200,9.541710205078125,-0.0046234130859375,0.014243364334106445,0.0059609562158584595
1783153254413421600,9.551421630859375,0.0025110244750976562,0.0234239399433136,0.01037299633026123
1783153254423133200,9.56113330078125,0.00010967254638671875,-0.0005043447017669678,0.0005836337804794312
1783153254432844800,9.5708447265625,-0.0045986175537109375,-0.0005490332841873169,0.014785230159759521
1783153254442556200,9.58055615234375,-0.0092315673828125,-0.002891436219215393,-0.004321619868278503
1783153254452267800,9.590267822265625,0.007388114929199219,0.006231769919395447,-0.006800755858421326
1783153254461979100,9.599979248046875,-0.004506111145019531,0.0014792978763580322,0.0073537677526474
1783153254471690800,9.609690673828124,-0.00206756591796875,-0.010140761733055115,-0.009047731757164001
1783153254481402000,9.619402099609376,0.0026798248291015625,0.0019161850214004517,-0.013517841696739197
1783153254491113700,9.62911376953125,-0.0044155120849609375,-0.0050628334283828735,0.005915656685829163
1783153254500825300,9.638825439453125,0.0027189254760742188,0.013854891061782837,-0.010743647813796997
1783153254510536700,9.64853662109375,0.009735107421875,-0.0005571842193603516,-0.001173257827758789
1783153254520248300,9.658248291015624,0.009580612182617188,-0.004856407642364502,-0.003589227795600891
1783153254529959700,9.667959716796876,0.009420394897460938,-0.00483432412147522,-0.015266016125679016
1783153254539671300,9.67767138671875,0.006905555725097656,0.028093338012695312,-0.014981269836425781
1783153254549383000,9.6873828125,-0.004979133605957031,-0.010100901126861572,0.006547719240188599
1783153254559094300,9.69709423828125,-0.00019359588623046875,0.011200711131095886,-0.012536168098449707
1783153254568806000,9.706805908203124,0.0021686553955078125,-0.0006428807973861694,-0.0028202831745147705
1783153254578517500,9.716517578125,0.0068531036376953125,0.006830334663391113,-0.004980102181434631
1783153254588228900,9.726228759765625,-0.0026702880859375,-0.014238521456718445,-0.009519398212432861
1783153254597940500,9.7359404296875,-0.007334709167480469,0.00006946921348571777,0.00479474663734436
1783153254607651800,9.74565185546875,-0.0025081634521484375,-0.00946161150932312,0.018814533948898315
1783153254617363500,9.755363525390624,0.0069484710693359375,-2.682209014892578e-7,-0.009717762470245361
1783153254627074800,9.76507470703125,-0.002582550048828125,-0.009533092379570007,-0.007052898406982422
1783153254636786400,9.774786376953125,-0.00018215179443359375,0.02352859079837799,0.014455601572990417
1783153254646498000,9.784498046875,-0.00487518310546875,0.009075447916984558,0.005167111754417419
1783153254656209400,9.79420947265625,-0.004795074462890625,0.011223897337913513,-0.0043054670095443726
1783153254665921000,9.803921142578124,-0.00000667572021484375,0.013336524367332458,0.01939573884010315
1783153254675632400,9.81363232421875,-0.0070629119873046875,0.0037558376789093018,0.00038489699363708496
1783153254685344000,9.823343994140625,0.0024690628051757812,0.0201166570186615,0.002707168459892273
1783153254695055600,9.8330556640625,0.011836051940917969,0.012775704264640808,0.004591956734657288
1783153254704767000,9.84276708984375,0.0045680999755859375,-0.027740314602851868,-0.0025753676891326904
1783153254714478600,9.852478515625,-0.011996269226074219,-0.006198957562446594,0.01368875801563263
1783153254724190200,9.862190185546876,-0.00238037109375,-0.008564412593841553,0.01119658350944519
1783153254733901600,9.871901611328125,0.004725456237792969,0.010581716895103455,0.013341382145881653
1783153254743613200,9.88161328125,0.0046558380126953125,0.003458276391029358,-0.0031000524759292603
1783153254753324500,9.891324462890625,-0.0024747848510742188,0.003461897373199463,0.013745799660682678
1783153254763036200,9.9010361328125,0.01169586181640625,-0.0036000311374664307,0.0018345266580581665
1783153254772747800,9.910747802734376,0.0067901611328125,0.0011152774095535278,-0.0005212575197219849
1783153254782459100,9.920459228515625,-0.00039196014404296875,0.0009307265281677246,0.011171683669090271
1783153254792170800,9.930170654296875,-0.0003871917724609375,-0.006203353404998779,-0.017290353775024414
1783153254801882000,9.939882080078124,-0.007450103759765625,-0.0014489740133285522,0.0015785545110702515
1783153254811593700,9.94959375,0.006798744201660156,-0.006074860692024231,-0.007890045642852783
1783153254821305000,9.95930517578125,-0.0097808837890625,0.0012631118297576904,0.0019743889570236206
1783153254831016700,9.9690166015625,-0.004910469055175781,-0.0058736056089401245,0.011387243866920471
1783153254840728300,9.978728271484375,0.006946563720703125,0.008467897772789001,0.008929386734962463
1783153254850439700,9.988439697265624,-0.00258636474609375,-0.0011430978775024414,0.00410112738609314
1783153254860151300,9.9981513671875,0.011584281921386719,-0.012892410159111023,-0.00765073299407959
1783153254869863000,10.00786279296875,0.016089439392089844,0.027229249477386475,-0.007833197712898254
1783153254879574300,10.01757421875,-0.0006723403930664062,-0.01600053906440735,-0.005486920475959778
1783153254889286000,10.027285888671875,-0.0030183792114257812,0.01722608506679535,0.020360872149467468
1783153254898997200,10.036997314453124,0.006442070007324219,-0.011424511671066284,-0.0013060718774795532
1783153254908708900,10.046708984375,0.006327629089355469,-0.006520196795463562,0.012525498867034912
1783153254918420500,10.05642041015625,0.013284683227539062,-0.00170193612575531,0.012291237711906433
1783153254928131800,10.0661318359375,0.0036497116088867188,0.0032075345516204834,-0.0020642876625061035
1783153254937843500,10.075843505859375,-0.003475189208984375,0.0007952898740768433,-0.011523991823196411
1783153254947554800,10.085554931640624,-0.017543792724609375,0.0007817894220352173,0.0027691125869750977
1783153254957266400,10.095266357421876,-0.0007696151733398438,0.010301083326339722,-0.004365131258964539
1783153254966977800,10.104977783203125,-0.007819175720214844,-0.003994598984718323,0.002744719386100769
1783153254976689400,10.114689453125,-0.00533294677734375,0.007845595479011536,-0.00427614152431488
1783153254986401000,10.124401123046875,0.0018167495727539062,-0.0017579197883605957,0.014603227376937866
1783153254996112400,10.1341123046875,0.008854866027832031,-0.004025891423225403,-0.006680577993392944
1783153255005824000,10.143823974609376,-0.007770538330078125,0.0008079558610916138,-0.02537114918231964
1783153255015535600,10.15353564453125,0.01825714111328125,-0.013210833072662354,-0.00379006564617157
1783153255025247000,10.1632470703125,0.003826141357421875,-0.010633811354637146,-0.0013995170593261719
1783153255034958600,10.17295849609375,0.017897605895996094,0.017913654446601868,-0.0011198967695236206
1783153255044670000,10.182669921875,-0.008296012878417969,-0.0011000484228134155,-0.012957602739334106
1783153255054381600,10.192381591796876,0.013028144836425781,0.013044655323028564,0.008420631289482117
1783153255064093200,10.20209326171875,0.010466575622558594,0.02477671205997467,-0.008001312613487244
1783153255073804500,10.211804443359375,0.005581855773925781,0.0008830726146697998,0.006171867251396179
1783153255083516200,10.22151611328125,0.00077056884765625,-0.003897443413734436,0.010410204529762268
1783153255093227500,10.2312275390625,-0.0063114166259765625,-0.006128326058387756,0.0028627365827560425
1783153255102939100,10.240939208984376,0.010263442993164062,0.008045896887779236,0.018923193216323853
1783153255112650500,10.250650390625,0.000682830810546875,0.005787491798400879,-0.007199525833129883
1783153255122362000,10.260362060546875,0.005385398864746094,-0.006078779697418213,-0.006819173693656921
1783153255132073700,10.27007373046875,-0.015892982482910156,0.005621775984764099,-0.016032129526138306
1783153255141785000,10.27978515625,-0.013276100158691406,0.00564362108707428,0.0028716325759887695
1783153255151496700,10.28949658203125,0.0034313201904296875,0.01973310112953186,-0.008686855435371399
1783153255161208300,10.299208251953125,0.005722999572753906,0.00040321052074432373,0.0008465349674224854
1783153255170919700,10.308919677734375,-0.013203620910644531,0.00981593132019043,0.0008627474308013916
1783153255180631300,10.31863134765625,-0.015344619750976562,0.014183193445205688,-0.003993168473243713
1783153255190342700,10.3283427734375,-0.008030891418457031,-0.004945635795593262,0.005353018641471863
1783153255200054300,10.33805419921875,-0.000827789306640625,0.00018937885761260986,0.0052383095026016235
1783153255209766000,10.347765869140625,0.0038928985595703125,0.009607106447219849,-0.009059533476829529
1783153255219477200,10.357477294921875,-0.0055904388427734375,-0.004674121737480164,-0.00899389386177063
1783153255229188900,10.36718896484375,0.0015726089477539062,-0.016250237822532654,0.01489982008934021
1783153255238900500,10.376900390625,-0.005520820617675781,-0.006677195429801941,-0.01838858425617218
1783153255248611800,10.38661181640625,0.008697509765625,0.012208819389343262,0.014968156814575195
1783153255258323500,10.396323486328125,0.0038499832153320312,0.019184887409210205,0.010154932737350464
1783153255268034800,10.406034912109375,-0.005631446838378906,0.016515016555786133,-0.006521865725517273
1783153255277746400,10.415746337890624,0.00152587890625,-0.016604915261268616,0.005276471376419067
1783153255287457800,10.425457763671876,-0.0032033920288085938,0.00497514009475708,0.009985759854316711
1783153255297169400,10.43516943359375,0.0062732696533203125,-0.001994788646697998,-0.0018083155155181885
1783153255306881000,10.444881103515625,0.006173133850097656,-0.013561278581619263,0.01002579927444458
1783153255316592400,10.45459228515625,0.001369476318359375,0.012675032019615173,0.0005892664194107056
1783153255326304000,10.464303955078124,0.008406639099121094,0.002930968999862671,-0.004151761531829834
1783153255336015600,10.474015625,0.010622978210449219,0.0028261393308639526,-0.015707552433013916
1783153255345727000,10.48372705078125,0.0033845901489257812,0.009902894496917725,0.0128336101770401
1783153255355438600,10.4934384765625,0.015110015869140625,0.019331663846969604,-0.017728522419929504
1783153255365150000,10.50314990234375,-0.006335258483886719,-0.021236494183540344,0.0013723224401474
1783153255374861600,10.512861572265624,0.0031795501708984375,0.00495477020740509,-0.013027235865592957
1783153255384573200,10.5225732421875,-0.003932952880859375,0.009524613618850708,0.0014610737562179565
1783153255394284500,10.532284423828125,0.005547523498535156,-0.002349644899368286,-0.0009974390268325806
1783153255403996200,10.54199609375,0.0007495880126953125,0.004811927676200867,-0.008013099431991577
1783153255413707500,10.55170751953125,-0.0016117095947265625,0.016503900289535522,-0.0029679685831069946
1783153255423419100,10.561419189453124,-0.003936767578125,-0.000017762184143066406,-0.0030610263347625732
1783153255433130800,10.571130859375,0.0031871795654296875,-0.004723221063613892,0.006265610456466675
1783153255442842000,10.580842041015625,0.007848739624023438,0.0024750232696533203,-0.005462437868118286
1783153255452553700,10.5905537109375,0.010072708129882812,0.00007931888103485107,0.006432592868804932
1783153255462265000,10.60026513671875,0.016968727111816406,-0.0022178292274475098,0.0040028393268585205
1783153255471976700,10.609976806640624,0.0025529861450195312,0.00011590123176574707,0.008391663432121277
1783153255481688300,10.619688232421876,0.011926651000976562,0.007119134068489075,-0.00584036111831665
1783153255491399700,10.629399658203125,-0.00004673004150390625,0.002347588539123535,-0.0059373825788497925
1783153255501111300,10.639111328125,0.007015228271484375,0.0047181397676467896,-0.008329808712005615
1783153255510822700,10.64882275390625,0.013965606689453125,0.0024566054344177246,-0.003449574112892151
1783153255520534300,10.6585341796875,0.0019712448120117188,0.004882514476776123,0.0016365647315979004
1783153255530246000,10.668245849609375,-0.0004100799560546875,-0.000020429491996765137,0.0019268542528152466
1783153255539957200,10.677957275390625,-0.0074672698974609375,-0.002484545111656189,-0.016909822821617126
1783153255549668900,10.6876689453125,0.0067768096923828125,0.0021521002054214478,0.0044199079275131226
1783153255559380500,10.69738037109375,0.020783424377441406,0.004412993788719177,0.008916109800338745
1783153255569091800,10.707091796875,-0.0054492950439453125,-0.00025194883346557617,0.004318162798881531
1783153255578803500,10.716803466796875,-0.003009796142578125,0.004348933696746826,0.0041621774435043335
1783153255588514800,10.726514892578125,-0.014730453491210938,-0.009906157851219177,-0.0029367804527282715
1783153255598226400,10.736226318359375,-0.002719879150390625,0.00444541871547699,0.00862625241279602
1783153255607938000,10.74593798828125,-0.005030632019042969,-0.0003872811794281006,-0.008027762174606323
1783153255617649400,10.7556494140625,0.004462242126464844,0.006509989500045776,0.02257208526134491
1783153255627361000,10.765361083984375,-0.00032138824462890625,-0.014725014567375183,0.007928162813186646
1783153255637072400,10.775072265625,-0.0050296783447265625,-0.005004420876502991,-0.006583377718925476
1783153255646784000,10.784783935546875,0.002117156982421875,0.0068526118993759155,-0.004089146852493286
1783153255656495600,10.79449560546875,-0.009690284729003906,-0.005034267902374268,-0.006455183029174805
1783153255666207000,10.80420703125,-0.011879920959472656,0.02094842493534088,-0.010911315679550171
1783153255675918600,10.813918701171875,0.0118560791015625,-0.002998664975166321,0.005667254328727722
1783153255685630000,10.8236298828125,-0.0024652481079101562,0.008945092558860779,0.005540609359741211
1783153255695341600,10.833341552734375,0.014058113098144531,-0.01945316791534424,-0.018004849553108215
1783153255705053200,10.84305322265625,-0.002655029296875,-0.00735822319984436,0.024760961532592773
1783153255714764500,10.8527646484375,-0.014376640319824219,0.004596680402755737,0.012720644474029541
1783153255724476200,10.86247607421875,-0.00002288818359375,0.011525243520736694,-0.006692171096801758
1783153255734187800,10.872187744140625,-0.00002384185791015625,-0.009796246886253357,-0.0019549131393432617
1783153255743899100,10.881899169921875,0.0023317337036132812,0.00931762158870697,-0.006714746356010437
1783153255753610800,10.89161083984375,0.0022916793823242188,-0.0026646554470062256,0.005199819803237915
1783153255763322000,10.901322021484376,0.0046062469482421875,0.030281081795692444,-0.004270642995834351
1783153255773033700,10.91103369140625,-0.000179290771484375,-0.0007697790861129761,0.007488846778869629
1783153255782745300,10.920745361328125,0.002170562744140625,-0.012643963098526001,0.014289438724517822
1783153255792456700,10.930456787109375,-0.0025663375854492188,-0.009904861450195312,0.007133379578590393
1783153255802168300,10.940168212890624,0.009245872497558594,0.006400614976882935,0.0025066137313842773
1783153255811879700,10.949879638671876,-0.00032711029052734375,-0.003238886594772339,-0.006917610764503479
1783153255821591300,10.95959130859375,-0.0026617050170898438,0.006404608488082886,0.0006921887397766113
1783153255831303000,10.969302978515625,-0.0002613067626953125,-0.0032320916652679443,-0.006235897541046143
1783153255841014300,10.97901416015625,-0.01673126220703125,-0.0006512999534606934,-0.0013919025659561157
1783153255850726000,10.988725830078126,0.01415252685546875,0.008833304047584534,-0.010809704661369324
1783153255860437500,10.9984375,0.006855964660644531,0.00162467360496521,-0.008186474442481995
1783153255870148900,11.00814892578125,-0.0003223419189453125,0.0017160475254058838,0.005932629108428955
1783153255879860500,11.017860595703125,-0.009731292724609375,0.011279866099357605,0.010456785559654236
1783153255889571800,11.02757177734375,-0.011918067932128906,0.0016748309135437012,0.0034244507551193237
1783153255899283500,11.037283447265626,-0.009363174438476562,-0.017186924815177917,0.01993696391582489
1783153255908994800,11.046994873046875,0.004910469055175781,0.0019886046648025513,-0.00424601137638092
1783153255918706400,11.05670654296875,0.009539604187011719,0.011547863483428955,0.005156189203262329
1783153255928418000,11.06641796875,0.0023164749145507812,-0.0003014802932739258,-0.018610239028930664
1783153255938129400,11.07612939453125,-0.0024328231811523438,0.0019445866346359253,-0.025331005454063416
1783153255947841000,11.085841064453126,0.0023202896118164062,-0.0004936754703521729,0.015311717987060547
1783153255957552600,11.095552734375,-0.007130622863769531,-0.00036989152431488037,0.0033171921968460083
1783153255967264000,11.105263916015625,-0.0023031234741210938,-0.0052438825368881226,0.0011122524738311768
1783153255976975600,11.1149755859375,0.00008869171142578125,0.006727159023284912,0.0033107250928878784
1783153255986687000,11.12468701171875,-0.011688232421875,-0.0006207823753356934,-0.00853826105594635
1783153255996398600,11.134398681640626,0.0002803802490234375,0.006399065256118774,-0.00118999183177948
1783153256006110200,11.144110107421875,0.0049839019775390625,-0.0008232742547988892,-0.0010839849710464478
1783153256015821600,11.153821533203125,0.009613990783691406,0.006141334772109985,-0.012577861547470093
1783153256025533200,11.163533203125,0.004733085632324219,0.005700021982192993,0.006322816014289856
1783153256035244800,11.173244873046874,0.007010459899902344,-0.0038076788187026978,0.0038922280073165894
1783153256044956200,11.1829560546875,0.0021762847900390625,0.0031552761793136597,0.00603504478931427
1783153256054667800,11.192667724609375,0.009206771850585938,-0.001604527235031128,-0.003336310386657715
1783153256064379400,11.20237939453125,0.00199127197265625,-0.006284981966018677,-0.007957413792610168
1783153256074090800,11.2120908203125,-0.009808540344238281,-0.006117507815361023,0.004031047224998474
1783153256083802400,11.22180224609375,0.0044803619384765625,0.0010453462600708008,0.008763790130615234
1783153256093513700,11.231513671875,-0.012073516845703125,0.015154287219047546,-0.005532965064048767
1783153256103225300,11.241225341796875,-0.0024471282958984375,-0.0014049410820007324,0.0018250346183776855
1783153256112936700,11.250936767578125,-0.004748344421386719,0.020037591457366943,-0.002654731273651123
1783153256122648300,11.2606484375,-0.0046596527099609375,-0.010728195309638977,-0.000053063035011291504
1783153256132360000,11.27035986328125,-0.0022249221801757812,-0.0011856704950332642,-0.0022630393505096436
1783153256142071300,11.2800712890625,0.0025224685668945312,-0.008055761456489563,-0.02584993839263916
1783153256151783000,11.289782958984375,-0.004582405090332031,-0.01038883626461029,0.0005658864974975586
1783153256161494500,11.29949462890625,-0.011570930480957031,-0.010384559631347656,0.0005867928266525269
1783153256171206000,11.309205810546874,-0.016098976135253906,-0.008194774389266968,-0.0019782334566116333
1783153256180917500,11.31891748046875,-0.001708984375,0.001298278570175171,0.0027416348457336426
1783153256190628900,11.32862890625,0.012450218200683594,0.006040483713150024,0.01226140558719635
1783153256200340500,11.338340576171875,0.0098876953125,-0.010424017906188965,0.002500399947166443
1783153256210052000,11.348052001953125,0.005008697509765625,-0.003243669867515564,0.0046730637550354
1783153256219763500,11.357763427734374,-0.006846427917480469,-0.003075510263442993,0.004399478435516357
1783153256229475000,11.36747509765625,-0.002025604248046875,-0.0029615312814712524,0.013656258583068848
1783153256239186400,11.3771865234375,0.00036716461181640625,0.006567329168319702,0.001799657940864563
1783153256248898000,11.38689794921875,0.0097808837890625,0.020524173974990845,0.02310614287853241
1783153256258609700,11.396609619140625,-0.0021543502807617188,0.0011239349842071533,-0.014745593070983887
1783153256268321000,11.406321044921874,0.0072956085205078125,0.010470360517501831,-0.00046131014823913574
1783153256278032600,11.41603271484375,-0.004590034484863281,-0.001358136534690857,0.01151922345161438
1783153256287744300,11.425744140625,0.0002002716064453125,0.010379508137702942,-0.014308556914329529
1783153256297455600,11.43545556640625,0.0001926422119140625,-0.006444662809371948,0.011801913380622864
1783153256307167200,11.445167236328125,-0.013936042785644531,0.01726454496383667,-0.004958167672157288
1783153256316878800,11.45487890625,0.007485389709472656,-0.008863911032676697,-0.016669362783432007
1783153256326590200,11.464590087890626,-0.002056121826171875,0.012415632605552673,0.00017668306827545166
1783153256336301800,11.4743017578125,-0.0020227432250976562,0.0028502941131591797,0.0047994256019592285
1783153256346013200,11.48401318359375,0.0027189254760742188,0.00039696693420410156,-0.011732250452041626
1783153256355724800,11.493724853515625,0.00031757354736328125,-0.001905485987663269,-0.009322389960289001
1783153256365436400,11.5034365234375,0.005023956298828125,0.002834409475326538,-0.006665453314781189
1783153256375147800,11.513147705078126,-0.0068264007568359375,-0.0088653564453125,0.00995403528213501
1783153256384859400,11.522859375,-0.0020036697387695312,0.01965266466140747,0.014409869909286499
1783153256394570800,11.53257080078125,0.0027360916137695312,-0.013575255870819092,0.004613041877746582
1783153256404282400,11.542282470703125,-0.0043735504150390625,-0.0016383528709411621,0.004514649510383606
1783153256413994000,11.551993896484374,-0.00665283203125,-0.008668094873428345,0.002170071005821228
1783153256423705300,11.561705322265626,-0.0018329620361328125,0.0033057332038879395,-0.00024577975273132324
1783153256433417000,11.5714169921875,-0.006516456604003906,-0.013284727931022644,-0.012209698557853699
1783153256443128600,11.581128662109375,0.0077190399169921875,0.010598570108413696,-0.007384508848190308
1783153256452840000,11.59083984375,-0.004178047180175781,-0.015414431691169739,0.00930546224117279
1783153256462551600,11.600551513671874,-0.008814811706542969,-0.005736619234085083,0.002116769552230835
