time,seconds_elapsed,z,y,x
1783153245051529000,0.189529052734375,0.0005344913806766272,0.00030542362947016954,-0.0018325417768210173
1783153245061240300,0.199240234375,0.0005344913806766272,0.0015271181473508477,-0.0012216945178806782
1783153245070952000,0.208951904296875,-0.00007635590736754239,-0.0009162708884105086,0.0006108472589403391
1783153245080663300,0.218663330078125,-0.00007635590736754239,-0.0009162708884105086,-0.0012216945178806782
1783153245090375000,0.228375,0.0005344913806766272,-0.0015271181473508477,0.0006108472589403391
1783153245100086300,0.238086181640625,-0.00007635590736754239,-0.00030542362947016954,0.0006108472589403391
1783153245109797600,0.247797607421875,-0.000687203137204051,-0.00030542362947016954,0.0036650835536420345
1783153245119509200,0.25750927734375,0.0005344913806766272,-0.0015271181473508477,0.0036650835536420345
1783153245129220900,0.267220947265625,0.0005344913806766272,-0.0021379655227065086,-0.0018325417768210173
1783153245138932200,0.27693212890625,-0.00129805039614439,0.00030542362947016954,-0.0012216945178806782
1783153245148643800,0.286643798828125,0.0011453386396169662,0.0009162708884105086,-0.0018325417768210173
1783153245158355200,0.296355224609375,-0.000687203137204051,0.003970507066696882,-0.0012216945178806782
1783153245168066800,0.30606689453125,-0.00007635590736754239,-0.0009162708884105086,-0.0018325417768210173
1783153245177778200,0.315778076171875,-0.0019088976550847292,-0.00030542362947016954,-0.0006108472589403391
1783153245187489800,0.32548974609375,-0.00129805039614439,0.00030542362947016954,-0.0012216945178806782
1783153245197201200,0.335201171875,0.0005344913806766272,-0.0009162708884105086,0.0030542362947016954
1783153245206912800,0.344912841796875,0.0011453386396169662,0.0009162708884105086,0.0006108472589403391
1783153245216624000,0.3546240234375,-0.00129805039614439,-0.0021379655227065086,0.0012216945178806782
1783153245226335700,0.364335693359375,-0.000687203137204051,0.00030542362947016954,-0.0006108472589403391
1783153245236047000,0.374047119140625,-0.00129805039614439,-0.0009162708884105086,0
1783153245245758500,0.383758544921875,0.0011453386396169662,-0.0009162708884105086,0
1783153245255470000,0.393469970703125,-0.0025197449140250683,-0.0015271181473508477,-0.0036650835536420345
1783153245265181700,0.403181640625,-0.000687203137204051,-0.002748812548816204,0.0012216945178806782
1783153245274893000,0.41289306640625,0.0005344913806766272,0.00030542362947016954,0.0012216945178806782
1783153245284604700,0.422604736328125,-0.00129805039614439,-0.0015271181473508477,0.0012216945178806782
1783153245294316000,0.43231591796875,-0.000687203137204051,-0.0021379655227065086,0.0024433890357613564
1783153245304027600,0.442027587890625,-0.00007635590736754239,0.0009162708884105086,0.0018325417768210173
1783153245313739000,0.451739013671875,0.0005344913806766272,0.0009162708884105086,-0.0018325417768210173
1783153245323450600,0.46145068359375,-0.0019088976550847292,0.0021379655227065086,0.0006108472589403391
1783153245333162000,0.471161865234375,-0.00007635590736754239,-0.00030542362947016954,0.0006108472589403391
1783153245342873600,0.48087353515625,-0.000687203137204051,0.00030542362947016954,0.0018325417768210173
1783153245352585000,0.4905849609375,-0.000687203137204051,-0.00030542362947016954,0.0012216945178806782
1783153245362296600,0.500296630859375,-0.000687203137204051,-0.0015271181473508477,0.0012216945178806782
1783153245372008000,0.510008056640625,-0.00007635590736754239,-0.00030542362947016954,-0.0006108472589403391
1783153245381719600,0.519719482421875,-0.0019088976550847292,0.00030542362947016954,0
1783153245391431000,0.529430908203125,0.0005344913806766272,0.0009162708884105086,-0.0006108472589403391
1783153245401142500,0.539142578125,0.0011453386396169662,-0.00030542362947016954,0.0006108472589403391
1783153245410854000,0.54885400390625,-0.00007635590736754239,0.0009162708884105086,-0.0024433890357613564
1783153245420565500,0.5585654296875,-0.00007635590736754239,-0.00030542362947016954,-0.0006108472589403391
1783153245430276900,0.56827685546875,0.0005344913806766272,-0.00030542362947016954,0
1783153245439988500,0.577988525390625,-0.00007635590736754239,0.0015271181473508477,0
1783153245449699800,0.587699951171875,0.0005344913806766272,0.00030542362947016954,0
1783153245459411500,0.597411376953125,0.0011453386396169662,-0.0009162708884105086,-0.0006108472589403391
1783153245469122800,0.607122802734375,-0.00129805039614439,0.00030542362947016954,-0.0006108472589403391
1783153245478834400,0.61683447265625,-0.00007635590736754239,-0.0021379655227065086,0.0006108472589403391
1783153245488545800,0.6265458984375,-0.00007635590736754239,0.002748812548816204,0.0012216945178806782
1783153245498257400,0.63625732421875,-0.00007635590736754239,-0.0009162708884105086,-0.0006108472589403391
1783153245507969000,0.645968994140625,0.0017561858985573053,-0.00030542362947016954,-0.0018325417768210173
1783153245517680400,0.655680419921875,0.0017561858985573053,-0.0015271181473508477,-0.0012216945178806782
1783153245527391700,0.665391845703125,-0.00007635590736754239,-0.0009162708884105086,0.0006108472589403391
1783153245537103400,0.675103271484375,-0.00007635590736754239,0.00030542362947016954,-0.0006108472589403391
1783153245546815000,0.68481494140625,-0.000687203137204051,0.002748812548816204,0
1783153245556526300,0.6945263671875,-0.000687203137204051,0.0021379655227065086,-0.0018325417768210173
1783153245566238000,0.704238037109375,0.0011453386396169662,0.00030542362947016954,0.0018325417768210173
1783153245575949300,0.71394921875,-0.0037414394319057465,0.002748812548816204,0.0006108472589403391
1783153245585661000,0.723660888671875,-0.00129805039614439,0.0009162708884105086,-0.0024433890357613564
1783153245595372300,0.733372314453125,-0.00007635590736754239,0.003359660040587187,-0.0006108472589403391
1783153245605084000,0.743083984375,-0.0019088976550847292,-0.00030542362947016954,-0.0006108472589403391
1783153245614795300,0.752795166015625,-0.0019088976550847292,0.00030542362947016954,-0.0006108472589403391
1783153245624507000,0.7625068359375,-0.00007635590736754239,0.0015271181473508477,0.0036650835536420345
1783153245634218200,0.77221826171875,0.0011453386396169662,-0.003359660040587187,-0.0006108472589403391
1783153245643929900,0.781929931640625,0.0005344913806766272,0.0009162708884105086,-0.0012216945178806782
1783153245653641200,0.79164111328125,-0.00129805039614439,-0.0015271181473508477,0
1783153245663352800,0.801352783203125,-0.000687203137204051,-0.00030542362947016954,0.0006108472589403391
1783153245673064200,0.811064208984375,-0.00007635590736754239,0.00030542362947016954,-0.0006108472589403391
1783153245682775800,0.82077587890625,-0.000687203137204051,0.0021379655227065086,-0.0030542362947016954
1783153245692487200,0.830487060546875,-0.00007635590736754239,-0.0009162708884105086,0
1783153245702198800,0.84019873046875,0.0005344913806766272,0.0009162708884105086,-0.0012216945178806782
1783153245711910100,0.84991015625,0.0011453386396169662,0.0021379655227065086,0.0006108472589403391
1783153245721621800,0.859621826171875,-0.000687203137204051,0.0021379655227065086,0.0006108472589403391
1783153245731333400,0.86933349609375,-0.000687203137204051,-0.0015271181473508477,-0.0006108472589403391
1783153245741044700,0.879044677734375,-0.000687203137204051,-0.0009162708884105086,0.0006108472589403391
1783153245750756400,0.88875634765625,-0.0031305921729654074,-0.0015271181473508477,-0.0012216945178806782
1783153245760467700,0.8984677734375,-0.00129805039614439,0.00030542362947016954,0
1783153245770179300,0.908179443359375,0.0005344913806766272,0.003359660040587187,0.0018325417768210173
1783153245779890700,0.917890625,-0.00007635590736754239,0.0009162708884105086,0
1783153245789602300,0.927602294921875,-0.00129805039614439,0.0015271181473508477,0
1783153245799313700,0.937313720703125,-0.00007635590736754239,0.0021379655227065086,-0.0018325417768210173
1783153245809025300,0.947025390625,-0.00129805039614439,-0.00030542362947016954,-0.0006108472589403391
1783153245818736600,0.956736572265625,-0.0019088976550847292,0.00030542362947016954,-0.0024433890357613564
1783153245828448300,0.9664482421875,-0.0019088976550847292,0.0015271181473508477,-0.0006108472589403391
1783153245838159600,0.97615966796875,0.0017561858985573053,-0.00030542362947016954,0.0012216945178806782
1783153245847871200,0.985871337890625,-0.000687203137204051,-0.00030542362947016954,-0.0006108472589403391
1783153245857582600,0.99558251953125,-0.00129805039614439,0.00030542362947016954,0
1783153245867294200,1.005294189453125,0.0005344913806766272,-0.002748812548816204,0
1783153245877005800,1.015005859375,-0.000687203137204051,-0.00030542362947016954,0.0006108472589403391
1783153245886717200,1.02471728515625,-0.00129805039614439,0.0009162708884105086,0.0006108472589403391
1783153245896428800,1.0344287109375,-0.000687203137204051,0.0009162708884105086,-0.0006108472589403391
1783153245906140200,1.04414013671875,-0.000687203137204051,0.0021379655227065086,0.0012216945178806782
1783153245915851800,1.053851806640625,-0.00129805039614439,-0.00030542362947016954,0.0012216945178806782
1783153245925563100,1.063563232421875,0.0005344913806766272,-0.0015271181473508477,-0.0006108472589403391
1783153245935274800,1.073274658203125,0.0011453386396169662,-0.0015271181473508477,-0.0006108472589403391
1783153245944986000,1.082986083984375,-0.000687203137204051,-0.00030542362947016954,-0.0018325417768210173
1783153245954697700,1.09269775390625,-0.000687203137204051,0.0009162708884105086,-0.0024433890357613564
1783153245964409000,1.1024091796875,-0.000687203137204051,-0.002748812548816204,0.0012216945178806782
1783153245974120700,1.11212060546875,0.0011453386396169662,-0.0015271181473508477,-0.0006108472589403391
1783153245983832000,1.12183203125,0.0005344913806766272,0.0009162708884105086,-0.0006108472589403391
1783153245993543700,1.131543701171875,-0.000687203137204051,-0.00030542362947016954,-0.0012216945178806782
1783153246003255300,1.14125537109375,0.0011453386396169662,-0.0009162708884105086,0
1783153246012966700,1.150966552734375,0.0017561858985573053,-0.0015271181473508477,-0.0006108472589403391
1783153246022678300,1.16067822265625,-0.00129805039614439,0.00030542362947016954,0.0006108472589403391
1783153246032389600,1.1703896484375,-0.00007635590736754239,-0.00030542362947016954,-0.0012216945178806782
1783153246042101200,1.180101318359375,-0.00007635590736754239,-0.00030542362947016954,0.0012216945178806782
1783153246051812600,1.1898125,-0.0019088976550847292,-0.0009162708884105086,-0.0006108472589403391
1783153246061524200,1.199524169921875,-0.00129805039614439,-0.0015271181473508477,0.0018325417768210173
1783153246071235600,1.209235595703125,-0.00129805039614439,0.0009162708884105086,-0.0018325417768210173
1783153246080947200,1.218947265625,-0.0019088976550847292,0.0015271181473508477,-0.0018325417768210173
1783153246090658800,1.228658935546875,-0.00129805039614439,0.003359660040587187,0
1783153246100370200,1.2383701171875,-0.0019088976550847292,0.0015271181473508477,0.0006108472589403391
1783153246110081500,1.24808154296875,0.0005344913806766272,0.0021379655227065086,-0.0012216945178806782
1783153246119793200,1.257793212890625,0.0017561858985573053,-0.00030542362947016954,-0.0006108472589403391
1783153246129504800,1.2675048828125,-0.00129805039614439,0.0021379655227065086,-0.0024433890357613564
1783153246139216100,1.277216064453125,0.0005344913806766272,-0.0009162708884105086,0.0012216945178806782
1783153246148927700,1.286927734375,0.0005344913806766272,-0.00030542362947016954,-0.0006108472589403391
1783153246158639000,1.29663916015625,-0.000687203137204051,-0.00030542362947016954,-0.0006108472589403391
1783153246168350700,1.306350830078125,0.0011453386396169662,0.0021379655227065086,-0.0006108472589403391
1783153246178062000,1.31606201171875,-0.00129805039614439,-0.0009162708884105086,0
1783153246187773700,1.325773681640625,0.0011453386396169662,-0.0009162708884105086,0
1783153246197485000,1.335485107421875,-0.00129805039614439,0.0009162708884105086,0.0012216945178806782
1783153246207196700,1.34519677734375,-0.0019088976550847292,-0.0021379655227065086,0.0006108472589403391
1783153246216908300,1.354908203125,-0.0019088976550847292,-0.0009162708884105086,0
1783153246226619600,1.36461962890625,0.0005344913806766272,-0.00030542362947016954,-0.0012216945178806782
1783153246236331300,1.374331298828125,-0.000687203137204051,-0.0009162708884105086,-0.0018325417768210173
1783153246246042600,1.384042724609375,-0.00007635590736754239,-0.0015271181473508477,-0.0006108472589403391
1783153246255754200,1.393754150390625,-0.000687203137204051,0.00030542362947016954,-0.0018325417768210173
1783153246265465600,1.403465576171875,-0.00129805039614439,0.00030542362947016954,-0.0006108472589403391
1783153246275177200,1.41317724609375,0.0005344913806766272,0.00030542362947016954,-0.0018325417768210173
1783153246284888600,1.422888671875,-0.0019088976550847292,0.0021379655227065086,-0.0018325417768210173
1783153246294600200,1.43260009765625,-0.0019088976550847292,0.00030542362947016954,0.0006108472589403391
1783153246304311600,1.4423115234375,-0.0019088976550847292,-0.0009162708884105086,0.0006108472589403391
1783153246314023200,1.452023193359375,-0.0019088976550847292,0.0009162708884105086,-0.0006108472589403391
1783153246323734500,1.461734619140625,0.0005344913806766272,0.00030542362947016954,0.0012216945178806782
1783153246333446100,1.471446044921875,0.0011453386396169662,-0.0009162708884105086,0.0012216945178806782
1783153246343157800,1.48115771484375,0.0005344913806766272,0.0021379655227065086,0
1783153246352869000,1.490869140625,-0.00007635590736754239,0.003970507066696882,0
1783153246362580700,1.500580810546875,-0.00129805039614439,-0.00030542362947016954,-0.0006108472589403391
1783153246372292000,1.5102919921875,0.0011453386396169662,0.0021379655227065086,-0.0012216945178806782
1783153246382003700,1.520003662109375,0.0011453386396169662,-0.0015271181473508477,0.0012216945178806782
1783153246391715000,1.529715087890625,-0.00007635590736754239,-0.00030542362947016954,0.0006108472589403391
1783153246401426700,1.5394267578125,-0.00007635590736754239,0.0015271181473508477,0
1783153246411138000,1.549137939453125,0.0005344913806766272,0.002748812548816204,-0.0006108472589403391
1783153246420849700,1.558849609375,-0.00129805039614439,0.00030542362947016954,0.0006108472589403391
1783153246430561000,1.56856103515625,-0.000687203137204051,0.0015271181473508477,0.0006108472589403391
1783153246440272600,1.578272705078125,-0.00129805039614439,-0.0009162708884105086,0
1783153246449984300,1.587984375,-0.00007635590736754239,0.0021379655227065086,0.0018325417768210173
1783153246459695600,1.597695556640625,0.0005344913806766272,0.0009162708884105086,0
1783153246469407200,1.6074072265625,0.0011453386396169662,0.00030542362947016954,0.0012216945178806782
1783153246479118600,1.61711865234375,-0.00129805039614439,0.0021379655227065086,-0.0018325417768210173
1783153246488830200,1.626830322265625,-0.00007635590736754239,0.00030542362947016954,0.0012216945178806782
1783153246498541600,1.63654150390625,-0.0019088976550847292,-0.00030542362947016954,-0.0006108472589403391
1783153246508253200,1.646253173828125,0.0005344913806766272,-0.0015271181473508477,-0.0006108472589403391
1783153246517964800,1.65596484375,-0.000687203137204051,-0.0015271181473508477,0.0006108472589403391
1783153246527676200,1.66567626953125,-0.000687203137204051,0.0009162708884105086,-0.004275931045413017
1783153246537387800,1.6753876953125,-0.0025197449140250683,0.0021379655227065086,0.0012216945178806782
1783153246547099100,1.68509912109375,-0.00007635590736754239,-0.0021379655227065086,-0.0006108472589403391
1783153246556810800,1.694810791015625,-0.00007635590736754239,-0.0009162708884105086,-0.0012216945178806782
1783153246566522000,1.704522216796875,-0.000687203137204051,0.00030542362947016954,-0.0012216945178806782
1783153246576233700,1.714233642578125,-0.00129805039614439,0.00030542362947016954,0.0012216945178806782
1783153246585945000,1.723945068359375,0.0011453386396169662,0.00030542362947016954,0.0006108472589403391
1783153246595656700,1.73365673828125,0.0011453386396169662,0.0015271181473508477,0.0012216945178806782
1783153246605368000,1.7433681640625,-0.000687203137204051,-0.00030542362947016954,-0.0018325417768210173
1783153246615079700,1.75307958984375,-0.000687203137204051,0.003359660040587187,-0.0012216945178806782
1783153246624791300,1.762791259765625,-0.000687203137204051,0.00030542362947016954,-0.0006108472589403391
1783153246634502700,1.772502685546875,-0.00129805039614439,0.0021379655227065086,0.0006108472589403391
1783153246644214300,1.78221435546875,0.0005344913806766272,-0.0009162708884105086,0.0012216945178806782
1783153246653925600,1.791925537109375,0.0005344913806766272,0.0009162708884105086,-0.0018325417768210173
1783153246663637200,1.80163720703125,0.0005344913806766272,-0.002748812548816204,0
1783153246673348600,1.8113486328125,-0.000687203137204051,-0.00030542362947016954,-0.0006108472589403391
1783153246683060200,1.821060302734375,-0.000687203137204051,-0.00030542362947016954,-0.0024433890357613564
1783153246692771600,1.830771484375,-0.000687203137204051,0.0015271181473508477,-0.0018325417768210173
1783153246702483200,1.840483154296875,-0.00129805039614439,0.0009162708884105086,0.0012216945178806782
1783153246712194600,1.850194580078125,-0.00007635590736754239,0.003359660040587187,-0.0012216945178806782
1783153246721906200,1.85990625,-0.00129805039614439,-0.0009162708884105086,0.0006108472589403391
1783153246731617800,1.86961767578125,-0.00129805039614439,-0.00030542362947016954,0
1783153246741329200,1.8793291015625,0.0011453386396169662,-0.00030542362947016954,-0.0012216945178806782
1783153246751040800,1.889040771484375,-0.000687203137204051,-0.003359660040587187,-0.0030542362947016954
1783153246760752000,1.898752197265625,-0.0031305921729654074,0.0021379655227065086,-0.0018325417768210173
1783153246770463700,1.908463623046875,-0.0019088976550847292,0.0015271181473508477,-0.0018325417768210173
1783153246780175000,1.918175048828125,-0.0019088976550847292,0.0009162708884105086,-0.0012216945178806782
1783153246789886700,1.92788671875,-0.00007635590736754239,0.0015271181473508477,-0.0012216945178806782
1783153246799598000,1.93759814453125,0.0017561858985573053,-0.00030542362947016954,-0.0006108472589403391
1783153246809309700,1.947309814453125,-0.000687203137204051,-0.0015271181473508477,-0.0006108472589403391
1783153246819021300,1.957021240234375,0.0017561858985573053,0.0015271181473508477,0.0006108472589403391
1783153246828732700,1.966732666015625,0.0005344913806766272,0.00030542362947016954,0.0006108472589403391
1783153246838444300,1.9764443359375,-0.000687203137204051,0.0015271181473508477,0
1783153246848155600,1.98615576171875,-0.00007635590736754239,-0.0015271181473508477,0.0024433890357613564
1783153246857867300,1.9958671875,-0.00007635590736754239,0.0009162708884105086,-0.0006108472589403391
1783153246867578600,2.00557861328125,-0.0019088976550847292,0.00030542362947016954,-0.0024433890357613564
1783153246877290200,2.015290283203125,-0.00129805039614439,-0.00030542362947016954,-0.0006108472589403391
1783153246887001600,2.025001708984375,-0.00007635590736754239,0.0015271181473508477,0.0012216945178806782
1783153246896713200,2.034713134765625,0.0005344913806766272,0.00030542362947016954,0
1783153246906424800,2.0444248046875,-0.00007635590736754239,0.0009162708884105086,-0.0006108472589403391
1783153246916136200,2.05413623046875,-0.000687203137204051,0.0009162708884105086,0.0006108472589403391
1783153246925847800,2.063847900390625,-0.000687203137204051,-0.0009162708884105086,-0.0006108472589403391
1783153246935559200,2.07355908203125,-0.0025197449140250683,-0.004581354558467865,0.0018325417768210173
1783153246945270800,2.083270751953125,-0.0019088976550847292,0.00030542362947016954,-0.0006108472589403391
1783153246954982100,2.092982177734375,-0.000687203137204051,-0.00030542362947016954,0.0018325417768210173
1783153246964693800,2.10269384765625,-0.00129805039614439,-0.00030542362947016954,0.0012216945178806782
1783153246974405400,2.1124052734375,-0.00007635590736754239,-0.00030542362947016954,-0.0006108472589403391
1783153246984116700,2.12211669921875,-0.0025197449140250683,0.003970507066696882,-0.0006108472589403391
1783153246993828000,2.131828125,-0.000687203137204051,0.0015271181473508477,-0.0018325417768210173
1783153247003539700,2.141539794921875,-0.0025197449140250683,-0.0009162708884105086,-0.0018325417768210173
1783153247013251300,2.151251220703125,0.0017561858985573053,-0.0021379655227065086,0
1783153247022962700,2.160962646484375,-0.0019088976550847292,-0.00030542362947016954,0.0006108472589403391
1783153247032674300,2.17067431640625,-0.00007635590736754239,0.00030542362947016954,-0.0018325417768210173
1783153247042385700,2.1803857421875,0.0011453386396169662,0.002748812548816204,-0.0018325417768210173
1783153247052097300,2.19009716796875,0.0011453386396169662,0.00030542362947016954,-0.0012216945178806782
1783153247061808600,2.19980859375,-0.00007635590736754239,-0.0009162708884105086,0.0006108472589403391
1783153247071520300,2.209520263671875,-0.0019088976550847292,-0.0009162708884105086,-0.0012216945178806782
1783153247081232000,2.21923193359375,0.0005344913806766272,0.0015271181473508477,-0.0006108472589403391
1783153247090943200,2.228943115234375,0.0005344913806766272,0.0009162708884105086,0.0006108472589403391
1783153247100654800,2.23865478515625,-0.00007635590736754239,-0.003359660040587187,0.0006108472589403391
1783153247110366200,2.2483662109375,-0.00007635590736754239,-0.0015271181473508477,-0.0006108472589403391
1783153247120077800,2.258077880859375,-0.000687203137204051,-0.00030542362947016954,0.0012216945178806782
1783153247129789200,2.2677890625,-0.00129805039614439,-0.0009162708884105086,-0.0024433890357613564
1783153247139500800,2.277500732421875,0.0005344913806766272,0.00030542362947016954,0.0012216945178806782
1783153247149212200,2.287212158203125,0.0011453386396169662,-0.0009162708884105086,-0.0012216945178806782
1783153247158923800,2.296923828125,-0.00129805039614439,-0.0015271181473508477,0
1783153247168635400,2.306635498046875,-0.00007635590736754239,0.00030542362947016954,0
1783153247178346800,2.3163466796875,-0.00007635590736754239,0.00030542362947016954,-0.0036650835536420345
1783153247188058400,2.326058349609375,0.0029778804164379835,-0.0015271181473508477,0.0006108472589403391
1783153247197769700,2.335769775390625,0.0005344913806766272,0.00030542362947016954,0.0006108472589403391
1783153247207481300,2.3454814453125,-0.0019088976550847292,0.0009162708884105086,0
1783153247217192700,2.355192626953125,0.0011453386396169662,-0.0015271181473508477,-0.0006108472589403391
1783153247226904300,2.364904296875,-0.00007635590736754239,0.0015271181473508477,0
1783153247236616000,2.374615966796875,-0.00007635590736754239,0.0009162708884105086,-0.0018325417768210173
1783153247246327300,2.384327392578125,-0.000687203137204051,0.00030542362947016954,-0.0024433890357613564
1783153247256039000,2.394038818359375,-0.000687203137204051,-0.0009162708884105086,-0.0006108472589403391
1783153247265750300,2.403750244140625,0.0017561858985573053,-0.0015271181473508477,-0.0012216945178806782
1783153247275462000,2.4134619140625,-0.00007635590736754239,-0.00030542362947016954,0.0018325417768210173
1783153247285173200,2.42317333984375,-0.00007635590736754239,-0.0009162708884105086,0.0012216945178806782
1783153247294884900,2.432884765625,-0.00129805039614439,-0.0009162708884105086,0
1783153247304596200,2.44259619140625,0.0005344913806766272,-0.0021379655227065086,-0.0012216945178806782
1783153247314307800,2.452307861328125,0.0017561858985573053,0.0009162708884105086,0.0012216945178806782
1783153247324019200,2.462019287109375,0.0005344913806766272,-0.0021379655227065086,0.0024433890357613564
1783153247333730800,2.471730712890625,-0.0019088976550847292,0.0015271181473508477,0.0012216945178806782
1783153247343442400,2.4814423828125,0.0011453386396169662,0.0021379655227065086,0.0006108472589403391
1783153247353153800,2.49115380859375,-0.00129805039614439,0.00030542362947016954,0.0012216945178806782
1783153247362865400,2.500865478515625,0.0005344913806766272,0.004581354558467865,0.0006108472589403391
1783153247372576800,2.51057666015625,0.0005344913806766272,0.00030542362947016954,-0.0036650835536420345
1783153247382288400,2.520288330078125,-0.00007635590736754239,0.00030542362947016954,-0.0012216945178806782
1783153247392000000,2.53,-0.000687203137204051,-0.0009162708884105086,0.0006108472589403391
1783153247401711400,2.53971142578125,-0.00007635590736754239,0.0015271181473508477,-0.0006108472589403391
1783153247411423000,2.549423095703125,-0.00007635590736754239,0.0015271181473508477,0.0012216945178806782
1783153247421134300,2.55913427734375,-0.00007635590736754239,-0.0015271181473508477,0
1783153247430846000,2.568845947265625,0.0011453386396169662,-0.0009162708884105086,-0.0006108472589403391
1783153247440557300,2.578557373046875,-0.000687203137204051,0.00030542362947016954,-0.0012216945178806782
1783153247450269000,2.58826904296875,-0.000687203137204051,-0.0021379655227065086,-0.0024433890357613564
1783153247459980300,2.597980224609375,0.0005344913806766272,0.0021379655227065086,0
1783153247469692000,2.60769189453125,0.0011453386396169662,0.0015271181473508477,-0.0012216945178806782
1783153247479403300,2.6174033203125,0.0005344913806766272,-0.002748812548816204,-0.0018325417768210173
1783153247489115000,2.627114990234375,0.0017561858985573053,-0.003359660040587187,-0.0006108472589403391
1783153247498826500,2.636826416015625,0.0005344913806766272,-0.00030542362947016954,-0.0006108472589403391
1783153247508537900,2.646537841796875,-0.00007635590736754239,-0.0015271181473508477,-0.0006108472589403391
1783153247518249500,2.65624951171875,-0.00007635590736754239,-0.00030542362947016954,0.0006108472589403391
1783153247527960800,2.6659609375,-0.00129805039614439,-0.00030542362947016954,-0.0006108472589403391
1783153247537672400,2.67567236328125,-0.000687203137204051,0.0009162708884105086,0.0006108472589403391
1783153247547383800,2.6853837890625,0.0005344913806766272,-0.0009162708884105086,-0.0006108472589403391
1783153247557095400,2.695095458984375,0.0005344913806766272,-0.00030542362947016954,0.0012216945178806782
1783153247566807000,2.70480712890625,-0.00007635590736754239,0.00030542362947016954,-0.0036650835536420345
1783153247576518400,2.714518310546875,0.0011453386396169662,0.0009162708884105086,0
1783153247586230000,2.72422998046875,0.0005344913806766272,-0.0015271181473508477,0.0024433890357613564
1783153247595941400,2.73394140625,-0.00129805039614439,0.0009162708884105086,-0.0006108472589403391
1783153247605653000,2.743653076171875,0.0011453386396169662,0.0009162708884105086,-0.0018325417768210173
1783153247615364400,2.7533642578125,0.0005344913806766272,0.0021379655227065086,-0.0024433890357613564
1783153247625076000,2.763075927734375,-0.00129805039614439,-0.00030542362947016954,0.0012216945178806782
1783153247634787300,2.772787353515625,-0.000687203137204051,-0.00030542362947016954,-0.0018325417768210173
1783153247644499000,2.7824990234375,-0.00007635590736754239,0.0021379655227065086,-0.0006108472589403391
1783153247654210600,2.79221044921875,0.0005344913806766272,0.00030542362947016954,-0.0006108472589403391
1783153247663922000,2.801921875,-0.00007635590736754239,-0.00030542362947016954,-0.0006108472589403391
1783153247673633500,2.811633544921875,-0.00129805039614439,0.0009162708884105086,-0.0006108472589403391
1783153247683345000,2.821344970703125,-0.0019088976550847292,-0.00030542362947016954,0.0006108472589403391
1783153247693056500,2.831056396484375,0.0005344913806766272,-0.00030542362947016954,0.0018325417768210173
1783153247702767900,2.840767822265625,-0.000687203137204051,0.00030542362947016954,0.0006108472589403391
1783153247712479500,2.8504794921875,-0.0019088976550847292,0.0015271181473508477,-0.0012216945178806782
1783153247722191000,2.860191162109375,-0.00007635590736754239,0.0015271181473508477,0.0006108472589403391
1783153247731902500,2.86990234375,0.0005344913806766272,-0.00030542362947016954,-0.0012216945178806782
1783153247741614000,2.879614013671875,-0.000687203137204051,-0.0015271181473508477,0.0006108472589403391
1783153247751325400,2.889325439453125,0.0017561858985573053,0.0021379655227065086,0
1783153247761037000,2.899037109375,-0.00007635590736754239,0.002748812548816204,0.0012216945178806782
1783153247770748400,2.90874853515625,-0.0019088976550847292,-0.0015271181473508477,-0.0006108472589403391
1783153247780460000,2.9184599609375,0.0017561858985573053,-0.0009162708884105086,0.0030542362947016954
1783153247790171400,2.92817138671875,-0.00129805039614439,-0.00030542362947016954,0.0006108472589403391
1783153247799883000,2.937883056640625,-0.00007635590736754239,-0.00030542362947016954,-0.0006108472589403391
1783153247809594600,2.9475947265625,-0.0019088976550847292,0.00030542362947016954,0.0006108472589403391
1783153247819306000,2.957305908203125,-0.00007635590736754239,0.00030542362947016954,-0.0006108472589403391
1783153247829017600,2.967017578125,0.0005344913806766272,-0.00030542362947016954,0.0018325417768210173
1783153247838729000,2.97672900390625,0.0005344913806766272,-0.00030542362947016954,-0.0012216945178806782
1783153247848440600,2.986440673828125,-0.00007635590736754239,-0.0015271181473508477,0.0018325417768210173
1783153247858152000,2.99615185546875,-0.000687203137204051,0.0021379655227065086,0
1783153247867863600,3.005863525390625,-0.000687203137204051,-0.00030542362947016954,0.0012216945178806782
1783153247877575200,3.0155751953125,-0.000687203137204051,0.0009162708884105086,0.0006108472589403391
1783153247887286500,3.02528662109375,-0.000687203137204051,-0.0009162708884105086,0.0006108472589403391
1783153247896998100,3.034998046875,0.0005344913806766272,0.0015271181473508477,0.0018325417768210173
1783153247906709500,3.04470947265625,-0.000687203137204051,0.0015271181473508477,0.0006108472589403391
1783153247916421000,3.054421142578125,0.0005344913806766272,0.00030542362947016954,-0.0018325417768210173
1783153247926132500,3.064132568359375,-0.000687203137204051,0.00030542362947016954,0.0012216945178806782
1783153247935844000,3.073843994140625,-0.00007635590736754239,-0.0009162708884105086,0.0018325417768210173
1783153247945555500,3.083555419921875,-0.000687203137204051,0.0009162708884105086,0
1783153247955267000,3.09326708984375,0.0011453386396169662,0.00030542362947016954,0.0012216945178806782
1783153247964978700,3.102978759765625,0.0005344913806766272,-0.00030542362947016954,0.0006108472589403391
1783153247974690000,3.11268994140625,0.0005344913806766272,-0.002748812548816204,0.0012216945178806782
1783153247984401700,3.122401611328125,0.0011453386396169662,-0.0009162708884105086,0
1783153247994113000,3.132113037109375,-0.00007635590736754239,-0.0015271181473508477,0
1783153248003824600,3.14182470703125,-0.00129805039614439,0.00030542362947016954,0.0012216945178806782
1783153248013536300,3.151536376953125,0.0005344913806766272,-0.0009162708884105086,-0.0006108472589403391
1783153248023247600,3.16124755859375,-0.00129805039614439,0.00030542362947016954,-0.0030542362947016954
1783153248032959200,3.170959228515625,-0.000687203137204051,0.00030542362947016954,-0.0018325417768210173
1783153248042670600,3.180670654296875,-0.00129805039614439,0.0009162708884105086,-0.0012216945178806782
1783153248052382200,3.19038232421875,-0.000687203137204051,-0.00030542362947016954,-0.0006108472589403391
1783153248062093600,3.200093505859375,-0.00129805039614439,-0.0015271181473508477,-0.0006108472589403391
1783153248071805200,3.20980517578125,-0.000687203137204051,-0.0009162708884105086,-0.0012216945178806782
1783153248081516500,3.2195166015625,0.0005344913806766272,-0.0009162708884105086,-0.0018325417768210173
1783153248091228200,3.229228271484375,-0.00007635590736754239,-0.00030542362947016954,-0.0006108472589403391
1783153248100939800,3.238939697265625,0.0011453386396169662,-0.0009162708884105086,-0.0012216945178806782
1783153248110651100,3.248651123046875,-0.0019088976550847292,-0.0021379655227065086,0.0012216945178806782
1783153248120362800,3.25836279296875,-0.0019088976550847292,0.0015271181473508477,-0.0012216945178806782
1783153248130074000,3.26807421875,-0.00007635590736754239,0.0009162708884105086,-0.0012216945178806782
1783153248139785700,3.27778564453125,-0.000687203137204051,0.0015271181473508477,-0.0024433890357613564
1783153248149497000,3.2874970703125,-0.00007635590736754239,-0.00030542362947016954,0.0018325417768210173
1783153248159208700,3.297208740234375,-0.00007635590736754239,0.00030542362947016954,0
1783153248168920300,3.30692041015625,-0.0019088976550847292,-0.0009162708884105086,0
1783153248178631700,3.316631591796875,-0.00007635590736754239,0.00030542362947016954,-0.0006108472589403391
1783153248188343300,3.32634326171875,-0.000687203137204051,-0.0021379655227065086,-0.0012216945178806782
1783153248198054700,3.3360546875,-0.0025197449140250683,0.00030542362947016954,0.0006108472589403391
1783153248207766300,3.345766357421875,-0.000687203137204051,0.0015271181473508477,0.0012216945178806782
1783153248217477600,3.3554775390625,-0.0019088976550847292,-0.003359660040587187,-0.0006108472589403391
1783153248227189200,3.365189208984375,-0.00007635590736754239,-0.0021379655227065086,0.0006108472589403391
1783153248236900600,3.374900634765625,0.0005344913806766272,-0.0009162708884105086,-0.0006108472589403391
1783153248246612200,3.3846123046875,0.0005344913806766272,-0.0015271181473508477,0.0006108472589403391
1783153248256323800,3.39432373046875,-0.000687203137204051,0.00030542362947016954,-0.0006108472589403391
1783153248266035200,3.40403515625,-0.0037414394319057465,0.0015271181473508477,0.0006108472589403391
1783153248275746800,3.413746826171875,-0.000687203137204051,0.00030542362947016954,0
1783153248285458200,3.423458251953125,-0.0019088976550847292,0.00030542362947016954,0.0006108472589403391
1783153248295169800,3.433169677734375,-0.000687203137204051,-0.00030542362947016954,0.0012216945178806782
1783153248304881400,3.44288134765625,-0.0019088976550847292,0.0015271181473508477,0
1783153248314592800,3.4525927734375,0.0005344913806766272,0.00030542362947016954,-0.0012216945178806782
1783153248324304400,3.462304443359375,-0.00129805039614439,0.0015271181473508477,0
1783153248334015700,3.472015625,-0.0025197449140250683,-0.0015271181473508477,-0.0006108472589403391
1783153248343727400,3.481727294921875,-0.0019088976550847292,-0.0009162708884105086,0.0012216945178806782
1783153248353438700,3.491438720703125,0.0011453386396169662,0.00030542362947016954,0
1783153248363150300,3.501150390625,-0.000687203137204051,-0.00030542362947016954,-0.0006108472589403391
1783153248372861700,3.51086181640625,-0.0019088976550847292,0.0009162708884105086,0.0006108472589403391
1783153248382573300,3.5205732421875,-0.00007635590736754239,0.003970507066696882,-0.0012216945178806782
1783153248392285000,3.530284912109375,0.0005344913806766272,0.0021379655227065086,-0.0018325417768210173
1783153248401996300,3.539996337890625,-0.00129805039614439,0.0021379655227065086,0
1783153248411708000,3.5497080078125,-0.00129805039614439,-0.002748812548816204,-0.0012216945178806782
1783153248421419300,3.559419189453125,-0.0019088976550847292,-0.00030542362947016954,-0.0012216945178806782
1783153248431131000,3.569130859375,0.0017561858985573053,0.0015271181473508477,0
1783153248440842200,3.57884228515625,-0.0025197449140250683,-0.0009162708884105086,-0.0012216945178806782
1783153248450553900,3.588553955078125,-0.000687203137204051,-0.00030542362947016954,0
1783153248460265500,3.598265380859375,0.0011453386396169662,0.00030542362947016954,0.0006108472589403391
1783153248469976800,3.607976806640625,0.0005344913806766272,-0.00030542362947016954,-0.0012216945178806782
1783153248479688400,3.6176884765625,-0.000687203137204051,0.0009162708884105086,-0.0018325417768210173
1783153248489399800,3.62739990234375,-0.00007635590736754239,-0.0009162708884105086,0.0012216945178806782
1783153248499111400,3.637111328125,-0.000687203137204051,-0.00030542362947016954,-0.0006108472589403391
1783153248508822800,3.64682275390625,0.0005344913806766272,0.00030542362947016954,-0.0006108472589403391
1783153248518534400,3.656534423828125,0.0011453386396169662,0.0015271181473508477,0
1783153248528246000,3.66624609375,-0.00007635590736754239,-0.002748812548816204,-0.0012216945178806782
1783153248537957400,3.675957275390625,-0.00129805039614439,-0.0009162708884105086,-0.0030542362947016954
1783153248547669000,3.6856689453125,-0.000687203137204051,-0.0009162708884105086,-0.0012216945178806782
1783153248557380400,3.69538037109375,-0.00007635590736754239,0.00030542362947016954,-0.0006108472589403391
1783153248567092000,3.705092041015625,-0.000687203137204051,-0.0009162708884105086,0.0006108472589403391
1783153248576803300,3.71480322265625,0.0005344913806766272,0.0015271181473508477,-0.0024433890357613564
1783153248586515000,3.724514892578125,0.0005344913806766272,-0.00030542362947016954,0.0006108472589403391
1783153248596226600,3.7342265625,-0.00129805039614439,0.00030542362947016954,0.0018325417768210173
1783153248605938000,3.74393798828125,-0.00007635590736754239,0.0009162708884105086,-0.0006108472589403391
1783153248615649500,3.7536494140625,-0.00007635590736754239,-0.0009162708884105086,0.0012216945178806782
1783153248625361000,3.76336083984375,0.0011453386396169662,-0.0015271181473508477,-0.0006108472589403391
1783153248635072500,3.773072509765625,-0.000687203137204051,-0.0009162708884105086,0.0006108472589403391
1783153248644784000,3.7827841796875,-0.00007635590736754239,0.003970507066696882,-0.0006108472589403391
1783153248654495500,3.79249560546875,-0.00129805039614439,-0.00030542362947016954,-0.0006108472589403391
1783153248664207000,3.80220703125,-0.00007635590736754239,0.00030542362947016954,-0.0024433890357613564
1783153248673918500,3.81191845703125,-0.00007635590736754239,0.0015271181473508477,-0.0030542362947016954
1783153248683630000,3.821630126953125,-0.00129805039614439,0.0009162708884105086,-0.0006108472589403391
1783153248693341400,3.831341552734375,-0.00129805039614439,-0.0009162708884105086,-0.0018325417768210173
1783153248703053000,3.841052978515625,-0.00007635590736754239,0.0009162708884105086,0
1783153248712764400,3.850764404296875,0.0005344913806766272,0.0015271181473508477,-0.0018325417768210173
1783153248722476000,3.86047607421875,-0.00129805039614439,-0.0009162708884105086,-0.0006108472589403391
1783153248732187600,3.870187744140625,0.0005344913806766272,-0.00030542362947016954,-0.0030542362947016954
1783153248741899000,3.87989892578125,0.0029778804164379835,-0.00030542362947016954,0.0018325417768210173
1783153248751610600,3.889610595703125,-0.00007635590736754239,0.0015271181473508477,0.0006108472589403391
1783153248761322000,3.899322021484375,-0.00007635590736754239,-0.00030542362947016954,-0.0012216945178806782
1783153248771033600,3.90903369140625,-0.00129805039614439,0.0021379655227065086,-0.0018325417768210173
1783153248780745200,3.9187451171875,-0.00007635590736754239,0.002748812548816204,0.0012216945178806782
1783153248790456600,3.92845654296875,-0.00007635590736754239,-0.0015271181473508477,-0.0006108472589403391
1783153248800168200,3.938168212890625,-0.00007635590736754239,0.0009162708884105086,-0.0006108472589403391
1783153248809879600,3.947879638671875,-0.0019088976550847292,0.0021379655227065086,-0.0012216945178806782
1783153248819591200,3.957591064453125,0.0005344913806766272,0.0015271181473508477,0.0006108472589403391
1783153248829302500,3.967302490234375,0.0011453386396169662,0.00030542362947016954,0.0006108472589403391
1783153248839014100,3.97701416015625,0.0005344913806766272,-0.00030542362947016954,0.0018325417768210173
1783153248848725800,3.986725830078125,-0.00129805039614439,-0.0015271181473508477,0.0006108472589403391
1783153248858437000,3.99643701171875,-0.0019088976550847292,-0.00030542362947016954,0.0012216945178806782
1783153248868148700,4.006148681640625,-0.00129805039614439,-0.0015271181473508477,0
1783153248877860000,4.015860107421875,0.0017561858985573053,-0.00030542362947016954,-0.0006108472589403391
1783153248887571700,4.02557177734375,0.0005344913806766272,0.0015271181473508477,-0.0006108472589403391
1783153248897283000,4.035282958984375,-0.0019088976550847292,-0.00030542362947016954,0.0012216945178806782
1783153248906994700,4.04499462890625,-0.00007635590736754239,0.00030542362947016954,-0.0030542362947016954
1783153248916706300,4.054706298828125,-0.000687203137204051,-0.00030542362947016954,0.0006108472589403391
1783153248926417700,4.064417724609375,-0.00007635590736754239,0.00030542362947016954,0.0012216945178806782
1783153248936129300,4.07412939453125,0.0011453386396169662,-0.0015271181473508477,-0.0006108472589403391
1783153248945840600,4.083840576171875,-0.00007635590736754239,0.00030542362947016954,-0.0024433890357613564
1783153248955552300,4.09355224609375,-0.00007635590736754239,0.0015271181473508477,-0.0012216945178806782
1783153248965264000,4.103263916015625,0.0005344913806766272,0.00030542362947016954,0.0012216945178806782
1783153248974975200,4.112975341796875,0.0011453386396169662,-0.003359660040587187,-0.0012216945178806782
1783153248984686800,4.122686767578125,0.0011453386396169662,-0.00030542362947016954,0.0006108472589403391
1783153248994398200,4.132398193359375,-0.000687203137204051,-0.0009162708884105086,-0.0006108472589403391
1783153249004109800,4.14210986328125,-0.00129805039614439,0.00030542362947016954,0.0012216945178806782
1783153249013821200,4.1518212890625,-0.000687203137204051,0.0009162708884105086,0
1783153249023532800,4.16153271484375,-0.00007635590736754239,-0.0015271181473508477,0.0006108472589403391
1783153249033244400,4.171244384765625,-0.000687203137204051,-0.0021379655227065086,0.0018325417768210173
1783153249042955800,4.180955810546875,-0.00129805039614439,-0.0009162708884105086,-0.0012216945178806782
1783153249052667400,4.19066748046875,0.0011453386396169662,-0.0015271181473508477,0.0012216945178806782
1783153249062378800,4.200378662109375,0.0005344913806766272,-0.0009162708884105086,0
1783153249072090400,4.21009033203125,-0.00007635590736754239,0.002748812548816204,-0.0006108472589403391
1783153249081802000,4.219802001953125,-0.00007635590736754239,0.00030542362947016954,0
1783153249091513300,4.229513427734375,-0.00007635590736754239,-0.00030542362947016954,-0.0012216945178806782
1783153249101225000,4.239224853515625,-0.000687203137204051,0.00030542362947016954,-0.0006108472589403391
1783153249110936300,4.248936279296875,-0.00129805039614439,0.0021379655227065086,0
1783153249120648000,4.25864794921875,-0.000687203137204051,-0.0021379655227065086,-0.0006108472589403391
1783153249130359300,4.268359375,-0.00007635590736754239,0.0015271181473508477,-0.0006108472589403391
1783153249140071000,4.27807080078125,0.0005344913806766272,0.002748812548816204,0.0018325417768210173
1783153249149782300,4.2877822265625,0.0011453386396169662,-0.00030542362947016954,0.0030542362947016954
1783153249159494000,4.297493896484375,0.0005344913806766272,-0.00030542362947016954,0.0012216945178806782
1783153249169205500,4.30720556640625,-0.0019088976550847292,-0.00030542362947016954,0.0006108472589403391
1783153249178916900,4.316916748046875,-0.00129805039614439,-0.00030542362947016954,0.0012216945178806782
1783153249188628500,4.32662841796875,-0.000687203137204051,-0.0015271181473508477,-0.0012216945178806782
1783153249198339800,4.33633984375,0.0017561858985573053,-0.0015271181473508477,0.0006108472589403391
1783153249208051500,4.346051513671875,-0.000687203137204051,0.0021379655227065086,0
1783153249217763000,4.35576318359375,0.0005344913806766272,-0.0009162708884105086,0.0018325417768210173
1783153249227474400,4.365474365234375,-0.000687203137204051,-0.0021379655227065086,-0.0018325417768210173
1783153249237186000,4.37518603515625,-0.00129805039614439,-0.0009162708884105086,-0.0006108472589403391
1783153249246897400,4.3848974609375,0.0005344913806766272,0.00030542362947016954,0.0018325417768210173
1783153249256609000,4.394609130859375,-0.00129805039614439,-0.0015271181473508477,0.0006108472589403391
1783153249266320600,4.404320556640625,0.0005344913806766272,-0.0009162708884105086,-0.0012216945178806782
1783153249276032000,4.414031982421875,-0.00007635590736754239,0.00030542362947016954,0.0012216945178806782
1783153249285743600,4.42374365234375,0.0005344913806766272,-0.0021379655227065086,0.0012216945178806782
1783153249295455000,4.433455078125,-0.0019088976550847292,0.0009162708884105086,0.0012216945178806782
1783153249305166600,4.44316650390625,-0.00007635590736754239,-0.0009162708884105086,0.0006108472589403391
1783153249314878000,4.4528779296875,-0.00007635590736754239,0.00030542362947016954,-0.0012216945178806782
1783153249324589600,4.462589599609375,-0.00129805039614439,0.00030542362947016954,-0.0006108472589403391
1783153249334301200,4.47230126953125,-0.0025197449140250683,0.0015271181473508477,-0.0012216945178806782
1783153249344012500,4.482012451171875,0.0005344913806766272,0.0009162708884105086,0
1783153249353724200,4.49172412109375,-0.000687203137204051,-0.00030542362947016954,-0.004886778071522713
1783153249363435500,4.501435546875,-0.00007635590736754239,-0.0015271181473508477,0.0018325417768210173
1783153249373147100,4.511147216796875,-0.000687203137204051,0.00030542362947016954,0.0006108472589403391
1783153249382858800,4.520858642578125,0.0011453386396169662,0.00030542362947016954,-0.0006108472589403391
1783153249392570000,4.530570068359375,-0.00129805039614439,0.00030542362947016954,-0.0006108472589403391
1783153249402281700,4.54028173828125,0.0005344913806766272,-0.0009162708884105086,-0.0006108472589403391
1783153249411993000,4.5499931640625,-0.000687203137204051,0.00030542362947016954,-0.0006108472589403391
1783153249421704700,4.55970458984375,-0.00129805039614439,-0.0015271181473508477,-0.0012216945178806782
1783153249431416000,4.569416015625,-0.00007635590736754239,0.00030542362947016954,-0.0018325417768210173
1783153249441127700,4.579127685546875,-0.00129805039614439,-0.00030542362947016954,-0.0024433890357613564
1783153249450839000,4.588839111328125,0.0029778804164379835,-0.0021379655227065086,-0.0012216945178806782
1783153249460550700,4.598550537109375,-0.00129805039614439,0.00030542362947016954,0.0012216945178806782
1783153249470262300,4.60826220703125,0.0011453386396169662,-0.00030542362947016954,-0.0006108472589403391
1783153249479973600,4.6179736328125,0.0005344913806766272,-0.0015271181473508477,-0.0012216945178806782
1783153249489685200,4.627685302734375,-0.0025197449140250683,-0.0009162708884105086,-0.0024433890357613564
1783153249499396600,4.637396728515625,-0.00129805039614439,0.0021379655227065086,0
1783153249509108200,4.647108154296875,0.0011453386396169662,0.0015271181473508477,-0.0018325417768210173
1783153249518819800,4.65681982421875,-0.000687203137204051,-0.0009162708884105086,0.0012216945178806782
1783153249528531200,4.66653125,-0.000687203137204051,-0.00030542362947016954,0
1783153249538242800,4.676242919921875,-0.0031305921729654074,0.00030542362947016954,-0.0018325417768210173
1783153249547954200,4.6859541015625,0.0005344913806766272,-0.0015271181473508477,0.0006108472589403391
1783153249557665800,4.695665771484375,0.0005344913806766272,0.0021379655227065086,-0.0024433890357613564
1783153249567377400,4.70537744140625,-0.00129805039614439,0.00030542362947016954,-0.0024433890357613564
1783153249577088800,4.7150888671875,-0.00129805039614439,-0.0015271181473508477,0
1783153249586800400,4.72480029296875,-0.00129805039614439,-0.003359660040587187,0.0018325417768210173
1783153249596511700,4.73451171875,-0.00129805039614439,-0.0009162708884105086,0.0006108472589403391
1783153249606223400,4.744223388671875,-0.00129805039614439,0.002748812548816204,0.0018325417768210173
1783153249615934700,4.753934814453125,-0.00007635590736754239,0.0009162708884105086,0
1783153249625646300,4.763646240234375,0.0017561858985573053,-0.00030542362947016954,0
1783153249635358000,4.77335791015625,-0.00129805039614439,-0.0009162708884105086,-0.0012216945178806782
1783153249645069300,4.7830693359375,-0.00007635590736754239,-0.0021379655227065086,0.0018325417768210173
1783153249654781000,4.792781005859375,-0.000687203137204051,0.00030542362947016954,-0.0024433890357613564
1783153249664492300,4.8024921875,-0.00007635590736754239,-0.0015271181473508477,0.0018325417768210173
1783153249674204000,4.812203857421875,-0.00129805039614439,-0.0021379655227065086,-0.0012216945178806782
1783153249683915500,4.82191552734375,-0.00007635590736754239,0.0015271181473508477,-0.0006108472589403391
1783153249693627000,4.831626953125,0.0011453386396169662,-0.0015271181473508477,-0.0006108472589403391
1783153249703338500,4.84133837890625,-0.0019088976550847292,0.00030542362947016954,-0.0006108472589403391
1783153249713049900,4.8510498046875,-0.000687203137204051,-0.00030542362947016954,-0.0006108472589403391
1783153249722761500,4.860761474609375,-0.000687203137204051,0.0009162708884105086,0
1783153249732473000,4.87047314453125,0.0011453386396169662,0.0009162708884105086,0.0006108472589403391
1783153249742184400,4.880184326171875,-0.00007635590736754239,-0.0009162708884105086,0.0024433890357613564
1783153249751896000,4.88989599609375,-0.00007635590736754239,0.0015271181473508477,-0.0006108472589403391
1783153249761607400,4.899607421875,-0.00007635590736754239,-0.00030542362947016954,-0.0006108472589403391
1783153249771319000,4.909319091796875,-0.0019088976550847292,0.0009162708884105086,0.0006108472589403391
1783153249781030400,4.919030517578125,-0.00129805039614439,0.0015271181473508477,0
1783153249790742000,4.928741943359375,-0.00007635590736754239,-0.00030542362947016954,0.0006108472589403391
1783153249800453600,4.93845361328125,-0.00129805039614439,0.0015271181473508477,-0.0006108472589403391
1783153249810165000,4.9481650390625,-0.00007635590736754239,0.0015271181473508477,0
1783153249819876600,4.957876708984375,0.0005344913806766272,0.0015271181473508477,0.0006108472589403391
1783153249829588000,4.967587890625,-0.0019088976550847292,0.0009162708884105086,0
1783153249839299600,4.977299560546875,-0.00007635590736754239,0.00030542362947016954,0.0012216945178806782
1783153249849011200,4.98701123046875,-0.00007635590736754239,-0.0015271181473508477,-0.0006108472589403391
1783153249858722600,4.99672265625,-0.000687203137204051,-0.0009162708884105086,0.0012216945178806782
1783153249868434200,5.00643408203125,0.0005344913806766272,0.0009162708884105086,0
1783153249878145500,5.0161455078125,-0.000687203137204051,-0.0009162708884105086,-0.0006108472589403391
1783153249887857200,5.025857177734375,0.0011453386396169662,0.00030542362947016954,-0.0036650835536420345
1783153249897568800,5.03556884765625,0.0005344913806766272,-0.002748812548816204,0
1783153249907280100,5.045280029296875,0.0005344913806766272,-0.003970507066696882,-0.0006108472589403391
1783153249916991500,5.054991455078125,-0.00129805039614439,0.0015271181473508477,0.0006108472589403391
1783153249926703000,5.064703125,-0.00129805039614439,0.0009162708884105086,0
1783153249936414700,5.074414794921875,0.0011453386396169662,-0.0009162708884105086,0.0006108472589403391
1783153249946126000,5.0841259765625,-0.00129805039614439,0.003970507066696882,-0.0024433890357613564
1783153249955837700,5.093837646484375,-0.00129805039614439,0.004581354558467865,-0.0018325417768210173
1783153249965549300,5.10354931640625,-0.00129805039614439,0.0015271181473508477,-0.0024433890357613564
1783153249975260700,5.1132607421875,-0.0019088976550847292,-0.00030542362947016954,-0.0006108472589403391
1783153249984972300,5.12297216796875,-0.000687203137204051,-0.0009162708884105086,0.0006108472589403391
1783153249994683600,5.13268359375,-0.0019088976550847292,-0.00030542362947016954,-0.0024433890357613564
1783153250004395300,5.142395263671875,-0.00007635590736754239,-0.0021379655227065086,0
1783153250014106600,5.152106689453125,-0.000687203137204051,-0.0015271181473508477,0.0012216945178806782
1783153250023818200,5.161818359375,-0.000687203137204051,-0.0015271181473508477,0.0024433890357613564
1783153250033529900,5.17152978515625,0.0011453386396169662,-0.0009162708884105086,-0.0006108472589403391
1783153250043241200,5.1812412109375,-0.00007635590736754239,-0.00030542362947016954,0
1783153250052952800,5.190952880859375,0.0011453386396169662,0.0009162708884105086,-0.0012216945178806782
1783153250062664200,5.200664306640625,0.0005344913806766272,0.0009162708884105086,0
1783153250072375800,5.210375732421875,0.0005344913806766272,0.0021379655227065086,-0.0012216945178806782
1783153250082087200,5.220087158203125,0.0005344913806766272,-0.0009162708884105086,0.0018325417768210173
1783153250091798800,5.229798828125,-0.000687203137204051,-0.00030542362947016954,0.0006108472589403391
1783153250101510400,5.239510498046875,0.0023670331574976444,-0.0021379655227065086,-0.0006108472589403391
1783153250111221800,5.2492216796875,-0.000687203137204051,0.0009162708884105086,0.0012216945178806782
1783153250120933400,5.258933349609375,-0.000687203137204051,-0.003359660040587187,0.0012216945178806782
1783153250130644700,5.268644775390625,0.0005344913806766272,0.002748812548816204,0.0006108472589403391
1783153250140356400,5.2783564453125,-0.0019088976550847292,0.00030542362947016954,-0.0012216945178806782
1783153250150068000,5.28806787109375,-0.000687203137204051,-0.00030542362947016954,0.0024433890357613564
1783153250159779300,5.297779296875,-0.00007635590736754239,0.00030542362947016954,0.0018325417768210173
1783153250169491000,5.307490966796875,0.0005344913806766272,-0.00030542362947016954,-0.0012216945178806782
1783153250179202300,5.317202392578125,-0.00007635590736754239,0.0015271181473508477,-0.0006108472589403391
1783153250188914000,5.326913818359375,-0.00007635590736754239,-0.00030542362947016954,0.0012216945178806782
1783153250198625500,5.33662548828125,-0.0025197449140250683,0.0009162708884105086,-0.0018325417768210173
1783153250208337000,5.3463369140625,-0.00007635590736754239,0.00030542362947016954,0.0006108472589403391
1783153250218048500,5.356048583984375,-0.0019088976550847292,-0.0021379655227065086,0.0012216945178806782
1783153250227759900,5.365759765625,-0.000687203137204051,-0.0021379655227065086,0.0012216945178806782
1783153250237471500,5.375471435546875,-0.0019088976550847292,0.00030542362947016954,0
1783153250247182800,5.385182861328125,-0.00129805039614439,0.002748812548816204,-0.004275931045413017
1783153250256894500,5.39489453125,-0.00129805039614439,0.003970507066696882,-0.0018325417768210173
1783153250266606000,5.404606201171875,-0.00007635590736754239,-0.00030542362947016954,-0.0012216945178806782
1783153250276317400,5.4143173828125,-0.00007635590736754239,-0.0015271181473508477,0
1783153250286029000,5.424029052734375,-0.000687203137204051,-0.0009162708884105086,0
1783153250295740400,5.433740478515625,-0.0025197449140250683,-0.00030542362947016954,0.0006108472589403391
1783153250305452000,5.4434521484375,0.0011453386396169662,0.00030542362947016954,0.0006108472589403391
1783153250315163600,5.45316357421875,0.0005344913806766272,-0.002748812548816204,0.0006108472589403391
1783153250324875000,5.462875,0.0005344913806766272,-0.0021379655227065086,-0.0024433890357613564
1783153250334586600,5.472586669921875,-0.000687203137204051,0.0009162708884105086,-0.0012216945178806782
1783153250344298000,5.482298095703125,0.0005344913806766272,0.0021379655227065086,0
1783153250354009600,5.492009521484375,-0.00007635590736754239,-0.0009162708884105086,-0.0006108472589403391
1783153250363721200,5.50172119140625,-0.000687203137204051,-0.003359660040587187,0.0006108472589403391
1783153250373432600,5.5114326171875,-0.0019088976550847292,0.0009162708884105086,0.0018325417768210173
1783153250383144200,5.521144287109375,-0.0019088976550847292,0.0015271181473508477,0.0006108472589403391
1783153250392855600,5.53085546875,-0.00007635590736754239,-0.00030542362947016954,0
1783153250402567200,5.540567138671875,-0.000687203137204051,-0.00030542362947016954,0.0006108472589403391
1783153250412278500,5.550278564453125,-0.000687203137204051,0.0009162708884105086,0
1783153250421990100,5.559990234375,-0.00007635590736754239,0.00030542362947016954,-0.0006108472589403391
1783153250431701800,5.56970166015625,0.0005344913806766272,-0.00030542362947016954,-0.0006108472589403391
1783153250441413000,5.5794130859375,0.0011453386396169662,-0.00030542362947016954,0.0024433890357613564
1783153250451124700,5.589124755859375,-0.000687203137204051,-0.00030542362947016954,0.0012216945178806782
1783153250460836000,5.598836181640625,-0.0025197449140250683,-0.0015271181473508477,0.0012216945178806782
1783153250470547700,5.608547607421875,-0.0031305921729654074,0.00030542362947016954,0
1783153250480259300,5.61825927734375,-0.00007635590736754239,-0.0009162708884105086,0
1783153250489970700,5.627970703125,-0.00129805039614439,-0.003970507066696882,0.0006108472589403391
1783153250499682300,5.637682373046875,-0.0025197449140250683,-0.00030542362947016954,0
1783153250509393700,5.6473935546875,0.0011453386396169662,0.0015271181473508477,0.0018325417768210173
1783153250519105300,5.657105224609375,-0.000687203137204051,0.0009162708884105086,0
1783153250528816600,5.666816650390625,0.0011453386396169662,-0.00030542362947016954,0.0018325417768210173
1783153250538528300,5.6765283203125,0.0005344913806766272,0.0009162708884105086,-0.0018325417768210173
1783153250548240000,5.686239990234375,0.0005344913806766272,-0.0009162708884105086,0
1783153250557951200,5.695951171875,0.0005344913806766272,-0.00030542362947016954,-0.0006108472589403391
1783153250567662800,5.705662841796875,0.0005344913806766272,-0.0015271181473508477,0
1783153250577374200,5.715374267578125,-0.000687203137204051,0.0015271181473508477,0.0006108472589403391
1783153250587085800,5.7250859375,-0.000687203137204051,0.0015271181473508477,0
1783153250596797400,5.73479736328125,-0.0037414394319057465,-0.0009162708884105086,-0.0006108472589403391
1783153250606508800,5.7445087890625,-0.00007635590736754239,0.0015271181473508477,-0.0012216945178806782
1783153250616220400,5.754220458984375,-0.00007635590736754239,-0.00030542362947016954,0
1783153250625931800,5.763931884765625,0.0005344913806766272,0.0015271181473508477,-0.0012216945178806782
1783153250635643400,5.773643310546875,-0.00129805039614439,-0.00030542362947016954,-0.0006108472589403391
1783153250645355000,5.78335498046875,0.0005344913806766272,0.0021379655227065086,-0.0006108472589403391
1783153250655066400,5.79306640625,0.0005344913806766272,-0.0021379655227065086,-0.0012216945178806782
1783153250664778000,5.802778076171875,-0.00007635590736754239,0.00030542362947016954,-0.0012216945178806782
1783153250674489300,5.8124892578125,-0.0019088976550847292,0.0009162708884105086,-0.0012216945178806782
1783153250684201000,5.822200927734375,0.0005344913806766272,-0.00030542362947016954,-0.0036650835536420345
1783153250693912300,5.831912353515625,0.0005344913806766272,0.0021379655227065086,-0.0030542362947016954
1783153250703624000,5.8416240234375,0.0017561858985573053,0.0009162708884105086,-0.0024433890357613564
1783153250713335600,5.85133544921875,-0.0025197449140250683,0.0009162708884105086,-0.0006108472589403391
1783153250723047000,5.861046875,0.0011453386396169662,-0.002748812548816204,0.0006108472589403391
1783153250732758500,5.870758544921875,0.0005344913806766272,-0.0021379655227065086,-0.0006108472589403391
1783153250742470000,5.880469970703125,-0.00007635590736754239,0.0009162708884105086,-0.0012216945178806782
1783153250752181500,5.890181396484375,0.0005344913806766272,-0.003970507066696882,-0.0012216945178806782
1783153250761893000,5.89989306640625,-0.000687203137204051,-0.00030542362947016954,-0.0006108472589403391
1783153250771604500,5.9096044921875,0.0011453386396169662,0.00030542362947016954,-0.0006108472589403391
1783153250781316000,5.919316162109375,0.0005344913806766272,0.0021379655227065086,-0.0006108472589403391
1783153250791027500,5.92902734375,-0.00007635590736754239,0.00030542362947016954,0.0024433890357613564
1783153250800739000,5.938739013671875,0.0005344913806766272,-0.0009162708884105086,-0.0012216945178806782
1783153250810450700,5.94845068359375,-0.000687203137204051,0.0009162708884105086,0.0012216945178806782
1783153250820162000,5.958162109375,-0.00007635590736754239,-0.0015271181473508477,-0.0012216945178806782
1783153250829873700,5.967873779296875,-0.000687203137204051,-0.00030542362947016954,0.0012216945178806782
1783153250839585000,5.9775849609375,-0.0019088976550847292,0.0021379655227065086,-0.0006108472589403391
1783153250849296600,5.987296630859375,-0.00007635590736754239,0.0015271181473508477,0
1783153250859008000,5.997008056640625,-0.000687203137204051,0.0015271181473508477,0.0006108472589403391
1783153250868719600,6.0067197265625,0.0017561858985573053,0.002748812548816204,-0.0006108472589403391
1783153250878431200,6.01643115234375,-0.000687203137204051,-0.0015271181473508477,-0.0006108472589403391
1783153250888142600,6.026142578125,-0.0031305921729654074,-0.0015271181473508477,0
1783153250897854200,6.035854248046875,-0.000687203137204051,0.00030542362947016954,-0.0012216945178806782
1783153250907565600,6.045565673828125,-0.00007635590736754239,-0.0009162708884105086,0
1783153250917277200,6.055277099609375,-0.00129805039614439,0.00030542362947016954,0.0012216945178806782
1783153250926988800,6.06498876953125,-0.00007635590736754239,-0.002748812548816204,-0.0006108472589403391
1783153250936700200,6.0747001953125,-0.00007635590736754239,-0.0015271181473508477,0.0006108472589403391
1783153250946411800,6.084411865234375,0.0005344913806766272,0.0009162708884105086,-0.0006108472589403391
1783153250956123100,6.094123046875,-0.00129805039614439,0.0009162708884105086,0.0006108472589403391
1783153250965834800,6.103834716796875,0.0005344913806766272,-0.00030542362947016954,-0.0018325417768210173
1783153250975546400,6.11354638671875,-0.00007635590736754239,0.00030542362947016954,-0.0006108472589403391
1783153250985257700,6.1232578125,0.0017561858985573053,0.00030542362947016954,0.0006108472589403391
1783153250994969300,6.13296923828125,-0.00129805039614439,-0.0009162708884105086,0
1783153251004680700,6.1426806640625,0.0005344913806766272,-0.0015271181473508477,0.0012216945178806782
1783153251014392300,6.152392333984375,0.0005344913806766272,0.00030542362947016954,-0.0006108472589403391
1783153251024104000,6.16210400390625,-0.00129805039614439,0.0009162708884105086,0.0012216945178806782
1783153251033815300,6.171815185546875,-0.00007635590736754239,0.0015271181473508477,-0.0006108472589403391
1783153251043527000,6.18152685546875,-0.000687203137204051,-0.00030542362947016954,-0.0018325417768210173
1783153251053238300,6.19123828125,-0.00007635590736754239,-0.0015271181473508477,-0.0024433890357613564
1783153251062950000,6.200949951171875,0.0011453386396169662,-0.00030542362947016954,0.0012216945178806782
1783153251072661500,6.21066162109375,-0.00007635590736754239,-0.00030542362947016954,-0.0030542362947016954
1783153251082372900,6.220372802734375,-0.00007635590736754239,0.00030542362947016954,0
1783153251092084500,6.23008447265625,-0.000687203137204051,-0.0009162708884105086,0.0012216945178806782
1783153251101795800,6.2397958984375,-0.0025197449140250683,0.0009162708884105086,-0.0024433890357613564
1783153251111507500,6.249507568359375,-0.00007635590736754239,0.002748812548816204,0.0006108472589403391
1783153251121219000,6.259218994140625,-0.00007635590736754239,0.0009162708884105086,-0.0006108472589403391
1783153251130930400,6.268930419921875,-0.00129805039614439,0.0021379655227065086,0.0006108472589403391
1783153251140642000,6.27864208984375,0.0005344913806766272,0.0021379655227065086,0.0012216945178806782
1783153251150353400,6.288353515625,-0.000687203137204051,0.0009162708884105086,-0.0018325417768210173
1783153251160065000,6.29806494140625,0.0017561858985573053,0.0021379655227065086,0.0006108472589403391
1783153251169776400,6.3077763671875,-0.000687203137204051,-0.0015271181473508477,-0.0006108472589403391
1783153251179488000,6.317488037109375,0.0005344913806766272,-0.0009162708884105086,-0.0012216945178806782
1783153251189199600,6.32719970703125,0.0005344913806766272,0.0009162708884105086,-0.0006108472589403391
1783153251198911000,6.336910888671875,-0.00007635590736754239,0.0009162708884105086,-0.0018325417768210173
1783153251208622600,6.34662255859375,-0.0019088976550847292,0.0015271181473508477,-0.0006108472589403391
1783153251218334000,6.356333984375,-0.000687203137204051,0.0009162708884105086,-0.0006108472589403391
1783153251228045600,6.366045654296875,-0.0025197449140250683,-0.0009162708884105086,0
1783153251237757200,6.375757080078125,0.0005344913806766272,0.00030542362947016954,0
1783153251247468500,6.385468505859375,-0.00007635590736754239,0.00030542362947016954,0.0006108472589403391
1783153251257180200,6.39518017578125,-0.000687203137204051,0.0009162708884105086,0.0006108472589403391
1783153251266891500,6.4048916015625,0.0017561858985573053,-0.0015271181473508477,-0.0018325417768210173
1783153251276603100,6.41460302734375,-0.00007635590736754239,-0.002748812548816204,0.0012216945178806782
1783153251286314800,6.424314697265625,-0.0019088976550847292,-0.0009162708884105086,0
1783153251296026000,6.434026123046875,-0.0019088976550847292,-0.0009162708884105086,-0.0006108472589403391
1783153251305737700,6.44373779296875,-0.000687203137204051,0.00030542362947016954,0.0012216945178806782
1783153251315449000,6.453448974609375,0.0011453386396169662,-0.0009162708884105086,-0.0018325417768210173
1783153251325160700,6.46316064453125,0.0011453386396169662,0.0015271181473508477,0.0006108472589403391
1783153251334872000,6.4728720703125,-0.0025197449140250683,0.0009162708884105086,-0.0018325417768210173
1783153251344583700,6.482583740234375,-0.00007635590736754239,-0.00030542362947016954,-0.0006108472589403391
1783153251354295300,6.49229541015625,-0.00129805039614439,-0.0009162708884105086,0.0030542362947016954
1783153251364006700,6.502006591796875,0.0005344913806766272,-0.0009162708884105086,0
1783153251373718300,6.51171826171875,-0.0019088976550847292,-0.0015271181473508477,-0.0006108472589403391
1783153251383429600,6.5214296875,-0.0019088976550847292,0.0015271181473508477,-0.0006108472589403391
1783153251393141200,6.531141357421875,-0.000687203137204051,0.0009162708884105086,-0.0018325417768210173
1783153251402852900,6.540852783203125,0.0017561858985573053,-0.00030542362947016954,0
1783153251412564200,6.550564208984375,-0.00007635590736754239,0.0015271181473508477,-0.0006108472589403391
1783153251422275800,6.56027587890625,-0.0025197449140250683,0.0009162708884105086,-0.0006108472589403391
1783153251431987200,6.5699873046875,-0.00129805039614439,-0.0015271181473508477,-0.0006108472589403391
1783153251441698800,6.57969873046875,-0.000687203137204051,0.0021379655227065086,-0.0006108472589403391
1783153251451410400,6.589410400390625,-0.00129805039614439,0.00030542362947016954,-0.0012216945178806782
1783153251461121800,6.599121826171875,-0.00007635590736754239,0.00030542362947016954,-0.0018325417768210173
1783153251470833400,6.60883349609375,-0.00007635590736754239,0.00030542362947016954,-0.0012216945178806782
1783153251480544800,6.618544677734375,0.0005344913806766272,0.00030542362947016954,-0.0018325417768210173
1783153251490256400,6.62825634765625,-0.0019088976550847292,0.002748812548816204,-0.0036650835536420345
1783153251499967700,6.6379677734375,-0.00007635590736754239,0.0015271181473508477,0
1783153251509679400,6.647679443359375,0.0017561858985573053,-0.0009162708884105086,0.0006108472589403391
1783153251519391000,6.657390869140625,0.0017561858985573053,0.0009162708884105086,0
1783153251529102300,6.667102294921875,-0.00007635590736754239,-0.0009162708884105086,0
1783153251538814000,6.67681396484375,-0.00129805039614439,0.0015271181473508477,0.0006108472589403391
1783153251548525300,6.686525390625,-0.0019088976550847292,0.00030542362947016954,-0.0012216945178806782
1783153251558237000,6.69623681640625,-0.000687203137204051,0.0009162708884105086,0
1783153251567948500,6.705948486328125,-0.000687203137204051,-0.002748812548816204,0.0006108472589403391
1783153251577660000,6.715659912109375,0.0011453386396169662,0.00030542362947016954,-0.0012216945178806782
1783153251587371500,6.72537158203125,-0.00129805039614439,-0.0015271181473508477,0.0018325417768210173
1783153251597083000,6.735082763671875,-0.000687203137204051,-0.00030542362947016954,-0.0018325417768210173
1783153251606794500,6.74479443359375,-0.000687203137204051,0.0009162708884105086,-0.0012216945178806782
1783153251616505900,6.754505859375,-0.000687203137204051,0.00030542362947016954,-0.0012216945178806782
1783153251626217500,6.764217529296875,0.0017561858985573053,0.0009162708884105086,0
1783153251635929000,6.77392919921875,0.0005344913806766272,0.0009162708884105086,-0.0012216945178806782
1783153251645640400,6.783640380859375,-0.000687203137204051,0.0009162708884105086,0
1783153251655352000,6.79335205078125,-0.00007635590736754239,0.0015271181473508477,0
1783153251665063400,6.8030634765625,-0.000687203137204051,0.00030542362947016954,-0.0018325417768210173
1783153251674775000,6.812775146484375,-0.00007635590736754239,-0.0015271181473508477,-0.0024433890357613564
1783153251684486700,6.822486572265625,-0.00007635590736754239,-0.00030542362947016954,-0.0012216945178806782
1783153251694198000,6.832197998046875,-0.000687203137204051,0.003970507066696882,-0.0012216945178806782
1783153251703909600,6.84190966796875,-0.00129805039614439,0.0021379655227065086,-0.0012216945178806782
1783153251713621200,6.851621337890625,-0.000687203137204051,0.002748812548816204,0
1783153251723332600,6.86133251953125,-0.0019088976550847292,0.00030542362947016954,0
1783153251733044200,6.871044189453125,0.0005344913806766272,0.0009162708884105086,-0.0024433890357613564
1783153251742755600,6.880755615234375,-0.000687203137204051,-0.00030542362947016954,0.0012216945178806782
1783153251752467200,6.89046728515625,0.0005344913806766272,-0.003970507066696882,0.0018325417768210173
1783153251762178800,6.9001787109375,-0.000687203137204051,-0.0009162708884105086,0.0006108472589403391
1783153251771890200,6.90989013671875,-0.000687203137204051,-0.00030542362947016954,0
1783153251781601800,6.919601806640625,-0.000687203137204051,-0.00030542362947016954,-0.0018325417768210173
1783153251791313200,6.929313232421875,-0.00007635590736754239,-0.00030542362947016954,0.0012216945178806782
1783153251801024800,6.939024658203125,0.0017561858985573053,0.0009162708884105086,-0.0018325417768210173
1783153251810736000,6.948736083984375,0.0011453386396169662,0.0015271181473508477,0.0006108472589403391
1783153251820447700,6.95844775390625,0.0005344913806766272,-0.00030542362947016954,-0.0018325417768210173
1783153251830159400,6.968159423828125,-0.00129805039614439,0.0009162708884105086,0.0006108472589403391
1783153251839870700,6.97787060546875,0.0005344913806766272,0.0009162708884105086,-0.0006108472589403391
1783153251849582300,6.987582275390625,-0.00007635590736754239,-0.0015271181473508477,-0.0012216945178806782
1783153251859293700,6.997293701171875,-0.00129805039614439,-0.0015271181473508477,0.0030542362947016954
1783153251869005300,7.00700537109375,-0.00007635590736754239,-0.0015271181473508477,0.0006108472589403391
1783153251878717000,7.016717041015625,0.0011453386396169662,-0.003359660040587187,0.0012216945178806782
1783153251888428300,7.02642822265625,-0.00129805039614439,0.0009162708884105086,-0.0024433890357613564
1783153251898140000,7.036139892578125,0.0005344913806766272,-0.00030542362947016954,-0.0012216945178806782
1783153251907851300,7.045851318359375,0.0017561858985573053,0.0015271181473508477,-0.0006108472589403391
1783153251917563000,7.05556298828125,0.0017561858985573053,-0.00030542362947016954,-0.0018325417768210173
1783153251927274500,7.0652744140625,-0.00129805039614439,0.0009162708884105086,0.0018325417768210173
1783153251936985900,7.07498583984375,-0.00007635590736754239,0.0009162708884105086,0.0012216945178806782
1783153251946697500,7.084697509765625,-0.00129805039614439,0.0015271181473508477,0
1783153251956408800,7.094408935546875,0.0017561858985573053,0.0009162708884105086,0
1783153251966120400,7.104120361328125,-0.00007635590736754239,-0.0015271181473508477,-0.0024433890357613564
1783153251975831800,7.113831787109375,-0.00007635590736754239,-0.00030542362947016954,0.0006108472589403391
1783153251985543400,7.12354345703125,-0.00007635590736754239,0.00030542362947016954,-0.0012216945178806782
1783153251995255000,7.133255126953125,-0.00007635590736754239,0.0009162708884105086,-0.0006108472589403391
1783153252004966400,7.14296630859375,-0.00129805039614439,-0.00030542362947016954,0
1783153252014678000,7.152677978515625,0.0005344913806766272,0.00030542362947016954,0.0018325417768210173
1783153252024389400,7.162389404296875,-0.0019088976550847292,0.00030542362947016954,-0.0006108472589403391
1783153252034101000,7.17210107421875,-0.00129805039614439,0.00030542362947016954,0
1783153252043812600,7.1818125,-0.000687203137204051,0.0009162708884105086,0.0018325417768210173
1783153252053524000,7.19152392578125,-0.00129805039614439,-0.00030542362947016954,0
1783153252063235600,7.201235595703125,-0.00007635590736754239,-0.0009162708884105086,-0.0012216945178806782
1783153252072947000,7.210947021484375,-0.000687203137204051,0.0009162708884105086,0.0036650835536420345
1783153252082658600,7.220658447265625,-0.000687203137204051,0.0015271181473508477,-0.0012216945178806782
1783153252092370000,7.230369873046875,-0.00007635590736754239,0.0015271181473508477,0
1783153252102081500,7.24008154296875,-0.00007635590736754239,0.0015271181473508477,-0.0012216945178806782
1783153252111793200,7.249793212890625,-0.000687203137204051,-0.0009162708884105086,-0.0006108472589403391
1783153252121504500,7.25950439453125,-0.000687203137204051,-0.0009162708884105086,0.0006108472589403391
1783153252131216100,7.269216064453125,0.0005344913806766272,-0.00030542362947016954,0
1783153252140927700,7.278927734375,-0.00007635590736754239,-0.002748812548816204,0.0006108472589403391
1783153252150639000,7.28863916015625,-0.00129805039614439,-0.0015271181473508477,0.0012216945178806782
1783153252160350700,7.298350830078125,-0.0031305921729654074,0.0009162708884105086,0
1783153252170062000,7.30806201171875,0.0005344913806766272,0.002748812548816204,-0.004886778071522713
1783153252179773700,7.317773681640625,0.0011453386396169662,0.00030542362947016954,-0.0012216945178806782
1783153252189485300,7.3274853515625,-0.0031305921729654074,-0.002748812548816204,0.0012216945178806782
1783153252199196700,7.33719677734375,0.0005344913806766272,0.00030542362947016954,0.0006108472589403391
1783153252208908300,7.346908203125,0.0005344913806766272,-0.0015271181473508477,-0.0012216945178806782
1783153252218619600,7.35661962890625,-0.000687203137204051,0.00030542362947016954,-0.0012216945178806782
1783153252228331300,7.366331298828125,-0.0025197449140250683,-0.0009162708884105086,-0.0006108472589403391
1783153252238043000,7.37604296875,-0.00129805039614439,-0.00030542362947016954,-0.0024433890357613564
1783153252247754200,7.385754150390625,-0.00007635590736754239,0.00030542362947016954,-0.0012216945178806782
1783153252257465900,7.3954658203125,-0.000687203137204051,-0.00030542362947016954,-0.0012216945178806782
1783153252267177200,7.40517724609375,-0.00007635590736754239,0.003359660040587187,0.0006108472589403391
1783153252276888800,7.414888916015625,-0.00007635590736754239,0.0009162708884105086,-0.0006108472589403391
1783153252286600200,7.42460009765625,-0.000687203137204051,-0.00030542362947016954,-0.0024433890357613564
1783153252296311800,7.434311767578125,-0.000687203137204051,0.0021379655227065086,-0.0006108472589403391
1783153252306023400,7.4440234375,-0.0019088976550847292,0.0009162708884105086,0.0024433890357613564
1783153252315734800,7.45373486328125,-0.000687203137204051,-0.0009162708884105086,-0.0024433890357613564
1783153252325446400,7.4634462890625,-0.00007635590736754239,0.0021379655227065086,-0.0006108472589403391
1783153252335157800,7.47315771484375,-0.000687203137204051,-0.0009162708884105086,0
1783153252344869400,7.482869384765625,0.0005344913806766272,-0.0015271181473508477,0
1783153252354581000,7.4925810546875,-0.00007635590736754239,-0.00030542362947016954,-0.0012216945178806782
1783153252364292400,7.502292236328125,-0.000687203137204051,-0.00030542362947016954,0
1783153252374004000,7.51200390625,0.0005344913806766272,-0.00030542362947016954,0
1783153252383715600,7.521715576171875,-0.000687203137204051,-0.0015271181473508477,0.0012216945178806782
1783153252393427000,7.531427001953125,-0.0031305921729654074,0.0009162708884105086,-0.0012216945178806782
1783153252403138600,7.541138671875,-0.000687203137204051,-0.0015271181473508477,0
1783153252412850000,7.550849853515625,0.0005344913806766272,0.0009162708884105086,0.0012216945178806782
1783153252422561500,7.5605615234375,-0.00129805039614439,-0.00030542362947016954,0.0012216945178806782
1783153252432273000,7.57027294921875,-0.000687203137204051,-0.00030542362947016954,0.0006108472589403391
1783153252441984500,7.579984619140625,-0.00007635590736754239,0.0021379655227065086,-0.0006108472589403391
1783153252451696000,7.589696044921875,-0.00007635590736754239,0.00030542362947016954,-0.0006108472589403391
1783153252461407500,7.599407470703125,0.0011453386396169662,-0.0015271181473508477,-0.0006108472589403391
1783153252471119000,7.609119140625,-0.00007635590736754239,-0.00030542362947016954,-0.0018325417768210173
1783153252480830500,7.61883056640625,-0.00129805039614439,0.00030542362947016954,0.0018325417768210173
1783153252490542000,7.6285419921875,-0.0019088976550847292,-0.002748812548816204,0.0006108472589403391
1783153252500253700,7.638253662109375,-0.00007635590736754239,0.00030542362947016954,0
1783153252509965000,7.647965087890625,-0.000687203137204051,-0.0009162708884105086,-0.0030542362947016954
1783153252519676700,7.6576767578125,-0.0019088976550847292,-0.0009162708884105086,0
1783153252529388000,7.667387939453125,-0.00129805039614439,0.003359660040587187,-0.0030542362947016954
1783153252539099600,7.677099609375,0.0005344913806766272,-0.0009162708884105086,-0.0018325417768210173
1783153252548811300,7.686811279296875,-0.000687203137204051,0.00030542362947016954,0.0012216945178806782
1783153252558522600,7.696522705078125,-0.000687203137204051,-0.00030542362947016954,0
1783153252568234200,7.706234130859375,0.0005344913806766272,-0.0015271181473508477,-0.0018325417768210173
1783153252577945600,7.715945556640625,0.0017561858985573053,-0.0009162708884105086,0.0006108472589403391
1783153252587657200,7.7256572265625,0.0005344913806766272,-0.00030542362947016954,-0.0012216945178806782
1783153252597368600,7.73536865234375,-0.0019088976550847292,0.00030542362947016954,0.0006108472589403391
1783153252607080200,7.745080078125,0.0017561858985573053,-0.00030542362947016954,0.0012216945178806782
1783153252616791800,7.754791748046875,0.0017561858985573053,0.0015271181473508477,-0.0006108472589403391
1783153252626503200,7.764503173828125,-0.00007635590736754239,0.0015271181473508477,0
1783153252636214800,7.77421484375,0.0005344913806766272,-0.00030542362947016954,0.0018325417768210173
1783153252645926100,7.783926025390625,-0.000687203137204051,0.00030542362947016954,0.0006108472589403391
1783153252655637800,7.7936376953125,-0.00007635590736754239,-0.0015271181473508477,0
1783153252665349400,7.803349365234375,-0.000687203137204051,0.0009162708884105086,-0.0006108472589403391
1783153252675060700,7.813060791015625,-0.000687203137204051,-0.00030542362947016954,0.0006108472589403391
1783153252684772400,7.8227724609375,-0.00129805039614439,-0.0021379655227065086,0
1783153252694484000,7.83248388671875,0.0005344913806766272,0.0015271181473508477,-0.0012216945178806782
1783153252704195300,7.8421953125,-0.000687203137204051,-0.00030542362947016954,0.0012216945178806782
1783153252713907000,7.851906982421875,0.0017561858985573053,-0.0009162708884105086,0
1783153252723618300,7.861618408203125,-0.000687203137204051,0.0021379655227065086,-0.0006108472589403391
1783153252733330000,7.871329833984375,0.0005344913806766272,-0.0015271181473508477,0
1783153252743041300,7.881041259765625,0.0011453386396169662,-0.0015271181473508477,0.0018325417768210173
1783153252752753000,7.8907529296875,-0.00007635590736754239,0.0009162708884105086,0
1783153252762464500,7.900464599609375,-0.00007635590736754239,0.00030542362947016954,-0.0006108472589403391
1783153252772176000,7.91017578125,-0.0019088976550847292,0.00030542362947016954,-0.0006108472589403391
1783153252781887500,7.919887451171875,-0.000687203137204051,0.0015271181473508477,-0.0012216945178806782
1783153252791598800,7.929598876953125,-0.00007635590736754239,0.00030542362947016954,0.0006108472589403391
1783153252801310500,7.939310546875,-0.00129805039614439,-0.002748812548816204,0.0006108472589403391
1783153252811022000,7.94902197265625,-0.00007635590736754239,-0.00030542362947016954,0.0006108472589403391
1783153252820733400,7.9587333984375,-0.000687203137204051,0.0009162708884105086,-0.0006108472589403391
1783153252830445000,7.968445068359375,-0.00129805039614439,-0.00030542362947016954,-0.0024433890357613564
1783153252840156400,7.978156494140625,-0.00007635590736754239,-0.00030542362947016954,0
1783153252849868000,7.987867919921875,-0.000687203137204051,-0.00030542362947016954,0.0018325417768210173
1783153252859579600,7.99757958984375,-0.00007635590736754239,0.00030542362947016954,0.0012216945178806782
1783153252869291000,8.007291015625,-0.00007635590736754239,-0.00030542362947016954,0.0012216945178806782
1783153252879002600,8.017002685546874,-0.000687203137204051,0.002748812548816204,-0.004275931045413017
1783153252888714000,8.0267138671875,-0.000687203137204051,0.00030542362947016954,-0.0006108472589403391
1783153252898425600,8.036425537109375,-0.000687203137204051,0.0021379655227065086,-0.0024433890357613564
1783153252908137200,8.04613720703125,-0.000687203137204051,-0.002748812548816204,0.0012216945178806782
1783153252917848600,8.0558486328125,-0.00129805039614439,-0.00030542362947016954,0.0006108472589403391
1783153252927560200,8.065560302734376,-0.0019088976550847292,-0.003359660040587187,-0.0012216945178806782
1783153252937271600,8.075271484375,-0.00007635590736754239,-0.00030542362947016954,-0.0024433890357613564
1783153252946983200,8.084983154296875,-0.00129805039614439,0.0009162708884105086,0
1783153252956694800,8.09469482421875,-0.000687203137204051,0.0021379655227065086,0.0006108472589403391
1783153252966406100,8.10440625,-0.0019088976550847292,0.0015271181473508477,0.0012216945178806782
1783153252976117800,8.11411767578125,-0.00129805039614439,-0.0021379655227065086,-0.004886778071522713
1783153252985829000,8.1238291015625,-0.00129805039614439,0.002748812548816204,-0.0018325417768210173
1783153252995540700,8.133540771484375,-0.00129805039614439,0.0009162708884105086,0.0012216945178806782
1783153253005252400,8.14325244140625,-0.000687203137204051,-0.0009162708884105086,-0.0012216945178806782
1783153253014963700,8.152963623046874,0.0011453386396169662,-0.0009162708884105086,0
1783153253024675300,8.16267529296875,-0.00129805039614439,-0.0015271181473508477,0.0006108472589403391
1783153253034386700,8.17238671875,-0.00007635590736754239,0.00030542362947016954,-0.0030542362947016954
1783153253044098300,8.182098388671875,0.0011453386396169662,0.003359660040587187,-0.0012216945178806782
1783153253053809700,8.1918095703125,0.0005344913806766272,0.0009162708884105086,0.0012216945178806782
1783153253063521300,8.201521240234374,-0.0025197449140250683,-0.00030542362947016954,0.0006108472589403391
1783153253073233000,8.21123291015625,0.0005344913806766272,0.0021379655227065086,0.0012216945178806782
1783153253082944300,8.2209443359375,-0.000687203137204051,0.0009162708884105086,0.0012216945178806782
1783153253092655900,8.23065576171875,-0.00129805039614439,-0.0021379655227065086,0.0012216945178806782
1783153253102367500,8.240367431640625,-0.00007635590736754239,0.00030542362947016954,0.0006108472589403391
1783153253112078800,8.250078857421874,0.0011453386396169662,-0.002748812548816204,0.0018325417768210173
1783153253121790500,8.25979052734375,-0.00007635590736754239,-0.0009162708884105086,0.0012216945178806782
1783153253131501800,8.269501708984375,-0.000687203137204051,-0.003359660040587187,-0.0012216945178806782
1783153253141213400,8.27921337890625,-0.0019088976550847292,0.002748812548816204,0
1783153253150925000,8.288925048828125,0.0005344913806766272,0.002748812548816204,0
1783153253160636400,8.298636474609374,0.0023670331574976444,0.0009162708884105086,-0.0012216945178806782
1783153253170348000,8.30834814453125,-0.00129805039614439,-0.00030542362947016954,0
1783153253180059400,8.318059326171875,0.0005344913806766272,0.00030542362947016954,0
1783153253189771000,8.32777099609375,0.0011453386396169662,0.00030542362947016954,-0.0024433890357613564
1783153253199482400,8.337482421875,-0.00129805039614439,0.0021379655227065086,-0.0012216945178806782
1783153253209194000,8.347194091796876,-0.00007635590736754239,-0.00030542362947016954,-0.0006108472589403391
1783153253218905600,8.356905517578125,0.0011453386396169662,0.00030542362947016954,0.0018325417768210173
1783153253228617000,8.366616943359375,-0.00007635590736754239,-0.0015271181473508477,-0.0012216945178806782
1783153253238328600,8.37632861328125,0.0005344913806766272,0.0015271181473508477,-0.0006108472589403391
1783153253248040000,8.3860400390625,-0.0019088976550847292,-0.00030542362947016954,-0.0024433890357613564
1783153253257751600,8.39575146484375,-0.00129805039614439,-0.0021379655227065086,0.0012216945178806782
1783153253267463200,8.405463134765625,0.0017561858985573053,-0.00519220158457756,0.0018325417768210173
1783153253277174500,8.415174560546875,-0.00129805039614439,-0.00030542362947016954,-0.0018325417768210173
1783153253286886100,8.42488623046875,-0.00007635590736754239,0.00030542362947016954,-0.0024433890357613564
1783153253296597800,8.43459765625,-0.000687203137204051,0.00030542362947016954,-0.0018325417768210173
1783153253306309000,8.44430908203125,0.0005344913806766272,0.0009162708884105086,-0.0012216945178806782
1783153253316020700,8.454020751953125,-0.0031305921729654074,-0.0009162708884105086,0.0006108472589403391
1783153253325732000,8.463732177734375,-0.00129805039614439,0.0015271181473508477,-0.0018325417768210173
1783153253335443700,8.473443603515625,-0.00007635590736754239,0.0021379655227065086,0
1783153253345155300,8.4831552734375,-0.00007635590736754239,0.00030542362947016954,-0.0012216945178806782
1783153253354866700,8.49286669921875,-0.000687203137204051,0.00030542362947016954,0.0006108472589403391
1783153253364578300,8.502578369140625,0.0005344913806766272,0.003359660040587187,0
1783153253374289700,8.51228955078125,-0.00007635590736754239,-0.00030542362947016954,0
1783153253384001300,8.522001220703125,-0.000687203137204051,0.00030542362947016954,-0.0006108472589403391
1783153253393712600,8.531712646484374,0.0005344913806766272,-0.0015271181473508477,-0.0024433890357613564
1783153253403424300,8.54142431640625,-0.00129805039614439,-0.0009162708884105086,-0.004275931045413017
1783153253413136000,8.551135986328125,-0.000687203137204051,-0.002748812548816204,-0.0012216945178806782
1783153253422847200,8.56084716796875,-0.00129805039614439,-0.002748812548816204,0.0006108472589403391
1783153253432558800,8.570558837890625,-0.00129805039614439,-0.00030542362947016954,-0.0012216945178806782
1783153253442270200,8.580270263671874,-0.00007635590736754239,-0.0009162708884105086,0
1783153253451981800,8.58998193359375,-0.00129805039614439,0.0009162708884105086,0.0006108472589403391
1783153253461693400,8.599693359375,-0.000687203137204051,0.00030542362947016954,-0.0006108472589403391
1783153253471404800,8.60940478515625,-0.000687203137204051,-0.00030542362947016954,0.0012216945178806782
1783153253481116400,8.619116455078125,-0.00129805039614439,-0.00030542362947016954,-0.0012216945178806782
1783153253490828000,8.628828125,-0.00007635590736754239,-0.0021379655227065086,0.0012216945178806782
1783153253500539400,8.638539306640626,0.0011453386396169662,0.00030542362947016954,0.0006108472589403391
1783153253510251000,8.6482509765625,-0.000687203137204051,-0.0015271181473508477,0.0012216945178806782
1783153253519962400,8.65796240234375,-0.00007635590736754239,0.00030542362947016954,0
1783153253529674000,8.667674072265624,-0.00007635590736754239,-0.00030542362947016954,-0.0006108472589403391
1783153253539385300,8.67738525390625,-0.000687203137204051,0.00030542362947016954,0
1783153253549097000,8.687096923828125,-0.000687203137204051,-0.00030542362947016954,0.0006108472589403391
1783153253558808600,8.69680859375,-0.000687203137204051,-0.00030542362947016954,0.0012216945178806782
1783153253568520000,8.70652001953125,-0.00129805039614439,-0.003359660040587187,-0.0018325417768210173
1783153253578231600,8.7162314453125,-0.00007635590736754239,-0.00030542362947016954,0.0018325417768210173
1783153253587943000,8.72594287109375,0.0005344913806766272,0.0015271181473508477,0.0012216945178806782
1783153253597654500,8.735654541015625,-0.00007635590736754239,0.0009162708884105086,-0.0018325417768210173
1783153253607366100,8.7453662109375,0.0005344913806766272,-0.0021379655227065086,0.0018325417768210173
1783153253617077500,8.755077392578125,0.0005344913806766272,0.0021379655227065086,0.0006108472589403391
1783153253626789000,8.7647890625,-0.00007635590736754239,0.0021379655227065086,0.0018325417768210173
1783153253636500700,8.774500732421876,-0.000687203137204051,0.0021379655227065086,0.0012216945178806782
1783153253646212000,8.784212158203125,-0.00129805039614439,-0.00030542362947016954,-0.0018325417768210173
1783153253655923700,8.793923828125,-0.000687203137204051,-0.0009162708884105086,-0.0024433890357613564
1783153253665635000,8.803635009765625,-0.00007635590736754239,-0.0021379655227065086,0.0024433890357613564
1783153253675346700,8.8133466796875,-0.0019088976550847292,-0.0021379655227065086,-0.0012216945178806782
1783153253685058000,8.82305810546875,-0.000687203137204051,-0.0009162708884105086,-0.0012216945178806782
1783153253694769700,8.832769775390625,0.0005344913806766272,-0.0015271181473508477,-0.0006108472589403391
1783153253704481300,8.842481201171875,-0.00007635590736754239,0.00030542362947016954,-0.0012216945178806782
1783153253714192600,8.852192626953125,-0.000687203137204051,0.0021379655227065086,0
1783153253723904300,8.861904296875,-0.00007635590736754239,0.00030542362947016954,-0.0006108472589403391
1783153253733615600,8.87161572265625,-0.0031305921729654074,-0.0009162708884105086,-0.0012216945178806782
1783153253743327200,8.8813271484375,0.0011453386396169662,0.0021379655227065086,-0.004886778071522713
1783153253753038800,8.891038818359375,-0.000687203137204051,0.0009162708884105086,0
1783153253762750200,8.900750244140625,-0.00129805039614439,0.0009162708884105086,-0.0036650835536420345
1783153253772461800,8.9104619140625,-0.000687203137204051,0.0015271181473508477,0
1783153253782173200,8.920173095703126,0.0005344913806766272,0.00030542362947016954,-0.0024433890357613564
1783153253791884800,8.929884765625,0.0005344913806766272,-0.0015271181473508477,0
1783153253801596400,8.939596435546875,-0.00129805039614439,0.0015271181473508477,-0.0012216945178806782
1783153253811307800,8.949307861328125,-0.000687203137204051,-0.002748812548816204,-0.0006108472589403391
1783153253821019400,8.959019287109374,-0.00129805039614439,0.0009162708884105086,0
1783153253830730800,8.968730712890626,-0.00007635590736754239,0.0015271181473508477,-0.0006108472589403391
1783153253840442400,8.9784423828125,0.0011453386396169662,0.00030542362947016954,0
1783153253850154000,8.988154052734375,0.0011453386396169662,-0.00030542362947016954,-0.0018325417768210173
1783153253859865300,8.997865234375,0.0011453386396169662,-0.00030542362947016954,0.0006108472589403391
1783153253869577000,9.007576904296876,-0.00129805039614439,-0.0015271181473508477,-0.0006108472589403391
1783153253879288300,9.017288330078125,-0.00129805039614439,-0.0015271181473508477,0
1783153253889000000,9.027,0.0011453386396169662,-0.0021379655227065086,-0.0006108472589403391
1783153253898711600,9.036711669921875,-0.0025197449140250683,0.0009162708884105086,0
1783153253908423000,9.0464228515625,-0.000687203137204051,-0.00030542362947016954,0
1783153253918134500,9.056134521484376,0.0005344913806766272,0.0009162708884105086,0
1783153253927846000,9.065845947265625,-0.00129805039614439,0.0015271181473508477,0
1783153253937557500,9.0755576171875,0.0017561858985573053,-0.0009162708884105086,-0.0012216945178806782
1783153253947269000,9.08526904296875,0.0011453386396169662,-0.00030542362947016954,0.0018325417768210173
1783153253956980500,9.09498046875,-0.0019088976550847292,-0.0009162708884105086,0.0024433890357613564
1783153253966692000,9.104692138671876,-0.000687203137204051,0.0009162708884105086,0
1783153253976403500,9.114403564453125,-0.000687203137204051,0.00030542362947016954,0.0006108472589403391
1783153253986115000,9.124114990234375,0.0005344913806766272,0.0009162708884105086,-0.0006108472589403391
1783153253995826400,9.133826416015625,-0.000687203137204051,0.00030542362947016954,0.0006108472589403391
1783153254005538000,9.1435380859375,-0.00007635590736754239,-0.0009162708884105086,0.0018325417768210173
1783153254015249700,9.153249755859376,-0.000687203137204051,-0.00030542362947016954,-0.0006108472589403391
1783153254024961000,9.1629609375,-0.00129805039614439,0.00030542362947016954,0
1783153254034672600,9.172672607421875,0.0011453386396169662,-0.00030542362947016954,-0.0006108472589403391
1783153254044384300,9.18238427734375,-0.00007635590736754239,-0.00030542362947016954,0
1783153254054095600,9.192095703125,-0.0025197449140250683,-0.00030542362947016954,0
1783153254063807200,9.20180712890625,0.0005344913806766272,0.003970507066696882,-0.0024433890357613564
1783153254073518600,9.2115185546875,-0.00007635590736754239,0.00030542362947016954,0.0018325417768210173
1783153254083230200,9.221230224609375,0.0005344913806766272,0.00030542362947016954,-0.0018325417768210173
1783153254092941800,9.23094189453125,-0.00007635590736754239,-0.0009162708884105086,-0.0012216945178806782
1783153254102653200,9.240653076171874,0.0011453386396169662,-0.0009162708884105086,0.0006108472589403391
1783153254112364800,9.25036474609375,-0.00129805039614439,-0.002748812548816204,-0.0024433890357613564
1783153254122076200,9.260076171875,-0.000687203137204051,-0.0015271181473508477,0.0012216945178806782
1783153254131787800,9.269787841796875,0.0005344913806766272,0.0009162708884105086,0.0018325417768210173
1783153254141499400,9.27949951171875,-0.000687203137204051,0.0021379655227065086,0
1783153254151210800,9.289210693359376,-0.0019088976550847292,0.00030542362947016954,0.0006108472589403391
1783153254160922400,9.29892236328125,0.0011453386396169662,-0.00030542362947016954,-0.0006108472589403391
1783153254170633700,9.3086337890625,-0.00007635590736754239,-0.0015271181473508477,-0.0006108472589403391
1783153254180345300,9.318345458984375,-0.00129805039614439,0.0009162708884105086,-0.0006108472589403391
1783153254190056700,9.328056640625,-0.00129805039614439,0.0015271181473508477,-0.0012216945178806782
1783153254199768300,9.337768310546876,0.0023670331574976444,0.00030542362947016954,0.0006108472589403391
1783153254209480000,9.34747998046875,-0.00007635590736754239,-0.0009162708884105086,0.0006108472589403391
1783153254219191300,9.35719140625,0.0023670331574976444,0.00030542362947016954,0.0018325417768210173
1783153254228903000,9.36690283203125,-0.000687203137204051,-0.0009162708884105086,0.0006108472589403391
1783153254238614500,9.376614501953124,-0.000687203137204051,-0.0015271181473508477,0.0018325417768210173
1783153254248326000,9.386325927734376,-0.000687203137204051,-0.002748812548816204,0
1783153254258037500,9.39603759765625,0.0005344913806766272,0.00030542362947016954,-0.0036650835536420345
1783153254267748900,9.405748779296875,-0.000687203137204051,-0.00030542362947016954,0.0006108472589403391
1783153254277460500,9.41546044921875,-0.00007635590736754239,0.0015271181473508477,-0.0018325417768210173
1783153254287172000,9.425172119140624,-0.00129805039614439,0.0021379655227065086,0
1783153254296883500,9.434883544921876,0.0005344913806766272,-0.002748812548816204,0
1783153254306595000,9.444594970703125,-0.00007635590736754239,0.00030542362947016954,-0.0006108472589403391
1783153254316306400,9.454306396484375,-0.000687203137204051,0.0009162708884105086,0.0006108472589403391
1783153254326018000,9.46401806640625,-0.0019088976550847292,0.00030542362947016954,-0.0012216945178806782
1783153254335729400,9.4737294921875,-0.00007635590736754239,-0.00030542362947016954,-0.0036650835536420345
1783153254345441000,9.48344091796875,0.0005344913806766272,-0.0015271181473508477,0.0006108472589403391
1783153254355152600,9.493152587890625,-0.0019088976550847292,-0.00030542362947016954,0.0006108472589403391
1783153254364864000,9.502864013671875,0.0011453386396169662,0.00030542362947016954,-0.0018325417768210173
1783153254374575600,9.51257568359375,0.0011453386396169662,0.00030542362947016954,-0.0012216945178806782
1783153254384287000,9.522286865234374,-0.00129805039614439,-0.0015271181473508477,0.0006108472589403391
1783153254393998600,9.53199853515625,0.0005344913806766272,-0.0009162708884105086,0.0006108472589403391
1783153254403710200,9.541710205078125,-0.000687203137204051,-0.0021379655227065086,0.0018325417768210173
1783153254413421600,9.551421630859375,-0.00007635590736754239,-0.0021379655227065086,0
1783153254423133200,9.56113330078125,-0.00129805039614439,-0.0021379655227065086,0
1783153254432844800,9.5708447265625,-0.00129805039614439,0.0009162708884105086,0.0006108472589403391
1783153254442556200,9.58055615234375,-0.000687203137204051,-0.00030542362947016954,0
1783153254452267800,9.590267822265625,-0.00007635590736754239,-0.0021379655227065086,0.0036650835536420345
1783153254461979100,9.599979248046875,-0.000687203137204051,-0.0009162708884105086,-0.0006108472589403391
1783153254471690800,9.609690673828124,-0.00129805039614439,0.0021379655227065086,-0.0018325417768210173
1783153254481402000,9.619402099609376,-0.000687203137204051,0.0009162708884105086,-0.0012216945178806782
1783153254491113700,9.62911376953125,-0.00007635590736754239,0.003970507066696882,-0.0012216945178806782
1783153254500825300,9.638825439453125,0.0005344913806766272,-0.0009162708884105086,0
1783153254510536700,9.64853662109375,-0.00007635590736754239,-0.00030542362947016954,0.0006108472589403391
1783153254520248300,9.658248291015624,0.0005344913806766272,-0.0009162708884105086,-0.004275931045413017
1783153254529959700,9.667959716796876,0.0011453386396169662,0.00030542362947016954,0.0006108472589403391
1783153254539671300,9.67767138671875,-0.000687203137204051,0.00030542362947016954,0.0012216945178806782
1783153254549383000,9.6873828125,0.0011453386396169662,0.0009162708884105086,0.0006108472589403391
1783153254559094300,9.69709423828125,-0.000687203137204051,-0.0015271181473508477,0.0006108472589403391
1783153254568806000,9.706805908203124,0.0005344913806766272,0.0009162708884105086,-0.0012216945178806782
1783153254578517500,9.716517578125,0.0005344913806766272,0.0015271181473508477,-0.004275931045413017
1783153254588228900,9.726228759765625,-0.00129805039614439,0.0009162708884105086,-0.0024433890357613564
1783153254597940500,9.7359404296875,-0.000687203137204051,0.00030542362947016954,0.0006108472589403391
1783153254607651800,9.74565185546875,-0.00007635590736754239,-0.00030542362947016954,0.0012216945178806782
1783153254617363500,9.755363525390624,-0.00007635590736754239,0.00030542362947016954,0.0012216945178806782
1783153254627074800,9.76507470703125,0.0011453386396169662,0.0015271181473508477,0.0012216945178806782
1783153254636786400,9.774786376953125,-0.00007635590736754239,0.0021379655227065086,0.0006108472589403391
1783153254646498000,9.784498046875,-0.0025197449140250683,0.003970507066696882,-0.0006108472589403391
1783153254656209400,9.79420947265625,-0.000687203137204051,0.00030542362947016954,0.0006108472589403391
1783153254665921000,9.803921142578124,-0.000687203137204051,0.0009162708884105086,0.0006108472589403391
1783153254675632400,9.81363232421875,-0.00007635590736754239,0.0015271181473508477,-0.0006108472589403391
1783153254685344000,9.823343994140625,-0.00007635590736754239,-0.00030542362947016954,0.0006108472589403391
1783153254695055600,9.8330556640625,0.0005344913806766272,-0.004581354558467865,-0.0006108472589403391
1783153254704767000,9.84276708984375,-0.00129805039614439,-0.00030542362947016954,0.0030542362947016954
1783153254714478600,9.852478515625,-0.0019088976550847292,-0.002748812548816204,0.0012216945178806782
1783153254724190200,9.862190185546876,0.0005344913806766272,0.0009162708884105086,0.0012216945178806782
1783153254733901600,9.871901611328125,0.0011453386396169662,-0.00030542362947016954,-0.0018325417768210173
1783153254743613200,9.88161328125,-0.00007635590736754239,0.002748812548816204,-0.0012216945178806782
1783153254753324500,9.891324462890625,-0.00129805039614439,0.003359660040587187,-0.0006108472589403391
1783153254763036200,9.9010361328125,-0.00007635590736754239,0.0009162708884105086,-0.0006108472589403391
1783153254772747800,9.910747802734376,-0.00129805039614439,0.00030542362947016954,0.0006108472589403391
1783153254782459100,9.920459228515625,-0.0019088976550847292,-0.0009162708884105086,0.0018325417768210173
1783153254792170800,9.930170654296875,-0.00007635590736754239,-0.00030542362947016954,0.0006108472589403391
1783153254801882000,9.939882080078124,0.0005344913806766272,-0.002748812548816204,0.0006108472589403391
1783153254811593700,9.94959375,-0.00007635590736754239,-0.00030542362947016954,-0.0006108472589403391
1783153254821305000,9.95930517578125,-0.000687203137204051,0.003359660040587187,-0.0018325417768210173
1783153254831016700,9.9690166015625,-0.00129805039614439,0.00030542362947016954,0.0006108472589403391
1783153254840728300,9.978728271484375,-0.00129805039614439,0.0009162708884105086,-0.0012216945178806782
1783153254850439700,9.988439697265624,-0.00129805039614439,0.00030542362947016954,0.0006108472589403391
1783153254860151300,9.9981513671875,-0.000687203137204051,0.0009162708884105086,0
1783153254869863000,10.00786279296875,0.0005344913806766272,-0.003359660040587187,0.0012216945178806782
1783153254879574300,10.01757421875,0.0005344913806766272,-0.0015271181473508477,0.004275931045413017
1783153254889286000,10.027285888671875,-0.00007635590736754239,-0.0015271181473508477,0
1783153254898997200,10.036997314453124,-0.00007635590736754239,-0.0015271181473508477,0.0012216945178806782
1783153254908708900,10.046708984375,-0.0019088976550847292,-0.003359660040587187,0
1783153254918420500,10.05642041015625,-0.00007635590736754239,-0.00030542362947016954,0
1783153254928131800,10.0661318359375,-0.00007635590736754239,-0.00030542362947016954,-0.0018325417768210173
1783153254937843500,10.075843505859375,0.0023670331574976444,-0.0009162708884105086,0
1783153254947554800,10.085554931640624,0.0005344913806766272,-0.00030542362947016954,0
1783153254957266400,10.095266357421876,-0.00007635590736754239,-0.00030542362947016954,-0.0012216945178806782
1783153254966977800,10.104977783203125,-0.00007635590736754239,-0.00030542362947016954,0
1783153254976689400,10.114689453125,-0.000687203137204051,0.0009162708884105086,0
1783153254986401000,10.124401123046875,-0.00007635590736754239,-0.00030542362947016954,0.0006108472589403391
1783153254996112400,10.1341123046875,0.0005344913806766272,0.0015271181473508477,-0.0006108472589403391
1783153255005824000,10.143823974609376,-0.00007635590736754239,0.00030542362947016954,-0.0006108472589403391
1783153255015535600,10.15353564453125,-0.0019088976550847292,-0.00030542362947016954,-0.0012216945178806782
1783153255025247000,10.1632470703125,-0.000687203137204051,-0.00030542362947016954,0
1783153255034958600,10.17295849609375,-0.0019088976550847292,0.002748812548816204,-0.0012216945178806782
1783153255044670000,10.182669921875,-0.00129805039614439,-0.0009162708884105086,-0.0012216945178806782
1783153255054381600,10.192381591796876,-0.00007635590736754239,-0.00030542362947016954,0
1783153255064093200,10.20209326171875,-0.0025197449140250683,0.0021379655227065086,-0.0018325417768210173
1783153255073804500,10.211804443359375,-0.00129805039614439,-0.0009162708884105086,-0.0006108472589403391
1783153255083516200,10.22151611328125,0.0005344913806766272,-0.003970507066696882,0.0006108472589403391
1783153255093227500,10.2312275390625,-0.00007635590736754239,-0.003359660040587187,-0.0006108472589403391
1783153255102939100,10.240939208984376,-0.00129805039614439,-0.003970507066696882,0.0006108472589403391
1783153255112650500,10.250650390625,-0.00007635590736754239,0.0009162708884105086,-0.0024433890357613564
1783153255122362000,10.260362060546875,-0.00007635590736754239,0.002748812548816204,0
1783153255132073700,10.27007373046875,0.0005344913806766272,0.0009162708884105086,0.0018325417768210173
1783153255141785000,10.27978515625,-0.00007635590736754239,-0.0021379655227065086,-0.0012216945178806782
1783153255151496700,10.28949658203125,-0.00007635590736754239,0.002748812548816204,-0.0006108472589403391
1783153255161208300,10.299208251953125,-0.00129805039614439,-0.00030542362947016954,0.0018325417768210173
1783153255170919700,10.308919677734375,-0.000687203137204051,0.00030542362947016954,0
1783153255180631300,10.31863134765625,0.0029778804164379835,-0.0015271181473508477,0.0018325417768210173
1783153255190342700,10.3283427734375,0.0011453386396169662,-0.0015271181473508477,0.0006108472589403391
1783153255200054300,10.33805419921875,-0.00007635590736754239,-0.00030542362947016954,-0.0036650835536420345
1783153255209766000,10.347765869140625,-0.00129805039614439,-0.0009162708884105086,0
1783153255219477200,10.357477294921875,-0.00129805039614439,-0.0009162708884105086,0
1783153255229188900,10.36718896484375,-0.000687203137204051,0.0021379655227065086,-0.0012216945178806782
1783153255238900500,10.376900390625,0.0005344913806766272,-0.0009162708884105086,0.0012216945178806782
1783153255248611800,10.38661181640625,0.0011453386396169662,0.0009162708884105086,0.0006108472589403391
1783153255258323500,10.396323486328125,-0.000687203137204051,0.0015271181473508477,-0.0012216945178806782
1783153255268034800,10.406034912109375,-0.00129805039614439,-0.00030542362947016954,0
1783153255277746400,10.415746337890624,0.0005344913806766272,-0.0009162708884105086,-0.0012216945178806782
1783153255287457800,10.425457763671876,-0.00007635590736754239,0.0009162708884105086,-0.0012216945178806782
1783153255297169400,10.43516943359375,-0.00129805039614439,0.0015271181473508477,-0.0018325417768210173
1783153255306881000,10.444881103515625,0.0005344913806766272,0.00030542362947016954,-0.0018325417768210173
1783153255316592400,10.45459228515625,0.0005344913806766272,0.0015271181473508477,-0.0012216945178806782
1783153255326304000,10.464303955078124,0.0011453386396169662,-0.00030542362947016954,0.0012216945178806782
1783153255336015600,10.474015625,-0.00007635590736754239,0.0015271181473508477,0.0006108472589403391
1783153255345727000,10.48372705078125,-0.00129805039614439,0.00030542362947016954,-0.0006108472589403391
1783153255355438600,10.4934384765625,-0.0019088976550847292,0.002748812548816204,-0.0018325417768210173
1783153255365150000,10.50314990234375,-0.00129805039614439,-0.00030542362947016954,0.0024433890357613564
1783153255374861600,10.512861572265624,0.0011453386396169662,-0.002748812548816204,0.0006108472589403391
1783153255384573200,10.5225732421875,-0.00007635590736754239,0.0015271181473508477,0.0006108472589403391
1783153255394284500,10.532284423828125,0.0011453386396169662,-0.0009162708884105086,-0.0006108472589403391
1783153255403996200,10.54199609375,-0.000687203137204051,0.00030542362947016954,-0.0006108472589403391
1783153255413707500,10.55170751953125,-0.00007635590736754239,0.0021379655227065086,0
1783153255423419100,10.561419189453124,-0.00129805039614439,-0.0015271181473508477,-0.0024433890357613564
1783153255433130800,10.571130859375,-0.000687203137204051,-0.0015271181473508477,0
1783153255442842000,10.580842041015625,0.0005344913806766272,0.0015271181473508477,-0.0006108472589403391
1783153255452553700,10.5905537109375,0.0005344913806766272,0.00030542362947016954,0
1783153255462265000,10.60026513671875,-0.00007635590736754239,0.00030542362947016954,-0.0006108472589403391
1783153255471976700,10.609976806640624,0.0005344913806766272,-0.002748812548816204,0.0006108472589403391
1783153255481688300,10.619688232421876,0.0005344913806766272,0.00030542362947016954,0.0006108472589403391
1783153255491399700,10.629399658203125,0.0011453386396169662,-0.0021379655227065086,-0.0006108472589403391
1783153255501111300,10.639111328125,0.0011453386396169662,-0.0015271181473508477,-0.0006108472589403391
1783153255510822700,10.64882275390625,0.0005344913806766272,0.00030542362947016954,-0.0018325417768210173
1783153255520534300,10.6585341796875,0.0011453386396169662,0.003359660040587187,-0.0012216945178806782
1783153255530246000,10.668245849609375,-0.00007635590736754239,0.003359660040587187,0.0012216945178806782
1783153255539957200,10.677957275390625,-0.00129805039614439,0.00030542362947016954,0.0012216945178806782
1783153255549668900,10.6876689453125,-0.00007635590736754239,-0.0015271181473508477,0.0012216945178806782
1783153255559380500,10.69738037109375,0.0005344913806766272,-0.0015271181473508477,0.0006108472589403391
1783153255569091800,10.707091796875,-0.000687203137204051,0.002748812548816204,-0.0012216945178806782
1783153255578803500,10.716803466796875,-0.000687203137204051,-0.0009162708884105086,0.0012216945178806782
1783153255588514800,10.726514892578125,0.0005344913806766272,0.00030542362947016954,0.0006108472589403391
1783153255598226400,10.736226318359375,-0.00129805039614439,-0.002748812548816204,-0.0006108472589403391
1783153255607938000,10.74593798828125,-0.0025197449140250683,-0.00030542362947016954,0.0006108472589403391
1783153255617649400,10.7556494140625,0.0005344913806766272,-0.0015271181473508477,0.0018325417768210173
1783153255627361000,10.765361083984375,-0.00129805039614439,-0.0015271181473508477,-0.0006108472589403391
1783153255637072400,10.775072265625,-0.00007635590736754239,-0.002748812548816204,-0.0006108472589403391
1783153255646784000,10.784783935546875,-0.000687203137204051,0.00030542362947016954,0
1783153255656495600,10.79449560546875,0.0011453386396169662,-0.0009162708884105086,0
1783153255666207000,10.80420703125,-0.000687203137204051,0.0015271181473508477,0
1783153255675918600,10.813918701171875,-0.00007635590736754239,-0.0009162708884105086,0.0006108472589403391
1783153255685630000,10.8236298828125,-0.0031305921729654074,-0.00030542362947016954,-0.0012216945178806782
1783153255695341600,10.833341552734375,-0.00007635590736754239,0.0009162708884105086,0
1783153255705053200,10.84305322265625,0.0005344913806766272,0.0009162708884105086,0
1783153255714764500,10.8527646484375,-0.00129805039614439,0.0015271181473508477,-0.0006108472589403391
1783153255724476200,10.86247607421875,0.0005344913806766272,-0.003970507066696882,0.0006108472589403391
1783153255734187800,10.872187744140625,-0.00007635590736754239,-0.0009162708884105086,-0.0006108472589403391
1783153255743899100,10.881899169921875,-0.000687203137204051,-0.0009162708884105086,-0.0012216945178806782
1783153255753610800,10.89161083984375,-0.00007635590736754239,0.00030542362947016954,0.0006108472589403391
1783153255763322000,10.901322021484376,0.0005344913806766272,0.00030542362947016954,0.0006108472589403391
1783153255773033700,10.91103369140625,-0.00007635590736754239,-0.0009162708884105086,-0.0006108472589403391
1783153255782745300,10.920745361328125,0.0011453386396169662,-0.0015271181473508477,0.0012216945178806782
1783153255792456700,10.930456787109375,-0.000687203137204051,0.0015271181473508477,-0.0018325417768210173
1783153255802168300,10.940168212890624,-0.00129805039614439,0.0021379655227065086,0.0036650835536420345
1783153255811879700,10.949879638671876,0.0011453386396169662,0.00030542362947016954,0.0012216945178806782
1783153255821591300,10.95959130859375,-0.00007635590736754239,0.004581354558467865,-0.0018325417768210173
1783153255831303000,10.969302978515625,-0.00007635590736754239,0.0015271181473508477,0.0012216945178806782
1783153255841014300,10.97901416015625,-0.00007635590736754239,0.00030542362947016954,-0.0018325417768210173
1783153255850726000,10.988725830078126,0.0005344913806766272,-0.00030542362947016954,-0.0006108472589403391
1783153255860437500,10.9984375,-0.00007635590736754239,0.0009162708884105086,0
1783153255870148900,11.00814892578125,-0.00129805039614439,-0.0015271181473508477,-0.0012216945178806782
1783153255879860500,11.017860595703125,-0.00129805039614439,-0.0009162708884105086,-0.0018325417768210173
1783153255889571800,11.02757177734375,0.0005344913806766272,0.0021379655227065086,0
1783153255899283500,11.037283447265626,0.0005344913806766272,0.0009162708884105086,0
1783153255908994800,11.046994873046875,0.0011453386396169662,-0.003359660040587187,-0.0006108472589403391
1783153255918706400,11.05670654296875,-0.00129805039614439,-0.0009162708884105086,-0.0018325417768210173
1783153255928418000,11.06641796875,0.0005344913806766272,-0.0015271181473508477,-0.0012216945178806782
1783153255938129400,11.07612939453125,-0.00007635590736754239,0.00030542362947016954,0.0012216945178806782
1783153255947841000,11.085841064453126,-0.0019088976550847292,0.0021379655227065086,0.0006108472589403391
1783153255957552600,11.095552734375,-0.00007635590736754239,0.00030542362947016954,-0.0012216945178806782
1783153255967264000,11.105263916015625,0.0005344913806766272,0.0021379655227065086,0.0018325417768210173
1783153255976975600,11.1149755859375,0.0011453386396169662,-0.0015271181473508477,-0.0012216945178806782
1783153255986687000,11.12468701171875,0.0011453386396169662,-0.00030542362947016954,0.0018325417768210173
1783153255996398600,11.134398681640626,-0.00129805039614439,0.0015271181473508477,0.0006108472589403391
1783153256006110200,11.144110107421875,-0.00129805039614439,0.0009162708884105086,0.0006108472589403391
1783153256015821600,11.153821533203125,-0.000687203137204051,0.002748812548816204,0.0012216945178806782
1783153256025533200,11.163533203125,-0.00129805039614439,-0.0015271181473508477,0.0036650835536420345
1783153256035244800,11.173244873046874,-0.00129805039614439,0.00030542362947016954,0
1783153256044956200,11.1829560546875,-0.0031305921729654074,-0.0015271181473508477,0.0018325417768210173
1783153256054667800,11.192667724609375,-0.00007635590736754239,0.0015271181473508477,0
1783153256064379400,11.20237939453125,-0.00007635590736754239,0.00030542362947016954,0
1783153256074090800,11.2120908203125,-0.0019088976550847292,0.0009162708884105086,-0.0006108472589403391
1783153256083802400,11.22180224609375,0.0011453386396169662,0.0009162708884105086,0
1783153256093513700,11.231513671875,-0.00007635590736754239,-0.00030542362947016954,0
1783153256103225300,11.241225341796875,-0.00007635590736754239,0.0021379655227065086,-0.0018325417768210173
1783153256112936700,11.250936767578125,-0.000687203137204051,0.002748812548816204,-0.0024433890357613564
1783153256122648300,11.2606484375,-0.00007635590736754239,0.0021379655227065086,-0.0018325417768210173
1783153256132360000,11.27035986328125,-0.00129805039614439,0.0015271181473508477,0.0006108472589403391
1783153256142071300,11.2800712890625,-0.00007635590736754239,-0.0009162708884105086,-0.0018325417768210173
1783153256151783000,11.289782958984375,-0.00007635590736754239,0.0009162708884105086,0.0012216945178806782
1783153256161494500,11.29949462890625,-0.000687203137204051,0.00030542362947016954,0.0018325417768210173
1783153256171206000,11.309205810546874,-0.0019088976550847292,-0.0021379655227065086,0.0036650835536420345
1783153256180917500,11.31891748046875,0.0017561858985573053,-0.00030542362947016954,0.0006108472589403391
1783153256190628900,11.32862890625,0.0011453386396169662,0.0015271181473508477,-0.0006108472589403391
1783153256200340500,11.338340576171875,-0.00007635590736754239,-0.0015271181473508477,-0.0012216945178806782
1783153256210052000,11.348052001953125,-0.00007635590736754239,-0.0015271181473508477,0.0006108472589403391
1783153256219763500,11.357763427734374,0.0005344913806766272,-0.0021379655227065086,-0.0012216945178806782
1783153256229475000,11.36747509765625,-0.0019088976550847292,-0.0009162708884105086,-0.0006108472589403391
1783153256239186400,11.3771865234375,-0.0019088976550847292,0.0015271181473508477,-0.0006108472589403391
1783153256248898000,11.38689794921875,0.0011453386396169662,0.0015271181473508477,0.0006108472589403391
1783153256258609700,11.396609619140625,-0.00129805039614439,0.0021379655227065086,0.0024433890357613564
1783153256268321000,11.406321044921874,-0.0019088976550847292,-0.0009162708884105086,0.0006108472589403391
1783153256278032600,11.41603271484375,-0.000687203137204051,0.0021379655227065086,-0.0012216945178806782
1783153256287744300,11.425744140625,-0.00007635590736754239,0.002748812548816204,0.0006108472589403391
1783153256297455600,11.43545556640625,0.0005344913806766272,-0.00030542362947016954,0.0018325417768210173
1783153256307167200,11.445167236328125,-0.000687203137204051,-0.0009162708884105086,-0.0006108472589403391
1783153256316878800,11.45487890625,0.0011453386396169662,-0.00030542362947016954,-0.0006108472589403391
1783153256326590200,11.464590087890626,-0.00007635590736754239,0.0009162708884105086,0.0006108472589403391
1783153256336301800,11.4743017578125,-0.00007635590736754239,-0.0009162708884105086,-0.0006108472589403391
1783153256346013200,11.48401318359375,-0.0019088976550847292,0.00030542362947016954,0.0006108472589403391
1783153256355724800,11.493724853515625,-0.00007635590736754239,-0.0015271181473508477,-0.0006108472589403391
1783153256365436400,11.5034365234375,0.0005344913806766272,0.0015271181473508477,0
1783153256375147800,11.513147705078126,-0.00129805039614439,0.00030542362947016954,-0.0012216945178806782
1783153256384859400,11.522859375,-0.0019088976550847292,-0.0009162708884105086,-0.0012216945178806782
1783153256394570800,11.53257080078125,-0.00007635590736754239,-0.0015271181473508477,-0.0006108472589403391
1783153256404282400,11.542282470703125,0.0017561858985573053,-0.00030542362947016954,0.0006108472589403391
1783153256413994000,11.551993896484374,-0.0019088976550847292,0.0009162708884105086,0
1783153256423705300,11.561705322265626,-0.00007635590736754239,-0.00030542362947016954,-0.0006108472589403391
1783153256433417000,11.5714169921875,-0.00007635590736754239,-0.0021379655227065086,0.0006108472589403391
1783153256443128600,11.581128662109375,-0.0019088976550847292,-0.0009162708884105086,-0.0012216945178806782
1783153256452840000,11.59083984375,-0.000687203137204051,0.0009162708884105086,-0.0006108472589403391
1783153256462551600,11.600551513671874,-0.00129805039614439,0.00030542362947016954,0
1783153256472263000,11.610262939453126,-0.00007635590736754239,0.00030542362947016954,0.0012216945178806782
1783153256481974500,11.619974609375,0.0011453386396169662,-0.0009162708884105086,-0.0012216945178806782
1783153256491686100,11.62968603515625,-0.00129805039614439,-0.00030542362947016954,0
1783153256501397500,11.6393974609375,-0.00007635590736754239,0.00030542362947016954,-0.0006108472589403391
1783153256511109000,11.649109130859374,-0.000687203137204051,-0.00030542362947016954,-0.0012216945178806782
1783153256520820700,11.65882080078125,-0.00007635590736754239,-0.00030542362947016954,-0.0012216945178806782
1783153256530532000,11.668531982421875,-0.000687203137204051,0.0009162708884105086,0.0018325417768210173
