time,seconds_elapsed,z,y,x
1783153046526588200,0.097588134765625,0,0,0
1783153046546009300,0.11700927734375,-0.011973381042480469,0.003992646932601929,0.005462184548377991
1783153046575141400,0.146141357421875,0.01836872100830078,-0.010369062423706055,0.0025731325149536133
1783153046584852000,0.15585205078125,-0.010933876037597656,-0.01723724603652954,-0.016144871711730957
1783153046594562600,0.1655625,0.007206916809082031,0.016593635082244873,-0.011697739362716675
1783153046604273200,0.175273193359375,-0.006359100341796875,0.01693311333656311,0.006652280688285828
1783153046613983700,0.184983642578125,-0.00356292724609375,-0.014871299266815186,0.010480478405952454
1783153046623694300,0.1946943359375,0.01634502410888672,-0.004968166351318359,0.01825965940952301
1783153046633405200,0.2044052734375,-0.017927169799804688,-0.0042351484298706055,0.01885722577571869
1783153046643115800,0.21411572265625,-0.009918212890625,0.013723969459533691,-0.009037196636199951
1783153046652826400,0.223826416015625,-0.020315170288085938,0.01730254292488098,0.0007951557636260986
1783153046662537000,0.233536865234375,0.021265029907226562,-0.014967769384384155,-0.014926612377166748
1783153046672247600,0.24324755859375,-0.013720512390136719,0.017607659101486206,-0.0182877779006958
1783153046681958100,0.252958251953125,-0.0038967132568359375,-0.01040637493133545,0.021172046661376953
1783153046691668700,0.262668701171875,-0.028550148010253906,0.01946142315864563,0.006673961877822876
1783153046701379300,0.27237939453125,0.009246826171875,-0.013095289468765259,0.019851773977279663
1783153046720800800,0.29180078125,-0.007367134094238281,0.01135757565498352,-0.01139049232006073
1783153046730511400,0.301511474609375,-0.0047435760498046875,0.022272765636444092,-0.013021484017372131
1783153046740222000,0.311221923828125,0.011496543884277344,-0.024385005235671997,-0.02845306694507599
1783153046749932500,0.3209326171875,-0.0027475357055664062,-0.007360339164733887,-0.0294787734746933
1783153046759643100,0.33064306640625,-0.02102375030517578,0.002243936061859131,-0.007700011134147644
1783153046769354000,0.34035400390625,0.0005006790161132812,0.004351973533630371,0.022550001740455627
1783153046779064600,0.350064697265625,-0.006434440612792969,0.004136115312576294,0.010218590497970581
1783153046788775200,0.359775146484375,-0.0039005279541015625,-0.021456867456436157,0.009767875075340271
1783153046798485800,0.36948583984375,-0.006075859069824219,-0.0022754967212677,-0.006667658686637878
1783153046808196400,0.3791962890625,-0.0058727264404296875,0.01637592911720276,-0.02267540991306305
1783153046817907000,0.388906982421875,-0.0010480880737304688,0.02048659324645996,0.008201539516448975
1783153046827617500,0.398617431640625,0.008259773254394531,-0.02184465527534485,-0.020078152418136597
1783153046837328100,0.408328125,0.005682945251464844,0.00899997353553772,0.033786699175834656
1783153046847039000,0.4180390625,-0.0084228515625,0.020526379346847534,0.0024441033601760864
1783153046856749600,0.42774951171875,-0.005856513977050781,0.017673105001449585,-0.007011637091636658
1783153046866460200,0.437460205078125,0.010593414306640625,-0.008584022521972656,0.002405419945716858
1783153046876170800,0.447170654296875,0.000988006591796875,-0.008399218320846558,-0.002296954393386841
1783153046885881300,0.45688134765625,-0.0013675689697265625,0.010588735342025757,-0.018640786409378052
1783153046895592000,0.466592041015625,-0.008335113525390625,0.005592435598373413,0.002698272466659546
1783153046905302800,0.476302734375,0.003551483154296875,0.0033470988273620605,0.00038276612758636475
1783153046915013400,0.486013427734375,0.005791664123535156,-0.010972559452056885,0.011968493461608887
1783153046924724000,0.495723876953125,-0.0036945343017578125,0.015115201473236084,-0.004819586873054504
1783153046934434600,0.5054345703125,-0.01997852325439453,0.010038107633590698,-0.0023459196090698242
1783153046944145200,0.515145263671875,0.0038747787475585938,0.00501975417137146,0.014284953474998474
1783153046953855700,0.524855712890625,0.0037841796875,-0.02323669195175171,0.0021226704120635986
1783153046963566300,0.53456640625,-0.015032768249511719,0.005376935005187988,-0.02834203839302063
1783153046973277200,0.544277099609375,-0.019402503967285156,0.005098879337310791,-0.008855372667312622
1783153046982987800,0.55398779296875,0.00209808349609375,0.014376163482666016,-0.006415367126464844
1783153046992698400,0.563698486328125,-0.0026302337646484375,-0.03762081265449524,0.015190064907073975
1783153047002409000,0.573408935546875,-0.00022220611572265625,0.007827281951904297,0.01273868978023529
1783153047012119600,0.58311962890625,-0.004916191101074219,0.03566758334636688,-0.017989382147789
1783153047021830100,0.592830078125,-0.025956153869628906,0.011509090662002563,-0.0012974739074707031
1783153047031540700,0.602540771484375,0.014464378356933594,-0.03110000491142273,-0.022326618432998657
1783153047041251600,0.61225146484375,-0.006947517395019531,-0.016427040100097656,-0.010015740990638733
1783153047050962200,0.621962158203125,-0.006819725036621094,0.01913270354270935,0.018460020422935486
1783153047060672800,0.6316728515625,-0.00434112548828125,0.007150769233703613,-0.012350335717201233
1783153047070383400,0.64138330078125,0.005152702331542969,-0.016149967908859253,0.03017537295818329
1783153047080094000,0.651093994140625,0.009759902954101562,-0.004391133785247803,0.013102933764457703
1783153047089804500,0.660804443359375,0.00018596649169921875,-0.01361018419265747,-0.01292593777179718
1783153047099515400,0.670515380859375,-0.009228706359863281,0.01498362421989441,0.013272613286972046
1783153047109226000,0.68022607421875,0.0074100494384765625,0.014790743589401245,-0.024411514401435852
1783153047118936600,0.6899365234375,0.00022125244140625,-0.011346668004989624,-0.0194406658411026
1783153047128647200,0.699647216796875,0.000217437744140625,0.00992286205291748,0.02104368805885315
1783153047138357800,0.709357666015625,0.00021266937255859375,0.00505298376083374,0.004184812307357788
1783153047148068400,0.719068359375,0.00021266937255859375,0.007378488779067993,0.032457321882247925
1783153047157779200,0.728779296875,0.014330863952636719,-0.002271413803100586,0.008402645587921143
1783153047167489800,0.73848974609375,-0.0047435760498046875,-0.01640915870666504,-0.029436632990837097
1783153047177200400,0.748200439453125,-0.016432762145996094,0.021595150232315063,-0.010030463337898254
1783153047186911000,0.757910888671875,-0.0020341873168945312,0.0072307586669921875,-0.012420564889907837
1783153047196621600,0.76762158203125,0.00035381317138671875,-0.007068008184432983,-0.009831100702285767
1783153047206332200,0.777332275390625,-0.006716728210449219,0.018894195556640625,0.027969494462013245
1783153047216043000,0.78704296875,-0.0089569091796875,-0.002487778663635254,-0.026675239205360413
1783153047225753600,0.796753662109375,-0.006457328796386719,-0.00014385581016540527,-0.0075415074825286865
1783153047235464200,0.806464111328125,-0.004006385803222656,-0.002552807331085205,0.022822842001914978
1783153047245174800,0.8161748046875,0.005480766296386719,-0.025989949703216553,-0.01043267548084259
1783153047254885400,0.825885498046875,-0.02286052703857422,0.01452416181564331,0.006136476993560791
1783153047264596000,0.835595947265625,-0.015431404113769531,0.004584133625030518,-0.02477017045021057
1783153047274306800,0.845306884765625,-0.02223968505859375,0.002160191535949707,-0.0033156126737594604
1783153047284017400,0.855017333984375,-0.0030393600463867188,-0.007462412118911743,-0.017353996634483337
1783153047293728000,0.86472802734375,0.00171661376953125,0.006618678569793701,-0.02168622612953186
1783153047303438600,0.8744384765625,-0.010066986083984375,0.044408828020095825,0.01200266182422638
1783153047313149200,0.884149169921875,-0.005194664001464844,0.005837172269821167,0.007119208574295044
1783153047322859800,0.89385986328125,-0.012175559997558594,0.0009742975234985352,-0.016679272055625916
1783153047332570400,0.9035703125,-0.00021076202392578125,0.005497992038726807,-0.02595914900302887
1783153047342281200,0.91328125,0.0021448135375976562,0.0029420554637908936,-0.009018853306770325
1783153047351991800,0.92299169921875,-0.007309913635253906,-0.008928239345550537,0.0028704702854156494
1783153047361702400,0.932702392578125,-0.0024814605712890625,0.01706501841545105,0.0239800363779068
1783153047371413000,0.9424130859375,0.0022706985473632812,-0.0044602155685424805,-0.006881892681121826
1783153047381123600,0.95212353515625,-0.009534835815429688,0.028689414262771606,0.019158899784088135
1783153047390834200,0.961834228515625,0.00003814697265625,0.03292630612850189,-0.002437189221382141
1783153047400545000,0.971544921875,0.004752159118652344,-0.007470250129699707,-0.02120022475719452
1783153047410255600,0.981255615234375,0.0070323944091796875,-0.02370855212211609,0.005136206746101379
1783153047419966200,0.99096630859375,-0.011910438537597656,0.026131421327590942,-0.006467357277870178
1783153047429676800,1.0006767578125,-0.009351730346679688,0.0022704601287841797,0.019680529832839966
1783153047439387400,1.010387451171875,-0.0021352767944335938,0.0141201913356781,-0.0020333528518676758
1783153047449098000,1.020097900390625,-0.016225814819335938,-0.009593427181243896,-0.027984619140625
1783153047458808800,1.029808837890625,-0.011237144470214844,0.009516596794128418,0.010349884629249573
1783153047468519400,1.03951953125,-0.008694648742675781,0.016362011432647705,0.02910277247428894
1783153047478230000,1.04922998046875,0.0055713653564453125,0.008970946073532104,-0.004423469305038452
1783153047487940600,1.058940673828125,0.0031280517578125,0.0018156170845031738,-0.016030550003051758
1783153047497651200,1.068651123046875,-0.0016317367553710938,-0.014687329530715942,0.005449444055557251
1783153047507361800,1.07836181640625,0.0078029632568359375,-0.002838641405105591,-0.008909270167350769
1783153047517072600,1.08807275390625,-0.006458282470703125,0.001804262399673462,0.035829514265060425
1783153047526783200,1.097783203125,0.005415916442871094,0.00619882345199585,0.011835947632789612
1783153047536493800,1.107493896484375,0.019446372985839844,-0.008084118366241455,0.006789207458496094
1783153047546204400,1.117204345703125,-0.011477470397949219,0.024956315755844116,0.016349151730537415
1783153047555915000,1.1269150390625,-0.025414466857910156,0.015184491872787476,-0.00766502320766449
1783153047565625600,1.13662548828125,0.007966995239257812,-0.013431757688522339,0.0043792724609375
1783153047575336400,1.14633642578125,0.000782012939453125,0.003503471612930298,-0.004968196153640747
1783153047585047000,1.156047119140625,-0.0039463043212890625,0.0008612871170043945,0.009217619895935059
1783153047594757600,1.165757568359375,0.014954566955566406,-0.006214439868927002,0.004444152116775513
1783153047604468200,1.17546826171875,0.0029382705688476562,0.024611622095108032,0.016169384121894836
1783153047614178800,1.1851787109375,0.00524139404296875,-0.022938311100006104,0.020582839846611023
1783153047623889400,1.194889404296875,0.0075092315673828125,0.003341376781463623,0.008500367403030396
1783153047633600300,1.204600341796875,-0.018507957458496094,0.005649209022521973,-0.010339096188545227
1783153047643310800,1.214310791015625,0.005344390869140625,0.00084647536277771,-0.03361855447292328
1783153047653021400,1.224021484375,-0.008868217468261719,-0.003873467445373535,-0.007132142782211304
1783153047662732000,1.23373193359375,-0.008727073669433594,0.017272919416427612,-0.009515047073364258
1783153047672442600,1.243442626953125,-0.015638351440429688,0.007858574390411377,0.009389817714691162
1783153047682153200,1.2531533203125,-0.013020515441894531,0.0007245242595672607,0.03286220133304596
1783153047691863800,1.26286376953125,-0.0033903121948242188,-0.006404578685760498,-0.007847905158996582
1783153047701574700,1.27257470703125,0.0037374496459960938,-0.0013588964939117432,-0.02410958707332611
1783153047711285200,1.28228515625,-0.0057392120361328125,-0.012990713119506836,-0.023734822869300842
1783153047720995800,1.291995849609375,-0.0032854080200195312,0.001353532075881958,-0.004361748695373535
1783153047730706400,1.30170654296875,-0.0055828094482421875,-0.005556672811508179,0.005042031407356262
1783153047740417000,1.3114169921875,0.006278038024902344,-0.010281145572662354,-0.0114947110414505
1783153047750127600,1.321127685546875,0.008527755737304688,0.003959596157073975,0.014681607484817505
1783153047759838500,1.33083837890625,-0.0033855438232421875,0.010958731174468994,0.02147240936756134
1783153047769549000,1.340549072265625,-0.008039474487304688,-0.008003413677215576,0.018625780940055847
1783153047779259600,1.350259765625,-0.007900238037109375,0.02531793713569641,0.0041647255420684814
1783153047788970200,1.35997021484375,0.006356239318847656,-0.010356038808822632,-0.01717817783355713
1783153047798680800,1.369680908203125,-0.0031566619873046875,-0.02649196982383728,-0.01904188096523285
1783153047808391400,1.379391357421875,-0.0078125,0.011502504348754883,-0.01151476800441742
1783153047818102300,1.389102294921875,0.00173187255859375,-0.016884148120880127,0.007374569773674011
1783153047827812900,1.398812744140625,-0.0030107498168945312,-0.007355719804763794,0.049544766545295715
1783153047837523500,1.4085234375,0.004103660583496094,0.014126867055892944,0.02503761649131775
1783153047847234000,1.418234130859375,-0.005383491516113281,-0.007352173328399658,-0.013072267174720764
1783153047856944600,1.427944580078125,-0.005288124084472656,0.007010757923126221,0.02254711091518402
1783153047866655200,1.4376552734375,0.004223823547363281,-0.009527266025543213,-0.02941848337650299
1783153047876366000,1.447365966796875,0.0017976760864257812,-0.004654824733734131,-0.033666908740997314
1783153047886076700,1.45707666015625,0.0064792633056640625,0.007253289222717285,0.004591271281242371
1783153047895787300,1.466787353515625,-0.0030450820922851562,0.01901993155479431,0.0020194798707962036
1783153047905497900,1.476497802734375,-0.002986907958984375,-0.016436487436294556,0.011489510536193848
1783153047915208400,1.48620849609375,0.0041351318359375,0.009857028722763062,0.0445065051317215
1783153047924919000,1.4959189453125,0.0017118453979492188,0.01222047209739685,-0.008225679397583008
1783153047934630000,1.5056298828125,-0.0053806304931640625,0.026143193244934082,-0.01994200050830841
1783153047944340500,1.515340576171875,-0.0005950927734375,-0.014594942331314087,-0.017455145716667175
1783153047954051000,1.525051025390625,-0.000583648681640625,-0.01676034927368164,-0.028791308403015137
1783153047963761700,1.53476171875,-0.00998687744140625,0.02595275640487671,0.02827782928943634
1783153047973472300,1.54447216796875,0.004299163818359375,-0.007547259330749512,-0.021718934178352356
1783153047983183000,1.55418310546875,-0.005184173583984375,0.02093997597694397,-0.004784122109413147
1783153047992893700,1.563893798828125,0.0019617080688476562,0.01106688380241394,0.011800035834312439
1783153048002604300,1.573604248046875,-0.00042247772216796875,0.0016405284404754639,0.011460676789283752
1783153048012315000,1.58331494140625,-0.0027751922607421875,0.017810165882110596,0.02312755584716797
1783153048022025500,1.593025390625,-0.007441520690917969,-0.010905444622039795,-0.024311944842338562
1783153048031736000,1.602736083984375,-0.009668350219726562,-0.0011903643608093262,-0.023933812975883484
1783153048041447000,1.612447021484375,0.011667251586914062,-0.017818331718444824,0.013820245862007141
1783153048051157500,1.622157470703125,-0.002655029296875,-0.003447890281677246,0.001731574535369873
1783153048060868000,1.6318681640625,-0.00025653839111328125,0.015501350164413452,0.018099665641784668
1783153048070578700,1.64157861328125,0.0020923614501953125,-0.034420549869537354,0.017656952142715454
1783153048080289300,1.651289306640625,-0.004998207092285156,0.015649467706680298,-0.013039380311965942
1783153048090000000,1.660999755859375,-0.0048999786376953125,0.003964930772781372,0.0015007704496383667
1783153048099710700,1.670710693359375,-0.0001125335693359375,-0.017517119646072388,-0.028981655836105347
1783153048109421300,1.68042138671875,-0.007170677185058594,0.018207073211669922,-0.007341176271438599
1783153048119132000,1.6901318359375,0.002376556396484375,0.006417423486709595,0.028241276741027832
1783153048128842500,1.699842529296875,-0.009436607360839844,0.0014919936656951904,0.00419992208480835
1783153048138553000,1.709552978515625,-0.013988494873046875,0.015483617782592773,0.02074994146823883
1783153048148263700,1.719263671875,-0.0019845962524414062,-0.001310974359512329,-0.010167285799980164
1783153048157974500,1.728974609375,0.0027570724487304688,-0.0059379637241363525,-0.005316495895385742
1783153048167685000,1.73868505859375,-0.00670623779296875,0.0014567971229553223,-0.005543157458305359
1783153048177395700,1.748395751953125,-0.008937835693359375,0.001718670129776001,-0.0241958349943161
1783153048187106300,1.758106201171875,0.0006313323974609375,-0.0052519142627716064,-0.016704946756362915
1783153048196817000,1.76781689453125,0.007672309875488281,-0.019512206315994263,0.002205774188041687
1783153048206527500,1.777527587890625,-0.008929252624511719,-0.0002925097942352295,0.0023112744092941284
1783153048216238000,1.787238037109375,-0.004071235656738281,0.011428922414779663,0.04008378088474274
1783153048225949000,1.796948974609375,-0.0016508102416992188,-0.014713495969772339,0.004077315330505371
1783153048235659500,1.806659423828125,0.007807731628417969,0.0024112164974212646,0.0018006861209869385
1783153048245370000,1.8163701171875,-0.02293872833251953,-0.014271318912506104,0.001452118158340454
1783153048255080700,1.826080810546875,-0.0037374496459960938,0.011583060026168823,-0.01060137152671814
1783153048264791300,1.835791259765625,-0.022515296936035156,-0.0004299581050872803,-0.02240021526813507
1783153048274502000,1.845501953125,-0.005663871765136719,-0.031137406826019287,0.00854898989200592
1783153048284212700,1.855212646484375,-0.0008602142333984375,0.002397090196609497,0.0013200938701629639
1783153048293923300,1.86492333984375,-0.0031995773315429688,-0.01877245306968689,0.00598105788230896
1783153048303634000,1.874634033203125,-0.010199546813964844,0.010078251361846924,0.024801820516586304
1783153048313344500,1.884344482421875,0.004099845886230469,-0.006563842296600342,-0.008429720997810364
1783153048323055000,1.89405517578125,-0.0030384063720703125,-0.013739675283432007,-0.01067379117012024
1783153048332765700,1.903765625,0.00643157958984375,0.026457607746124268,-0.029187247157096863
1783153048342476500,1.9134765625,0.011034965515136719,0.004889786243438721,-0.028672531247138977
1783153048352187100,1.923187255859375,-0.007990837097167969,-0.01413947343826294,0.004512369632720947
1783153048361897700,1.932897705078125,0.006267547607421875,-0.004424780607223511,0.030246004462242126
1783153048371608300,1.9426083984375,-0.007967948913574219,0.00019305944442749023,-0.000951617956161499
1783153048381319000,1.95231884765625,-0.0031309127807617188,0.011791080236434937,-0.007966801524162292
1783153048391029800,1.96202978515625,-0.00072479248046875,0.002126067876815796,-0.00780738890171051
1783153048400740400,1.971740234375,-0.01953411102294922,-0.011805444955825806,-0.026251375675201416
1783153048410451000,1.981450927734375,-0.005084037780761719,-0.014018625020980835,-0.01165713369846344
1783153048420161500,1.99116162109375,-0.004998207092285156,-0.00430452823638916,-0.006786435842514038
1783153048429872000,2.0008720703125,-0.0025663375854492188,-0.006583064794540405,-0.006929963827133179
1783153048439582700,2.010582763671875,0.00689697265625,-0.0087679922580719,0.000335007905960083
1783153048449293600,2.02029345703125,0.0044307708740234375,-0.001499772071838379,-0.013708874583244324
1783153048459004200,2.030004150390625,0.004359245300292969,0.005589038133621216,0.005441680550575256
1783153048468714800,2.03971484375,0.0019311904907226562,-0.015690714120864868,-0.006502404808998108
1783153048478425300,2.04942529296875,0.0019063949584960938,-0.012845873832702637,0.014825299382209778
1783153048488136000,2.059135986328125,-0.005191802978515625,0.02251279354095459,-0.02070486545562744
1783153048497846500,2.068846435546875,-0.014519691467285156,0.01754710078239441,-0.01803429424762726
1783153048507557400,2.078557373046875,0.004561424255371094,-0.001458287239074707,0.010598599910736084
1783153048517268000,2.08826806640625,0.0021409988403320312,-0.024798303842544556,-0.012924104928970337
1783153048526978600,2.097978515625,0.009174346923828125,0.008691668510437012,0.03451743721961975
1783153048536689200,2.107689208984375,0.004313468933105469,-0.010284245014190674,0.005721673369407654
1783153048546399700,2.117399658203125,0.0018854141235351562,-0.005515843629837036,-0.010823175311088562
1783153048556110300,2.1271103515625,0.008913040161132812,0.03213183581829071,-0.013024061918258667
1783153048565821200,2.1368212890625,0.004061698913574219,-0.03185048699378967,-0.010365918278694153
1783153048575531800,2.14653173828125,0.0016345977783203125,0.0038833022117614746,-0.003216266632080078
1783153048585242400,2.156242431640625,-0.0007457733154296875,0.017894893884658813,0.020459622144699097
1783153048594953000,2.165952880859375,0.001613616943359375,-0.006113678216934204,0.01061779260635376
1783153048604663600,2.17566357421875,0.001590728759765625,0.01294243335723877,-0.003659382462501526
1783153048614374100,2.1853740234375,-0.010210990905761719,0.010262519121170044,0.0034924745559692383
1783153048624085000,2.1950849609375,-0.014752388000488281,0.005216091871261597,-0.022433653473854065
1783153048633795600,2.204795654296875,0.006680488586425781,0.01914292573928833,-0.007847681641578674
1783153048643506200,2.214506103515625,-0.009912490844726562,0.00452759861946106,-0.016986533999443054
1783153048653216800,2.224216796875,-0.007391929626464844,0.009050548076629639,-0.01185278594493866
1783153048662927400,2.23392724609375,-0.009622573852539062,-0.009932667016983032,0.007266834378242493
1783153048672638000,2.243637939453125,-0.0000438690185546875,0.009181618690490723,0.011714726686477661
1783153048682348500,2.2533486328125,0.00701904296875,-0.00033283233642578125,0.004377737641334534
1783153048692059400,2.263059326171875,-0.002506256103515625,-0.011919260025024414,-0.004974678158760071
1783153048701770000,2.27277001953125,0.0045986175537109375,0.011825352907180786,-0.023697063326835632
1783153048711480600,2.28248046875,0.002166748046875,-0.011969506740570068,-0.020973369479179382
1783153048721191200,2.292191162109375,-0.0049266815185546875,0.00017589330673217773,-0.008881524205207825
1783153048730901800,2.30190185546875,-0.004843711853027344,0.002475529909133911,0.0007669031620025635
1783153048740612400,2.3116123046875,-0.0024118423461914062,0.007202237844467163,0.009972915053367615
1783153048750323200,2.3213232421875,0.00469207763671875,0.00938338041305542,0.026371315121650696
1783153048760033800,2.33103369140625,0.0022611618041992188,-0.011962413787841797,-0.009346365928649902
1783153048769744400,2.340744384765625,0.011632919311523438,0.002021491527557373,-0.013753488659858704
1783153048779455000,2.350455078125,-0.00974273681640625,0.009000182151794434,-0.013214349746704102
1783153048789165600,2.36016552734375,-0.0048656463623046875,0.0019096732139587402,-0.0034969449043273926
1783153048798876200,2.369876220703125,-0.007129669189453125,-0.009780734777450562,-0.007941335439682007
1783153048808587000,2.3795869140625,0.00005817413330078125,-0.004790008068084717,-0.007668390870094299
1783153048818297600,2.389297607421875,0.009455680847167969,0.009193867444992065,0.027284592390060425
1783153048828008200,2.39900830078125,-0.009535789489746094,-0.005026370286941528,0.029158607125282288
1783153048837718800,2.40871875,-0.00702667236328125,-0.02159169316291809,0.009813636541366577
1783153048847429400,2.418429443359375,0.011919975280761719,0.00926274061203003,0.009678348898887634
1783153048857140000,2.428139892578125,-0.002407073974609375,-0.007421284914016724,-0.023530662059783936
1783153048866850800,2.437850830078125,0.011760711669921875,0.006889909505844116,-0.01369507610797882
1783153048876561400,2.4475615234375,-0.0049076080322265625,0.016251415014266968,0.0032134056091308594
1783153048886272000,2.45727197265625,0.00460052490234375,0.0019162893295288086,0.005884185433387756
1783153048895982600,2.466982666015625,0.004528045654296875,0.0020008981227874756,0.015232816338539124
1783153048905693200,2.476693115234375,-0.004960060119628906,-0.012102246284484863,0.008008107542991638
1783153048915404000,2.486404052734375,-0.0001621246337890625,-0.011777043342590332,-0.017885833978652954
1783153048925114600,2.496114501953125,0.0045413970947265625,0.007084488868713379,0.010578587651252747
1783153048934825200,2.5058251953125,0.0044612884521484375,-0.014274388551712036,-0.008573979139328003
1783153048944535800,2.515535888671875,-0.005035400390625,0.016455352306365967,0.003200531005859375
1783153048954246400,2.525246337890625,0.0068206787109375,-0.0072401463985443115,-0.0016501545906066895
1783153048963957000,2.53495703125,-0.0050678253173828125,-0.00010573863983154297,-0.011130005121231079
1783153048973667800,2.544667724609375,-0.009691238403320312,0.02332243323326111,0.003386393189430237
1783153048983378400,2.55437841796875,0.009302139282226562,-0.010134994983673096,0.0151292085647583
1783153048993089000,2.564089111328125,-0.0049686431884765625,0.002096503973007202,0.012547880411148071
1783153049002799600,2.573799560546875,0.004530906677246094,0.0043641626834869385,0.010068163275718689
1783153049012510200,2.58351025390625,0.004462242126464844,-0.009828418493270874,-0.025158047676086426
1783153049022220800,2.593220703125,0.004385948181152344,-0.004895299673080444,-0.010756194591522217
1783153049031931600,2.602931640625,-0.0074558258056640625,-0.009569555521011353,-0.005789816379547119
1783153049051352800,2.622352783203125,0.002094268798828125,0.02109760046005249,0.015703782439231873
1783153049061063400,2.6320634765625,-0.0026483535766601562,-0.0051448047161102295,0.013114511966705322
1783153049070774000,2.64177392578125,-0.0026082992553710938,0.016018718481063843,-0.005966365337371826
1783153049080484600,2.651484619140625,-0.011980056762695312,-0.024268388748168945,-0.0010700076818466187
1783153049090195500,2.661195556640625,0.011757850646972656,-0.007438927888870239,-0.005844622850418091
1783153049099906000,2.670906005859375,-0.00020503997802734375,-0.011902660131454468,-0.012841776013374329
1783153049109616600,2.68061669921875,0.006869316101074219,-0.009229302406311035,-0.000660821795463562
1783153049119327200,2.6903271484375,0.0020513534545898438,0.009648144245147705,-0.005045056343078613
1783153049129037800,2.700037841796875,-0.00033664703369140625,-0.007102012634277344,0.025785818696022034
1783153049138748400,2.70974853515625,0.00437164306640625,-0.014100641012191772,0.020506635308265686
1783153049148459300,2.719459228515625,-0.005107879638671875,0.014673620462417603,0.008422121405601501
1783153049158169900,2.729169921875,0.016164779663085938,-0.013818740844726562,-0.008224710822105408
1783153049167880400,2.73888037109375,-0.010006904602050781,0.007547736167907715,-0.015294522047042847
1783153049177591000,2.748591064453125,0.004291534423828125,-0.004231095314025879,0.00623340904712677
1783153049187301600,2.758301513671875,0.013644218444824219,0.005429744720458984,0.008627578616142273
1783153049197012200,2.76801220703125,-0.0077648162841796875,0.009993255138397217,0.006387427449226379
1783153049206722800,2.777722900390625,-0.005274772644042969,0.00517648458480835,0.008837655186653137
1783153049216433700,2.78743359375,0.0042324066162109375,0.01462632417678833,0.00866001844406128
1783153049226144300,2.797144287109375,0.0065059661865234375,0.0047460198402404785,0.013076499104499817
1783153049235854800,2.806854736328125,0.0016870498657226562,-0.004686176776885986,0.008004233241081238
1783153049245565400,2.8165654296875,-0.0006933212280273438,0.007337808609008789,0.003019765019416809
1783153049255276000,2.826276123046875,0.001674652099609375,-0.002080589532852173,-0.011187732219696045
1783153049264986600,2.835986572265625,-0.0030641555786132812,0.01673606038093567,-0.008677437901496887
1783153049274697500,2.845697509765625,0.001689910888671875,0.006928950548171997,0.0007999241352081299
1783153049284408000,2.855407958984375,-0.0006914138793945312,0.004575848579406738,0.003056749701499939
1783153049294118700,2.86511865234375,0.004036903381347656,0.0024342238903045654,-0.0063827186822891235
1783153049303829200,2.874829345703125,0.0063266754150390625,0.011696279048919678,0.01746976375579834
1783153049313539800,2.884539794921875,-0.0149688720703125,0.004442721605300903,-0.006449088454246521
1783153049323250400,2.89425048828125,0.011180877685546875,0.011608928442001343,-0.01108194887638092
1783153049332961300,2.903961181640625,0.006285667419433594,-0.014532327651977539,-0.006162241101264954
1783153049342672000,2.913671875,0.001468658447265625,0.013910025358200073,0.007976695895195007
1783153049352382500,2.923382568359375,-0.0009183883666992188,0.011212587356567383,0.0029373466968536377
1783153049362093000,2.933093017578125,0.0014514923095703125,0.006379634141921997,0.03346261382102966
1783153049371803600,2.9428037109375,-0.0009317398071289062,0.01793566346168518,0.01633821427822113
1783153049381514500,2.952514404296875,0.008501052856445312,-0.0034400522708892822,-0.000491023063659668
1783153049391225000,2.96222509765625,0.0036468505859375,-0.012859463691711426,0.0017938315868377686
1783153049400935700,2.971935791015625,0.0012388229370117188,-0.0007562041282653809,-0.005156412720680237
1783153049410646300,2.981646240234375,-0.0011396408081054688,-0.0009119510650634766,0.009084627032279968
1783153049420356900,2.99135693359375,0.010640144348144531,0.0037002861499786377,0.01338660717010498
1783153049430067500,3.0010673828125,-0.008370399475097656,-0.0010658502578735352,-0.005698785185813904
1783153049439778300,3.0107783203125,-0.00351715087890625,0.024906277656555176,0.018083691596984863
1783153049449489000,3.020489013671875,0.003597259521484375,0.010311603546142578,-0.0036034882068634033
1783153049459199500,3.030199462890625,0.008249282836914062,0.0148506760597229,-0.012816309928894043
1783153049468910000,3.03991015625,0.005764007568359375,-0.004115253686904907,-0.010159999132156372
1783153049478620700,3.04962060546875,0.01744365692138672,-0.02522909641265869,-0.02862660586833954
1783153049488331300,3.059331298828125,0.0030307769775390625,0.005915254354476929,0.014252707362174988
1783153049498042000,3.0690419921875,-0.027619361877441406,0.005813717842102051,0.004805773496627808
1783153049507752700,3.078752685546875,0.012868881225585938,0.003533393144607544,-0.01872614026069641
1783153049517463300,3.08846337890625,0.00323486328125,-0.0059967041015625,-0.011435478925704956
1783153049527174000,3.098173828125,0.01023101806640625,-0.025071054697036743,0.016923055052757263
1783153049536884500,3.107884521484375,-0.006427764892578125,0.027090221643447876,0.0021972954273223877
1783153049546595000,3.117594970703125,0.0031147003173828125,0.0010328292846679688,0.0025862455368041992
1783153049556306000,3.127305908203125,-0.006352424621582031,-0.013111144304275513,0.016703128814697266
1783153049566016500,3.1370166015625,0.012584686279296875,-0.015249758958816528,0.016404181718826294
1783153049575727000,3.14672705078125,-0.013518333435058594,-0.010224848985671997,-0.012092933058738708
1783153049585437700,3.156437744140625,0.0031824111938476562,0.001663506031036377,-0.011977076530456543
1783153049595148300,3.166148193359375,0.010183334350585938,0.0038188397884368896,0.006918326020240784
1783153049604859000,3.17585888671875,-0.006465911865234375,-0.0033048391342163086,-0.00028665363788604736
1783153049614569700,3.18556982421875,-0.0110626220703125,0.03459233045578003,-0.0026647746562957764
1783153049624280300,3.1952802734375,-0.0108795166015625,-0.013065576553344727,-0.00971001386642456
1783153049633991000,3.204990966796875,0.0010662078857421875,0.0010533928871154785,-0.00016009807586669922
1783153049643701500,3.214701416015625,0.0104522705078125,-0.020323067903518677,0.0018880367279052734
1783153049653412000,3.224412109375,0.010281562805175781,-0.015158027410507202,0.01365584135055542
1783153049663122700,3.234122802734375,0.0030431747436523438,0.0015793144702911377,0.010872766375541687
1783153049672833500,3.24383349609375,0.00299072265625,-0.007859855890274048,0.031793639063835144
1783153049682544000,3.253544189453125,-0.0017633438110351562,-0.021736115217208862,-0.013437703251838684
1783153049692254700,3.263254638671875,0.0029697418212890625,-0.005057394504547119,-0.003773599863052368
1783153049701965300,3.27296533203125,-0.0017795562744140625,-0.004967808723449707,-0.012815907597541809
1783153049711676000,3.282676025390625,-0.0017423629760742188,-0.009417086839675903,-0.010164514183998108
1783153049721386500,3.292386474609375,0.02418804168701172,-0.002085179090499878,0.004221886396408081
1783153049731097300,3.302097412109375,0.004940986633300781,0.00938260555267334,0.01118539273738861
1783153049740808000,3.311807861328125,-0.021026611328125,-0.00231286883354187,-0.007635369896888733
1783153049750518500,3.3215185546875,-0.013617515563964844,-0.011746913194656372,-0.012298911809921265
1783153049760229000,3.33122900390625,-0.0063304901123046875,0.01888367533683777,0.011479586362838745
1783153049769939700,3.340939697265625,0.007903099060058594,-0.004856467247009277,-0.0005098134279251099
1783153049779650600,3.350650634765625,-0.008708953857421875,-0.004829913377761841,-0.0028825849294662476
1783153049789361200,3.360361083984375,0.0008487701416015625,0.013918548822402954,-0.005162090063095093
1783153049799071700,3.37007177734375,-0.0038633346557617188,-0.011974990367889404,-0.011999651789665222
1783153049808782300,3.3797822265625,0.005614280700683594,-0.004767179489135742,-0.0048211365938186646
1783153049818493000,3.389492919921875,-0.006249427795410156,-0.0023254454135894775,0.011761963367462158
1783153049828203500,3.39920361328125,0.005629539489746094,-0.006932735443115234,0.006941154599189758
1783153049837914400,3.408914306640625,0.007884025573730469,0.023618996143341064,0.0020900070667266846
1783153049847625000,3.418625,-0.006363868713378906,0.006920903921127319,-0.02134457230567932
1783153049857335600,3.42833544921875,0.0031461715698242188,-0.04039114713668823,-0.011939361691474915
1783153049867046100,3.438046142578125,-0.015737533569335938,0.023788154125213623,0.014302924275398254
1783153049876756700,3.4477568359375,0.0010089874267578125,-0.011975675821304321,-0.009219586849212646
1783153049886467300,3.45746728515625,0.0057125091552734375,-0.025617897510528564,-0.018333926796913147
1783153049896178000,3.467177978515625,0.0126800537109375,-0.03924959897994995,-0.025126218795776367
1783153049905888800,3.476888671875,0.017182350158691406,0.02020508050918579,-0.005673021078109741
1783153049915599400,3.486599365234375,-0.02312946319580078,0.024582087993621826,0.0272359699010849
1783153049925310000,3.49631005859375,0.021986961364746094,-0.004021167755126953,-0.001492142677307129
1783153049935020500,3.5060205078125,-0.027826309204101562,0.03360576927661896,-0.006378650665283203
1783153049944731100,3.515731201171875,0.03620719909667969,-0.027935713529586792,-0.013301759958267212
1783153049954441700,3.525441650390625,-0.02324390411376953,0.01502200961112976,-0.005873575806617737
1783153049964152600,3.535152587890625,0.019519805908203125,0.0007616281509399414,0.010621294379234314
1783153049973863200,3.54486328125,0.002712249755859375,0.010000139474868774,0.008173689246177673
1783153049983573800,3.55457373046875,0.005023956298828125,-0.011469900608062744,0.020014241337776184
1783153049993284400,3.564284423828125,-0.006827354431152344,0.028803586959838867,-0.024963825941085815
1783153050002995000,3.573994873046875,-0.020836830139160156,0.0049551427364349365,0.0012643486261367798
1783153050012705800,3.583705810546875,0.01952362060546875,-0.007064074277877808,0.003453165292739868
1783153050022416400,3.59341650390625,-0.009050369262695312,-0.01630493998527527,-0.003692418336868286
1783153050032127000,3.603126953125,-0.004183769226074219,-0.001791447401046753,0.029528751969337463
1783153050041837600,3.612837646484375,-0.004113197326660156,0.00771757960319519,0.012526869773864746
1783153050051548200,3.622548095703125,-0.011101722717285156,-0.0018252730369567871,0.01493014395236969
1783153050061258800,3.6322587890625,0.00791168212890625,-0.0019673705101013184,0.017013341188430786
1783153050070969600,3.641969482421875,0.007781982421875,-0.011407166719436646,-0.004312485456466675
1783153050080680200,3.65168017578125,-0.011179924011230469,0.0219152569770813,0.0003267228603363037
1783153050090390800,3.661390869140625,-0.006287574768066406,-0.009164541959762573,-0.011478409171104431
1783153050100101400,3.671101318359375,0.00323486328125,0.01688969135284424,-0.01826608180999756
1783153050109812000,3.68081201171875,0.0031795501708984375,0.0024286210536956787,-0.0014523565769195557
1783153050119522600,3.6905224609375,0.0031375885009765625,0.00015050172805786133,0.017720267176628113
1783153050129233400,3.7002333984375,0.005454063415527344,0.023921847343444824,0.017738133668899536
1783153050138944000,3.709944091796875,0.024191856384277344,-0.01655396819114685,0.005532100796699524
1783153050148654600,3.719654541015625,0.0073184967041015625,0.007380485534667969,0.0033435672521591187
1783153050158365200,3.729365234375,-0.004578590393066406,-0.006922125816345215,-0.013275623321533203
1783153050168075800,3.73907568359375,-0.016274452209472656,0.009619593620300293,-0.04598483443260193
1783153050177786400,3.748786376953125,0.00048732757568359375,-0.002082616090774536,0.004422232508659363
1783153050187497200,3.758497314453125,0.005179405212402344,-0.021105408668518066,0.023096397519111633
1783153050197207800,3.768207763671875,-0.016094207763671875,0.017030030488967896,0.0296899676322937
1783153050206918400,3.77791845703125,-0.020537376403808594,0.02370154857635498,0.0362827330827713
1783153050216629000,3.78762890625,-0.02254962921142578,-0.007295459508895874,0.02152577042579651
1783153050226339600,3.797339599609375,0.006072998046875,-0.009525477886199951,0.002192392945289612
1783153050236050400,3.807050537109375,0.00127410888671875,-0.013957202434539795,-0.004593551158905029
1783153050245761000,3.816760986328125,0.010669708251953125,0.009936720132827759,-0.011666908860206604
1783153050255471600,3.8264716796875,0.0104827880859375,0.01666530966758728,-0.016378894448280334
1783153050265182200,3.83618212890625,0.005599021911621094,-0.02369096875190735,0.014531821012496948
1783153050274892800,3.845892822265625,-0.0039196014404296875,-0.006932288408279419,0.009388118982315063
1783153050284603400,3.855603271484375,-0.013265609741210938,0.007538944482803345,0.023329749703407288
1783153050294314200,3.865314208984375,-0.003627777099609375,0.00041028857231140137,0.006377473473548889
1783153050304024800,3.87502490234375,0.012907981872558594,-0.009181678295135498,-0.01724088191986084
1783153050313735400,3.8847353515625,0.010343551635742188,0.007738232612609863,-0.007677808403968811
1783153050323446000,3.894446044921875,0.0031194686889648438,0.01955929398536682,-0.0167723149061203
1783153050333156600,3.904156494140625,-0.013416290283203125,0.002702265977859497,0.00931607186794281
1783153050342867200,3.9138671875,-0.001422882080078125,0.019137829542160034,-0.002692610025405884
1783153050352578000,3.923578125,0.012715339660644531,-0.007242918014526367,0.008921965956687927
1783153050362288600,3.93328857421875,0.005444526672363281,0.004820972681045532,0.01339922845363617
1783153050371999200,3.942999267578125,-0.00405120849609375,0.011973977088928223,0.013494014739990234
1783153050381709800,3.952709716796875,0.005425453186035156,0.004430860280990601,-0.0008847862482070923
1783153050391420400,3.96242041015625,-0.0064411163330078125,-0.012117087841033936,-0.005779728293418884
1783153050401131300,3.97213134765625,0.005434989929199219,0.025756001472473145,-0.015185892581939697
1783153050410841900,3.981841796875,-0.008786201477050781,-0.01939767599105835,-0.005774259567260742
1783153050420552400,3.991552490234375,0.0031223297119140625,0.00429922342300415,0.01301451027393341
1783153050430263000,4.001262939453125,0.012478828430175781,-0.0007604658603668213,0.02224104106426239
1783153050439973600,4.0109736328125,-0.0112762451171875,-0.000742495059967041,-0.001872926950454712
1783153050449684200,4.020684326171875,0.000690460205078125,0.011099070310592651,0.010131806135177612
1783153050459395000,4.03039501953125,-0.006373405456542969,0.006495952606201172,-0.008787006139755249
1783153050469105700,4.040105712890625,-0.003909111022949219,-0.007563978433609009,-0.013376012444496155
1783153050478816300,4.049816162109375,0.007927894592285156,-0.005081146955490112,0.008064597845077515
1783153050488526800,4.05952685546875,0.0030755996704101562,0.013385176658630371,0.01978643238544464
1783153050498237400,4.069237548828125,0.0030202865600585938,0.008402049541473389,0.019369348883628845
1783153050507948000,4.078947998046875,0.01239013671875,0.003610461950302124,0.019136682152748108
1783153050517659000,4.088658935546875,0.0027685165405273438,0.005904287099838257,0.014142528176307678
1783153050527369500,4.098369384765625,0.00272369384765625,0.008222371339797974,-0.012019678950309753
1783153050537080000,4.108080078125,0.000324249267578125,-0.0014415085315704346,-0.009322881698608398
1783153050546790700,4.117790771484375,-0.0020389556884765625,-0.010891437530517578,0.0001685023307800293
1783153050556501200,4.127501220703125,0.0003566741943359375,-0.022303283214569092,-0.013877451419830322
1783153050566212000,4.137212158203125,-0.006707191467285156,0.01809096336364746,0.0006815344095230103
1783153050575922700,4.146922607421875,0.009890556335449219,0.015497535467147827,0.007987380027770996
1783153050585633300,4.15663330078125,0.005023956298828125,0.008291840553283691,-0.003828197717666626
1783153050595344000,4.16634375,0.002582550048828125,-0.013146936893463135,0.010392338037490845
1783153050605054500,4.176054443359375,-0.0021600723266601562,0.0014306306838989258,-0.0014682114124298096
1783153050614765000,4.18576513671875,0.007292747497558594,0.0013564825057983398,-0.008424311876296997
1783153050624476000,4.195475830078125,-0.0022420883178710938,0.013224154710769653,-0.027147814631462097
1783153050634186500,4.2051865234375,-0.009276390075683594,-0.013003826141357422,-0.003408387303352356
1783153050643897000,4.21489697265625,0.009714126586914062,-0.012837409973144531,0.0086154043674469
1783153050653607700,4.224607666015625,0.0048465728759765625,-0.03145304322242737,0.0179738849401474
1783153050663318300,4.234318359375,0.0024175643920898438,0.004439592361450195,0.029651060700416565
1783153050673028900,4.24402880859375,-0.004689216613769531,0.006609737873077393,0.003232017159461975
1783153050682739700,4.25373974609375,0.000102996826171875,-0.019277334213256836,-0.00615498423576355
1783153050692450300,4.2634501953125,-0.0022554397583007812,0.013832956552505493,-0.013026431202888489
1783153050702161000,4.273160888671875,0.007199287414550781,-0.002873063087463379,-0.00807267427444458
1783153050711871500,4.28287158203125,0.009430885314941406,0.0018899142742156982,-0.003318682312965393
1783153050721582300,4.292582275390625,0.009283065795898438,0.013689011335372925,-0.0005943030118942261
1783153050731293000,4.30229296875,0.004420280456542969,0.029997065663337708,0.03464774787425995
1783153050741003500,4.31200341796875,-0.00035762786865234375,0.001475900411605835,-0.0036793053150177
1783153050750714000,4.321714111328125,-0.0027093887329101562,0.013223528861999512,0.008013591170310974
1783153050760424700,4.3314248046875,-0.007363319396972656,-0.005656927824020386,0.008080929517745972
1783153050770135300,4.34113525390625,0.01158905029296875,-0.010436683893203735,-0.0037411004304885864
1783153050779846000,4.350845947265625,-0.0003757476806640625,-0.007789254188537598,-0.013296842575073242
1783153050789556700,4.360556640625,-0.00036525726318359375,0.00888088345527649,0.0011352300643920898
1783153050799267300,4.370267333984375,0.013772964477539062,-0.014750927686691284,0.010735630989074707
1783153050808978000,4.37997802734375,-0.005293846130371094,-0.00031897425651550293,-0.001413986086845398
1783153050818688500,4.3896884765625,0.0089263916015625,0.006983578205108643,-0.0037195980548858643
1783153050828399000,4.399399169921875,0.0040721893310546875,-0.00018873810768127441,-0.01534658670425415
1783153050838110000,4.40910986328125,0.01107025146484375,-0.01884421706199646,-0.012765288352966309
1783153050847820500,4.418820556640625,0.0014657974243164062,0.009668558835983276,0.0038394927978515625
1783153050857531100,4.42853125,0.008500099182128906,0.000034809112548828125,-0.008077934384346008
1783153050867241700,4.43824169921875,-0.0034151077270507812,0.011806398630142212,-0.015145331621170044
1783153050876952300,4.447952392578125,-0.0010080337524414062,0.009088397026062012,-0.007802024483680725
1783153050886663200,4.4576630859375,-0.008048057556152344,-0.005124568939208984,-0.00047038495540618896
1783153050896373800,4.467373779296875,-0.0031995773315429688,-0.009571224451065063,0.006626695394515991
1783153050906084400,4.47708447265625,-0.00078582763671875,0.0073524415493011475,0.004081249237060547
1783153050915795000,4.486794921875,0.006291389465332031,0.009757697582244873,0.013288944959640503
1783153050925505500,4.496505615234375,0.010894775390625,-0.006936013698577881,-0.01745346188545227
1783153050935216000,4.506216064453125,-0.0010557174682617188,-0.004406630992889404,-0.014835476875305176
1783153050944927000,4.515927001953125,-0.003391265869140625,0.0003235340118408203,0.009037405252456665
1783153050954637600,4.525637451171875,0.0013723373413085938,-0.011453062295913696,0.013571351766586304
1783153050964348200,4.53534814453125,-0.0010061264038085938,0.021757543087005615,0.013202443718910217
1783153050974058800,4.545058837890625,-0.00098419189453125,-0.01621270179748535,-0.012769848108291626
1783153050983769300,4.554769287109375,-0.005677223205566406,0.007543712854385376,-0.02429644763469696
1783153050993480200,4.564480224609375,-0.014996528625488281,0.009888768196105957,-0.02391858398914337
1783153051003190800,4.574190673828125,0.0040912628173828125,-0.004284650087356567,-0.007010668516159058
1783153051012901400,4.5839013671875,0.00872039794921875,-0.004438638687133789,-0.009389087557792664
1783153051022612000,4.593612060546875,-0.012612342834472656,0.00976032018661499,-0.00213681161403656
1783153051032322600,4.603322509765625,-0.005354881286621094,0.0069040656089782715,0.009414732456207275
1783153051042033200,4.613033203125,0.013566970825195312,-0.00021401047706604004,0.004408359527587891
1783153051051744000,4.622743896484375,-0.005497932434082031,-0.014331668615341187,0.011197790503501892
1783153051061454600,4.63245458984375,0.0016622543334960938,0.004797637462615967,-0.0029098540544509888
1783153051071165200,4.642165283203125,-0.0007190704345703125,0.009316027164459229,-0.00036488473415374756
1783153051080875800,4.651875732421875,0.00400543212890625,0.004570335149765015,-0.009747311472892761
1783153051090586400,4.66158642578125,-0.012540817260742188,-0.014222860336303711,-0.009668931365013123
1783153051100297200,4.671297119140625,0.006505012512207031,-0.006862252950668335,-0.00006273388862609863
1783153051110007800,4.6810078125,-0.007729530334472656,0.030864879488945007,0.00703081488609314
1783153051119718400,4.690718505859375,-0.0028934478759765625,-0.005018293857574463,0.018716171383857727
1783153051129429000,4.700428955078125,-0.0004863739013671875,-0.004930704832077026,-0.007292687892913818
1783153051139139600,4.7101396484375,0.0065784454345703125,0.004454106092453003,-0.021377146244049072
1783153051148850200,4.71985009765625,0.0017557144165039062,0.03498697280883789,-0.0070937275886535645
1783153051158561000,4.72956103515625,0.013498306274414062,0.00621446967124939,-0.0047069936990737915
1783153051168271600,4.739271728515625,0.003856658935546875,0.010880231857299805,0.009467944502830505
1783153051177982200,4.748982177734375,0.013213157653808594,-0.0011237561702728271,0.011861994862556458
1783153051187692800,4.75869287109375,0.00827789306640625,-0.008280426263809204,-0.0001891404390335083
1783153051197403400,4.7684033203125,-0.003635406494140625,-0.005898267030715942,0.002082511782646179
1783153051207114200,4.7781142578125,-0.0012187957763671875,-0.02210301160812378,0.006611853837966919
1783153051216824800,4.787824951171875,-0.0011959075927734375,-0.005197048187255859,-0.014654561877250671
1783153051226535400,4.797535400390625,0.0011854171752929688,-0.004936844110488892,-0.00019823014736175537
1783153051236246000,4.80724609375,0.0035266876220703125,0.011739999055862427,-0.018882960081100464
1783153051245956600,4.81695654296875,-0.005949974060058594,-0.0049324631690979,-0.011532709002494812
1783153051255667200,4.826667236328125,-0.00350189208984375,-0.007368713617324829,0.014523684978485107
1783153051265378000,4.8363779296875,0.013034820556640625,0.006879091262817383,0.01896621286869049
1783153051275088600,4.846088623046875,0.0010404586791992188,-0.0073025524616241455,-0.007499516010284424
1783153051284799200,4.85579931640625,-0.010748863220214844,0.01647353172302246,-0.00992189347743988
1783153051294509800,4.865509765625,-0.0011501312255859375,-0.0095805823802948,-0.009726613759994507
1783153051304220700,4.875220703125,0.015344619750976562,-0.011829555034637451,0.00918501615524292
1783153051313931300,4.88493115234375,-0.008459091186523438,0.007092535495758057,0.0065903812646865845
1783153051323641900,4.894641845703125,-0.010670661926269531,0.016509056091308594,-0.007730349898338318
1783153051333352400,4.9043525390625,0.0036268234252929688,-0.0005278587341308594,-0.014577195048332214
1783153051343063000,4.91406298828125,-0.005845069885253906,0.009014308452606201,0.01400303840637207
1783153051352773600,4.923773681640625,0.0013170242309570312,-0.0006085336208343506,0.018623605370521545
1783153051362484200,4.933484130859375,-0.012829780578613281,-0.0028944015502929688,-0.0005458146333694458
1783153051372195000,4.943195068359375,-0.005551338195800781,-0.0004296302795410156,-0.0005670487880706787
1783153051381905700,4.95290576171875,-0.0007448196411132812,-0.0026031136512756348,-0.0028818845748901367
1783153051391616300,4.9626162109375,-0.007800102233886719,-0.019263118505477905,-0.012222334742546082
1783153051401326800,4.972326904296875,-0.010024070739746094,-0.0002212822437286377,-0.014227300882339478
1783153051411037700,4.98203759765625,0.0066204071044921875,0.011558711528778076,0.007167264819145203
1783153051420748300,4.991748291015625,0.0018100738525390625,-0.023777484893798828,0.018967613577842712
1783153051430459000,5.001458984375,-0.0005750656127929688,-0.0046006739139556885,0.0022003650665283203
1783153051440169500,5.01116943359375,-0.0029201507568359375,0.007253706455230713,-0.0002225041389465332
1783153051449880000,5.020880126953125,0.006541252136230469,0.000015795230865478516,-0.02384483814239502
1783153051459590700,5.030590576171875,-0.000621795654296875,-0.0021664798259735107,0.004948481917381287
1783153051469301500,5.040301513671875,0.011164665222167969,-0.00895962119102478,-0.009289532899856567
1783153051479012000,5.05001220703125,-0.0007982254028320312,0.026393979787826538,0.007200315594673157
1783153051488722700,5.05972265625,-0.0007801055908203125,-0.006829738616943359,0.0046974122524261475
1783153051498433300,5.069433349609375,-0.000759124755859375,-0.016017526388168335,0.0024674683809280396
1783153051508143900,5.079143798828125,0.0016126632690429688,0.003139793872833252,0.007281899452209473
1783153051517854700,5.088854736328125,-0.0007801055908203125,0.002913534641265869,-0.004915952682495117
1783153051527565300,5.0985654296875,-0.005469322204589844,0.007635712623596191,-0.006990611553192139
1783153051537276000,5.10827587890625,0.006394386291503906,0.009867995977401733,-0.004436269402503967
1783153051546986500,5.117986572265625,0.0062923431396484375,0.012061655521392822,-0.006517276167869568
1783153051556697000,5.127697021484375,0.0038356781005859375,0.00009360909461975098,0.003093406558036804
1783153051566407700,5.13740771484375,-0.010350227355957031,-0.002206742763519287,-0.0016317218542099
1783153051576118500,5.147118408203125,-0.0054645538330078125,0.0003592073917388916,0.019611522555351257
1783153051585829000,5.1568291015625,0.0016918182373046875,0.009825438261032104,-0.013639286160469055
1783153051595539700,5.166539794921875,0.008729934692382812,-0.004401147365570068,0.01492205262184143
1783153051605250300,5.176250244140625,-0.0031824111938476562,0.016920924186706543,0.007639035582542419
1783153051614961000,5.1859609375,-0.012542724609375,0.005041539669036865,-0.013703152537345886
1783153051624671700,5.195671630859375,0.004153251647949219,0.005014300346374512,-0.013270601630210876
1783153051634382300,5.20538232421875,-0.0006103515625,-0.0067237019538879395,0.010921448469161987
1783153051644093000,5.215093017578125,0.0017566680908203125,-0.015970230102539062,-0.010416805744171143
1783153051653803500,5.224803466796875,-0.010042190551757812,0.014846116304397583,-0.007802113890647888
1783153051663514000,5.23451416015625,0.011313438415527344,-0.013473957777023315,0.001598745584487915
1783153051673225000,5.244224853515625,-0.0006494522094726562,0.010235399007797241,0.0014342963695526123
1783153051682935600,5.253935546875,0.008775711059570312,0.02183973789215088,0.001324668526649475
1783153051692646100,5.263646240234375,-0.0031423568725585938,0.004943370819091797,-0.010497093200683594
1783153051702356700,5.273356689453125,-0.007794380187988281,-0.004550457000732422,-0.014889910817146301
1783153051712067300,5.2830673828125,0.004105567932128906,0.009655922651290894,0.006515681743621826
1783153051721778000,5.29277783203125,0.00640106201171875,-0.0232887864112854,0.008960530161857605
1783153051731488800,5.30248876953125,-0.007831573486328125,0.019419103860855103,0.011196956038475037
1783153051741199400,5.312199462890625,-0.00299072265625,0.00261726975440979,0.001682087779045105
1783153051750910000,5.321909912109375,0.0017595291137695312,0.014060884714126587,-0.028918951749801636
1783153051760620500,5.33162060546875,-0.010042190551757812,0.00671231746673584,-0.0025711357593536377
1783153051770331400,5.341331298828125,-0.005164146423339844,-0.00505673885345459,-0.009614676237106323
1783153051780042000,5.3510419921875,-0.007441520690917969,-0.00278666615486145,0.006826877593994141
1783153051789752600,5.360752685546875,-0.0073146820068359375,0.011445939540863037,0.006741374731063843
1783153051799463200,5.370463134765625,0.006931304931640625,0.023024559020996094,0.018377825617790222
1783153051809173800,5.380173828125,-0.0073032379150390625,0.0038640499114990234,0.00409349799156189
1783153051818884400,5.38988427734375,-0.0048236846923828125,0.001566171646118164,0.008758693933486938
1783153051828595200,5.39959521484375,0.007035255432128906,-0.014707356691360474,0.013349398970603943
1783153051838305800,5.409305908203125,0.006918907165527344,-0.0026845037937164307,-0.010390043258666992
1783153051848016400,5.419016357421875,-0.009671211242675781,0.0021879971027374268,0.003934934735298157
1783153051857727000,5.42872705078125,-0.002452850341796875,-0.014554619789123535,-0.0055159032344818115
1783153051867437600,5.4384375,0.004658699035644531,-0.00006887316703796387,0.00419209897518158
1783153051877148400,5.4481484375,0.004580497741699219,-0.016657114028930664,0.011270105838775635
1783153051886859000,5.45785888671875,-0.0001983642578125,0.021348655223846436,0.015932902693748474
1783153051896569600,5.467569580078125,0.002162933349609375,-0.009607702493667603,0.001684427261352539
1783153051906280200,5.4772802734375,-0.0002231597900390625,-0.002382427453994751,0.00415445864200592
1783153051915990800,5.48699072265625,0.0021371841430664062,-0.01859155297279358,-0.0031184405088424683
1783153051925701400,5.496701416015625,0.006815910339355469,-0.010988593101501465,-0.010156124830245972
1783153051935412200,5.506412109375,-0.0027170181274414062,0.005566775798797607,0.015934288501739502
1783153051945122800,5.516122802734375,-0.0026788711547851562,0.0171891450881958,0.008352711796760559
1783153051954833400,5.52583349609375,0.004421234130859375,0.005074501037597656,0.029206469655036926
1783153051964544000,5.5355439453125,-0.002712249755859375,-0.00672149658203125,0.009916037321090698
1783153051974254600,5.545254638671875,-0.0026702880859375,-0.004363894462585449,0.002714797854423523
1783153051983965400,5.55496533203125,-0.0120391845703125,0.009837985038757324,0.000514596700668335
1783153051993676000,5.564676025390625,0.0022897720336914062,0.007383555173873901,0.005239412188529968
1783153052003386600,5.57438671875,0.002254486083984375,0.009732663631439209,-0.018418610095977783
1783153052013097200,5.58409716796875,-0.000141143798828125,0.004864633083343506,0.009940698742866516
1783153052022808000,5.59380810546875,-0.00014019012451171875,0.009438902139663696,-0.00437888503074646
1783153052032518700,5.6035185546875,0.006926536560058594,-0.002539694309234619,0.01466667652130127
1783153052042229200,5.613229248046875,-0.0026073455810546875,-0.002437800168991089,-0.006906613707542419
1783153052051939800,5.62293994140625,-0.004923820495605469,0.00466802716255188,0.011844024062156677
1783153052061650400,5.632650390625,-0.0048351287841796875,0.01647496223449707,-0.004685595631599426
1783153052071361000,5.642361083984375,0.011720657348632812,-0.00044462084770202637,-0.0022266656160354614
1783153052081071900,5.65207177734375,-0.009674072265625,-0.02167525887489319,-0.012094244360923767
1783153052090782500,5.661782470703125,-0.007167816162109375,-0.021536648273468018,-0.00020903348922729492
1783153052100493000,5.6714931640625,-0.0023374557495117188,0.0048864781856536865,-0.002694264054298401
1783153052110203600,5.68120361328125,0.002399444580078125,0.011699199676513672,0.023048758506774902
1783153052119914200,5.690914306640625,0.0023670196533203125,-0.002390444278717041,-0.017326831817626953
1783153052129625000,5.700625,0.004675865173339844,-0.0025217831134796143,-0.017118841409683228
1783153052139335700,5.710335693359375,-0.0024461746215820312,0.004988521337509155,-0.009460985660552979
1783153052149046300,5.72004638671875,-0.009465217590332031,0.004967719316482544,0.00014013051986694336
1783153052158756900,5.7297568359375,0.004818916320800781,0.01189720630645752,-0.011494189500808716
1783153052168467500,5.739467529296875,-0.004680633544921875,0.018704324960708618,0.00750713050365448
1783153052178178300,5.74917822265625,-0.004599571228027344,-0.021455198526382446,0.014360547065734863
1783153052187889000,5.758888916015625,-0.006875038146972656,-0.004729628562927246,-0.01392829418182373
1783153052197599500,5.768599609375,-0.009108543395996094,0.004939556121826172,-0.0018952488899230957
1783153052207310000,5.77831005859375,0.00045871734619140625,-0.009263992309570312,0.009878620505332947
1783153052217020700,5.788020751953125,-0.0066127777099609375,-0.00916263461112976,0.007331043481826782
1783153052226731500,5.7977314453125,0.0029172897338867188,0.014648586511611938,-0.023365795612335205
1783153052236442000,5.807442138671875,-0.0018491744995117188,-0.018550366163253784,-0.016341403126716614
1783153052246152700,5.817152587890625,0.005249977111816406,0.0030603408813476562,0.007563069462776184
1783153052255863300,5.82686328125,-0.0018949508666992188,0.010246872901916504,0.009762510657310486
1783153052265574000,5.836573974609375,0.005196571350097656,0.02426081895828247,-0.000015050172805786133
1783153052275284700,5.84628466796875,-0.0019483566284179688,0.00266990065574646,0.009547531604766846
1783153052284995300,5.855995361328125,0.009854316711425781,-0.011612564325332642,-0.016362234950065613
1783153052294706000,5.865705810546875,0.012047767639160156,-0.00894823670387268,0.0074823349714279175
1783153052304416500,5.87541650390625,0.000072479248046875,0.01238986849784851,-0.009318158030509949
1783153052314127000,5.885127197265625,0.009494781494140625,-0.0017099082469940186,-0.013842985033988953
1783153052323838000,5.894837890625,-0.00007915496826171875,0.021864503622055054,0.005249589681625366
1783153052333548500,5.904548583984375,0.014050483703613281,0.01897752285003662,0.0101853609085083
1783153052343259100,5.914259033203125,0.0020418167114257812,-0.011826783418655396,-0.002010434865951538
1783153052352969700,5.9239697265625,0.0067119598388671875,-0.01426762342453003,0.007585391402244568
1783153052362680300,5.933680419921875,0.004241943359375,0.0024507343769073486,0.0001999586820602417
1783153052372391200,5.94339111328125,-0.012299537658691406,0.002415210008621216,-0.011205732822418213
1783153052382101800,5.953101806640625,0.0020294189453125,-0.004629403352737427,0.002966776490211487
1783153052391812400,5.962812255859375,0.023189544677734375,0.016866058111190796,-0.006526544690132141
1783153052401523000,5.97252294921875,0.011042594909667969,0.005047321319580078,-0.0015117377042770386
1783153052411233500,5.982233642578125,0.0037946701049804688,-0.006917864084243774,0.017375335097312927
1783153052420944100,5.991944091796875,0.0013761520385742188,0.009680777788162231,0.0005776286125183105
1783153052430655000,6.001655029296875,-0.005703926086425781,-0.004547566175460815,-0.0016406476497650146
1783153052440365600,6.011365478515625,0.0014524459838867188,0.014307379722595215,0.012541800737380981
1783153052450076200,6.021076171875,0.0014324188232421875,-0.0024607479572296143,-0.003950595855712891
1783153052459786800,6.030786865234375,0.008461952209472656,-0.009652107954025269,-0.0040811896324157715
1783153052469497600,6.04049755859375,0.0059642791748046875,0.013882309198379517,0.01726152002811432
1783153052479208200,6.050208251953125,-0.008255958557128906,-0.012128680944442749,0.02406632900238037
1783153052488918800,6.059918701171875,-0.008119583129882812,-0.004914194345474243,-0.01868531107902527
1783153052498629400,6.06962939453125,-0.01739978790283203,0.00688701868057251,0.01237131655216217
1783153052508340000,6.079340087890625,-0.010041236877441406,0.0021817684173583984,0.021667197346687317
1783153052518050800,6.08905078125,-0.0028104782104492188,-0.004796445369720459,0.011800318956375122
1783153052527761400,6.098761474609375,-0.000408172607421875,0.007058441638946533,-0.023624032735824585
1783153052537472000,6.108471923828125,-0.002750396728515625,0.021012932062149048,-0.015911445021629333
1783153052547182600,6.1181826171875,0.0020017623901367188,-0.000578075647354126,0.0008613914251327515
1783153052556893200,6.12789306640625,0.011384963989257812,-0.0003948807716369629,0.005357369780540466
1783153052566604000,6.13760400390625,-0.009989738464355469,-0.007384389638900757,0.007587030529975891
1783153052576314600,6.147314697265625,-0.0003986358642578125,-0.007083594799041748,-0.015942394733428955
1783153052586025200,6.157025146484375,-0.0050983428955078125,-0.023497939109802246,-0.006117656826972961
1783153052595735800,6.16673583984375,-0.002666473388671875,0.004918694496154785,-0.00133436918258667
1783153052605446400,6.1764462890625,-0.00026702880859375,0.004950523376464844,0.0009612590074539185
1783153052615157000,6.186156982421875,0.006808280944824219,0.0026942789554595947,0.024622932076454163
1783153052624867800,6.195867919921875,0.0067043304443359375,0.005121558904647827,-0.010844141244888306
1783153052634578400,6.205578369140625,0.006596565246582031,-0.016032248735427856,0.0058425962924957275
1783153052644289000,6.2152890625,-0.005279541015625,-0.006347030401229858,0.0035935640335083008
1783153052653999600,6.22499951171875,0.00186920166015625,0.0007710754871368408,0.008210062980651855
1783153052663710500,6.23471044921875,0.0018339157104492188,0.003119140863418579,0.005573049187660217
1783153052673421000,6.244421142578125,-0.0029077529907226562,0.005421191453933716,0.002988174557685852
1783153052683131600,6.254131591796875,0.00420379638671875,0.005389034748077393,0.0005587190389633179
1783153052692842200,6.26384228515625,0.0041351318359375,0.000597536563873291,0.024116382002830505
1783153052702552800,6.273552734375,-0.01004791259765625,0.003116697072982788,0.0003717094659805298
1783153052712263700,6.283263671875,-0.019290924072265625,0.00553971529006958,0.021692276000976562
1783153052721974300,6.292974365234375,0.0022258758544921875,0.0031540989875793457,0.016878589987754822
1783153052731684900,6.302684814453125,0.009253501892089844,0.017405807971954346,0.004678651690483093
1783153052741395500,6.3123955078125,0.009095191955566406,-0.008777856826782227,-0.012019753456115723
1783153052751106000,6.32210595703125,-0.0051727294921875,-0.006105214357376099,0.002451300621032715
1783153052760817000,6.33181689453125,0.004329681396484375,0.0010033249855041504,0.011858776211738586
1783153052770527500,6.341527587890625,-0.0051631927490234375,-0.0037748217582702637,0.004512816667556763
1783153052780238000,6.351238037109375,0.004336357116699219,0.00794905424118042,0.009117290377616882
1783153052789948700,6.36094873046875,0.004268646240234375,-0.0013710558414459229,-0.012304872274398804
1783153052799659300,6.3706591796875,-0.0005102157592773438,0.015192151069641113,-0.002711743116378784
1783153052809369900,6.380369873046875,0.011261940002441406,-0.015829890966415405,0.00430704653263092
1783153052819080700,6.390080810546875,0.004014015197753906,-0.0013256669044494629,-0.005263969302177429
1783153052828791300,6.399791259765625,-0.00077056884765625,-0.013128966093063354,-0.003134101629257202
1783153052838502000,6.409501953125,-0.00075531005859375,0.00833997130393982,-0.0007010549306869507
1783153052848212500,6.41921240234375,0.006318092346191406,0.010614752769470215,0.0109405517578125
1783153052857923300,6.42892333984375,-0.010262489318847656,0.012848854064941406,0.006139978766441345
1783153052867634000,6.438634033203125,-0.00537872314453125,-0.00366973876953125,-0.005762055516242981
1783153052877344500,6.448344482421875,0.013543128967285156,0.0057524144649505615,0.010787919163703918
1783153052887055000,6.45805517578125,-0.014934539794921875,-0.013118863105773926,-0.005953699350357056
1783153052896765700,6.467765625,-0.005268096923828125,0.0036956965923309326,-0.017766520380973816
1783153052906476500,6.4774765625,-0.00046253204345703125,0.0036936700344085693,0.004032224416732788
1783153052916187100,6.487187255859375,0.0019044876098632812,-0.01749745011329651,0.006464764475822449
1783153052925897700,6.496897705078125,-0.009905815124511719,-0.000835120677947998,-0.0173863023519516
1783153052935608300,6.5066083984375,0.01615142822265625,0.0038897693157196045,0.0015959739685058594
1783153052945319000,6.51631884765625,0.001758575439453125,-0.005639374256134033,-0.014774337410926819
1783153052955029800,6.52602978515625,0.013514518737792969,-0.005259215831756592,-0.009617164731025696
1783153052964740400,6.535740234375,0.0062351226806640625,0.00223696231842041,0.002285391092300415
1783153052974451000,6.545450927734375,-0.003292083740234375,-0.007328510284423828,-0.016727373003959656
1783153052984161500,6.55516162109375,0.0038204193115234375,-0.009560823440551758,0.011607006192207336
1783153052993872100,6.5648720703125,-0.010359764099121094,0.014372467994689941,-0.007334783673286438
1783153053003583000,6.5745830078125,-0.010183334350585938,0.01654672622680664,-0.007125645875930786
1783153053013293600,6.58429345703125,0.008817672729492188,0.004330158233642578,-0.002152949571609497
1783153053023004200,6.594004150390625,-0.010163307189941406,-0.012277185916900635,0.01198267936706543
1783153053032714800,6.60371484375,-0.0005769729614257812,-0.007417201995849609,0.0024514347314834595
1783153053042425300,6.61342529296875,-0.000568389892578125,-0.009643852710723877,-0.007034957408905029
1783153053052136200,6.62313623046875,0.006504058837890625,-0.009540319442749023,-0.0044733136892318726
1783153053061846800,6.6328466796875,-0.019499778747558594,-0.00690913200378418,-0.006895706057548523
1783153053071557400,6.642557373046875,-0.007405281066894531,0.014397740364074707,0.009612873196601868
1783153053081268000,6.65226806640625,-0.014346122741699219,0.016404718160629272,0.002472013235092163
1783153053090978600,6.661978515625,-0.0093994140625,0.01854643225669861,0.018767476081848145
1783153053100689400,6.671689453125,0.01194000244140625,0.0017063021659851074,0.011304736137390137
1783153053110400000,6.68139990234375,0.00232696533203125,-0.005379408597946167,0.008845746517181396
1783153053120110600,6.691110595703125,0.011704444885253906,0.001661449670791626,-0.002928808331489563
1783153053129821200,6.7008212890625,0.0067996978759765625,0.0016974806785583496,0.006390795111656189
1783153053139531800,6.71053173828125,0.004326820373535156,-0.022153794765472412,0.029911503195762634
1783153053149242600,6.72024267578125,0.0019016265869140625,0.0204809308052063,0.008424460887908936
1783153053158953200,6.729953125,-0.0028324127197265625,0.013137906789779663,-0.010407283902168274
1783153053168663800,6.739663818359375,-0.009848594665527344,-0.008266240358352661,-0.005552500486373901
1783153053178374400,6.74937451171875,-0.002628326416015625,-0.0058259665966033936,0.013172253966331482
1783153053188085200,6.759085205078125,-0.0025787353515625,-0.01732495427131653,-0.005852609872817993
1783153053197795800,6.7687958984375,-0.002529144287109375,0.0019111931324005127,-0.005607888102531433
1783153053207506400,6.77850634765625,-0.016608238220214844,-0.0075348615646362305,0.00881163775920868
1783153053217217000,6.788217041015625,-0.0022001266479492188,-0.012053996324539185,-0.005321472883224487
1783153053226927600,6.797927734375,-0.0021610260009765625,0.00233304500579834,-0.009912937879562378
1783153053236638500,6.807638427734375,0.014353752136230469,-0.0001742243766784668,-0.007303342223167419
1783153053246349000,6.81734912109375,0.00469207763671875,-0.007341146469116211,-0.0025622397661209106
1783153053256059600,6.8270595703125,0.00225830078125,0.013970166444778442,-0.004899173974990845
1783153053265770200,6.836770263671875,-0.0048427581787109375,-0.0076160728931427,0.007094055414199829
1783153053275480800,6.846480712890625,0.011715888977050781,0.013706713914871216,-0.00482882559299469
1783153053285191700,6.856191650390625,0.004460334777832031,-0.00535273551940918,-0.007072657346725464
1783153053294902300,6.86590234375,-0.007389068603515625,0.022990792989730835,-0.011805877089500427
1783153053304612900,6.87561279296875,-0.002559661865234375,0.008426666259765625,-0.006926178932189941
1783153053314323500,6.885323486328125,-0.0072231292724609375,-0.015193432569503784,-0.006784111261367798
1783153053324034000,6.895033935546875,0.016447067260742188,0.0017154812812805176,0.0028293728828430176
1783153053333745000,6.904744873046875,-0.002658843994140625,-0.0006605684757232666,0.0005099773406982422
1783153053343455500,6.91445556640625,0.006808280944824219,-0.0005885958671569824,-0.004007682204246521
1783153053353166000,6.924166015625,0.004338264465332031,0.020496219396591187,-0.0015551447868347168
1783153053362876700,6.933876708984375,0.0019178390502929688,0.02027258276939392,-0.013157978653907776
1783153053372587300,6.943587158203125,0.0018911361694335938,0.005930274724960327,-0.00343988835811615
1783153053382298000,6.953298095703125,-0.002841949462890625,-0.0034687817096710205,0.024954721331596375
1783153053392008700,6.9630087890625,-0.00044918060302734375,0.012958347797393799,0.021984905004501343
1783153053401719300,6.97271923828125,0.016031265258789062,0.0009155869483947754,0.021422073245048523
1783153053411430000,6.982429931640625,-0.0030803680419921875,-0.004089057445526123,-0.002619639039039612
1783153053421140500,6.992140380859375,-0.01715850830078125,0.017051279544830322,0.0021102577447891235
1783153053430851300,7.001851318359375,0.011366844177246094,0.00006371736526489258,-0.007484421133995056
1783153053440562000,7.01156201171875,-0.0029478073120117188,-0.02117675542831421,-0.009687215089797974
1783153053450272500,7.0212724609375,-0.0028972625732421875,-0.009162843227386475,0.00950707495212555
1783153053459983000,7.030983154296875,-0.0004930496215820312,-0.009004801511764526,-0.007047131657600403
1783153053469694000,7.04069384765625,0.004233360290527344,-0.004027009010314941,-0.0019666701555252075
1783153053479404500,7.050404541015625,-0.009970664978027344,0.0077010393142700195,0.004929006099700928
1783153053489115100,7.060115234375,0.018434524536132812,-0.008959710597991943,0.0021219849586486816
1783153053498825700,7.06982568359375,-0.0007152557373046875,0.00279080867767334,0.008952796459197998
1783153053508536300,7.079536376953125,0.004008293151855469,-0.01120731234550476,-0.0030514895915985107
1783153053518247200,7.0892470703125,0.008646965026855469,0.010171234607696533,-0.01721152663230896
1783153053527957800,7.098957763671875,0.006153106689453125,0.03360186517238617,-0.00035674870014190674
1783153053537668400,7.10866845703125,-0.008082389831542969,-0.0048438310623168945,0.0019111484289169312
1783153053547379000,7.11837890625,-0.005597114562988281,-0.004702150821685791,-0.012445569038391113
1783153053557089500,7.128089599609375,0.00391387939453125,-0.004675447940826416,0.011387452483177185
1783153053566800400,7.13780029296875,0.0038576126098632812,0.019005388021469116,-0.000260084867477417
1783153053576511000,7.147510986328125,0.008510589599609375,0.011684238910675049,0.00006078183650970459
1783153053586221600,7.1572216796875,-0.001033782958984375,0.009422898292541504,0.012088671326637268
1783153053595932200,7.16693212890625,-0.008073806762695312,-0.007152587175369263,-0.013866707682609558
1783153053605642800,7.176642822265625,0.008543014526367188,-0.01644343137741089,-0.0017255991697311401
1783153053615353600,7.186353515625,0.0013227462768554688,0.007209748029708862,-0.0068378448486328125
1783153053625064200,7.196064208984375,-0.012829780578613281,0.007037907838821411,-0.002159819006919861
1783153053634774800,7.20577490234375,0.003875732421875,-0.007082462310791016,0.014663919806480408
1783153053644485400,7.2154853515625,-0.005608558654785156,-0.002367466688156128,0.012095242738723755
1783153053654196000,7.225196044921875,-0.010222434997558594,-0.0000852346420288086,-0.009150221943855286
1783153053663906800,7.23490673828125,-0.000637054443359375,0.016342520713806152,0.005155771970748901
1783153053673617400,7.244617431640625,-0.00063323974609375,0.0018905401229858398,-0.004545003175735474
1783153053683328000,7.254327880859375,-0.000629425048828125,0.006510227918624878,-0.009372442960739136
1783153053693038600,7.26403857421875,-0.005326271057128906,-0.010018080472946167,-0.006889119744300842
1783153053702749200,7.273749267578125,-0.005237579345703125,-0.0050789713859558105,-0.023342639207839966
1783153053712460000,7.2834599609375,-0.005161285400390625,-0.009871095418930054,-0.0020208656787872314
1783153053722170600,7.293170654296875,0.006690025329589844,-0.012286216020584106,0.005105316638946533
1783153053731881200,7.302881103515625,-0.0004825592041015625,0.013820081949234009,0.019172057509422302
1783153053741591800,7.312591796875,-0.0004749298095703125,0.0017087161540985107,0.0025154203176498413
1783153053751302400,7.322302490234375,-0.0028247833251953125,0.003923088312149048,0.00950901210308075
1783153053761013200,7.33201318359375,-0.0004177093505859375,-0.005499511957168579,0.00955142080783844
1783153053770723800,7.341723876953125,0.004296302795410156,0.006368458271026611,0.006950691342353821
1783153053780434400,7.351434326171875,0.004227638244628906,0.013384491205215454,0.01628156006336212
1783153053790145000,7.36114501953125,-0.012317657470703125,-0.007908403873443604,0.018449679017066956
1783153053799855900,7.37085595703125,-0.009759902954101562,0.0015287995338439941,0.006401091814041138
1783153053809566500,7.38056640625,0.006882667541503906,-0.005613654851913452,-0.0077438801527023315
1783153053819277000,7.390277099609375,-0.0049953460693359375,0.011134207248687744,-0.01459212601184845
1783153053828987600,7.399987548828125,0.006862640380859375,0.008597046136856079,-0.01891341805458069
1783153053838698200,7.4096982421875,-0.0026702880859375,-0.005666106939315796,-0.004560336470603943
1783153053848409000,7.4194091796875,-0.0026216506958007812,-0.017340093851089478,0.005076348781585693
1783153053858119700,7.42911962890625,0.006844520568847656,0.011258870363235474,0.01931782066822052
1783153053867830300,7.438830322265625,0.0020341873168945312,0.01147550344467163,-0.002165272831916809
1783153053877540900,7.448540771484375,-0.012122154235839844,0.009045273065567017,0.0026107579469680786
1783153053887251700,7.458251708984375,-0.00250244140625,-0.01223096251487732,-0.011645257472991943
1783153053896962300,7.46796240234375,-0.004810333251953125,0.023346811532974243,-0.020725727081298828
1783153053906673000,7.4776728515625,-0.007084846496582031,0.01584067940711975,0.0173167884349823
1783153053916383500,7.487383544921875,0.00951385498046875,0.010870873928070068,-0.020552098751068115
1783153053926094000,7.497093994140625,-0.009478569030761719,-0.003487139940261841,0.01042167842388153
1783153053935805000,7.506804931640625,0.009515762329101562,-0.019846022129058838,-0.0014393627643585205
1783153053945515500,7.516515625,-0.014202117919921875,0.013159781694412231,0.007634028792381287
1783153053955226000,7.52622607421875,0.0025148391723632812,-0.01059618592262268,-0.0018833279609680176
1783153053964936700,7.535936767578125,-0.0022373199462890625,0.010603934526443481,-0.001769915223121643
1783153053974647300,7.545647216796875,0.007212638854980469,0.0009017586708068848,0.0029376745223999023
1783153053984358100,7.555358154296875,-0.009382247924804688,0.012664467096328735,-0.0016806572675704956
1783153053994068700,7.56506884765625,-0.002166748046875,-0.0016094446182250977,-0.011270701885223389
1783153054003779300,7.574779296875,-0.0021257400512695312,-0.00869685411453247,-0.006119847297668457
1783153054013490000,7.584489990234375,0.007328987121582031,0.000985562801361084,0.003367006778717041
1783153054023200500,7.594200439453125,-0.004569053649902344,-0.008502066135406494,-0.0062469542026519775
1783153054032911400,7.603911376953125,-0.0021429061889648438,0.008065998554229736,-0.01099388301372528
1783153054042622000,7.6136220703125,0.012015342712402344,0.007875770330429077,-0.0013623237609863281
1783153054052332500,7.62333251953125,0.00004100799560546875,0.019463837146759033,0.0032814890146255493
1783153054062043100,7.633043212890625,0.0024003982543945312,0.0003070533275604248,-0.0012220889329910278
1783153054071753700,7.642753662109375,-0.007063865661621094,-0.007044374942779541,0.005835443735122681
1783153054081464600,7.652464599609375,-0.0069446563720703125,0.00719943642616272,0.012889325618743896
1783153054091175200,7.662175048828125,-0.00447845458984375,-0.014161407947540283,0.0008178502321243286
1783153054100885800,7.6718857421875,0.00030231475830078125,-0.004621356725692749,0.010252565145492554
1783153054110596400,7.681596435546875,0.0026416778564453125,-0.004657089710235596,-0.00429689884185791
1783153054120307000,7.691306884765625,-0.016234397888183594,-0.018761873245239258,0.005281656980514526
1783153054130017800,7.701017822265625,0.005225181579589844,-0.018388211727142334,0.002810746431350708
1783153054139728400,7.710728271484375,-0.0019197463989257812,0.0030544400215148926,0.0006643086671829224
1783153054149439000,7.72043896484375,-0.013658523559570312,-0.013471931219100952,0.01245252788066864
1783153054159149600,7.730149658203125,-0.008728981018066406,0.005590170621871948,-0.004548013210296631
1783153054168860200,7.739860107421875,0.0008306503295898438,0.010320544242858887,0.007102370262145996
1783153054178571000,7.749571044921875,0.012582778930664062,0.007798314094543457,-0.004929646849632263
1783153054188281600,7.759281494140625,0.014729499816894531,-0.011216878890991211,-0.002409636974334717
1783153054197992200,7.7689921875,-0.011415481567382812,-0.00626334547996521,-0.0048630982637405396
1783153054207702800,7.778702880859375,-0.008877754211425781,0.0030921995639801025,-0.016697317361831665
1783153054217413600,7.78841357421875,-0.006381988525390625,0.005225062370300293,0.007097497582435608
1783153054227124200,7.798124267578125,0.007852554321289062,0.0005460977554321289,0.011717528104782104
1783153054236834800,7.807834716796875,-0.006398200988769531,0.005420327186584473,0.004430949687957764
1783153054246545400,7.81754541015625,-0.0015869140625,-0.008963584899902344,-0.0003213733434677124
1783153054256256000,7.827256103515625,-0.0015478134155273438,-0.0038780570030212402,-0.009471714496612549
1783153054265966800,7.836966796875,0.0008258819580078125,-0.006340146064758301,-0.00933605432510376
1783153054275677400,7.846677490234375,0.005520820617675781,-0.0061193108558654785,-0.006965667009353638
1783153054285388000,7.856387939453125,-0.0016374588012695312,-0.0013633370399475098,-0.006933614611625671
1783153054295098600,7.8660986328125,-0.001605987548828125,-0.02016887068748474,0.00038518011569976807
1783153054304809500,7.8758095703125,-0.003937721252441406,-0.005759179592132568,-0.00912533700466156
1783153054314520000,7.88552001953125,-0.00151824951171875,0.0060520172119140625,0.0004750937223434448
1783153054324230700,7.895230712890625,0.0032186508178710938,0.013074696063995361,-0.008864343166351318
1783153054333941200,7.904941162109375,-0.006251335144042969,0.003502368927001953,0.0194464772939682
1783153054343651800,7.91465185546875,0.010339736938476562,-0.024689823389053345,-0.008927136659622192
1783153054353362700,7.92436279296875,0.0031070709228515625,0.00862741470336914,-0.01099027693271637
1783153054363073300,7.9340732421875,0.0030460357666015625,-0.005754321813583374,0.012481480836868286
1783153054372783900,7.943783935546875,0.000644683837890625,0.001460939645767212,0.01701502501964569
1783153054382494500,7.953494384765625,0.0006351470947265625,-0.0009122490882873535,0.012049689888954163
1783153054392205000,7.963205078125,0.010042190551757812,-0.01967105269432068,0.025946959853172302
1783153054401916000,7.972916015625,0.01222991943359375,0.0018457472324371338,0.0043582916259765625
1783153054411626500,7.98262646484375,0.0049610137939453125,0.004118919372558594,-0.014636889100074768
1783153054421337000,7.992337158203125,-0.00925445556640625,-0.024254530668258667,-0.0052311718463897705
1783153054431047700,8.002047607421876,0.00737762451171875,0.013762444257736206,0.001948520541191101
1783153054440758500,8.011758544921875,0.0072479248046875,-0.0053521692752838135,0.008777335286140442
1783153054450469000,8.02146923828125,0.0047702789306640625,-0.014792531728744507,0.01572519540786743
1783153054460179700,8.0311796875,-0.0047206878662109375,-0.005012601613998413,-0.010346174240112305
1783153054469890300,8.040890380859375,0.0024194717407226562,-0.014398902654647827,-0.0007286667823791504
1783153054479601000,8.050600830078125,0.0023784637451171875,-0.016564786434173584,0.0016643255949020386
1783153054489311700,8.060311767578124,-0.000030517578125,0.014030754566192627,0.0013278275728225708
1783153054499022300,8.070022216796875,-0.004749298095703125,-0.0052607059478759766,-0.005899593234062195
1783153054508733000,8.07973291015625,0.004744529724121094,0.004135102033615112,0.0012879818677902222
1783153054518443500,8.089443603515624,0.004668235778808594,-0.012352317571640015,0.008357390761375427
1783153054528154400,8.099154296875,-0.00011730194091796875,0.006802350282669067,-0.001281142234802246
1783153054537865000,8.108864990234375,-0.00716400146484375,0.0022124648094177246,0.0014076530933380127
1783153054547575600,8.118575439453124,0.007079124450683594,-0.004880279302597046,0.003706410527229309
1783153054557286100,8.1282861328125,-0.009519577026367188,-0.002440840005874634,0.010621532797813416
1783153054566996700,8.137996826171875,-0.0022916793823242188,-0.011811643838882446,-0.003426074981689453
1783153054576707300,8.147707275390625,0.00010585784912109375,0.00952136516571045,-0.0007031857967376709
1783153054586418200,8.157418212890626,-0.006962776184082031,0.023205488920211792,0.004160821437835693
1783153054596128800,8.167128662109375,0.009631156921386719,-0.02908363938331604,0.006530940532684326
1783153054605839400,8.17683935546875,0.0024003982543945312,-0.00510859489440918,-0.005607202649116516
1783153054615550000,8.186550048828124,0.002361297607421875,-0.0026680827140808105,0.008642986416816711
1783153054625260800,8.1962607421875,0.016448974609375,0.018565386533737183,-0.0032405108213424683
1783153054634971400,8.205971435546875,0.004398345947265625,0.0039067864418029785,-0.01022079586982727
1783153054644682000,8.215681884765624,0.004324913024902344,0.003902643918991089,0.001634836196899414
1783153054654392600,8.225392578125,0.0019063949584960938,-0.005466759204864502,-0.007603436708450317
1783153054664103200,8.235103271484375,0.006587028503417969,-0.007671654224395752,0.011445432901382446
1783153054673814000,8.24481396484375,-0.0029354095458984375,0.013760566711425781,0.01128457486629486
1783153054683524600,8.254524658203126,0.004172325134277344,-0.005299776792526245,0.0015386492013931274
1783153054693235200,8.264235107421875,-0.007678031921386719,-0.002908945083618164,-0.005864888429641724
1783153054702945800,8.27394580078125,-0.0075511932373046875,0.004203349351882935,-0.005792573094367981
1783153054712656400,8.283656494140626,0.0019893646240234375,-0.012344926595687866,-0.0034242719411849976
1783153054722367200,8.2933671875,-0.026292800903320312,-0.014492154121398926,0.0013727545738220215
1783153054732077800,8.303077880859375,-0.0023126602172851562,-0.01436200737953186,-0.012631416320800781
1783153054741788400,8.312788330078124,-0.0022840499877929688,-0.016698092222213745,-0.014921069145202637
1783153054751499000,8.3224990234375,0.00009822845458984375,-0.0024643540382385254,-0.0007435977458953857
1783153054761209600,8.332209716796875,0.00009441375732421875,-0.0023609399795532227,0.008541271090507507
1783153054770920400,8.34192041015625,0.004810333251953125,-0.006857812404632568,-0.007877960801124573
1783153054780631000,8.351631103515626,0.00002384185791015625,0.016744017601013184,0.008876621723175049
1783153054790341600,8.361341552734375,0.011794090270996094,0.004696577787399292,-0.007720813155174255
1783153054800052200,8.37105224609375,0.004530906677246094,0.006918072700500488,-0.010087385773658752
1783153054809762800,8.3807626953125,-0.00025653839111328125,-0.012089431285858154,-0.012352630496025085
1783153054819473700,8.3904736328125,-0.0026102066040039062,-0.00499647855758667,-0.009759396314620972
1783153054829184300,8.400184326171875,-0.0002117156982421875,-0.014266282320022583,-0.00021192431449890137
1783153054838894800,8.409894775390624,-0.014330863952636719,-0.01397031545639038,-0.023718804121017456
1783153054848605400,8.41960546875,0.00003147125244140625,0.007455646991729736,-0.0022230446338653564
1783153054858316300,8.42931640625,-0.0023336410522460938,0.000043392181396484375,0.0023813396692276
1783153054868027000,8.43902685546875,-0.004643440246582031,-0.014021575450897217,-0.004578679800033569
1783153054877737500,8.448737548828126,-0.004565238952636719,0.002752453088760376,0.0048857033252716064
1783153054887448000,8.458447998046875,-0.004494667053222656,0.0073063671588897705,0.002362757921218872
1783153054897158700,8.46815869140625,0.0049953460693359375,0.02837631106376648,-0.004824921488761902
1783153054906869500,8.477869384765626,0.004910469055175781,0.0019513964653015137,0.007001042366027832
1783153054916580000,8.487580078125,-0.004596710205078125,-0.003012150526046753,0.009151250123977661
1783153054926290700,8.497290771484375,0.0025529861450195312,0.009097963571548462,-0.0003327876329421997
1783153054936001300,8.507001220703126,0.0048675537109375,0.01371428370475769,0.009119465947151184
1783153054945712000,8.516712158203125,-0.01169586181640625,0.0017144978046417236,-0.017009496688842773
1783153054955422700,8.526422607421875,-0.006781578063964844,-0.014733880758285522,-0.006994366645812988
1783153054965133300,8.53613330078125,-0.006667137145996094,-0.0026577413082122803,-0.004550665616989136
1783153054974844000,8.545843994140625,0.005215644836425781,-0.016733288764953613,0.021447986364364624
1783153054984554500,8.555554443359375,-0.0066394805908203125,-0.014041990041732788,-0.002419903874397278
1783153054994265300,8.565265380859374,-0.004172325134277344,-0.00197601318359375,-0.002351313829421997
1783153055003976000,8.574975830078126,-0.011167526245117188,0.005122125148773193,0.009431794285774231
1783153055013686500,8.5846865234375,0.0031480789184570312,0.014397770166397095,0.002414509654045105
1783153055023397000,8.594397216796875,0.010156631469726562,-0.00013715028762817383,0.004873976111412048
1783153055033107700,8.604107666015626,-0.0017747879028320312,0.009511083364486694,0.00482429563999176
1783153055042818600,8.613818603515625,0.005316734313964844,-0.00023123621940612793,-0.009239032864570618
1783153055052529200,8.623529052734375,-0.004192352294921875,-0.014466732740402222,0.0027191191911697388
1783153055062239700,8.63323974609375,0.009993553161621094,-0.00026744604110717773,-0.00453147292137146
1783153055071950300,8.642950439453125,0.005126953125,0.007032901048660278,-0.00442931056022644
1783153055081661200,8.6526611328125,-0.006737709045410156,0.0020958781242370605,-0.011616110801696777
1783153055091371800,8.662371826171874,-0.006636619567871094,-0.0005714297294616699,-0.011568456888198853
1783153055101082400,8.672082275390625,-0.0041751861572265625,0.004211634397506714,0.0001907646656036377
1783153055110793000,8.68179296875,0.014725685119628906,-0.00773543119430542,-0.023330986499786377
1783153055120503600,8.691503662109374,0.0027208328247070312,0.0020950138568878174,0.0031011998653411865
1783153055130214400,8.70121435546875,-0.0020284652709960938,-0.011951327323913574,-0.003979906439781189
1783153055139925000,8.710925048828125,-0.0043430328369140625,0.011909186840057373,0.0009354352951049805
1783153055149635600,8.720635498046875,0.0027914047241210938,0.004538118839263916,0.015187293291091919
1783153055159346200,8.73034619140625,-0.006674766540527344,0.002049654722213745,0.00543820858001709
1783153055169057000,8.74005712890625,0.0075626373291015625,-0.002631932497024536,0.005318865180015564
1783153055178767600,8.749767578125,-0.0019779205322265625,0.002125650644302368,0.017084836959838867
1783153055188478200,8.759478271484374,-0.008999824523925781,0.0024347305297851562,-0.018596947193145752
1783153055198188800,8.769188720703125,-0.008846282958984375,0.01187470555305481,0.014753758907318115
1783153055207899400,8.7788994140625,-0.00399017333984375,-0.00944584608078003,0.009765863418579102
1783153055217610200,8.7886103515625,0.000782012939453125,0.014142155647277832,0.00021620094776153564
1783153055227320800,8.79832080078125,0.000782012939453125,-0.009399443864822388,0.005172312259674072
1783153055237031400,8.808031494140625,0.0054779052734375,0.0025849640369415283,0.01677630841732025
1783153055246742000,8.817741943359374,-0.006388664245605469,-0.002446115016937256,0.009574726223945618
1783153055256452600,8.82745263671875,-0.013345718383789062,-0.0023471415042877197,0.004624322056770325
1783153055266163500,8.83716357421875,0.010424613952636719,-0.011665254831314087,-0.007079869508743286
1783153055275874000,8.8468740234375,-0.008584022521972656,0.007255524396896362,0.00012572109699249268
1783153055285584600,8.856584716796876,0.0009746551513671875,0.01178443431854248,0.011929437518119812
1783153055295295200,8.866295166015625,-0.0061016082763671875,0.01870882511138916,0.004699572920799255
1783153055305006000,8.876006103515625,-0.0012845993041992188,-0.014500796794891357,0.009528875350952148
1783153055314716700,8.885716552734374,-0.0036153793334960938,0.0023395419120788574,-0.0094938725233078
1783153055324427300,8.89542724609375,0.0035152435302734375,0.014240920543670654,-0.011598020792007446
1783153055334137900,8.905137939453125,-0.013025283813476562,-0.00023025274276733398,-0.011378079652786255
1783153055343848400,8.914848388671874,0.006015777587890625,0.01596924662590027,0.005208507180213928
1783153055353559300,8.924559326171876,-0.0011434555053710938,-0.003070920705795288,0.005208596587181091
1783153055363270000,8.934269775390625,-0.0011157989501953125,0.004159420728683472,0.007676839828491211
1783153055372980500,8.94398046875,-0.0010938644409179688,0.018270641565322876,0.005286484956741333
1783153055382691000,8.953691162109376,0.008339881896972656,0.0014392435550689697,0.016991153359413147
1783153055392402000,8.96340185546875,-0.010631561279296875,-0.0009349584579467773,0.012084826827049255
1783153055402112500,8.973112548828125,-0.0010328292846679688,0.0014902055263519287,0.002558410167694092
1783153055411823000,8.982822998046874,-0.0033721923828125,0.0014068186283111572,-0.0022148191928863525
1783153055421533700,8.99253369140625,-0.0009670257568359375,0.005866438150405884,0.014331385493278503
1783153055431244300,9.002244384765625,-0.0009527206420898438,0.005773991346359253,-0.002474159002304077
1783153055440955100,9.011955078125,0.0037670135498046875,0.005564987659454346,0.0022500455379486084
1783153055450665700,9.021665771484376,-0.010419845581054688,0.005423367023468018,0.009412527084350586
1783153055460376300,9.031376220703125,0.0015354156494140625,0.0009148120880126953,-0.009551271796226501
1783153055470087000,9.0410869140625,0.01328277587890625,-0.010811835527420044,0.007117226719856262
1783153055479797500,9.050797607421876,0.0012941360473632812,-0.003398329019546509,-0.0024989843368530273
1783153055489508400,9.06050830078125,-0.0010786056518554688,-0.005636304616928101,0.011697769165039062
1783153055499219000,9.070218994140625,-0.00812530517578125,-0.007950961589813232,0.011475726962089539
1783153055508929500,9.079929443359376,-0.005637168884277344,0.0038968026638031006,0.008961811661720276
1783153055518640000,9.08964013671875,-0.0008392333984375,-0.00328102707862854,0.006312325596809387
1783153055528351000,9.09935107421875,-0.0031871795654296875,-0.0009849071502685547,-0.0057602375745773315
1783153055538061600,9.1090615234375,-0.0031347274780273438,-0.012846797704696655,0.008542969822883606
1783153055547772200,9.118772216796875,-0.00543975830078125,0.0037923455238342285,0.0012539476156234741
1783153055557482800,9.128482666015625,-0.012403488159179688,-0.017282426357269287,-0.017402932047843933
1783153055567193300,9.138193359375,0.0019292831420898438,0.006429314613342285,0.011289507150650024
1783153055576904200,9.147904296875,0.0042552947998046875,-0.0242784321308136,-0.0004704296588897705
1783153055586614800,9.15761474609375,-0.005232810974121094,0.00431939959526062,0.0019247978925704956
1783153055596325400,9.167325439453125,-0.0004367828369140625,-0.0029279887676239014,0.006746605038642883
1783153055606036000,9.177035888671876,-0.00043392181396484375,0.006536036729812622,0.00408683717250824
1783153055615746800,9.186746826171875,0.0019283294677734375,-0.00522458553314209,0.02276499569416046
1783153055625457400,9.19645751953125,-0.000461578369140625,0.011290192604064941,-0.01536889374256134
1783153055635168000,9.20616796875,0.006606101989746094,0.006283611059188843,-0.0009592771530151367
1783153055644878600,9.215878662109375,-0.0005674362182617188,-0.005646497011184692,-0.0009133815765380859
1783153055654589200,9.225589111328125,-0.0005550384521484375,-0.01019984483718872,-0.0032240748405456543
1783153055664300000,9.235300048828124,-0.0028982162475585938,-0.012438476085662842,-0.0077348798513412476
1783153055674010600,9.2450107421875,-0.007557868957519531,-0.007463216781616211,-0.0006274133920669556
1783153055683721200,9.25472119140625,0.0019979476928710938,0.004662662744522095,-0.0050675272941589355
1783153055693431800,9.264431884765624,0.0019683837890625,0.011597245931625366,0.016400665044784546
1783153055703142400,9.274142333984376,0.004290580749511719,-0.0027714967727661133,0.0020841211080551147
1783153055712853200,9.283853271484375,-0.007552146911621094,-0.00036576390266418457,-0.012106120586395264
1783153055722563800,9.293563720703125,-0.0050811767578125,-0.017117232084274292,-0.014290526509284973
1783153055732274400,9.3032744140625,-0.004992485046386719,0.018543332815170288,-0.004551932215690613
1783153055741985000,9.312985107421875,0.0045032501220703125,0.004057466983795166,0.014270216226577759
1783153055751696000,9.32269580078125,0.009140968322753906,0.015764743089675903,0.014174610376358032
1783153055761406500,9.332406494140624,0.0042819976806640625,0.001265406608581543,-0.002340167760848999
1783153055771117000,9.342116943359375,-0.0052032470703125,-0.005640596151351929,-0.011806860566139221
1783153055780827600,9.35182763671875,0.0043048858642578125,0.0015782713890075684,-0.0044068843126297
1783153055790538200,9.361538330078124,-0.0028333663940429688,0.015564382076263428,0.0003495067358016968
1783153055800249000,9.3712490234375,-0.0004253387451171875,0.010657519102096558,-0.0018682628870010376
1783153055809959700,9.380959716796875,0.0066432952880859375,-0.01541370153427124,0.00284421443939209
1783153055819670300,9.390670166015624,-0.0028886795043945312,-0.005909740924835205,-0.01835942268371582
1783153055829380900,9.400380859375,0.0065708160400390625,0.003494173288345337,0.01952970027923584
1783153055839091700,9.410091796875,-0.012373924255371094,0.010441333055496216,0.0004037916660308838
1783153055848802300,9.41980224609375,0.009027481079101562,0.010271281003952026,0.0030074715614318848
1783153055858513000,9.429512939453126,-0.0028934478759765625,-0.001719743013381958,-0.013441652059555054
1783153055868223500,9.439223388671875,0.0042266845703125,0.0031853020191192627,-0.010656043887138367
1783153055877934000,9.44893408203125,-0.0005407333374023438,-0.003756880760192871,0.008555978536605835
1783153055887645000,9.45864501953125,0.004191398620605469,0.013068467378616333,0.011087283492088318
1783153055897355500,9.46835546875,-0.009999275207519531,0.010444849729537964,-0.010030686855316162
1783153055907066000,9.478066162109375,-0.009835243225097656,-0.001608818769454956,0.0019341260194778442
1783153055916776700,9.487776611328124,-0.0026140213012695312,-0.018172770738601685,0.015943050384521484
1783153055926487300,9.4974873046875,0.0044841766357421875,-0.003970026969909668,0.0038792937994003296
1783153055936198100,9.5071982421875,0.013827323913574219,-0.011077791452407837,-0.0030470937490463257
1783153055945908700,9.51690869140625,-0.00287628173828125,0.005702763795852661,-0.0076178014278411865
1783153055955619300,9.526619384765626,0.008936882019042969,-0.006276041269302368,-0.007573246955871582
1783153055965330000,9.536329833984375,-0.00533294677734375,-0.017994046211242676,-0.007249414920806885
1783153055975040800,9.546040771484375,0.00417327880859375,0.010670006275177002,0.0022074133157730103
1783153055984751400,9.55575146484375,-0.0029544830322265625,-0.008112281560897827,0.00915081799030304
1783153055994462000,9.5654619140625,-0.007610321044921875,-0.010211914777755737,0.011322185397148132
1783153056004172500,9.575172607421875,-0.00041675567626953125,0.008965373039245605,0.011106401681900024
1783153056013883100,9.584883056640624,0.004298210144042969,0.006522685289382935,-0.007997974753379822
1783153056023594000,9.594593994140626,-0.000476837158203125,0.004002630710601807,0.0018132179975509644
1783153056033304600,9.6043046875,-0.007527351379394531,0.013472020626068115,0.0018096566200256348
1783153056043015200,9.61401513671875,-0.009760856628417969,-0.0009849071502685547,0.008867114782333374
1783153056052725800,9.623725830078126,-0.0025339126586914062,0.003802269697189331,0.008689001202583313
1783153056062436600,9.6334365234375,0.002216339111328125,0.006041467189788818,0.027404412627220154
1783153056072147200,9.643147216796875,0.009243011474609375,-0.0010622739791870117,0.017503827810287476
1783153056081857800,9.65285791015625,-0.00032806396484375,0.00114402174949646,0.0008733123540878296
1783153056091568400,9.662568359375,0.0067386627197265625,-0.008290618658065796,0.0008333176374435425
1783153056101279000,9.672279052734375,0.013677597045898438,0.005866885185241699,-0.0018532425165176392
1783153056110989800,9.68198974609375,0.008741378784179688,0.0009492933750152588,0.012389734387397766
1783153056120700400,9.691700439453125,-0.0031766891479492188,-0.0038293004035949707,0.012213155627250671
1783153056130411000,9.701410888671875,0.001590728759765625,-0.0036503076553344727,0.019160732626914978
1783153056140121600,9.71112158203125,-0.005494117736816406,-0.005827099084854126,0.011808708310127258
1783153056149832200,9.720832275390626,0.013430595397949219,-0.0033732354640960693,0.002225026488304138
1783153056159543000,9.73054296875,0.008492469787597656,-0.008134037256240845,0.0020436495542526245
1783153056169253600,9.740253662109374,0.0012769699096679688,-0.0012181997299194336,-0.01931925117969513
1783153056178964200,9.749964111328126,0.0036163330078125,-0.008200913667678833,0.00003719329833984375
1783153056188674800,9.7596748046875,-0.001148223876953125,-0.010358840227127075,0.004831865429878235
1783153056198385700,9.7693857421875,0.0035791397094726562,-0.0031752586364746094,-0.004581809043884277
1783153056208096300,9.77909619140625,-0.0035467147827148438,0.008649885654449463,0.00477193295955658
1783153056217806800,9.788806884765625,0.0035686492919921875,-0.007971107959747314,0.01856258511543274
1783153056227517400,9.798517333984375,-0.003551483154296875,-0.017305314540863037,-0.009858176112174988
1783153056237228000,9.80822802734375,0.0012359619140625,-0.0026570558547973633,-0.009156018495559692
1783153056246939000,9.81793896484375,-0.001125335693359375,0.014158278703689575,0.012380331754684448
1783153056256649500,9.8276494140625,-0.0010986328125,0.004673510789871216,-0.011274546384811401
1783153056266360000,9.837360107421874,-0.010497093200683594,-0.0024074316024780273,-0.001696944236755371
1783153056276070700,9.847070556640626,0.006161689758300781,0.006995111703872681,-0.008530408143997192
1783153056285781500,9.856781494140625,0.010758399963378906,-0.014476239681243896,-0.0014683008193969727
1783153056295492000,9.8664921875,-0.0035486221313476562,-0.002576768398284912,0.010358721017837524
1783153056305202700,9.87620263671875,-0.008207321166992188,0.004303455352783203,-0.02291373908519745
1783153056314913300,9.885913330078125,-0.0010128021240234375,-0.0005255341529846191,-0.010908395051956177
1783153056324624000,9.895623779296875,0.00606536865234375,0.0017843842506408691,0.0010726600885391235
1783153056334334700,9.905334716796874,-0.010515213012695312,-0.007713735103607178,-0.01769515872001648
1783153056344045300,9.91504541015625,-0.0009288787841796875,0.015955209732055664,0.010600030422210693
1783153056353756000,9.924755859375,0.0037994384765625,-0.0030819177627563477,0.012918174266815186
1783153056363466500,9.934466552734374,-0.0009756088256835938,-0.005494743585586548,0.003257378935813904
1783153056373177000,9.944177001953125,-0.005671501159667969,-0.012581348419189453,0.007889285683631897
1783153056382888000,9.953887939453125,0.0014896392822265625,0.011234074831008911,0.010194018483161926
1783153056392598500,9.9635986328125,-0.005600929260253906,-0.015020489692687988,-0.0017137080430984497
1783153056402309000,9.97330908203125,-0.003143310546875,0.008945375680923462,-0.0038384944200515747
1783153056412019700,9.983019775390625,-0.024255752563476562,0.047088637948036194,-0.017693951725959778
1783153056421730600,9.99273046875,-0.0097198486328125,0.06307065486907959,0.010824248194694519
1783153056431441200,10.002441162109376,0.03987884521484375,-0.15479612350463867,0.02256356179714203
1783153056441151700,10.01215185546875,0.0133209228515625,-0.01785343885421753,0.008035227656364441
1783153056450862300,10.0218623046875,-0.04575634002685547,0.1474684327840805,-0.004181668162345886
1783153056460573000,10.031572998046874,0.027985572814941406,-0.12353619933128357,0.021928057074546814
1783153056470283800,10.04128369140625,0.025175094604492188,-0.08851456642150879,0.012515947222709656
1783153056479994400,10.050994384765625,-0.022325515747070312,0.10371296107769012,-0.022979021072387695
1783153056489705000,10.060705078125,0.02042675018310547,-0.02519381046295166,-0.0011537224054336548
1783153056499415600,10.07041552734375,0.020082473754882812,-0.08615279197692871,0.013022243976593018
1783153056509126400,10.08012646484375,-0.029679298400878906,0.08524510264396667,-0.032010242342948914
1783153056518837000,10.0898369140625,0.008478164672851562,-0.005632579326629639,-0.001013234257698059
1783153056528547600,10.099547607421876,0.022466659545898438,-0.0737508237361908,0.043820276856422424
1783153056538258200,10.109258056640625,-0.02028179168701172,0.05943131446838379,-0.01579374074935913
1783153056547968800,10.11896875,-0.005820274353027344,0.006591290235519409,-0.015554308891296387
1783153056557679600,10.1286796875,0.013111114501953125,-0.040655553340911865,0.010743319988250732
1783153056567390200,10.13839013671875,-0.010652542114257812,0.039953380823135376,0.012948349118232727
1783153056577100800,10.148100830078125,-0.0010547637939453125,0.003977090120315552,0.01752781867980957
1783153056586811400,10.157811279296874,0.010728836059570312,-0.019741147756576538,0.003081768751144409
1783153056596522000,10.16752197265625,-0.00592803955078125,0.008903324604034424,0.0006425231695175171
1783153056606232800,10.17723291015625,0.01300048828125,-0.019662410020828247,0.02425903081893921
1783153056615943400,10.186943359375,0.008072853088378906,0.013625234365463257,-0.00924345850944519
1783153056625654000,10.196654052734376,-0.015604972839355469,0.06513473391532898,-0.006703659892082214
1783153056635364600,10.206364501953125,-0.008286476135253906,-0.00445207953453064,0.009979262948036194
1783153056645075500,10.216075439453125,0.0130462646484375,-0.04892715811729431,-0.001822352409362793
1783153056654786000,10.2257861328125,0.0010623931884765625,0.03664195537567139,0.012477070093154907
1783153056664496600,10.23549658203125,-0.0013027191162109375,-0.010937541723251343,-0.0040647536516189575
1783153056674207200,10.245207275390625,-0.0012760162353515625,-0.022290140390396118,0.005329146981239319
1783153056683918000,10.25491796875,-0.008317947387695312,0.013396888971328735,-0.0042035579681396484
1783153056693628700,10.264628662109375,-0.0034704208374023438,-0.01742422580718994,0.012370854616165161
1783153056703339300,10.27433935546875,0.013074874877929688,0.011294245719909668,0.0075952112674713135
1783153056713049900,10.2840498046875,-0.003620147705078125,0.015816986560821533,0.0004929006099700928
1783153056722760400,10.293760498046876,0.005858421325683594,-0.012751400470733643,-0.006491035223007202
1783153056732471300,10.30347119140625,0.0034074783325195312,0.01335570216178894,-0.008645236492156982
1783153056742182000,10.313181884765624,0.0010023117065429688,0.013194054365158081,-0.01071310043334961
1783153056751892500,10.322892578125,0.008052825927734375,-0.0033302903175354004,0.001207694411277771
1783153056761603000,10.33260302734375,0.0032091140747070312,0.010848820209503174,0.008228003978729248
1783153056771314000,10.34231396484375,-0.008622169494628906,0.001027226448059082,-0.0013546496629714966
1783153056781024500,10.3520244140625,-0.0037698745727539062,0.012844830751419067,0.0009901225566864014
1783153056790735000,10.361735107421875,-0.0037107467651367188,0.0055096447467803955,-0.0061681270599365234
1783153056800445700,10.37144580078125,0.0010652542114257812,0.0007703602313995361,-0.01298569142818451
1783153056810156500,10.381156494140624,-0.0013113021850585938,0.01717972755432129,0.005926549434661865
1783153056819867100,10.3908671875,0.0034036636352539062,-0.01623094081878662,-0.006315469741821289
1783153056829577700,10.40057763671875,0.005696296691894531,-0.002003610134124756,0.0008253008127212524
1783153056839288300,10.410288330078124,-0.0108795166015625,0.016977131366729736,-0.01109720766544342
1783153056848999000,10.4199990234375,-0.0036373138427734375,-0.00907987356185913,-0.006465435028076172
1783153056858709800,10.429709716796875,-0.0012254714965820312,0.02162298560142517,0.0053276121616363525
1783153056868420400,10.43942041015625,-0.0011882781982421875,0.012305676937103271,-0.027577698230743408
1783153056878131000,10.449130859375,0.0035276412963867188,-0.009255528450012207,0.022065043449401855
1783153056887841500,10.458841552734375,-0.005951881408691406,-0.004448652267456055,-0.009046688675880432
1783153056897552400,10.468552490234375,0.008281707763671875,-0.004255205392837524,-0.008641332387924194
1783153056907263000,10.478262939453124,0.0034313201904296875,0.009832292795181274,0.0032433271408081055
1783153056916973600,10.4879736328125,0.0033807754516601562,0.005075216293334961,0.017459973692893982
1783153056926684200,10.49768408203125,0.012735366821289062,-0.01631411910057068,0.019445642828941345
1783153056936394800,10.507394775390624,0.0007495880126953125,0.009745359420776367,0.004965990781784058
1783153056946105600,10.517105712890626,-0.006325721740722656,0.016705065965652466,-0.014034435153007507
1783153056955816200,10.526816162109375,0.007907867431640625,-0.00711137056350708,0.002821117639541626
1783153056965526800,10.53652685546875,0.007782936096191406,-0.002280503511428833,0.01244710385799408
1783153056975237400,10.5462373046875,0.0029535293579101562,0.0072325170040130615,-0.01098582148551941
1783153056984948200,10.5559482421875,-0.001800537109375,0.004879891872406006,0.0009346306324005127
1783153056994658800,10.565658935546875,-0.004119873046875,-0.004503071308135986,0.0010075867176055908
1783153057004369400,10.575369384765626,0.010077476501464844,-0.0020156502723693848,-0.024816840887069702
1783153057014080000,10.585080078125,0.00519561767578125,0.00020515918731689453,0.008469834923744202
1783153057023790600,10.59479052734375,-0.004309654235839844,0.0002084672451019287,-0.01765647530555725
1783153057033501400,10.60450146484375,0.00046443939208984375,0.004915982484817505,-0.01055462658405304
1783153057043212000,10.6142119140625,-0.01366424560546875,-0.006930232048034668,0.006296619772911072
1783153057052922600,10.623922607421875,0.0030374526977539062,-0.004630297422409058,0.003812044858932495
1783153057062633200,10.63363330078125,0.00533294677734375,0.014116227626800537,-0.003460034728050232
1783153057072343800,10.64334375,0.005246162414550781,-0.009657055139541626,0.001391291618347168
1783153057082054700,10.6530546875,0.005161285400390625,0.009395688772201538,0.013170644640922546
1783153057091765200,10.66276513671875,-0.004347801208496094,0.0019497275352478027,0.015336871147155762
1783153057101475800,10.672475830078126,0.0051403045654296875,0.0019184350967407227,0.0032278597354888916
1783153057111186400,10.6821865234375,0.00034427642822265625,0.0020002126693725586,-0.01820850372314453
1783153057120897300,10.691897216796875,-0.0043621063232421875,-0.011981993913650513,0.005720585584640503
1783153057130607900,10.70160791015625,0.0027742385864257812,-0.002305924892425537,0.003243967890739441
1783153057140318500,10.711318359375,0.012149810791015625,-0.004505127668380737,-0.0037858039140701294
1783153057150029000,10.721029052734375,0.004886627197265625,0.014347732067108154,0.005782634019851685
1783153057159739600,10.73073974609375,0.002452850341796875,0.000040203332901000977,-0.00134316086769104
1783153057169450500,10.740450439453125,-0.009359359741210938,0.00928795337677002,0.0011773109436035156
1783153057179161000,10.7501611328125,0.009633064270019531,0.0021898746490478516,0.010601133108139038
1783153057188871700,10.75987158203125,-0.007002830505371094,-0.00014123320579528809,0.0034487545490264893
1783153057198582300,10.769582275390626,-0.013947486877441406,-0.016614317893981934,-0.01064862310886383
1783153057208293000,10.779293212890625,0.00746917724609375,0.0047973692417144775,-0.0034942626953125
1783153057218003700,10.789003662109375,0.00969696044921875,-0.004641175270080566,-0.012992247939109802
1783153057227714300,10.79871435546875,0.00013065338134765625,0.0003751218318939209,0.006258755922317505
1783153057237425000,10.8084248046875,0.0071926116943359375,0.00737425684928894,0.0015932023525238037
1783153057247135500,10.818135498046875,-0.007048606872558594,-0.0068156421184539795,0.013426199555397034
1783153057256846300,10.827846435546874,-0.009282112121582031,0.0028326809406280518,-0.003305673599243164
1783153057266557000,10.837556884765625,-0.009121894836425781,0.0006048381328582764,0.0014877170324325562
1783153057276267500,10.847267578125,0.0051555633544921875,-0.0016429126262664795,0.008441448211669922
1783153057285978000,10.85697802734375,0.00035858154296875,0.010213673114776611,-0.006020843982696533
1783153057295689000,10.86668896484375,-0.009052276611328125,-0.001498401165008545,-0.010426357388496399
1783153057305399600,10.876399658203125,0.005225181579589844,-0.02277258038520813,-0.005343332886695862
1783153057315110100,10.886110107421874,0.007489204406738281,-0.0037848055362701416,0.004306420683860779
1783153057324820700,10.89582080078125,0.0026569366455078125,0.0009364187717437744,0.01373341679573059
1783153057334531600,10.905531494140625,-0.0020933151245117188,0.01499435305595398,0.004228353500366211
1783153057344242200,10.9152421875,-0.004412651062011719,-0.011032432317733765,-0.0029920637607574463
1783153057353952800,10.924952880859376,0.0074310302734375,-0.003779172897338867,-0.00768260657787323
1783153057363663400,10.934663330078125,0.0002422332763671875,0.005590647459030151,0.004244700074195862
1783153057373374200,10.944374267578125,-0.002101898193359375,0.00331956148147583,0.009250909090042114
1783153057383084800,10.954084716796874,-0.011487007141113281,0.008032232522964478,0.016018256545066833
1783153057392795400,10.96379541015625,0.000484466552734375,0.010428905487060547,-0.01000426709651947
1783153057402506000,10.973506103515625,-0.0018749237060546875,0.0008978545665740967,0.009025946259498596
1783153057412216600,10.983216552734374,-0.006548881530761719,0.005656450986862183,-0.0004609525203704834
1783153057421927400,10.992927490234376,0.0006237030029296875,0.005621761083602905,0.006582245230674744
1783153057431638000,11.002637939453125,0.0053195953369140625,-0.0038875341415405273,-0.0030266642570495605
1783153057441348600,11.0123486328125,0.0052394866943359375,0.005712002515792847,0.013702392578125
1783153057451059200,11.02205908203125,-0.004260063171386719,0.0032081305980682373,-0.005101710557937622
1783153057460770000,11.03177001953125,0.012298583984375,0.005569875240325928,-0.00234927237033844
1783153057470480600,11.041480712890625,0.00032806396484375,-0.0014106333255767822,-0.00469304621219635
1783153057480191200,11.051191162109374,0.0026702880859375,-0.013156890869140625,-0.009576588869094849
1783153057489901800,11.06090185546875,0.0002727508544921875,0.008192956447601318,0.0024441778659820557
1783153057499612400,11.0706123046875,0.0002689361572265625,-0.013187170028686523,-0.006924793124198914
1783153057509323300,11.0803232421875,-0.006805419921875,0.000815659761428833,-0.009073391556739807
1783153057519033900,11.090033935546876,-0.0019893646240234375,-0.0087260901927948,0.021598324179649353
1783153057528744400,11.099744384765625,0.0027418136596679688,0.0007247328758239746,0.009212329983711243
1783153057538455000,11.109455078125,0.00034618377685546875,-0.003991752862930298,-0.01198674738407135
1783153057548165600,11.11916552734375,0.0027027130126953125,0.0033693015575408936,0.004777684807777405
1783153057557876500,11.12887646484375,0.0003032684326171875,0.007967144250869751,0.01885315775871277
1783153057567587000,11.138587158203125,-0.006768226623535156,0.007782727479934692,0.001972198486328125
1783153057577297700,11.148297607421876,0.009817123413085938,0.0074748694896698,0.0065751224756240845
1783153057587008300,11.15800830078125,-0.0021181106567382812,-0.020897477865219116,0.008735671639442444
1783153057596719000,11.167718994140625,0.009677886962890625,0.005177229642868042,-0.0033773183822631836
1783153057606429700,11.1774296875,-0.0022411346435546875,0.012498021125793457,-0.000879928469657898
1783153057616140300,11.187140380859375,0.0025043487548828125,0.0052909255027771,-0.0008972436189651489
1783153057625851000,11.196850830078125,0.004817008972167969,-0.0018016695976257324,0.006097882986068726
1783153057635561500,11.2065615234375,0.00238037109375,0.014827102422714233,0.0034407228231430054
1783153057645272300,11.216272216796876,-0.004718780517578125,0.007750719785690308,-0.015594542026519775
1783153057654983000,11.22598291015625,-0.0022907257080078125,0.02634650468826294,-0.01306779682636261
1783153057664693500,11.235693603515625,-0.0069561004638671875,0.004720836877822876,0.020311295986175537
1783153057674404000,11.245404052734376,0.007283210754394531,-0.002420663833618164,-0.008358404040336609
1783153057684115000,11.255114990234375,0.0024423599243164062,-0.00961264967918396,0.01271529495716095
1783153057693825500,11.264825439453125,-0.009366989135742188,0.004679501056671143,-0.02272757887840271
1783153057703536000,11.2745361328125,0.002552032470703125,-0.009749084711074829,0.005874499678611755
1783153057713246700,11.284246826171875,-0.00455474853515625,0.013959318399429321,-0.0013716965913772583
1783153057722957600,11.29395751953125,-0.0068340301513671875,0.011373668909072876,0.01275092363357544
1783153057732668200,11.303668212890624,-0.0067234039306640625,-0.003058016300201416,0.0054552555084228516
1783153057742378800,11.313378662109375,0.012219429016113281,0.02283748984336853,0.0029798150062561035
1783153057752089300,11.32308935546875,0.009665489196777344,0.013042658567428589,0.0007198452949523926
1783153057761800200,11.33280029296875,0.0024595260620117188,-0.024384737014770508,0.012681365013122559
1783153057771510800,11.3425107421875,-0.004647254943847656,-0.014677107334136963,0.0006768256425857544
1783153057781221400,11.352221435546875,-0.0022134780883789062,0.011466264724731445,-0.003955930471420288
1783153057790932000,11.361931884765625,0.016656875610351562,0.0017497539520263672,-0.0013951659202575684
1783153057800642600,11.371642578125,-0.007159233093261719,0.0063745975494384766,-0.010587796568870544
1783153057810353400,11.381353515625,0.004734992980957031,-0.003031909465789795,-0.008027255535125732
1783153057820064000,11.39106396484375,0.0022993087768554688,0.0087338387966156,-0.005564704537391663
1783153057829774600,11.400774658203124,0.0022706985473632812,-0.007777363061904907,0.006560176610946655
1783153057839485200,11.410485107421875,-0.00012969970703125,-0.0031675398349761963,-0.0171719491481781
1783153057849196000,11.420196044921875,0.00458526611328125,0.013427019119262695,0.006739884614944458
1783153057858906600,11.42990673828125,0.01627349853515625,-0.00809594988822937,0.008840680122375488
1783153057868617200,11.4396171875,0.0018596649169921875,-0.005891978740692139,-0.017568618059158325
1783153057878327800,11.449327880859375,-0.0005235671997070312,0.020104944705963135,-0.0054178982973098755
1783153057888038400,11.459038330078124,0.0018405914306640625,-0.0014153122901916504,0.0018219202756881714
1783153057897749200,11.468749267578126,-0.0028972625732421875,-0.013215750455856323,0.006585255265235901
1783153057907459800,11.4784599609375,-0.012269973754882812,0.0057266950607299805,-0.007619768381118774
1783153057917170400,11.48817041015625,0.006773948669433594,0.010339438915252686,-0.00022602081298828125
1783153057926881000,11.497881103515626,-0.005114555358886719,0.002880573272705078,-0.0071995556354522705
1783153057936592000,11.507591796875,-0.00030803680419921875,-0.0015285015106201172,0.002477884292602539
1783153057946302500,11.517302490234375,-0.005017280578613281,0.0009121298789978027,-0.00023126602172851562
1783153057956013000,11.527012939453124,-0.009650230407714844,-0.0016242265701293945,-0.00042706727981567383
1783153057965723600,11.5367236328125,-0.0047855377197265625,0.0030582547187805176,0.001848563551902771
1783153057975434200,11.546434326171875,0.0023622512817382812,-0.00623735785484314,0.004203513264656067
1783153057985145000,11.55614501953125,0.007035255432128906,-0.001419663429260254,-0.00043429434299468994
1783153057994855700,11.565855712890626,-0.007213592529296875,0.0009635388851165771,0.004023060202598572
1783153058004566300,11.575566162109375,-0.0023870468139648438,-0.01082506775856018,-0.005539983510971069
1783153058014276900,11.58527685546875,-0.0023393630981445312,0.01071387529373169,-0.01242007315158844
