time,seconds_elapsed,z,y,x
1783153046575141400,0.146141357421875,0.0006108472589403391,0.006719320081174374,-0.004886778071522713
1783153046584852000,0.15585205078125,0.0018325417768210173,0.0036650835536420345,-0.004275931045413017
1783153046594562600,0.1655625,0.006108472589403391,0.006108472589403391,-0.00916270911693573
1783153046604273200,0.175273193359375,0.004275931045413017,0.0024433890357613564,-0.006719320081174374
1783153046613983700,0.184983642578125,0.004886778071522713,0.004275931045413017,-0.006719320081174374
1783153046623694300,0.1946943359375,0.004275931045413017,0.0024433890357613564,-0.004275931045413017
1783153046633405200,0.2044052734375,0.006108472589403391,0.0012216945178806782,-0.009773556143045425
1783153046643115800,0.21411572265625,0.0024433890357613564,0.0030542362947016954,-0.005497625097632408
1783153046652826400,0.223826416015625,0.0036650835536420345,0.005497625097632408,-0.007330167107284069
1783153046662537000,0.233536865234375,0.004275931045413017,0.0018325417768210173,-0.007941014133393764
1783153046672247600,0.24324755859375,0.006108472589403391,0.004275931045413017,-0.008551862090826035
1783153046681958100,0.252958251953125,0.0030542362947016954,0.0030542362947016954,-0.006719320081174374
1783153046691668700,0.262668701171875,0.0036650835536420345,0.004886778071522713,-0.004886778071522713
1783153046701379300,0.27237939453125,0.005497625097632408,0.0012216945178806782,-0.008551862090826035
1783153046720800800,0.29180078125,0.006719320081174374,0.0018325417768210173,-0.006719320081174374
1783153046730511400,0.301511474609375,0.0036650835536420345,0.0036650835536420345,-0.006108472589403391
1783153046740222000,0.311221923828125,0.006108472589403391,0.0024433890357613564,-0.007330167107284069
1783153046749932500,0.3209326171875,0.004275931045413017,0.0030542362947016954,-0.005497625097632408
1783153046759643100,0.33064306640625,0.0036650835536420345,0.0012216945178806782,-0.007330167107284069
1783153046769354000,0.34035400390625,0.004275931045413017,0.0024433890357613564,-0.004886778071522713
1783153046779064600,0.350064697265625,0.005497625097632408,0.0024433890357613564,-0.005497625097632408
1783153046788775200,0.359775146484375,0.0036650835536420345,0.0012216945178806782,-0.005497625097632408
1783153046798485800,0.36948583984375,0.0036650835536420345,0.0030542362947016954,-0.005497625097632408
1783153046808196400,0.3791962890625,0.0036650835536420345,0.0018325417768210173,-0.006719320081174374
1783153046817907000,0.388906982421875,0.0036650835536420345,0.0024433890357613564,-0.006108472589403391
1783153046827617500,0.398617431640625,0.006108472589403391,0,-0.006719320081174374
1783153046837328100,0.408328125,0.004886778071522713,0.0006108472589403391,-0.006108472589403391
1783153046847039000,0.4180390625,0.004275931045413017,0.0006108472589403391,-0.007941014133393764
1783153046856749600,0.42774951171875,0.004886778071522713,0.0012216945178806782,-0.006719320081174374
1783153046866460200,0.437460205078125,0.0030542362947016954,0.0012216945178806782,-0.004275931045413017
1783153046876170800,0.447170654296875,0.0018325417768210173,0.0024433890357613564,-0.005497625097632408
1783153046885881300,0.45688134765625,0.0036650835536420345,0.0012216945178806782,-0.007330167107284069
1783153046895592000,0.466592041015625,0.007330167107284069,0.0006108472589403391,-0.005497625097632408
1783153046905302800,0.476302734375,0.004886778071522713,0.0030542362947016954,-0.008551862090826035
1783153046915013400,0.486013427734375,0.004886778071522713,0.0012216945178806782,-0.0036650835536420345
1783153046924724000,0.495723876953125,0.0036650835536420345,0.0006108472589403391,-0.007330167107284069
1783153046934434600,0.5054345703125,0.0024433890357613564,0.0024433890357613564,-0.005497625097632408
1783153046944145200,0.515145263671875,0.004886778071522713,0.004275931045413017,-0.004886778071522713
1783153046953855700,0.524855712890625,0.004886778071522713,0.0006108472589403391,-0.005497625097632408
1783153046963566300,0.53456640625,0.004275931045413017,0.0024433890357613564,-0.006108472589403391
1783153046973277200,0.544277099609375,0.0030542362947016954,0.0036650835536420345,-0.004275931045413017
1783153046982987800,0.55398779296875,0.0030542362947016954,0.0012216945178806782,-0.006108472589403391
1783153046992698400,0.563698486328125,0.0036650835536420345,0.006108472589403391,-0.004886778071522713
1783153047002409000,0.573408935546875,0.004275931045413017,0.004275931045413017,-0.007330167107284069
1783153047012119600,0.58311962890625,0.006719320081174374,0.0024433890357613564,-0.004275931045413017
1783153047021830100,0.592830078125,0.0024433890357613564,0.0012216945178806782,-0.006108472589403391
1783153047031540700,0.602540771484375,0.004886778071522713,0.0030542362947016954,-0.004886778071522713
1783153047041251600,0.61225146484375,0.006719320081174374,0.0036650835536420345,-0.006108472589403391
1783153047050962200,0.621962158203125,0.004886778071522713,0.0030542362947016954,-0.006108472589403391
1783153047060672800,0.6316728515625,0.004886778071522713,0.0030542362947016954,-0.007330167107284069
1783153047070383400,0.64138330078125,0.004275931045413017,0.0018325417768210173,-0.009773556143045425
1783153047080094000,0.651093994140625,0.005497625097632408,0.0012216945178806782,-0.0030542362947016954
1783153047089804500,0.660804443359375,0.0030542362947016954,0.0030542362947016954,-0.007330167107284069
1783153047099515400,0.670515380859375,0.004886778071522713,0.0030542362947016954,-0.007330167107284069
1783153047109226000,0.68022607421875,0.006108472589403391,0.004275931045413017,-0.006719320081174374
1783153047118936600,0.6899365234375,0.0036650835536420345,0.0006108472589403391,-0.006108472589403391
1783153047128647200,0.699647216796875,0.0030542362947016954,0.0036650835536420345,-0.004886778071522713
1783153047138357800,0.709357666015625,0.004275931045413017,0.0018325417768210173,-0.006108472589403391
1783153047148068400,0.719068359375,0.006719320081174374,0.0030542362947016954,-0.006719320081174374
1783153047157779200,0.728779296875,0.004275931045413017,0.0024433890357613564,-0.004886778071522713
1783153047167489800,0.73848974609375,0.0030542362947016954,0.0018325417768210173,-0.005497625097632408
1783153047177200400,0.748200439453125,0.0030542362947016954,0.0030542362947016954,-0.006719320081174374
1783153047186911000,0.757910888671875,0.0030542362947016954,0,-0.007330167107284069
1783153047196621600,0.76762158203125,0.004275931045413017,0.0024433890357613564,-0.005497625097632408
1783153047206332200,0.777332275390625,0.0036650835536420345,0.0018325417768210173,-0.005497625097632408
1783153047216043000,0.78704296875,0.0030542362947016954,0.0018325417768210173,-0.007330167107284069
1783153047225753600,0.796753662109375,0.0036650835536420345,0.0006108472589403391,-0.005497625097632408
1783153047235464200,0.806464111328125,0.006108472589403391,-0.0018325417768210173,-0.005497625097632408
1783153047245174800,0.8161748046875,0.0036650835536420345,0.0030542362947016954,-0.006719320081174374
1783153047254885400,0.825885498046875,0.004886778071522713,0.0012216945178806782,-0.006719320081174374
1783153047264596000,0.835595947265625,0.004275931045413017,0,-0.0030542362947016954
1783153047274306800,0.845306884765625,0.0030542362947016954,0.0006108472589403391,-0.006108472589403391
1783153047284017400,0.855017333984375,0.005497625097632408,0.0024433890357613564,-0.004275931045413017
1783153047293728000,0.86472802734375,0.004886778071522713,0.0030542362947016954,-0.004275931045413017
1783153047303438600,0.8744384765625,0.0036650835536420345,0.006108472589403391,-0.008551862090826035
1783153047313149200,0.884149169921875,0.0030542362947016954,0.0024433890357613564,-0.004275931045413017
1783153047322859800,0.89385986328125,0.006108472589403391,0.0006108472589403391,-0.005497625097632408
1783153047332570400,0.9035703125,0.004886778071522713,0.0006108472589403391,-0.004275931045413017
1783153047342281200,0.91328125,0.004275931045413017,0.0024433890357613564,-0.004886778071522713
1783153047351991800,0.92299169921875,0.0030542362947016954,0.0018325417768210173,-0.005497625097632408
1783153047361702400,0.932702392578125,0.0036650835536420345,0.0018325417768210173,-0.005497625097632408
1783153047371413000,0.9424130859375,0.004275931045413017,0.0036650835536420345,-0.005497625097632408
1783153047381123600,0.95212353515625,0.004886778071522713,0.0024433890357613564,-0.007330167107284069
1783153047390834200,0.961834228515625,0.0030542362947016954,0.0012216945178806782,-0.006108472589403391
1783153047400545000,0.971544921875,0.004886778071522713,0.0024433890357613564,-0.007941014133393764
1783153047410255600,0.981255615234375,0.004886778071522713,0.0030542362947016954,-0.007330167107284069
1783153047419966200,0.99096630859375,0.0030542362947016954,0.004886778071522713,-0.006108472589403391
1783153047429676800,1.0006767578125,0.004886778071522713,0.0036650835536420345,-0.007330167107284069
1783153047439387400,1.010387451171875,0.004886778071522713,0,-0.007330167107284069
1783153047449098000,1.020097900390625,0.0030542362947016954,0.0012216945178806782,-0.006719320081174374
1783153047458808800,1.029808837890625,0.004886778071522713,0.004275931045413017,-0.007330167107284069
1783153047468519400,1.03951953125,0.006719320081174374,0.0030542362947016954,-0.005497625097632408
1783153047478230000,1.04922998046875,0.005497625097632408,0.0012216945178806782,-0.005497625097632408
1783153047487940600,1.058940673828125,0.006108472589403391,0.0030542362947016954,-0.006719320081174374
1783153047497651200,1.068651123046875,0.0030542362947016954,0.0024433890357613564,-0.006108472589403391
1783153047507361800,1.07836181640625,0.004275931045413017,0.0006108472589403391,-0.004275931045413017
1783153047517072600,1.08807275390625,0.005497625097632408,0.0006108472589403391,-0.004886778071522713
1783153047526783200,1.097783203125,0.005497625097632408,0.0036650835536420345,-0.0030542362947016954
1783153047536493800,1.107493896484375,0.004886778071522713,0.0006108472589403391,-0.005497625097632408
1783153047546204400,1.117204345703125,0.004275931045413017,0.004886778071522713,-0.005497625097632408
1783153047555915000,1.1269150390625,0.004275931045413017,0,-0.006719320081174374
1783153047565625600,1.13662548828125,0.005497625097632408,0.0036650835536420345,-0.004886778071522713
1783153047575336400,1.14633642578125,0.004275931045413017,0.0036650835536420345,-0.008551862090826035
1783153047585047000,1.156047119140625,0.006719320081174374,0.0018325417768210173,-0.0036650835536420345
1783153047594757600,1.165757568359375,0.005497625097632408,0.0030542362947016954,-0.006108472589403391
1783153047604468200,1.17546826171875,0.004275931045413017,0.0024433890357613564,-0.007330167107284069
1783153047614178800,1.1851787109375,0.005497625097632408,0.0018325417768210173,-0.005497625097632408
1783153047623889400,1.194889404296875,0.005497625097632408,0.0024433890357613564,-0.006108472589403391
1783153047633600300,1.204600341796875,0.0018325417768210173,0.0036650835536420345,-0.006108472589403391
1783153047643310800,1.214310791015625,0.006108472589403391,0.0030542362947016954,-0.006108472589403391
1783153047653021400,1.224021484375,0.004886778071522713,0.0024433890357613564,-0.006108472589403391
1783153047662732000,1.23373193359375,0.0024433890357613564,0.0006108472589403391,-0.004886778071522713
1783153047672442600,1.243442626953125,0.0036650835536420345,0.0012216945178806782,-0.00916270911693573
1783153047682153200,1.2531533203125,0.004886778071522713,0.0030542362947016954,-0.006719320081174374
1783153047691863800,1.26286376953125,0.004886778071522713,0.0006108472589403391,-0.005497625097632408
1783153047701574700,1.27257470703125,0.004886778071522713,0.0030542362947016954,-0.008551862090826035
1783153047711285200,1.28228515625,0.004886778071522713,0.0018325417768210173,-0.007330167107284069
1783153047720995800,1.291995849609375,0.004886778071522713,0.0036650835536420345,-0.006108472589403391
1783153047730706400,1.30170654296875,0.004275931045413017,0.0012216945178806782,-0.007941014133393764
1783153047740417000,1.3114169921875,0.0036650835536420345,0.0024433890357613564,-0.004886778071522713
1783153047750127600,1.321127685546875,0.005497625097632408,0.0030542362947016954,-0.005497625097632408
1783153047759838500,1.33083837890625,0.004886778071522713,0.0018325417768210173,-0.006108472589403391
1783153047769549000,1.340549072265625,0.007330167107284069,0.0006108472589403391,-0.006719320081174374
1783153047779259600,1.350259765625,0.005497625097632408,0.0018325417768210173,-0.008551862090826035
1783153047788970200,1.35997021484375,0.004275931045413017,0.0012216945178806782,-0.006719320081174374
1783153047798680800,1.369680908203125,0.006108472589403391,0.004275931045413017,-0.007941014133393764
1783153047808391400,1.379391357421875,0.006108472589403391,0.0036650835536420345,-0.004886778071522713
1783153047818102300,1.389102294921875,0.006719320081174374,0.0006108472589403391,-0.006719320081174374
1783153047827812900,1.398812744140625,0.005497625097632408,0.0012216945178806782,-0.004275931045413017
1783153047837523500,1.4085234375,0.005497625097632408,0.0006108472589403391,-0.007941014133393764
1783153047847234000,1.418234130859375,0.005497625097632408,0.0018325417768210173,-0.005497625097632408
1783153047856944600,1.427944580078125,0.005497625097632408,0.0030542362947016954,-0.007330167107284069
1783153047866655200,1.4376552734375,0.005497625097632408,0.004275931045413017,-0.006719320081174374
1783153047876366000,1.447365966796875,0.0036650835536420345,0.0018325417768210173,-0.006108472589403391
1783153047886076700,1.45707666015625,0.004886778071522713,0.0024433890357613564,-0.006719320081174374
1783153047895787300,1.466787353515625,0.004886778071522713,0.0006108472589403391,-0.007330167107284069
1783153047905497900,1.476497802734375,0.004886778071522713,0.0030542362947016954,-0.007941014133393764
1783153047915208400,1.48620849609375,0.0018325417768210173,0.004886778071522713,-0.007330167107284069
1783153047924919000,1.4959189453125,0.004886778071522713,0,-0.007941014133393764
1783153047934630000,1.5056298828125,0.005497625097632408,0.0012216945178806782,-0.006108472589403391
1783153047944340500,1.515340576171875,0.004275931045413017,0,-0.0030542362947016954
1783153047954051000,1.525051025390625,0.004886778071522713,0.0036650835536420345,-0.005497625097632408
1783153047963761700,1.53476171875,0.005497625097632408,0.0030542362947016954,-0.006719320081174374
1783153047973472300,1.54447216796875,0.0036650835536420345,0.0012216945178806782,-0.004886778071522713
1783153047983183000,1.55418310546875,0.007330167107284069,0.0030542362947016954,-0.007330167107284069
1783153047992893700,1.563893798828125,0.0030542362947016954,0.0024433890357613564,-0.004886778071522713
1783153048002604300,1.573604248046875,0.004275931045413017,0.0006108472589403391,-0.007941014133393764
1783153048012315000,1.58331494140625,0.004886778071522713,0.0030542362947016954,-0.0030542362947016954
1783153048022025500,1.593025390625,0.004886778071522713,0.0024433890357613564,-0.004275931045413017
1783153048031736000,1.602736083984375,0.004886778071522713,0.0018325417768210173,-0.007330167107284069
1783153048041447000,1.612447021484375,0.004886778071522713,-0.0012216945178806782,-0.004275931045413017
1783153048051157500,1.622157470703125,0.0036650835536420345,0.0012216945178806782,-0.005497625097632408
1783153048060868000,1.6318681640625,0.005497625097632408,0.0012216945178806782,-0.006719320081174374
1783153048070578700,1.64157861328125,0.004886778071522713,0.0006108472589403391,-0.0036650835536420345
1783153048080289300,1.651289306640625,0.005497625097632408,0.004275931045413017,-0.006719320081174374
1783153048090000000,1.660999755859375,0.0036650835536420345,0.004275931045413017,-0.009773556143045425
1783153048099710700,1.670710693359375,0.006108472589403391,0.0036650835536420345,-0.0036650835536420345
1783153048109421300,1.68042138671875,0.0036650835536420345,0.0018325417768210173,-0.007330167107284069
1783153048119132000,1.6901318359375,0.006108472589403391,0.0036650835536420345,-0.00916270911693573
1783153048128842500,1.699842529296875,0.004275931045413017,0.0018325417768210173,-0.004886778071522713
1783153048138553000,1.709552978515625,0.0036650835536420345,0.0036650835536420345,-0.004886778071522713
1783153048148263700,1.719263671875,0.006108472589403391,0.0024433890357613564,-0.005497625097632408
1783153048157974500,1.728974609375,0.004886778071522713,0.0018325417768210173,-0.006719320081174374
1783153048167685000,1.73868505859375,0.0036650835536420345,-0.0012216945178806782,-0.008551862090826035
1783153048177395700,1.748395751953125,0.005497625097632408,0.0030542362947016954,-0.00916270911693573
1783153048187106300,1.758106201171875,0.0030542362947016954,0.0024433890357613564,-0.007330167107284069
1783153048196817000,1.76781689453125,0.0036650835536420345,0,-0.0036650835536420345
1783153048206527500,1.777527587890625,0.004275931045413017,0.0036650835536420345,-0.006719320081174374
1783153048216238000,1.787238037109375,0.004886778071522713,0.0036650835536420345,-0.005497625097632408
1783153048225949000,1.796948974609375,0.005497625097632408,0.0018325417768210173,-0.005497625097632408
1783153048235659500,1.806659423828125,0.005497625097632408,0.0036650835536420345,-0.01038440316915512
1783153048245370000,1.8163701171875,0.0024433890357613564,-0.0012216945178806782,-0.004275931045413017
1783153048255080700,1.826080810546875,0.0036650835536420345,-0.0006108472589403391,-0.0030542362947016954
1783153048264791300,1.835791259765625,0.0024433890357613564,0,-0.005497625097632408
1783153048274502000,1.845501953125,0.004275931045413017,0.0018325417768210173,-0.004886778071522713
1783153048284212700,1.855212646484375,0.006108472589403391,0.0018325417768210173,-0.006719320081174374
1783153048293923300,1.86492333984375,0.005497625097632408,0.0018325417768210173,-0.006719320081174374
1783153048303634000,1.874634033203125,0.004886778071522713,0.0030542362947016954,-0.00916270911693573
1783153048313344500,1.884344482421875,0.0036650835536420345,0.0036650835536420345,-0.006108472589403391
1783153048323055000,1.89405517578125,0.0036650835536420345,0.0018325417768210173,-0.0036650835536420345
1783153048332765700,1.903765625,0.004275931045413017,0.0036650835536420345,-0.005497625097632408
1783153048342476500,1.9134765625,0.004275931045413017,0.0024433890357613564,-0.006719320081174374
1783153048352187100,1.923187255859375,0.006108472589403391,-0.0006108472589403391,-0.004886778071522713
1783153048361897700,1.932897705078125,0.0036650835536420345,0.0012216945178806782,-0.006719320081174374
1783153048371608300,1.9426083984375,0.0030542362947016954,0.0012216945178806782,-0.004275931045413017
1783153048381319000,1.95231884765625,0.005497625097632408,0.0024433890357613564,-0.004275931045413017
1783153048391029800,1.96202978515625,0.0036650835536420345,0.0024433890357613564,-0.005497625097632408
1783153048400740400,1.971740234375,0.005497625097632408,0.004886778071522713,-0.008551862090826035
1783153048410451000,1.981450927734375,0.005497625097632408,0.0024433890357613564,-0.005497625097632408
1783153048420161500,1.99116162109375,0.0030542362947016954,0.0018325417768210173,-0.006719320081174374
1783153048429872000,2.0008720703125,0.004275931045413017,-0.0006108472589403391,-0.006108472589403391
1783153048439582700,2.010582763671875,0.004886778071522713,0.0030542362947016954,-0.006719320081174374
1783153048449293600,2.02029345703125,0.004886778071522713,0.0030542362947016954,-0.006719320081174374
1783153048459004200,2.030004150390625,0.005497625097632408,0.0030542362947016954,-0.006108472589403391
1783153048468714800,2.03971484375,0.005497625097632408,0.0012216945178806782,-0.006108472589403391
1783153048478425300,2.04942529296875,0.005497625097632408,0.0024433890357613564,-0.008551862090826035
1783153048488136000,2.059135986328125,0.004886778071522713,0.0024433890357613564,-0.004275931045413017
1783153048497846500,2.068846435546875,0.004275931045413017,0.0018325417768210173,-0.007330167107284069
1783153048507557400,2.078557373046875,0.0030542362947016954,0.0030542362947016954,-0.007330167107284069
1783153048517268000,2.08826806640625,0.0030542362947016954,0.004275931045413017,-0.007941014133393764
1783153048526978600,2.097978515625,0.004275931045413017,0.0036650835536420345,-0.007330167107284069
1783153048536689200,2.107689208984375,0.004886778071522713,0.0024433890357613564,-0.006108472589403391
1783153048546399700,2.117399658203125,0.004886778071522713,0.0024433890357613564,-0.004886778071522713
1783153048556110300,2.1271103515625,0.004886778071522713,0.0018325417768210173,-0.004886778071522713
1783153048565821200,2.1368212890625,0.004886778071522713,0.0030542362947016954,-0.007330167107284069
1783153048575531800,2.14653173828125,0.004275931045413017,0.0012216945178806782,-0.004886778071522713
1783153048585242400,2.156242431640625,0.0024433890357613564,0.0030542362947016954,-0.005497625097632408
1783153048594953000,2.165952880859375,0.004886778071522713,0.0012216945178806782,-0.004275931045413017
1783153048604663600,2.17566357421875,0.0030542362947016954,0.0024433890357613564,-0.007330167107284069
1783153048614374100,2.1853740234375,0.004275931045413017,0.0024433890357613564,-0.004886778071522713
1783153048624085000,2.1950849609375,0.004275931045413017,0.0024433890357613564,-0.004275931045413017
1783153048633795600,2.204795654296875,0.004886778071522713,0.0030542362947016954,-0.004886778071522713
1783153048643506200,2.214506103515625,0.006108472589403391,0.0036650835536420345,-0.004275931045413017
1783153048653216800,2.224216796875,0.004275931045413017,0.0036650835536420345,-0.004886778071522713
1783153048662927400,2.23392724609375,0.005497625097632408,0.0030542362947016954,-0.006108472589403391
1783153048672638000,2.243637939453125,0.005497625097632408,0.0006108472589403391,-0.007330167107284069
1783153048682348500,2.2533486328125,0.006719320081174374,0.0012216945178806782,-0.006719320081174374
1783153048692059400,2.263059326171875,0.0024433890357613564,0.0036650835536420345,-0.007941014133393764
1783153048701770000,2.27277001953125,0.004275931045413017,0.0024433890357613564,-0.006108472589403391
1783153048711480600,2.28248046875,0.005497625097632408,0.0018325417768210173,-0.005497625097632408
1783153048721191200,2.292191162109375,0.004275931045413017,0.0018325417768210173,-0.007941014133393764
1783153048730901800,2.30190185546875,0.0036650835536420345,0.0030542362947016954,-0.005497625097632408
1783153048740612400,2.3116123046875,0.004886778071522713,0,-0.006719320081174374
1783153048750323200,2.3213232421875,0.004275931045413017,0.0030542362947016954,-0.005497625097632408
1783153048760033800,2.33103369140625,0.006719320081174374,0.0024433890357613564,-0.006108472589403391
1783153048769744400,2.340744384765625,0.005497625097632408,0.0036650835536420345,-0.0024433890357613564
1783153048779455000,2.350455078125,0.0030542362947016954,0.005497625097632408,-0.005497625097632408
1783153048789165600,2.36016552734375,0.0024433890357613564,0.0030542362947016954,-0.007330167107284069
1783153048798876200,2.369876220703125,0.006719320081174374,0.004275931045413017,-0.007330167107284069
1783153048808587000,2.3795869140625,0.0036650835536420345,0.0036650835536420345,-0.007330167107284069
1783153048818297600,2.389297607421875,0.0030542362947016954,-0.0030542362947016954,-0.0036650835536420345
1783153048828008200,2.39900830078125,0.005497625097632408,0.0018325417768210173,-0.006719320081174374
1783153048837718800,2.40871875,0.005497625097632408,0.0018325417768210173,-0.004275931045413017
1783153048847429400,2.418429443359375,0.004275931045413017,0.0024433890357613564,-0.004886778071522713
1783153048857140000,2.428139892578125,0.0030542362947016954,0.0012216945178806782,-0.005497625097632408
1783153048866850800,2.437850830078125,0.0036650835536420345,0.0024433890357613564,-0.006719320081174374
1783153048876561400,2.4475615234375,0.004886778071522713,0.004275931045413017,-0.006719320081174374
1783153048886272000,2.45727197265625,0.004275931045413017,0.006108472589403391,-0.006719320081174374
1783153048895982600,2.466982666015625,0.004886778071522713,0.0024433890357613564,-0.007330167107284069
1783153048905693200,2.476693115234375,0.006719320081174374,0.0030542362947016954,-0.006719320081174374
1783153048915404000,2.486404052734375,0.0018325417768210173,0.0036650835536420345,-0.007330167107284069
1783153048925114600,2.496114501953125,0.004886778071522713,0.0012216945178806782,-0.004275931045413017
1783153048934825200,2.5058251953125,0.004275931045413017,0.0006108472589403391,-0.005497625097632408
1783153048944535800,2.515535888671875,0.005497625097632408,0.0006108472589403391,-0.004886778071522713
1783153048954246400,2.525246337890625,0.0030542362947016954,0.0012216945178806782,-0.007330167107284069
1783153048963957000,2.53495703125,0.0024433890357613564,0.0012216945178806782,-0.005497625097632408
1783153048973667800,2.544667724609375,0.006719320081174374,0.004275931045413017,-0.004886778071522713
1783153048983378400,2.55437841796875,0.004275931045413017,0.0024433890357613564,-0.004886778071522713
1783153048993089000,2.564089111328125,0.0030542362947016954,0.0024433890357613564,-0.00916270911693573
1783153049002799600,2.573799560546875,0.0036650835536420345,0.0030542362947016954,-0.005497625097632408
1783153049012510200,2.58351025390625,0.0036650835536420345,0.004886778071522713,-0.006108472589403391
1783153049022220800,2.593220703125,0.004275931045413017,0.0006108472589403391,-0.006719320081174374
1783153049031931600,2.602931640625,0.0018325417768210173,0.0030542362947016954,-0.005497625097632408
1783153049051352800,2.622352783203125,0.005497625097632408,0.0018325417768210173,-0.005497625097632408
1783153049061063400,2.6320634765625,0.0036650835536420345,0.0024433890357613564,-0.006108472589403391
1783153049070774000,2.64177392578125,0.004275931045413017,0.0018325417768210173,-0.004886778071522713
1783153049080484600,2.651484619140625,0.005497625097632408,0.0030542362947016954,-0.006108472589403391
1783153049090195500,2.661195556640625,0.004886778071522713,0.0012216945178806782,-0.005497625097632408
1783153049099906000,2.670906005859375,0.0030542362947016954,0.0018325417768210173,-0.007330167107284069
1783153049109616600,2.68061669921875,0.0030542362947016954,0.004275931045413017,-0.007330167107284069
1783153049119327200,2.6903271484375,0.004275931045413017,0.005497625097632408,-0.004886778071522713
1783153049129037800,2.700037841796875,0.004275931045413017,0.0036650835536420345,-0.004886778071522713
1783153049138748400,2.70974853515625,0.004886778071522713,0.0006108472589403391,-0.005497625097632408
1783153049148459300,2.719459228515625,0.004275931045413017,0.0024433890357613564,-0.00916270911693573
1783153049158169900,2.729169921875,0.004886778071522713,0.0018325417768210173,-0.006108472589403391
1783153049167880400,2.73888037109375,0.0036650835536420345,0.0006108472589403391,-0.005497625097632408
1783153049177591000,2.748591064453125,0.004275931045413017,0.0030542362947016954,-0.007330167107284069
1783153049187301600,2.758301513671875,0.004886778071522713,0.0036650835536420345,-0.007941014133393764
1783153049197012200,2.76801220703125,0.004886778071522713,0.004886778071522713,-0.005497625097632408
1783153049206722800,2.777722900390625,0.005497625097632408,0.004275931045413017,-0.006719320081174374
1783153049216433700,2.78743359375,0.0036650835536420345,0.0018325417768210173,-0.007330167107284069
1783153049226144300,2.797144287109375,0.0024433890357613564,0.0006108472589403391,-0.0036650835536420345
1783153049235854800,2.806854736328125,0.0030542362947016954,0.0006108472589403391,-0.006719320081174374
1783153049245565400,2.8165654296875,0.004275931045413017,0.0006108472589403391,-0.007941014133393764
1783153049255276000,2.826276123046875,0.0030542362947016954,0.0018325417768210173,-0.007330167107284069
1783153049264986600,2.835986572265625,0.0036650835536420345,0.0018325417768210173,-0.005497625097632408
1783153049274697500,2.845697509765625,0.004886778071522713,0.0012216945178806782,-0.004886778071522713
1783153049284408000,2.855407958984375,0.004886778071522713,0.0012216945178806782,-0.007330167107284069
1783153049294118700,2.86511865234375,0.004275931045413017,0.0024433890357613564,-0.00916270911693573
1783153049303829200,2.874829345703125,0.006108472589403391,0.004275931045413017,-0.004886778071522713
1783153049313539800,2.884539794921875,0.004275931045413017,0.0012216945178806782,-0.006108472589403391
1783153049323250400,2.89425048828125,0.0030542362947016954,0.0018325417768210173,-0.007941014133393764
1783153049332961300,2.903961181640625,0.0036650835536420345,0.0024433890357613564,-0.005497625097632408
1783153049342672000,2.913671875,0.0030542362947016954,0.0012216945178806782,-0.005497625097632408
1783153049352382500,2.923382568359375,0.004886778071522713,0,-0.004886778071522713
1783153049362093000,2.933093017578125,0.0036650835536420345,0.0018325417768210173,-0.006719320081174374
1783153049371803600,2.9428037109375,0.0036650835536420345,0.0012216945178806782,-0.004886778071522713
1783153049381514500,2.952514404296875,0.007330167107284069,0.0012216945178806782,-0.007330167107284069
1783153049391225000,2.96222509765625,0.007330167107284069,0.0012216945178806782,-0.005497625097632408
1783153049400935700,2.971935791015625,0.004275931045413017,0.0036650835536420345,-0.007330167107284069
1783153049410646300,2.981646240234375,0.004886778071522713,0.0024433890357613564,-0.004275931045413017
1783153049420356900,2.99135693359375,0.004886778071522713,-0.0006108472589403391,-0.004886778071522713
1783153049430067500,3.0010673828125,0.004275931045413017,0.0018325417768210173,-0.006108472589403391
1783153049439778300,3.0107783203125,0.005497625097632408,0.0036650835536420345,-0.006719320081174374
1783153049449489000,3.020489013671875,0.004886778071522713,0,-0.005497625097632408
1783153049459199500,3.030199462890625,0.004886778071522713,0.0036650835536420345,-0.006108472589403391
1783153049468910000,3.03991015625,0.005497625097632408,0.0030542362947016954,-0.007330167107284069
1783153049478620700,3.04962060546875,0.0036650835536420345,0.004275931045413017,-0.006108472589403391
1783153049488331300,3.059331298828125,0.0036650835536420345,0.0024433890357613564,-0.007330167107284069
1783153049498042000,3.0690419921875,0.007330167107284069,0.004275931045413017,-0.006108472589403391
1783153049507752700,3.078752685546875,0.006108472589403391,0.0030542362947016954,-0.007941014133393764
1783153049517463300,3.08846337890625,0.004886778071522713,0.0012216945178806782,-0.005497625097632408
1783153049527174000,3.098173828125,0.005497625097632408,0.0012216945178806782,-0.0024433890357613564
1783153049536884500,3.107884521484375,0.0024433890357613564,-0.0012216945178806782,-0.005497625097632408
1783153049546595000,3.117594970703125,0.0036650835536420345,0.006719320081174374,-0.00916270911693573
1783153049556306000,3.127305908203125,0.006719320081174374,0.0024433890357613564,-0.006108472589403391
1783153049566016500,3.1370166015625,0.007330167107284069,0.0018325417768210173,-0.006108472589403391
1783153049575727000,3.14672705078125,0.0036650835536420345,0.0024433890357613564,-0.006719320081174374
1783153049585437700,3.156437744140625,0.004275931045413017,0.0012216945178806782,-0.005497625097632408
1783153049595148300,3.166148193359375,0.006108472589403391,0.0006108472589403391,-0.004275931045413017
1783153049604859000,3.17585888671875,0.004886778071522713,0.0018325417768210173,-0.006108472589403391
1783153049614569700,3.18556982421875,0.004275931045413017,0.0018325417768210173,-0.007941014133393764
1783153049624280300,3.1952802734375,0.004886778071522713,0.0018325417768210173,-0.006108472589403391
1783153049633991000,3.204990966796875,0.004275931045413017,0.0018325417768210173,-0.0036650835536420345
1783153049643701500,3.214701416015625,0.006108472589403391,-0.0012216945178806782,-0.004275931045413017
1783153049653412000,3.224412109375,0.004275931045413017,0.0024433890357613564,-0.007330167107284069
1783153049663122700,3.234122802734375,0.0036650835536420345,0,-0.006108472589403391
1783153049672833500,3.24383349609375,0.004275931045413017,0.0012216945178806782,-0.006108472589403391
1783153049682544000,3.253544189453125,0.004275931045413017,0.0024433890357613564,-0.007330167107284069
1783153049692254700,3.263254638671875,0.0024433890357613564,0.0024433890357613564,-0.004275931045413017
1783153049701965300,3.27296533203125,0.0036650835536420345,0.005497625097632408,-0.006108472589403391
1783153049711676000,3.282676025390625,0.0036650835536420345,0.0030542362947016954,-0.007941014133393764
1783153049721386500,3.292386474609375,0.006719320081174374,0.0030542362947016954,-0.007330167107284069
1783153049731097300,3.302097412109375,0.004275931045413017,0.0018325417768210173,-0.0024433890357613564
1783153049740808000,3.311807861328125,0.004275931045413017,0.004275931045413017,-0.008551862090826035
1783153049750518500,3.3215185546875,0.005497625097632408,0.0012216945178806782,-0.005497625097632408
1783153049760229000,3.33122900390625,0.005497625097632408,0.0024433890357613564,-0.004275931045413017
1783153049769939700,3.340939697265625,0.004886778071522713,0.0018325417768210173,-0.007330167107284069
1783153049779650600,3.350650634765625,0.004886778071522713,0.0018325417768210173,-0.005497625097632408
1783153049789361200,3.360361083984375,0.0036650835536420345,0.0024433890357613564,-0.004275931045413017
1783153049799071700,3.37007177734375,0.0030542362947016954,0.0036650835536420345,-0.008551862090826035
1783153049808782300,3.3797822265625,0.004886778071522713,0.0012216945178806782,-0.005497625097632408
1783153049818493000,3.389492919921875,0.0024433890357613564,0.0024433890357613564,-0.006108472589403391
1783153049828203500,3.39920361328125,0.0036650835536420345,0.0030542362947016954,-0.006719320081174374
1783153049837914400,3.408914306640625,0.004886778071522713,0.0018325417768210173,-0.004275931045413017
1783153049847625000,3.418625,0.004275931045413017,0.0036650835536420345,-0.007941014133393764
1783153049857335600,3.42833544921875,0.005497625097632408,-0.0018325417768210173,-0.004886778071522713
1783153049867046100,3.438046142578125,0.006108472589403391,0.0036650835536420345,-0.005497625097632408
1783153049876756700,3.4477568359375,0.004886778071522713,0.004886778071522713,-0.005497625097632408
1783153049886467300,3.45746728515625,0.006719320081174374,0.0036650835536420345,-0.00916270911693573
1783153049896178000,3.467177978515625,0.0018325417768210173,0.0018325417768210173,-0.006719320081174374
1783153049905888800,3.476888671875,0.004886778071522713,0.004275931045413017,-0.005497625097632408
1783153049915599400,3.486599365234375,0.0036650835536420345,0.0006108472589403391,-0.006108472589403391
1783153049925310000,3.49631005859375,0.006108472589403391,0.0018325417768210173,-0.006719320081174374
1783153049935020500,3.5060205078125,0.0030542362947016954,0,-0.004886778071522713
1783153049944731100,3.515731201171875,0.006108472589403391,0.0024433890357613564,-0.008551862090826035
1783153049954441700,3.525441650390625,0.004886778071522713,0.0036650835536420345,-0.007330167107284069
1783153049964152600,3.535152587890625,0.005497625097632408,0.0012216945178806782,-0.007330167107284069
1783153049973863200,3.54486328125,0.0036650835536420345,0.0030542362947016954,-0.004275931045413017
1783153049983573800,3.55457373046875,0.006719320081174374,0.004275931045413017,-0.004886778071522713
1783153049993284400,3.564284423828125,0.004275931045413017,0.0030542362947016954,-0.006719320081174374
1783153050002995000,3.573994873046875,0.004886778071522713,0.0012216945178806782,-0.007941014133393764
1783153050012705800,3.583705810546875,0.0036650835536420345,0.0006108472589403391,-0.004275931045413017
1783153050022416400,3.59341650390625,0.005497625097632408,0.0018325417768210173,-0.006719320081174374
1783153050032127000,3.603126953125,0.004886778071522713,0.004275931045413017,-0.007330167107284069
1783153050041837600,3.612837646484375,0.0036650835536420345,0.0018325417768210173,-0.006719320081174374
1783153050051548200,3.622548095703125,0.004886778071522713,0.004886778071522713,-0.006108472589403391
1783153050061258800,3.6322587890625,0.006719320081174374,0.0018325417768210173,-0.004275931045413017
1783153050070969600,3.641969482421875,0.005497625097632408,0.0036650835536420345,-0.005497625097632408
1783153050080680200,3.65168017578125,0.004886778071522713,0.0006108472589403391,-0.007941014133393764
1783153050090390800,3.661390869140625,0.004275931045413017,0.0018325417768210173,-0.004886778071522713
1783153050100101400,3.671101318359375,0.0036650835536420345,0.0030542362947016954,-0.006108472589403391
1783153050109812000,3.68081201171875,0.004886778071522713,0.0024433890357613564,-0.005497625097632408
1783153050119522600,3.6905224609375,0.004886778071522713,0.005497625097632408,-0.007330167107284069
1783153050129233400,3.7002333984375,0.004275931045413017,0.005497625097632408,-0.008551862090826035
1783153050138944000,3.709944091796875,0.005497625097632408,0.0006108472589403391,-0.005497625097632408
1783153050148654600,3.719654541015625,0.004886778071522713,0.004886778071522713,-0.007330167107284069
1783153050158365200,3.729365234375,0.004886778071522713,0.0012216945178806782,-0.005497625097632408
1783153050168075800,3.73907568359375,0.004275931045413017,0.0024433890357613564,-0.005497625097632408
1783153050177786400,3.748786376953125,0.005497625097632408,0.004275931045413017,-0.008551862090826035
1783153050187497200,3.758497314453125,0.004275931045413017,0.0012216945178806782,-0.0036650835536420345
1783153050197207800,3.768207763671875,0.004886778071522713,0.0012216945178806782,-0.007330167107284069
1783153050206918400,3.77791845703125,0.0030542362947016954,0.0024433890357613564,-0.004886778071522713
1783153050216629000,3.78762890625,0.004886778071522713,0.0018325417768210173,-0.006108472589403391
1783153050226339600,3.797339599609375,0.004886778071522713,0.0006108472589403391,-0.006108472589403391
1783153050236050400,3.807050537109375,0.004275931045413017,0.005497625097632408,-0.007330167107284069
1783153050245761000,3.816760986328125,0.0036650835536420345,0.0012216945178806782,-0.007330167107284069
1783153050255471600,3.8264716796875,0.004886778071522713,0,-0.004275931045413017
1783153050265182200,3.83618212890625,0.006108472589403391,0.0024433890357613564,-0.005497625097632408
1783153050274892800,3.845892822265625,0.006719320081174374,0,-0.004886778071522713
1783153050284603400,3.855603271484375,0.004886778071522713,0.0018325417768210173,-0.008551862090826035
1783153050294314200,3.865314208984375,0.004886778071522713,0.0012216945178806782,-0.006719320081174374
1783153050304024800,3.87502490234375,0.004886778071522713,0.0024433890357613564,-0.004275931045413017
1783153050313735400,3.8847353515625,0.004886778071522713,0.0006108472589403391,-0.00916270911693573
1783153050323446000,3.894446044921875,0.0024433890357613564,0.004275931045413017,-0.007941014133393764
1783153050333156600,3.904156494140625,0.0036650835536420345,0.0012216945178806782,-0.005497625097632408
1783153050342867200,3.9138671875,0.005497625097632408,0.0012216945178806782,-0.006108472589403391
1783153050352578000,3.923578125,0.0036650835536420345,0,-0.004275931045413017
1783153050362288600,3.93328857421875,0.005497625097632408,0.0012216945178806782,-0.007941014133393764
1783153050371999200,3.942999267578125,0.006108472589403391,0.005497625097632408,-0.007941014133393764
1783153050381709800,3.952709716796875,0.004275931045413017,0.0018325417768210173,-0.0030542362947016954
1783153050391420400,3.96242041015625,0.0036650835536420345,0,-0.006108472589403391
1783153050401131300,3.97213134765625,0.004275931045413017,0.0012216945178806782,-0.006108472589403391
1783153050410841900,3.981841796875,0.0036650835536420345,-0.0006108472589403391,-0.006108472589403391
1783153050420552400,3.991552490234375,0.004886778071522713,0.0006108472589403391,-0.004275931045413017
1783153050430263000,4.001262939453125,0.0036650835536420345,0.0024433890357613564,-0.0030542362947016954
1783153050439973600,4.0109736328125,0.0036650835536420345,0,-0.006108472589403391
1783153050449684200,4.020684326171875,0.005497625097632408,0.004275931045413017,-0.006719320081174374
1783153050459395000,4.03039501953125,0.0036650835536420345,0.0030542362947016954,-0.00916270911693573
1783153050469105700,4.040105712890625,0.004886778071522713,0.0018325417768210173,-0.007941014133393764
1783153050478816300,4.049816162109375,0.004886778071522713,0.0024433890357613564,-0.006108472589403391
1783153050488526800,4.05952685546875,0.004275931045413017,0.0030542362947016954,-0.0012216945178806782
1783153050498237400,4.069237548828125,0.0036650835536420345,0.0012216945178806782,-0.005497625097632408
1783153050507948000,4.078947998046875,0.006108472589403391,0.0030542362947016954,-0.006719320081174374
1783153050517659000,4.088658935546875,0.006108472589403391,0.0024433890357613564,-0.006108472589403391
1783153050527369500,4.098369384765625,0.0036650835536420345,0.0018325417768210173,-0.006719320081174374
1783153050537080000,4.108080078125,0.004275931045413017,0.0036650835536420345,-0.004886778071522713
1783153050546790700,4.117790771484375,0.006108472589403391,0.0012216945178806782,-0.005497625097632408
1783153050556501200,4.127501220703125,0.0030542362947016954,0.0030542362947016954,-0.007941014133393764
1783153050566212000,4.137212158203125,0.005497625097632408,0.004275931045413017,-0.006108472589403391
1783153050575922700,4.146922607421875,0.0036650835536420345,0.004886778071522713,-0.006719320081174374
1783153050585633300,4.15663330078125,0.005497625097632408,0.0030542362947016954,-0.007330167107284069
1783153050595344000,4.16634375,0.005497625097632408,0.0024433890357613564,-0.004886778071522713
1783153050605054500,4.176054443359375,0.0036650835536420345,0.0030542362947016954,-0.008551862090826035
1783153050614765000,4.18576513671875,0.0030542362947016954,0.0030542362947016954,-0.005497625097632408
1783153050624476000,4.195475830078125,0.0036650835536420345,0.0018325417768210173,-0.007330167107284069
1783153050634186500,4.2051865234375,0.004886778071522713,-0.0006108472589403391,-0.004886778071522713
1783153050643897000,4.21489697265625,0.0030542362947016954,0.004275931045413017,-0.005497625097632408
1783153050653607700,4.224607666015625,0.004275931045413017,0.0030542362947016954,-0.006108472589403391
1783153050663318300,4.234318359375,0.006719320081174374,0.004275931045413017,-0.006719320081174374
1783153050673028900,4.24402880859375,0.004275931045413017,0.0018325417768210173,-0.004886778071522713
1783153050682739700,4.25373974609375,0.0036650835536420345,0.0030542362947016954,-0.007330167107284069
1783153050692450300,4.2634501953125,0.005497625097632408,0.0030542362947016954,-0.004275931045413017
1783153050702161000,4.273160888671875,0.004275931045413017,0.0024433890357613564,-0.006108472589403391
1783153050711871500,4.28287158203125,0.0030542362947016954,0.0012216945178806782,-0.006108472589403391
1783153050721582300,4.292582275390625,0.004886778071522713,0.005497625097632408,-0.006719320081174374
1783153050731293000,4.30229296875,0.006108472589403391,0.0012216945178806782,-0.006719320081174374
1783153050741003500,4.31200341796875,0.005497625097632408,0.0012216945178806782,-0.008551862090826035
1783153050750714000,4.321714111328125,0.005497625097632408,0.0006108472589403391,-0.006108472589403391
1783153050760424700,4.3314248046875,0.004886778071522713,0.004275931045413017,-0.007941014133393764
1783153050770135300,4.34113525390625,0.0036650835536420345,0.0030542362947016954,-0.004275931045413017
1783153050779846000,4.350845947265625,0.0036650835536420345,0,-0.007330167107284069
1783153050789556700,4.360556640625,0.004275931045413017,0.0030542362947016954,-0.006719320081174374
1783153050799267300,4.370267333984375,0.005497625097632408,0.004275931045413017,-0.006719320081174374
1783153050808978000,4.37997802734375,0.004275931045413017,0,-0.006719320081174374
1783153050818688500,4.3896884765625,0.0030542362947016954,0.0024433890357613564,-0.008551862090826035
1783153050828399000,4.399399169921875,0.0030542362947016954,0.0030542362947016954,-0.006108472589403391
1783153050838110000,4.40910986328125,0.004275931045413017,0.0018325417768210173,-0.007941014133393764
1783153050847820500,4.418820556640625,0.0036650835536420345,0.0012216945178806782,-0.005497625097632408
1783153050857531100,4.42853125,0.005497625097632408,0.0012216945178806782,-0.005497625097632408
1783153050867241700,4.43824169921875,0.005497625097632408,0.0006108472589403391,-0.006108472589403391
1783153050876952300,4.447952392578125,0.004275931045413017,0.0024433890357613564,-0.004275931045413017
1783153050886663200,4.4576630859375,0.0030542362947016954,0.0036650835536420345,-0.006719320081174374
1783153050896373800,4.467373779296875,0.0036650835536420345,0.0024433890357613564,-0.007941014133393764
1783153050906084400,4.47708447265625,0.006108472589403391,0.0012216945178806782,-0.00916270911693573
1783153050915795000,4.486794921875,0.004886778071522713,0.0006108472589403391,-0.007941014133393764
1783153050925505500,4.496505615234375,0.0036650835536420345,0.0030542362947016954,-0.005497625097632408
1783153050935216000,4.506216064453125,0.004886778071522713,0.0018325417768210173,-0.006719320081174374
1783153050944927000,4.515927001953125,0.0036650835536420345,0.0030542362947016954,-0.005497625097632408
1783153050954637600,4.525637451171875,0.006108472589403391,0.0018325417768210173,-0.006108472589403391
1783153050964348200,4.53534814453125,0.004275931045413017,0.0006108472589403391,-0.006719320081174374
1783153050974058800,4.545058837890625,0.004886778071522713,0.0036650835536420345,-0.006719320081174374
1783153050983769300,4.554769287109375,0.005497625097632408,0.0024433890357613564,-0.005497625097632408
1783153050993480200,4.564480224609375,0.004886778071522713,0.0018325417768210173,-0.007330167107284069
1783153051003190800,4.574190673828125,0.004886778071522713,0.0024433890357613564,-0.007330167107284069
1783153051012901400,4.5839013671875,0.004886778071522713,0.0006108472589403391,-0.0036650835536420345
1783153051022612000,4.593612060546875,0.006108472589403391,0.0024433890357613564,-0.006108472589403391
1783153051032322600,4.603322509765625,0.004886778071522713,-0.0006108472589403391,-0.0024433890357613564
1783153051042033200,4.613033203125,0.004886778071522713,0.0006108472589403391,-0.006719320081174374
1783153051051744000,4.622743896484375,0.004275931045413017,0,-0.006108472589403391
1783153051061454600,4.63245458984375,0.006108472589403391,0.004275931045413017,-0.006719320081174374
1783153051071165200,4.642165283203125,0.004275931045413017,0.0036650835536420345,-0.004886778071522713
1783153051080875800,4.651875732421875,0.004275931045413017,0.0024433890357613564,-0.007330167107284069
1783153051090586400,4.66158642578125,0.004886778071522713,0.0012216945178806782,-0.007330167107284069
1783153051100297200,4.671297119140625,0.004275931045413017,0.0024433890357613564,-0.006719320081174374
1783153051110007800,4.6810078125,0.004886778071522713,0.0024433890357613564,-0.005497625097632408
1783153051119718400,4.690718505859375,0.005497625097632408,0.0024433890357613564,-0.005497625097632408
1783153051129429000,4.700428955078125,0.004275931045413017,0.004275931045413017,-0.006108472589403391
1783153051139139600,4.7101396484375,0.006108472589403391,0.0012216945178806782,-0.004886778071522713
1783153051148850200,4.71985009765625,0.004886778071522713,0,-0.006108472589403391
1783153051158561000,4.72956103515625,0.004275931045413017,0.0012216945178806782,-0.006719320081174374
1783153051168271600,4.739271728515625,0.004275931045413017,0.0018325417768210173,-0.006719320081174374
1783153051177982200,4.748982177734375,0.0036650835536420345,0.004275931045413017,-0.005497625097632408
1783153051187692800,4.75869287109375,0.005497625097632408,0.0012216945178806782,-0.004886778071522713
1783153051197403400,4.7684033203125,0.004275931045413017,0.0012216945178806782,-0.004886778071522713
1783153051207114200,4.7781142578125,0.0036650835536420345,0.0006108472589403391,-0.007941014133393764
1783153051216824800,4.787824951171875,0.005497625097632408,0.0024433890357613564,-0.006719320081174374
1783153051226535400,4.797535400390625,0.004886778071522713,0.0030542362947016954,-0.007941014133393764
1783153051236246000,4.80724609375,0.005497625097632408,0.0036650835536420345,-0.007330167107284069
1783153051245956600,4.81695654296875,0.004886778071522713,0.0018325417768210173,-0.006108472589403391
1783153051255667200,4.826667236328125,0.0030542362947016954,0.0018325417768210173,-0.004275931045413017
1783153051265378000,4.8363779296875,0.006108472589403391,0.0018325417768210173,-0.006108472589403391
1783153051275088600,4.846088623046875,0.005497625097632408,-0.0006108472589403391,-0.006719320081174374
1783153051284799200,4.85579931640625,0.006719320081174374,0,-0.007330167107284069
1783153051294509800,4.865509765625,0.004886778071522713,0.0024433890357613564,-0.007330167107284069
1783153051304220700,4.875220703125,0.004886778071522713,0.0012216945178806782,-0.005497625097632408
1783153051313931300,4.88493115234375,0.0036650835536420345,0.0012216945178806782,-0.004886778071522713
1783153051323641900,4.894641845703125,0.004275931045413017,0.0012216945178806782,-0.007330167107284069
1783153051333352400,4.9043525390625,0.004886778071522713,0.0030542362947016954,-0.0030542362947016954
1783153051343063000,4.91406298828125,0.004886778071522713,0.0030542362947016954,-0.007330167107284069
1783153051352773600,4.923773681640625,0.005497625097632408,0.0036650835536420345,-0.005497625097632408
1783153051362484200,4.933484130859375,0.005497625097632408,0.0018325417768210173,-0.006719320081174374
1783153051372195000,4.943195068359375,0.0036650835536420345,0.0018325417768210173,-0.006719320081174374
1783153051381905700,4.95290576171875,0.004886778071522713,0.0024433890357613564,-0.007941014133393764
1783153051391616300,4.9626162109375,0.004275931045413017,0.0024433890357613564,-0.0036650835536420345
1783153051401326800,4.972326904296875,0.005497625097632408,0.0036650835536420345,-0.004886778071522713
1783153051411037700,4.98203759765625,0.0036650835536420345,0.0018325417768210173,-0.006108472589403391
1783153051420748300,4.991748291015625,0.006719320081174374,0.0036650835536420345,-0.007941014133393764
1783153051430459000,5.001458984375,0.004275931045413017,0.0024433890357613564,-0.005497625097632408
1783153051440169500,5.01116943359375,0.0030542362947016954,0.0018325417768210173,-0.006108472589403391
1783153051449880000,5.020880126953125,0.004886778071522713,0.0012216945178806782,-0.005497625097632408
1783153051459590700,5.030590576171875,0.005497625097632408,0.0036650835536420345,-0.007941014133393764
1783153051469301500,5.040301513671875,0.0036650835536420345,0.0018325417768210173,-0.008551862090826035
1783153051479012000,5.05001220703125,0.0036650835536420345,0.0006108472589403391,-0.004886778071522713
1783153051488722700,5.05972265625,0.004275931045413017,0.0018325417768210173,-0.007941014133393764
1783153051498433300,5.069433349609375,0.005497625097632408,0.004275931045413017,-0.007330167107284069
1783153051508143900,5.079143798828125,0.006108472589403391,0.0036650835536420345,-0.006719320081174374
1783153051517854700,5.088854736328125,0.007330167107284069,-0.0012216945178806782,-0.004275931045413017
1783153051527565300,5.0985654296875,0.0036650835536420345,0.004275931045413017,-0.006719320081174374
1783153051537276000,5.10827587890625,0.0036650835536420345,0.0030542362947016954,-0.006108472589403391
1783153051546986500,5.117986572265625,0.004275931045413017,0.004275931045413017,-0.006108472589403391
1783153051556697000,5.127697021484375,0.004275931045413017,0.0030542362947016954,-0.006108472589403391
1783153051566407700,5.13740771484375,0.006719320081174374,0.0024433890357613564,-0.006719320081174374
1783153051576118500,5.147118408203125,0.004275931045413017,0.0024433890357613564,-0.007941014133393764
1783153051585829000,5.1568291015625,0.006719320081174374,0.0024433890357613564,-0.006719320081174374
1783153051595539700,5.166539794921875,0.0036650835536420345,0.0030542362947016954,-0.006719320081174374
1783153051605250300,5.176250244140625,0.004275931045413017,0.0024433890357613564,-0.006719320081174374
1783153051614961000,5.1859609375,0.004886778071522713,0.0018325417768210173,-0.007941014133393764
1783153051624671700,5.195671630859375,0.006108472589403391,0.004275931045413017,-0.006719320081174374
1783153051634382300,5.20538232421875,0.004886778071522713,0.006719320081174374,-0.007330167107284069
1783153051644093000,5.215093017578125,0.005497625097632408,0.0024433890357613564,-0.006719320081174374
1783153051653803500,5.224803466796875,0.004886778071522713,0.0030542362947016954,-0.005497625097632408
1783153051663514000,5.23451416015625,0.0030542362947016954,0.0006108472589403391,-0.007941014133393764
1783153051673225000,5.244224853515625,0.006108472589403391,0.0006108472589403391,-0.005497625097632408
1783153051682935600,5.253935546875,0.004275931045413017,0.0012216945178806782,-0.006108472589403391
1783153051692646100,5.263646240234375,0.004275931045413017,0.0018325417768210173,-0.005497625097632408
1783153051702356700,5.273356689453125,0.0036650835536420345,0.0036650835536420345,-0.006108472589403391
1783153051712067300,5.2830673828125,0.0036650835536420345,0.0018325417768210173,-0.006108472589403391
1783153051721778000,5.29277783203125,0.004275931045413017,0.004275931045413017,-0.007941014133393764
1783153051731488800,5.30248876953125,0.005497625097632408,0.0024433890357613564,-0.005497625097632408
1783153051741199400,5.312199462890625,0.005497625097632408,0.0030542362947016954,-0.006108472589403391
1783153051750910000,5.321909912109375,0.005497625097632408,0.0024433890357613564,-0.0030542362947016954
1783153051760620500,5.33162060546875,0.0036650835536420345,0.0018325417768210173,-0.005497625097632408
1783153051770331400,5.341331298828125,0.006108472589403391,0.0018325417768210173,-0.007330167107284069
1783153051780042000,5.3510419921875,0.004886778071522713,0,-0.004275931045413017
1783153051789752600,5.360752685546875,0.004275931045413017,0.0024433890357613564,-0.006719320081174374
1783153051799463200,5.370463134765625,0.006719320081174374,0.0018325417768210173,-0.006108472589403391
1783153051809173800,5.380173828125,0.006108472589403391,0.0036650835536420345,-0.006719320081174374
1783153051818884400,5.38988427734375,0.0030542362947016954,0.0024433890357613564,-0.007330167107284069
1783153051828595200,5.39959521484375,0.004275931045413017,0.0024433890357613564,-0.008551862090826035
1783153051838305800,5.409305908203125,0.0030542362947016954,0.0024433890357613564,-0.006108472589403391
1783153051848016400,5.419016357421875,0.0036650835536420345,0.0024433890357613564,-0.007330167107284069
1783153051857727000,5.42872705078125,0.005497625097632408,0.0024433890357613564,-0.0036650835536420345
1783153051867437600,5.4384375,0.004275931045413017,0.004275931045413017,-0.007330167107284069
1783153051877148400,5.4481484375,0.004275931045413017,0.0030542362947016954,-0.004886778071522713
1783153051886859000,5.45785888671875,0.004275931045413017,0.0036650835536420345,-0.006719320081174374
1783153051896569600,5.467569580078125,0.004275931045413017,0.0036650835536420345,-0.006108472589403391
1783153051906280200,5.4772802734375,0.004886778071522713,0.0036650835536420345,-0.006108472589403391
1783153051915990800,5.48699072265625,0.004886778071522713,0.0006108472589403391,-0.008551862090826035
1783153051925701400,5.496701416015625,0.004886778071522713,0.0018325417768210173,-0.008551862090826035
1783153051935412200,5.506412109375,0.0030542362947016954,0.0024433890357613564,-0.004886778071522713
1783153051945122800,5.516122802734375,0.005497625097632408,-0.0006108472589403391,-0.005497625097632408
1783153051954833400,5.52583349609375,0.006108472589403391,0,-0.005497625097632408
1783153051964544000,5.5355439453125,0.004886778071522713,0.0024433890357613564,-0.006719320081174374
1783153051974254600,5.545254638671875,0.0036650835536420345,0.0024433890357613564,-0.004886778071522713
1783153051983965400,5.55496533203125,0.004275931045413017,0.004275931045413017,-0.006108472589403391
1783153051993676000,5.564676025390625,0.0030542362947016954,0.0024433890357613564,-0.006719320081174374
1783153052003386600,5.57438671875,0.004275931045413017,0.0018325417768210173,-0.007330167107284069
1783153052013097200,5.58409716796875,0.004886778071522713,0,-0.006108472589403391
1783153052022808000,5.59380810546875,0.004275931045413017,0.0018325417768210173,-0.005497625097632408
1783153052032518700,5.6035185546875,0.0030542362947016954,0.0036650835536420345,-0.005497625097632408
1783153052042229200,5.613229248046875,0.004886778071522713,0.0006108472589403391,-0.006719320081174374
1783153052051939800,5.62293994140625,0.004886778071522713,0,-0.006108472589403391
1783153052061650400,5.632650390625,0.006108472589403391,0.0036650835536420345,-0.007330167107284069
1783153052071361000,5.642361083984375,0.0036650835536420345,0.0024433890357613564,-0.004275931045413017
1783153052081071900,5.65207177734375,0.0030542362947016954,-0.0030542362947016954,-0.005497625097632408
1783153052090782500,5.661782470703125,0.0036650835536420345,0.0012216945178806782,-0.0036650835536420345
1783153052100493000,5.6714931640625,0.007330167107284069,0.0006108472589403391,-0.007941014133393764
1783153052110203600,5.68120361328125,0.004886778071522713,0,-0.004275931045413017
1783153052119914200,5.690914306640625,0.004886778071522713,0.0024433890357613564,-0.008551862090826035
1783153052129625000,5.700625,0.006108472589403391,0.0012216945178806782,-0.004275931045413017
1783153052139335700,5.710335693359375,0.0030542362947016954,0.005497625097632408,-0.01038440316915512
1783153052149046300,5.72004638671875,0.0036650835536420345,0.0024433890357613564,-0.006719320081174374
1783153052158756900,5.7297568359375,0.0030542362947016954,0.0036650835536420345,-0.005497625097632408
1783153052168467500,5.739467529296875,0.006108472589403391,0.0018325417768210173,-0.005497625097632408
1783153052178178300,5.74917822265625,0.004886778071522713,0.0012216945178806782,-0.007941014133393764
1783153052187889000,5.758888916015625,0.004886778071522713,0.004275931045413017,-0.004886778071522713
1783153052197599500,5.768599609375,0.004886778071522713,0.0024433890357613564,-0.007941014133393764
1783153052207310000,5.77831005859375,0.004275931045413017,0.0018325417768210173,-0.006108472589403391
1783153052217020700,5.788020751953125,0.004275931045413017,0.0018325417768210173,-0.005497625097632408
1783153052226731500,5.7977314453125,0.004886778071522713,0.0024433890357613564,-0.007330167107284069
1783153052236442000,5.807442138671875,0.004275931045413017,-0.0024433890357613564,-0.006108472589403391
1783153052246152700,5.817152587890625,0.006108472589403391,0.0030542362947016954,-0.007330167107284069
1783153052255863300,5.82686328125,0.004275931045413017,0.0018325417768210173,-0.007941014133393764
1783153052265574000,5.836573974609375,0.004886778071522713,0,-0.006719320081174374
1783153052275284700,5.84628466796875,0.005497625097632408,0.0036650835536420345,-0.006108472589403391
1783153052284995300,5.855995361328125,0.005497625097632408,0.0036650835536420345,-0.004886778071522713
1783153052294706000,5.865705810546875,0.004886778071522713,0.0024433890357613564,-0.007330167107284069
1783153052304416500,5.87541650390625,0.005497625097632408,0,-0.006108472589403391
1783153052314127000,5.885127197265625,0.004275931045413017,0.0024433890357613564,-0.008551862090826035
1783153052323838000,5.894837890625,0.004275931045413017,0.0024433890357613564,-0.006108472589403391
1783153052333548500,5.904548583984375,0.004886778071522713,0.005497625097632408,-0.004275931045413017
1783153052343259100,5.914259033203125,0.004886778071522713,-0.0006108472589403391,-0.007330167107284069
1783153052352969700,5.9239697265625,0.005497625097632408,0.0036650835536420345,-0.0030542362947016954
1783153052362680300,5.933680419921875,0.005497625097632408,0,-0.006108472589403391
1783153052372391200,5.94339111328125,0.0036650835536420345,0.006108472589403391,-0.006108472589403391
1783153052382101800,5.953101806640625,0.005497625097632408,0.0006108472589403391,-0.006719320081174374
1783153052391812400,5.962812255859375,0.004886778071522713,0.0018325417768210173,-0.008551862090826035
1783153052401523000,5.97252294921875,0.0036650835536420345,0.004275931045413017,-0.008551862090826035
1783153052411233500,5.982233642578125,0.004275931045413017,0.0024433890357613564,-0.004886778071522713
1783153052420944100,5.991944091796875,0.004275931045413017,0.0018325417768210173,-0.006108472589403391
1783153052430655000,6.001655029296875,0.005497625097632408,0.0036650835536420345,-0.006719320081174374
1783153052440365600,6.011365478515625,0.004886778071522713,0.0024433890357613564,-0.005497625097632408
1783153052450076200,6.021076171875,0.0030542362947016954,0.004275931045413017,-0.005497625097632408
1783153052459786800,6.030786865234375,0.005497625097632408,0,-0.004275931045413017
1783153052469497600,6.04049755859375,0.004886778071522713,0.0030542362947016954,-0.004275931045413017
1783153052479208200,6.050208251953125,0.004886778071522713,0.0024433890357613564,-0.007330167107284069
1783153052488918800,6.059918701171875,0.0030542362947016954,0.0024433890357613564,-0.005497625097632408
1783153052498629400,6.06962939453125,0.0036650835536420345,0.0036650835536420345,-0.005497625097632408
1783153052508340000,6.079340087890625,0.004275931045413017,0.0030542362947016954,-0.007330167107284069
1783153052518050800,6.08905078125,0.0030542362947016954,0.0012216945178806782,-0.007330167107284069
1783153052527761400,6.098761474609375,0.004275931045413017,0.0030542362947016954,-0.006108472589403391
1783153052537472000,6.108471923828125,0.004275931045413017,0.004886778071522713,-0.005497625097632408
1783153052547182600,6.1181826171875,0.004275931045413017,0.0024433890357613564,-0.005497625097632408
1783153052556893200,6.12789306640625,0.004886778071522713,0,-0.007941014133393764
1783153052566604000,6.13760400390625,0.0018325417768210173,0.0018325417768210173,-0.006719320081174374
1783153052576314600,6.147314697265625,0.0030542362947016954,0.0036650835536420345,-0.007941014133393764
1783153052586025200,6.157025146484375,0.004275931045413017,0.0036650835536420345,-0.005497625097632408
1783153052595735800,6.16673583984375,0.004886778071522713,0.0018325417768210173,-0.0036650835536420345
1783153052605446400,6.1764462890625,0.006108472589403391,0.0012216945178806782,-0.007330167107284069
1783153052615157000,6.186156982421875,0.0018325417768210173,0.0036650835536420345,-0.007941014133393764
1783153052624867800,6.195867919921875,0.004275931045413017,0.004886778071522713,-0.007330167107284069
1783153052634578400,6.205578369140625,0.0036650835536420345,0.0024433890357613564,-0.007330167107284069
1783153052644289000,6.2152890625,0.005497625097632408,0.004275931045413017,-0.006108472589403391
1783153052653999600,6.22499951171875,0.0030542362947016954,0.0018325417768210173,-0.005497625097632408
1783153052663710500,6.23471044921875,0.0030542362947016954,0.0006108472589403391,-0.006108472589403391
1783153052673421000,6.244421142578125,0.006108472589403391,0.0006108472589403391,-0.006108472589403391
1783153052683131600,6.254131591796875,0.005497625097632408,0.0018325417768210173,-0.006719320081174374
1783153052692842200,6.26384228515625,0.0030542362947016954,0.0024433890357613564,-0.006108472589403391
1783153052702552800,6.273552734375,0.004275931045413017,0.004275931045413017,-0.007941014133393764
1783153052712263700,6.283263671875,0.0030542362947016954,0.0036650835536420345,-0.007330167107284069
1783153052721974300,6.292974365234375,0.004275931045413017,0.004886778071522713,-0.006719320081174374
1783153052731684900,6.302684814453125,0.0024433890357613564,0.0006108472589403391,-0.007941014133393764
1783153052741395500,6.3123955078125,0.004886778071522713,0.0006108472589403391,-0.006108472589403391
1783153052751106000,6.32210595703125,0.005497625097632408,0.0036650835536420345,-0.007941014133393764
1783153052760817000,6.33181689453125,0.005497625097632408,0.0024433890357613564,-0.005497625097632408
1783153052770527500,6.341527587890625,0.004275931045413017,0.0012216945178806782,-0.005497625097632408
1783153052780238000,6.351238037109375,0.004275931045413017,0.0018325417768210173,-0.004886778071522713
1783153052789948700,6.36094873046875,0.005497625097632408,0.0012216945178806782,-0.008551862090826035
1783153052799659300,6.3706591796875,0.004275931045413017,0.0018325417768210173,-0.006719320081174374
1783153052809369900,6.380369873046875,0.0030542362947016954,0.0012216945178806782,-0.004275931045413017
1783153052819080700,6.390080810546875,0.005497625097632408,0.0012216945178806782,-0.007330167107284069
1783153052828791300,6.399791259765625,0.004886778071522713,-0.0012216945178806782,-0.005497625097632408
1783153052838502000,6.409501953125,0.0036650835536420345,0.0024433890357613564,-0.006719320081174374
1783153052848212500,6.41921240234375,0.004886778071522713,0.0006108472589403391,-0.006719320081174374
1783153052857923300,6.42892333984375,0.006108472589403391,0.0030542362947016954,-0.006719320081174374
1783153052867634000,6.438634033203125,0.004275931045413017,0.0018325417768210173,-0.007941014133393764
1783153052877344500,6.448344482421875,0.005497625097632408,0.0018325417768210173,-0.005497625097632408
1783153052887055000,6.45805517578125,0.005497625097632408,0.0012216945178806782,-0.006719320081174374
1783153052896765700,6.467765625,0.004886778071522713,0.0006108472589403391,-0.007330167107284069
1783153052906476500,6.4774765625,0.004886778071522713,0.005497625097632408,-0.006719320081174374
1783153052916187100,6.487187255859375,0.005497625097632408,0.0036650835536420345,-0.006719320081174374
1783153052925897700,6.496897705078125,0.0036650835536420345,0,-0.004886778071522713
1783153052935608300,6.5066083984375,0.004886778071522713,0.0006108472589403391,-0.006108472589403391
1783153052945319000,6.51631884765625,0.0018325417768210173,0.0036650835536420345,-0.005497625097632408
1783153052955029800,6.52602978515625,0.005497625097632408,0.004275931045413017,-0.00916270911693573
1783153052964740400,6.535740234375,0.004275931045413017,0.0018325417768210173,-0.009773556143045425
1783153052974451000,6.545450927734375,0.004886778071522713,0.0006108472589403391,-0.004886778071522713
1783153052984161500,6.55516162109375,0.006108472589403391,0,-0.006108472589403391
1783153052993872100,6.5648720703125,0.004275931045413017,0.0030542362947016954,-0.008551862090826035
1783153053003583000,6.5745830078125,0.004886778071522713,0.0030542362947016954,-0.006719320081174374
1783153053013293600,6.58429345703125,0.005497625097632408,0.0036650835536420345,-0.004275931045413017
1783153053023004200,6.594004150390625,0.005497625097632408,0.0018325417768210173,-0.005497625097632408
1783153053032714800,6.60371484375,0.004275931045413017,0.0030542362947016954,-0.005497625097632408
1783153053042425300,6.61342529296875,0.004275931045413017,0.0018325417768210173,-0.006108472589403391
1783153053052136200,6.62313623046875,0.006108472589403391,0.0030542362947016954,-0.005497625097632408
1783153053061846800,6.6328466796875,0.004275931045413017,0.0006108472589403391,-0.007330167107284069
1783153053071557400,6.642557373046875,0.004275931045413017,0.0012216945178806782,-0.006108472589403391
1783153053081268000,6.65226806640625,0.0030542362947016954,0.0030542362947016954,-0.004886778071522713
1783153053090978600,6.661978515625,0.004275931045413017,0.0006108472589403391,-0.006719320081174374
1783153053100689400,6.671689453125,0.0036650835536420345,0.0012216945178806782,-0.005497625097632408
1783153053110400000,6.68139990234375,0.0036650835536420345,0.0030542362947016954,-0.006108472589403391
1783153053120110600,6.691110595703125,0.004886778071522713,0.0036650835536420345,-0.004886778071522713
1783153053129821200,6.7008212890625,0.0030542362947016954,0.0006108472589403391,-0.006719320081174374
1783153053139531800,6.71053173828125,0.004275931045413017,0.0030542362947016954,-0.0030542362947016954
1783153053149242600,6.72024267578125,0.004275931045413017,0.004275931045413017,-0.004886778071522713
1783153053158953200,6.729953125,0.004275931045413017,0.0036650835536420345,-0.006719320081174374
1783153053168663800,6.739663818359375,0.004886778071522713,0.0018325417768210173,-0.006108472589403391
1783153053178374400,6.74937451171875,0.0036650835536420345,0,-0.005497625097632408
1783153053188085200,6.759085205078125,0.004275931045413017,0.0024433890357613564,-0.007941014133393764
1783153053197795800,6.7687958984375,0.006108472589403391,0.0036650835536420345,-0.007330167107284069
1783153053207506400,6.77850634765625,0.004886778071522713,0.004275931045413017,-0.006108472589403391
1783153053217217000,6.788217041015625,0.0030542362947016954,0.0036650835536420345,-0.006719320081174374
1783153053226927600,6.797927734375,0.004275931045413017,0.0024433890357613564,-0.006719320081174374
1783153053236638500,6.807638427734375,0.006108472589403391,0.0030542362947016954,-0.004886778071522713
1783153053246349000,6.81734912109375,0.0030542362947016954,0.0012216945178806782,-0.004886778071522713
1783153053256059600,6.8270595703125,0.005497625097632408,0.0018325417768210173,-0.006108472589403391
1783153053265770200,6.836770263671875,0.0036650835536420345,0.0036650835536420345,-0.004275931045413017
1783153053275480800,6.846480712890625,0.0024433890357613564,0.0018325417768210173,-0.006108472589403391
1783153053285191700,6.856191650390625,0.004886778071522713,0.0024433890357613564,-0.006108472589403391
1783153053294902300,6.86590234375,0.004275931045413017,0.0006108472589403391,-0.006108472589403391
1783153053304612900,6.87561279296875,0.005497625097632408,0.0018325417768210173,-0.005497625097632408
1783153053314323500,6.885323486328125,0.0036650835536420345,0.0024433890357613564,-0.006719320081174374
1783153053324034000,6.895033935546875,0.0036650835536420345,0.0030542362947016954,-0.007941014133393764
1783153053333745000,6.904744873046875,0.0030542362947016954,0.0030542362947016954,-0.006108472589403391
1783153053343455500,6.91445556640625,0.004275931045413017,0.004275931045413017,-0.006719320081174374
1783153053353166000,6.924166015625,0.005497625097632408,0.0024433890357613564,-0.004886778071522713
1783153053362876700,6.933876708984375,0.004275931045413017,0.0036650835536420345,-0.007330167107284069
1783153053372587300,6.943587158203125,0.0030542362947016954,0.0030542362947016954,-0.007330167107284069
1783153053382298000,6.953298095703125,0.004886778071522713,0.0030542362947016954,-0.007330167107284069
1783153053392008700,6.9630087890625,0.004275931045413017,0,-0.004886778071522713
1783153053401719300,6.97271923828125,0.005497625097632408,0,-0.005497625097632408
1783153053411430000,6.982429931640625,0.004275931045413017,0.0006108472589403391,-0.0030542362947016954
1783153053421140500,6.992140380859375,0.006719320081174374,0.0018325417768210173,-0.004886778071522713
1783153053430851300,7.001851318359375,0.004275931045413017,0.0006108472589403391,-0.0036650835536420345
1783153053440562000,7.01156201171875,0.0036650835536420345,0.0024433890357613564,-0.005497625097632408
1783153053450272500,7.0212724609375,0.004275931045413017,0.004275931045413017,-0.004886778071522713
1783153053459983000,7.030983154296875,0.0036650835536420345,0.0030542362947016954,-0.006108472589403391
1783153053469694000,7.04069384765625,0.0036650835536420345,0.004886778071522713,-0.007330167107284069
1783153053479404500,7.050404541015625,0.004275931045413017,0,-0.004886778071522713
1783153053489115100,7.060115234375,0.004275931045413017,-0.0018325417768210173,-0.005497625097632408
1783153053498825700,7.06982568359375,0.005497625097632408,0,-0.004275931045413017
1783153053508536300,7.079536376953125,0.004886778071522713,0.0012216945178806782,-0.007941014133393764
1783153053518247200,7.0892470703125,0.004275931045413017,0.0012216945178806782,-0.006108472589403391
1783153053527957800,7.098957763671875,0.005497625097632408,0.0030542362947016954,-0.006719320081174374
1783153053537668400,7.10866845703125,0.0018325417768210173,0.0012216945178806782,-0.0036650835536420345
1783153053547379000,7.11837890625,0.004275931045413017,0,-0.006719320081174374
1783153053557089500,7.128089599609375,0.0036650835536420345,0.0030542362947016954,-0.005497625097632408
1783153053566800400,7.13780029296875,0.004275931045413017,0.005497625097632408,-0.006719320081174374
1783153053576511000,7.147510986328125,0.005497625097632408,0.005497625097632408,-0.006719320081174374
1783153053586221600,7.1572216796875,0.004886778071522713,0.004886778071522713,-0.00916270911693573
1783153053595932200,7.16693212890625,0.004275931045413017,0.0036650835536420345,-0.006719320081174374
1783153053605642800,7.176642822265625,0.0030542362947016954,0.0036650835536420345,-0.006108472589403391
1783153053615353600,7.186353515625,0.0024433890357613564,-0.0024433890357613564,-0.004275931045413017
1783153053625064200,7.196064208984375,0.0036650835536420345,0.0006108472589403391,-0.005497625097632408
1783153053634774800,7.20577490234375,0.0024433890357613564,0.005497625097632408,-0.007330167107284069
1783153053644485400,7.2154853515625,0.004886778071522713,0.0024433890357613564,-0.004886778071522713
1783153053654196000,7.225196044921875,0.004886778071522713,0.0036650835536420345,-0.004886778071522713
1783153053663906800,7.23490673828125,0.004275931045413017,0.0024433890357613564,-0.005497625097632408
1783153053673617400,7.244617431640625,0.004886778071522713,0,-0.005497625097632408
1783153053683328000,7.254327880859375,0.006108472589403391,0,-0.005497625097632408
1783153053693038600,7.26403857421875,0.004886778071522713,0.0018325417768210173,-0.006719320081174374
1783153053702749200,7.273749267578125,0.0030542362947016954,0.0012216945178806782,-0.006719320081174374
1783153053712460000,7.2834599609375,0.004886778071522713,-0.0006108472589403391,-0.004275931045413017
1783153053722170600,7.293170654296875,0.004886778071522713,0.0024433890357613564,-0.0036650835536420345
1783153053731881200,7.302881103515625,0.0036650835536420345,0.0024433890357613564,-0.006108472589403391
1783153053741591800,7.312591796875,0.004275931045413017,0.0036650835536420345,-0.004886778071522713
1783153053751302400,7.322302490234375,0.004886778071522713,0.0018325417768210173,-0.004886778071522713
1783153053761013200,7.33201318359375,0.004886778071522713,0.004275931045413017,-0.006719320081174374
1783153053770723800,7.341723876953125,0.0036650835536420345,0.0012216945178806782,-0.006108472589403391
1783153053780434400,7.351434326171875,0.004886778071522713,0.0024433890357613564,-0.006719320081174374
1783153053790145000,7.36114501953125,0.004275931045413017,0.0030542362947016954,-0.007330167107284069
1783153053799855900,7.37085595703125,0.004886778071522713,0.0024433890357613564,-0.004886778071522713
1783153053809566500,7.38056640625,0.004886778071522713,0.0030542362947016954,-0.005497625097632408
1783153053819277000,7.390277099609375,0.004275931045413017,0.0030542362947016954,-0.007941014133393764
1783153053828987600,7.399987548828125,0.004886778071522713,0.0036650835536420345,-0.006108472589403391
1783153053838698200,7.4096982421875,0.0036650835536420345,0.0012216945178806782,-0.006108472589403391
1783153053848409000,7.4194091796875,0.004886778071522713,0.0036650835536420345,-0.006108472589403391
1783153053858119700,7.42911962890625,0.004886778071522713,0.004275931045413017,-0.006719320081174374
1783153053867830300,7.438830322265625,0.0036650835536420345,0.0024433890357613564,-0.01038440316915512
1783153053877540900,7.448540771484375,0.005497625097632408,0.0024433890357613564,-0.007330167107284069
1783153053887251700,7.458251708984375,0.0036650835536420345,0.0012216945178806782,-0.006719320081174374
1783153053896962300,7.46796240234375,0.004275931045413017,0.0036650835536420345,-0.006719320081174374
1783153053906673000,7.4776728515625,0.004886778071522713,0.0024433890357613564,-0.005497625097632408
1783153053916383500,7.487383544921875,0.004886778071522713,0.0030542362947016954,-0.006108472589403391
1783153053926094000,7.497093994140625,0.0036650835536420345,0.0024433890357613564,-0.005497625097632408
1783153053935805000,7.506804931640625,0.0036650835536420345,0.0030542362947016954,-0.006719320081174374
1783153053945515500,7.516515625,0.005497625097632408,-0.0018325417768210173,-0.0030542362947016954
1783153053955226000,7.52622607421875,0.0036650835536420345,0.0024433890357613564,-0.006108472589403391
1783153053964936700,7.535936767578125,0.0030542362947016954,0.0030542362947016954,-0.004275931045413017
1783153053974647300,7.545647216796875,0.0036650835536420345,0.0018325417768210173,-0.004886778071522713
1783153053984358100,7.555358154296875,0.0030542362947016954,0.0036650835536420345,-0.006108472589403391
1783153053994068700,7.56506884765625,0.0036650835536420345,0,-0.006719320081174374
1783153054003779300,7.574779296875,0.0036650835536420345,0.004886778071522713,-0.005497625097632408
1783153054013490000,7.584489990234375,0.0030542362947016954,0.0018325417768210173,-0.007330167107284069
1783153054023200500,7.594200439453125,0.004886778071522713,0.0006108472589403391,-0.005497625097632408
1783153054032911400,7.603911376953125,0.004275931045413017,0.0006108472589403391,-0.005497625097632408
1783153054042622000,7.6136220703125,0.005497625097632408,0.0024433890357613564,-0.005497625097632408
1783153054052332500,7.62333251953125,0.0036650835536420345,0.0012216945178806782,-0.005497625097632408
1783153054062043100,7.633043212890625,0.005497625097632408,0.004886778071522713,-0.006108472589403391
1783153054071753700,7.642753662109375,0.005497625097632408,0.0018325417768210173,-0.0030542362947016954
1783153054081464600,7.652464599609375,0.005497625097632408,0.0030542362947016954,-0.006108472589403391
1783153054091175200,7.662175048828125,0.004275931045413017,0.0012216945178806782,-0.005497625097632408
1783153054100885800,7.6718857421875,0.005497625097632408,0.0024433890357613564,-0.004886778071522713
1783153054110596400,7.681596435546875,0.005497625097632408,-0.0006108472589403391,-0.004886778071522713
1783153054120307000,7.691306884765625,0.006108472589403391,0.0030542362947016954,-0.005497625097632408
1783153054130017800,7.701017822265625,0.004275931045413017,0.0018325417768210173,-0.006719320081174374
1783153054139728400,7.710728271484375,0.0036650835536420345,0.004886778071522713,-0.005497625097632408
1783153054149439000,7.72043896484375,0.004275931045413017,0.0024433890357613564,-0.006108472589403391
1783153054159149600,7.730149658203125,0.004275931045413017,-0.0012216945178806782,-0.006108472589403391
1783153054168860200,7.739860107421875,0.005497625097632408,0,-0.007330167107284069
1783153054178571000,7.749571044921875,0.004275931045413017,0.0006108472589403391,-0.006108472589403391
1783153054188281600,7.759281494140625,0.0036650835536420345,0.0030542362947016954,-0.005497625097632408
1783153054197992200,7.7689921875,0.005497625097632408,0.0006108472589403391,-0.006719320081174374
1783153054207702800,7.778702880859375,0.0036650835536420345,0.0006108472589403391,-0.004275931045413017
1783153054217413600,7.78841357421875,0.005497625097632408,0.0018325417768210173,-0.004275931045413017
1783153054227124200,7.798124267578125,0.004886778071522713,0.0024433890357613564,-0.007330167107284069
1783153054236834800,7.807834716796875,0.004275931045413017,0.0018325417768210173,-0.007941014133393764
1783153054246545400,7.81754541015625,0.004886778071522713,0.0024433890357613564,-0.004275931045413017
1783153054256256000,7.827256103515625,0.006108472589403391,0.004886778071522713,-0.008551862090826035
1783153054265966800,7.836966796875,0.006719320081174374,0.0018325417768210173,-0.004275931045413017
1783153054275677400,7.846677490234375,0.005497625097632408,0.0006108472589403391,-0.007330167107284069
1783153054285388000,7.856387939453125,0.004886778071522713,0.0012216945178806782,-0.005497625097632408
1783153054295098600,7.8660986328125,0.0036650835536420345,0.0036650835536420345,-0.006108472589403391
1783153054304809500,7.8758095703125,0.0036650835536420345,0.0012216945178806782,-0.005497625097632408
1783153054314520000,7.88552001953125,0.005497625097632408,0.0024433890357613564,-0.005497625097632408
1783153054324230700,7.895230712890625,0.004275931045413017,0.0030542362947016954,-0.006719320081174374
1783153054333941200,7.904941162109375,0.0036650835536420345,0.0012216945178806782,-0.006719320081174374
1783153054343651800,7.91465185546875,0.004886778071522713,0.004275931045413017,-0.007330167107284069
1783153054353362700,7.92436279296875,0.004275931045413017,0.0036650835536420345,-0.005497625097632408
1783153054363073300,7.9340732421875,0.005497625097632408,-0.0006108472589403391,-0.004886778071522713
1783153054372783900,7.943783935546875,0.006108472589403391,0.0024433890357613564,-0.006719320081174374
1783153054382494500,7.953494384765625,0.0036650835536420345,0.0024433890357613564,-0.006108472589403391
1783153054392205000,7.963205078125,0.004886778071522713,0.0018325417768210173,-0.006719320081174374
1783153054401916000,7.972916015625,0.005497625097632408,0.0024433890357613564,-0.006108472589403391
1783153054411626500,7.98262646484375,0.0030542362947016954,0.0012216945178806782,-0.005497625097632408
1783153054421337000,7.992337158203125,0.004886778071522713,-0.0006108472589403391,-0.005497625097632408
1783153054431047700,8.002047607421876,0.004886778071522713,0.0024433890357613564,-0.005497625097632408
1783153054440758500,8.011758544921875,0.0036650835536420345,0,-0.005497625097632408
1783153054450469000,8.02146923828125,0.005497625097632408,0.0024433890357613564,-0.004886778071522713
1783153054460179700,8.0311796875,0.004886778071522713,0.0030542362947016954,-0.007330167107284069
1783153054469890300,8.040890380859375,0.004275931045413017,0.0024433890357613564,-0.005497625097632408
1783153054479601000,8.050600830078125,0.0036650835536420345,0.0024433890357613564,-0.005497625097632408
1783153054489311700,8.060311767578124,0.006108472589403391,-0.0012216945178806782,-0.0030542362947016954
1783153054499022300,8.070022216796875,0.004275931045413017,0.0006108472589403391,-0.0036650835536420345
1783153054508733000,8.07973291015625,0.0036650835536420345,0.0024433890357613564,-0.004886778071522713
1783153054518443500,8.089443603515624,0.004275931045413017,0.0024433890357613564,-0.006719320081174374
1783153054528154400,8.099154296875,0.005497625097632408,0.0012216945178806782,-0.007330167107284069
1783153054537865000,8.108864990234375,0.004275931045413017,0.005497625097632408,-0.008551862090826035
1783153054547575600,8.118575439453124,0.0030542362947016954,0.0018325417768210173,-0.006108472589403391
1783153054557286100,8.1282861328125,0.004275931045413017,0.0012216945178806782,-0.006108472589403391
1783153054566996700,8.137996826171875,0.0036650835536420345,0.004886778071522713,-0.006108472589403391
1783153054576707300,8.147707275390625,0.0036650835536420345,0.005497625097632408,-0.005497625097632408
1783153054586418200,8.157418212890626,0.004886778071522713,0.0036650835536420345,-0.0030542362947016954
1783153054596128800,8.167128662109375,0.004275931045413017,0.0030542362947016954,-0.004886778071522713
1783153054605839400,8.17683935546875,0.0036650835536420345,-0.0006108472589403391,-0.005497625097632408
1783153054615550000,8.186550048828124,0.005497625097632408,0.0024433890357613564,-0.006108472589403391
1783153054625260800,8.1962607421875,0.005497625097632408,0.0024433890357613564,-0.006108472589403391
1783153054634971400,8.205971435546875,0.004275931045413017,0.0024433890357613564,-0.0036650835536420345
1783153054644682000,8.215681884765624,0.004275931045413017,0.0012216945178806782,-0.006719320081174374
1783153054654392600,8.225392578125,0.006719320081174374,0.004275931045413017,-0.007330167107284069
1783153054664103200,8.235103271484375,0.005497625097632408,0.0030542362947016954,-0.006719320081174374
1783153054673814000,8.24481396484375,0.004886778071522713,0.0024433890357613564,-0.007330167107284069
1783153054683524600,8.254524658203126,0.004886778071522713,0.0006108472589403391,-0.006108472589403391
1783153054693235200,8.264235107421875,0.0036650835536420345,-0.0012216945178806782,-0.005497625097632408
1783153054702945800,8.27394580078125,0.005497625097632408,0.0018325417768210173,-0.006108472589403391
1783153054712656400,8.283656494140626,0.005497625097632408,0.0012216945178806782,-0.006108472589403391
1783153054722367200,8.2933671875,0.005497625097632408,0.0024433890357613564,-0.006108472589403391
1783153054732077800,8.303077880859375,0.004886778071522713,0.0036650835536420345,-0.004886778071522713
1783153054741788400,8.312788330078124,0.0030542362947016954,0.0006108472589403391,-0.0036650835536420345
1783153054751499000,8.3224990234375,0.005497625097632408,0,-0.004275931045413017
1783153054761209600,8.332209716796875,0.0036650835536420345,0.0006108472589403391,-0.006719320081174374
1783153054770920400,8.34192041015625,0.005497625097632408,0.004275931045413017,-0.007941014133393764
1783153054780631000,8.351631103515626,0.004886778071522713,0.0036650835536420345,-0.005497625097632408
1783153054790341600,8.361341552734375,0.004886778071522713,0.0024433890357613564,-0.006108472589403391
1783153054800052200,8.37105224609375,0.004886778071522713,0.0006108472589403391,-0.005497625097632408
1783153054809762800,8.3807626953125,0.006719320081174374,0.0012216945178806782,-0.005497625097632408
1783153054819473700,8.3904736328125,0.006108472589403391,0.0024433890357613564,-0.004275931045413017
1783153054829184300,8.400184326171875,0.0030542362947016954,0.0018325417768210173,-0.006719320081174374
1783153054838894800,8.409894775390624,0.005497625097632408,0.0024433890357613564,-0.006719320081174374
1783153054848605400,8.41960546875,0.0036650835536420345,0.0012216945178806782,-0.006108472589403391
1783153054858316300,8.42931640625,0.004886778071522713,0.0006108472589403391,-0.0036650835536420345
1783153054868027000,8.43902685546875,0.004275931045413017,0.0036650835536420345,-0.006719320081174374
1783153054877737500,8.448737548828126,0.004275931045413017,0.0018325417768210173,-0.006719320081174374
1783153054887448000,8.458447998046875,0.0036650835536420345,0.0012216945178806782,-0.004886778071522713
1783153054897158700,8.46815869140625,0.004275931045413017,0.0012216945178806782,-0.006108472589403391
1783153054906869500,8.477869384765626,0.005497625097632408,0.0018325417768210173,-0.005497625097632408
1783153054916580000,8.487580078125,0.0036650835536420345,0.0012216945178806782,-0.0036650835536420345
1783153054926290700,8.497290771484375,0.004275931045413017,0.0030542362947016954,-0.00916270911693573
1783153054936001300,8.507001220703126,0.004886778071522713,0.0024433890357613564,-0.006719320081174374
1783153054945712000,8.516712158203125,0.006108472589403391,0.0012216945178806782,-0.006108472589403391
1783153054955422700,8.526422607421875,0.004886778071522713,0.005497625097632408,-0.006719320081174374
1783153054965133300,8.53613330078125,0.004886778071522713,0.0018325417768210173,-0.006719320081174374
1783153054974844000,8.545843994140625,0.0036650835536420345,0.0024433890357613564,-0.006108472589403391
1783153054984554500,8.555554443359375,0.005497625097632408,0.0024433890357613564,-0.006719320081174374
1783153054994265300,8.565265380859374,0.004275931045413017,0.0024433890357613564,-0.006719320081174374
1783153055003976000,8.574975830078126,0.004886778071522713,0.0018325417768210173,-0.006108472589403391
1783153055013686500,8.5846865234375,0.005497625097632408,0.004275931045413017,-0.005497625097632408
1783153055023397000,8.594397216796875,0.005497625097632408,0.0036650835536420345,-0.004275931045413017
1783153055033107700,8.604107666015626,0.005497625097632408,0.0024433890357613564,-0.008551862090826035
1783153055042818600,8.613818603515625,0.004275931045413017,0.0036650835536420345,-0.004275931045413017
1783153055052529200,8.623529052734375,0.006108472589403391,0.0024433890357613564,-0.004886778071522713
1783153055062239700,8.63323974609375,0.004275931045413017,0.0006108472589403391,-0.004275931045413017
1783153055071950300,8.642950439453125,0.0036650835536420345,0.0024433890357613564,-0.008551862090826035
1783153055081661200,8.6526611328125,0.004886778071522713,0,-0.004886778071522713
1783153055091371800,8.662371826171874,0.0030542362947016954,0.0006108472589403391,-0.0030542362947016954
1783153055101082400,8.672082275390625,0.0024433890357613564,0,-0.006719320081174374
1783153055110793000,8.68179296875,0.0024433890357613564,0.0024433890357613564,-0.004886778071522713
1783153055120503600,8.691503662109374,0.006108472589403391,0.0036650835536420345,-0.00916270911693573
1783153055130214400,8.70121435546875,0.006108472589403391,0.0024433890357613564,-0.007330167107284069
1783153055139925000,8.710925048828125,0.0036650835536420345,0.0036650835536420345,-0.007330167107284069
1783153055149635600,8.720635498046875,0.004275931045413017,0.0036650835536420345,-0.004886778071522713
1783153055159346200,8.73034619140625,0.006719320081174374,0.0012216945178806782,-0.005497625097632408
1783153055169057000,8.74005712890625,0.004275931045413017,0.0018325417768210173,-0.006719320081174374
1783153055178767600,8.749767578125,0.0036650835536420345,0.0030542362947016954,-0.006108472589403391
1783153055188478200,8.759478271484374,0.004886778071522713,0.0012216945178806782,-0.009773556143045425
1783153055198188800,8.769188720703125,0.0030542362947016954,0.0030542362947016954,-0.006719320081174374
1783153055207899400,8.7788994140625,0.0024433890357613564,0.0018325417768210173,-0.006719320081174374
1783153055217610200,8.7886103515625,0.004886778071522713,0.0024433890357613564,-0.004886778071522713
1783153055227320800,8.79832080078125,0.0024433890357613564,0.004886778071522713,-0.008551862090826035
1783153055237031400,8.808031494140625,0.006108472589403391,0.0012216945178806782,-0.006719320081174374
1783153055246742000,8.817741943359374,0.0036650835536420345,0.0036650835536420345,-0.0030542362947016954
1783153055256452600,8.82745263671875,0.005497625097632408,0.0012216945178806782,-0.006719320081174374
1783153055266163500,8.83716357421875,0.004886778071522713,0.0036650835536420345,-0.006719320081174374
1783153055275874000,8.8468740234375,0.0030542362947016954,0.0024433890357613564,-0.004886778071522713
1783153055285584600,8.856584716796876,0.006719320081174374,0.0024433890357613564,-0.005497625097632408
1783153055295295200,8.866295166015625,0.005497625097632408,0.0024433890357613564,-0.006719320081174374
1783153055305006000,8.876006103515625,0.004275931045413017,0.004275931045413017,-0.006719320081174374
1783153055314716700,8.885716552734374,0.0036650835536420345,0.0018325417768210173,-0.007330167107284069
1783153055324427300,8.89542724609375,0.006719320081174374,0.0030542362947016954,-0.007941014133393764
1783153055334137900,8.905137939453125,0.0036650835536420345,0.0024433890357613564,-0.004886778071522713
1783153055343848400,8.914848388671874,0.005497625097632408,0.0012216945178806782,-0.0030542362947016954
1783153055353559300,8.924559326171876,0.004886778071522713,0.0030542362947016954,-0.006719320081174374
1783153055363270000,8.934269775390625,0.004886778071522713,0.004275931045413017,-0.007330167107284069
1783153055372980500,8.94398046875,0.006719320081174374,0.0030542362947016954,-0.006719320081174374
1783153055382691000,8.953691162109376,0.0018325417768210173,0.0024433890357613564,-0.005497625097632408
1783153055392402000,8.96340185546875,0.004275931045413017,0.0030542362947016954,-0.006108472589403391
1783153055402112500,8.973112548828125,0.006719320081174374,0.0030542362947016954,-0.006719320081174374
1783153055411823000,8.982822998046874,0.006719320081174374,0.0018325417768210173,-0.005497625097632408
1783153055421533700,8.99253369140625,0.004886778071522713,0.0024433890357613564,-0.0036650835536420345
1783153055431244300,9.002244384765625,0.0036650835536420345,0.0012216945178806782,-0.006108472589403391
1783153055440955100,9.011955078125,0.005497625097632408,0.0018325417768210173,-0.004886778071522713
1783153055450665700,9.021665771484376,0.0024433890357613564,0.0036650835536420345,-0.005497625097632408
1783153055460376300,9.031376220703125,0.0036650835536420345,0.0024433890357613564,-0.00916270911693573
1783153055470087000,9.0410869140625,0.004886778071522713,0.0024433890357613564,-0.006719320081174374
1783153055479797500,9.050797607421876,0.006108472589403391,0.0012216945178806782,-0.007941014133393764
1783153055489508400,9.06050830078125,0.004886778071522713,0.0024433890357613564,-0.006719320081174374
1783153055499219000,9.070218994140625,0.004886778071522713,0.0018325417768210173,-0.005497625097632408
1783153055508929500,9.079929443359376,0.005497625097632408,0.0024433890357613564,-0.005497625097632408
1783153055518640000,9.08964013671875,0.0030542362947016954,0.0006108472589403391,-0.005497625097632408
1783153055528351000,9.09935107421875,0.005497625097632408,0,-0.004886778071522713
1783153055538061600,9.1090615234375,0.0030542362947016954,0.0030542362947016954,-0.004886778071522713
1783153055547772200,9.118772216796875,0.004886778071522713,0.0012216945178806782,-0.005497625097632408
1783153055557482800,9.128482666015625,0.0036650835536420345,0.004275931045413017,-0.007941014133393764
1783153055567193300,9.138193359375,0.007941014133393764,0.0036650835536420345,-0.004886778071522713
1783153055576904200,9.147904296875,0.004275931045413017,0.004275931045413017,-0.006108472589403391
1783153055586614800,9.15761474609375,0.006108472589403391,0.0024433890357613564,-0.005497625097632408
1783153055596325400,9.167325439453125,0.005497625097632408,0.0036650835536420345,-0.004886778071522713
1783153055606036000,9.177035888671876,0.006719320081174374,0,-0.006108472589403391
1783153055615746800,9.186746826171875,0.0036650835536420345,0.0012216945178806782,-0.007330167107284069
1783153055625457400,9.19645751953125,0.0036650835536420345,0.0012216945178806782,-0.005497625097632408
1783153055635168000,9.20616796875,0.004275931045413017,0.0024433890357613564,-0.004886778071522713
1783153055644878600,9.215878662109375,0.004886778071522713,0.0024433890357613564,-0.005497625097632408
1783153055654589200,9.225589111328125,0.004275931045413017,0.0024433890357613564,-0.006719320081174374
1783153055664300000,9.235300048828124,0.004886778071522713,0.0036650835536420345,-0.005497625097632408
1783153055674010600,9.2450107421875,0.004886778071522713,0.0012216945178806782,-0.006719320081174374
1783153055683721200,9.25472119140625,0.004886778071522713,0.004886778071522713,-0.008551862090826035
1783153055693431800,9.264431884765624,0.0030542362947016954,0.004275931045413017,-0.005497625097632408
1783153055703142400,9.274142333984376,0.0030542362947016954,0.0030542362947016954,-0.005497625097632408
1783153055712853200,9.283853271484375,0.0036650835536420345,0.0018325417768210173,-0.006108472589403391
1783153055722563800,9.293563720703125,0.0030542362947016954,0.0018325417768210173,-0.0030542362947016954
1783153055732274400,9.3032744140625,0.0036650835536420345,0.0030542362947016954,-0.006719320081174374
1783153055741985000,9.312985107421875,0.0036650835536420345,0.0012216945178806782,-0.005497625097632408
1783153055751696000,9.32269580078125,0.004275931045413017,0.0036650835536420345,-0.006108472589403391
1783153055761406500,9.332406494140624,0.004886778071522713,0.004275931045413017,-0.004886778071522713
1783153055771117000,9.342116943359375,0.0030542362947016954,0.0012216945178806782,-0.007941014133393764
1783153055780827600,9.35182763671875,0.0036650835536420345,0.0036650835536420345,-0.006719320081174374
1783153055790538200,9.361538330078124,0.005497625097632408,0.0018325417768210173,-0.004886778071522713
1783153055800249000,9.3712490234375,0.004275931045413017,0.0036650835536420345,-0.006719320081174374
1783153055809959700,9.380959716796875,0.004886778071522713,0.0018325417768210173,-0.006108472589403391
1783153055819670300,9.390670166015624,0.005497625097632408,0.0024433890357613564,-0.004275931045413017
1783153055829380900,9.400380859375,0.004886778071522713,0.0012216945178806782,-0.004886778071522713
1783153055839091700,9.410091796875,0.006108472589403391,0.0024433890357613564,-0.005497625097632408
1783153055848802300,9.41980224609375,0.004275931045413017,0.004886778071522713,-0.006108472589403391
1783153055858513000,9.429512939453126,0.0024433890357613564,0.0030542362947016954,-0.005497625097632408
1783153055868223500,9.439223388671875,0.007330167107284069,0.004275931045413017,-0.007941014133393764
1783153055877934000,9.44893408203125,0.004886778071522713,0.004275931045413017,-0.007941014133393764
1783153055887645000,9.45864501953125,0.006719320081174374,0.005497625097632408,-0.00916270911693573
1783153055897355500,9.46835546875,0.0036650835536420345,0.004886778071522713,-0.005497625097632408
1783153055907066000,9.478066162109375,0.0036650835536420345,0.0024433890357613564,-0.004886778071522713
1783153055916776700,9.487776611328124,0.004886778071522713,0.0012216945178806782,-0.004886778071522713
1783153055926487300,9.4974873046875,0.004886778071522713,0.0018325417768210173,-0.0036650835536420345
1783153055936198100,9.5071982421875,0.004886778071522713,0.004275931045413017,-0.004886778071522713
1783153055945908700,9.51690869140625,0.004886778071522713,0.0030542362947016954,-0.007330167107284069
1783153055955619300,9.526619384765626,0.005497625097632408,0.0012216945178806782,-0.004886778071522713
1783153055965330000,9.536329833984375,0.0036650835536420345,0.004275931045413017,-0.005497625097632408
1783153055975040800,9.546040771484375,0.006108472589403391,0.0012216945178806782,-0.007330167107284069
1783153055984751400,9.55575146484375,0.005497625097632408,0.0012216945178806782,-0.008551862090826035
1783153055994462000,9.5654619140625,0.0036650835536420345,0.0018325417768210173,-0.007330167107284069
1783153056004172500,9.575172607421875,0.004886778071522713,0.0018325417768210173,-0.007941014133393764
1783153056013883100,9.584883056640624,0.004275931045413017,0.0012216945178806782,-0.006719320081174374
1783153056023594000,9.594593994140626,0.006108472589403391,0.004886778071522713,-0.005497625097632408
1783153056033304600,9.6043046875,0.0036650835536420345,0.0024433890357613564,-0.007330167107284069
1783153056043015200,9.61401513671875,0.0030542362947016954,0.0024433890357613564,-0.004886778071522713
1783153056052725800,9.623725830078126,0.0036650835536420345,0.0018325417768210173,-0.006719320081174374
1783153056062436600,9.6334365234375,0.0036650835536420345,0.0024433890357613564,-0.005497625097632408
1783153056072147200,9.643147216796875,0.004886778071522713,0.0018325417768210173,-0.006719320081174374
1783153056081857800,9.65285791015625,0.0036650835536420345,0.0036650835536420345,-0.004275931045413017
1783153056091568400,9.662568359375,0.005497625097632408,0.0018325417768210173,-0.006108472589403391
1783153056101279000,9.672279052734375,0.0024433890357613564,-0.0012216945178806782,-0.004886778071522713
1783153056110989800,9.68198974609375,0.004886778071522713,0.0030542362947016954,-0.004886778071522713
1783153056120700400,9.691700439453125,0.004886778071522713,0.0024433890357613564,-0.005497625097632408
1783153056130411000,9.701410888671875,0.005497625097632408,0.0030542362947016954,-0.007330167107284069
1783153056140121600,9.71112158203125,0.004886778071522713,0.0024433890357613564,-0.007330167107284069
1783153056149832200,9.720832275390626,0.004886778071522713,0.0024433890357613564,-0.006108472589403391
1783153056159543000,9.73054296875,0.0036650835536420345,0.0006108472589403391,-0.004886778071522713
1783153056169253600,9.740253662109374,0.004886778071522713,0.0006108472589403391,-0.0030542362947016954
1783153056178964200,9.749964111328126,0.004886778071522713,0.004275931045413017,-0.006719320081174374
1783153056188674800,9.7596748046875,0.004886778071522713,0.0030542362947016954,-0.006719320081174374
1783153056198385700,9.7693857421875,0.0036650835536420345,0.0030542362947016954,-0.005497625097632408
1783153056208096300,9.77909619140625,0.005497625097632408,0.0006108472589403391,-0.006108472589403391
1783153056217806800,9.788806884765625,0.004886778071522713,-0.0006108472589403391,-0.006108472589403391
1783153056227517400,9.798517333984375,0.0030542362947016954,0.0036650835536420345,-0.005497625097632408
1783153056237228000,9.80822802734375,0.0030542362947016954,0.007941014133393764,-0.008551862090826035
1783153056246939000,9.81793896484375,0.0030542362947016954,0.004275931045413017,-0.00916270911693573
1783153056256649500,9.8276494140625,0.007330167107284069,0.0030542362947016954,-0.007941014133393764
1783153056266360000,9.837360107421874,0.004886778071522713,0.0018325417768210173,-0.006719320081174374
1783153056276070700,9.847070556640626,0.004886778071522713,0.004275931045413017,-0.005497625097632408
1783153056285781500,9.856781494140625,0.004275931045413017,0.0006108472589403391,-0.004275931045413017
1783153056295492000,9.8664921875,0.005497625097632408,0.0024433890357613564,-0.004886778071522713
1783153056305202700,9.87620263671875,0.004886778071522713,0.0006108472589403391,-0.0036650835536420345
1783153056314913300,9.885913330078125,0.0024433890357613564,0.0006108472589403391,-0.005497625097632408
1783153056324624000,9.895623779296875,0.004275931045413017,0.0024433890357613564,-0.005497625097632408
1783153056334334700,9.905334716796874,0.0036650835536420345,0.0030542362947016954,-0.005497625097632408
1783153056344045300,9.91504541015625,0.006719320081174374,-0.0006108472589403391,-0.006108472589403391
1783153056353756000,9.924755859375,0.0036650835536420345,0.0036650835536420345,-0.006719320081174374
1783153056363466500,9.934466552734374,0.004275931045413017,0.0018325417768210173,-0.004886778071522713
1783153056373177000,9.944177001953125,0.006719320081174374,0.0018325417768210173,-0.004886778071522713
1783153056382888000,9.953887939453125,0.0030542362947016954,0.0030542362947016954,-0.006719320081174374
1783153056392598500,9.9635986328125,0.006108472589403391,0.0024433890357613564,-0.004275931045413017
1783153056402309000,9.97330908203125,0.004886778071522713,0.004275931045413017,-0.007941014133393764
1783153056412019700,9.983019775390625,0.006719320081174374,0.004275931045413017,-0.012827792204916477
1783153056421730600,9.99273046875,0.004886778071522713,0.0018325417768210173,-0.00916270911693573
1783153056431441200,10.002441162109376,0.006719320081174374,0.0036650835536420345,-0.0036650835536420345
1783153056441151700,10.01215185546875,0.004886778071522713,0.0018325417768210173,-0.007941014133393764
1783153056450862300,10.0218623046875,0.004886778071522713,-0.0012216945178806782,-0.008551862090826035
1783153056460573000,10.031572998046874,0.004886778071522713,0.0036650835536420345,-0.004275931045413017
1783153056470283800,10.04128369140625,0.004275931045413017,0.006108472589403391,-0.006108472589403391
1783153056479994400,10.050994384765625,0.0036650835536420345,0.0024433890357613564,-0.006719320081174374
1783153056489705000,10.060705078125,0.0036650835536420345,0.004886778071522713,-0.005497625097632408
1783153056499415600,10.07041552734375,0.005497625097632408,0.0024433890357613564,-0.004275931045413017
1783153056509126400,10.08012646484375,0.004275931045413017,0.0012216945178806782,-0.010995250195264816
1783153056518837000,10.0898369140625,0.004886778071522713,0.0006108472589403391,-0.006108472589403391
1783153056528547600,10.099547607421876,0.004886778071522713,0.0030542362947016954,-0.006719320081174374
1783153056538258200,10.109258056640625,0.004275931045413017,0.0018325417768210173,-0.007330167107284069
1783153056547968800,10.11896875,0.006108472589403391,0.0018325417768210173,-0.005497625097632408
1783153056557679600,10.1286796875,0.004275931045413017,0.0036650835536420345,-0.005497625097632408
1783153056567390200,10.13839013671875,0.004886778071522713,0.0024433890357613564,-0.004886778071522713
1783153056577100800,10.148100830078125,0.004886778071522713,0.0030542362947016954,-0.006108472589403391
1783153056586811400,10.157811279296874,0.004275931045413017,0.0018325417768210173,-0.004886778071522713
1783153056596522000,10.16752197265625,0.0024433890357613564,0.0018325417768210173,-0.006719320081174374
1783153056606232800,10.17723291015625,0.004275931045413017,0.0030542362947016954,-0.004275931045413017
1783153056615943400,10.186943359375,0.005497625097632408,0.0006108472589403391,-0.006108472589403391
1783153056625654000,10.196654052734376,0.005497625097632408,0.0024433890357613564,-0.005497625097632408
1783153056635364600,10.206364501953125,0.006719320081174374,0.0030542362947016954,-0.0036650835536420345
1783153056645075500,10.216075439453125,0.0018325417768210173,0.0036650835536420345,-0.007941014133393764
1783153056654786000,10.2257861328125,0.004886778071522713,0.0036650835536420345,-0.006108472589403391
1783153056664496600,10.23549658203125,0.005497625097632408,0.0036650835536420345,-0.007330167107284069
1783153056674207200,10.245207275390625,0.0024433890357613564,0.0012216945178806782,-0.008551862090826035
1783153056683918000,10.25491796875,0.004886778071522713,0.0018325417768210173,-0.006108472589403391
1783153056693628700,10.264628662109375,0.0030542362947016954,0.0024433890357613564,-0.006108472589403391
1783153056703339300,10.27433935546875,0.0030542362947016954,0.0036650835536420345,-0.007941014133393764
1783153056713049900,10.2840498046875,0.004886778071522713,0.0030542362947016954,-0.006108472589403391
1783153056722760400,10.293760498046876,0.004886778071522713,0.0030542362947016954,-0.005497625097632408
1783153056732471300,10.30347119140625,0.006719320081174374,0.0030542362947016954,-0.006108472589403391
1783153056742182000,10.313181884765624,0.004275931045413017,0.0036650835536420345,-0.006719320081174374
1783153056751892500,10.322892578125,0.004275931045413017,0.0018325417768210173,-0.007941014133393764
1783153056761603000,10.33260302734375,0.006719320081174374,0.0018325417768210173,-0.006108472589403391
1783153056771314000,10.34231396484375,0.004275931045413017,0.0018325417768210173,-0.0036650835536420345
1783153056781024500,10.3520244140625,0.0030542362947016954,0.0018325417768210173,-0.006719320081174374
1783153056790735000,10.361735107421875,0.006719320081174374,0.0012216945178806782,-0.005497625097632408
1783153056800445700,10.37144580078125,0.004275931045413017,0.0036650835536420345,-0.006719320081174374
1783153056810156500,10.381156494140624,0.006108472589403391,0.0006108472589403391,-0.005497625097632408
1783153056819867100,10.3908671875,0.0036650835536420345,-0.0018325417768210173,-0.004275931045413017
1783153056829577700,10.40057763671875,0.004886778071522713,0.0018325417768210173,-0.004275931045413017
1783153056839288300,10.410288330078124,0.006108472589403391,0.0006108472589403391,-0.007330167107284069
1783153056848999000,10.4199990234375,0.0024433890357613564,-0.0006108472589403391,-0.007330167107284069
1783153056858709800,10.429709716796875,0.004275931045413017,0.0012216945178806782,-0.005497625097632408
1783153056868420400,10.43942041015625,0.004275931045413017,0.0036650835536420345,-0.010995250195264816
1783153056878131000,10.449130859375,0.004886778071522713,-0.0006108472589403391,-0.004275931045413017
1783153056887841500,10.458841552734375,0.005497625097632408,0.0006108472589403391,-0.005497625097632408
1783153056897552400,10.468552490234375,0.0036650835536420345,0.004886778071522713,-0.007330167107284069
1783153056907263000,10.478262939453124,0.0036650835536420345,0.0018325417768210173,-0.004886778071522713
1783153056916973600,10.4879736328125,0.005497625097632408,0.0036650835536420345,-0.007330167107284069
1783153056926684200,10.49768408203125,0.007330167107284069,0.0012216945178806782,-0.004886778071522713
1783153056936394800,10.507394775390624,0.0036650835536420345,0.0018325417768210173,-0.004886778071522713
1783153056946105600,10.517105712890626,0.004886778071522713,0.0012216945178806782,-0.006719320081174374
1783153056955816200,10.526816162109375,0.004275931045413017,0.0036650835536420345,-0.006108472589403391
1783153056965526800,10.53652685546875,0.004275931045413017,0.004886778071522713,-0.006108472589403391
1783153056975237400,10.5462373046875,0.005497625097632408,0.005497625097632408,-0.006719320081174374
1783153056984948200,10.5559482421875,0.0024433890357613564,0.0018325417768210173,-0.007330167107284069
1783153056994658800,10.565658935546875,0.005497625097632408,0.0030542362947016954,-0.007330167107284069
1783153057004369400,10.575369384765626,0.005497625097632408,0.0030542362947016954,-0.006719320081174374
1783153057014080000,10.585080078125,0.004275931045413017,0.0012216945178806782,-0.004275931045413017
1783153057023790600,10.59479052734375,0.0030542362947016954,0.0012216945178806782,-0.006108472589403391
1783153057033501400,10.60450146484375,0.004886778071522713,-0.0006108472589403391,-0.006108472589403391
1783153057043212000,10.6142119140625,0.0030542362947016954,0.004275931045413017,-0.006108472589403391
1783153057052922600,10.623922607421875,0.005497625097632408,0.0018325417768210173,-0.004275931045413017
1783153057062633200,10.63363330078125,0.0030542362947016954,0.0006108472589403391,-0.004275931045413017
1783153057072343800,10.64334375,0.004275931045413017,0.0030542362947016954,-0.006108472589403391
1783153057082054700,10.6530546875,0.005497625097632408,0.0024433890357613564,-0.006719320081174374
1783153057091765200,10.66276513671875,0.005497625097632408,0.0024433890357613564,-0.0036650835536420345
1783153057101475800,10.672475830078126,0.005497625097632408,0.0012216945178806782,-0.006108472589403391
1783153057111186400,10.6821865234375,0.006108472589403391,0,-0.007330167107284069
1783153057120897300,10.691897216796875,0.0036650835536420345,0.0030542362947016954,-0.007941014133393764
1783153057130607900,10.70160791015625,0.004886778071522713,0.0018325417768210173,-0.006719320081174374
1783153057140318500,10.711318359375,0.004886778071522713,0.0030542362947016954,-0.007330167107284069
1783153057150029000,10.721029052734375,0.005497625097632408,0.0030542362947016954,-0.005497625097632408
1783153057159739600,10.73073974609375,0.006108472589403391,0.0024433890357613564,-0.006719320081174374
1783153057169450500,10.740450439453125,0.004886778071522713,0.0036650835536420345,-0.004275931045413017
1783153057179161000,10.7501611328125,0.0036650835536420345,0.0024433890357613564,-0.007330167107284069
1783153057188871700,10.75987158203125,0.004886778071522713,0.0030542362947016954,-0.006719320081174374
1783153057198582300,10.769582275390626,0.004275931045413017,0.0030542362947016954,-0.006108472589403391
1783153057208293000,10.779293212890625,0.004275931045413017,0.0012216945178806782,-0.005497625097632408
1783153057218003700,10.789003662109375,0.005497625097632408,0.0006108472589403391,-0.006719320081174374
1783153057227714300,10.79871435546875,0.004886778071522713,0.004275931045413017,-0.008551862090826035
1783153057237425000,10.8084248046875,0.006108472589403391,0.0036650835536420345,-0.005497625097632408
1783153057247135500,10.818135498046875,0.005497625097632408,0.0030542362947016954,-0.006719320081174374
1783153057256846300,10.827846435546874,0.004275931045413017,0.0018325417768210173,-0.007330167107284069
1783153057266557000,10.837556884765625,0.004886778071522713,0.0024433890357613564,-0.007941014133393764
1783153057276267500,10.847267578125,0.004886778071522713,0.0012216945178806782,-0.007330167107284069
1783153057285978000,10.85697802734375,0.005497625097632408,0,-0.006719320081174374
1783153057295689000,10.86668896484375,0.005497625097632408,0.004275931045413017,-0.008551862090826035
1783153057305399600,10.876399658203125,0.004886778071522713,0.004275931045413017,-0.004886778071522713
1783153057315110100,10.886110107421874,0.004886778071522713,0.0036650835536420345,-0.0036650835536420345
1783153057324820700,10.89582080078125,0.0030542362947016954,0.0030542362947016954,-0.005497625097632408
1783153057334531600,10.905531494140625,0.0036650835536420345,0.0036650835536420345,-0.005497625097632408
1783153057344242200,10.9152421875,0.0036650835536420345,0.0012216945178806782,-0.007330167107284069
1783153057353952800,10.924952880859376,0.0030542362947016954,0.0018325417768210173,-0.006108472589403391
1783153057363663400,10.934663330078125,0.004275931045413017,0.0024433890357613564,-0.004886778071522713
1783153057373374200,10.944374267578125,0.0036650835536420345,0.006108472589403391,-0.007941014133393764
1783153057383084800,10.954084716796874,0.004886778071522713,0.0006108472589403391,-0.006719320081174374
1783153057392795400,10.96379541015625,0.0036650835536420345,0.0036650835536420345,-0.007941014133393764
1783153057402506000,10.973506103515625,0.004886778071522713,0.0024433890357613564,-0.006719320081174374
1783153057412216600,10.983216552734374,0.0024433890357613564,0.0030542362947016954,-0.006719320081174374
1783153057421927400,10.992927490234376,0.004886778071522713,0.0018325417768210173,-0.006719320081174374
1783153057431638000,11.002637939453125,0.005497625097632408,0.0012216945178806782,-0.006108472589403391
1783153057441348600,11.0123486328125,0.004275931045413017,0.004275931045413017,-0.007330167107284069
1783153057451059200,11.02205908203125,0.004886778071522713,0.004886778071522713,-0.005497625097632408
1783153057460770000,11.03177001953125,0.004275931045413017,0.005497625097632408,-0.006719320081174374
1783153057470480600,11.041480712890625,0.004275931045413017,0.0018325417768210173,-0.007941014133393764
1783153057480191200,11.051191162109374,0.005497625097632408,-0.0006108472589403391,-0.006108472589403391
1783153057489901800,11.06090185546875,0.006108472589403391,0.0030542362947016954,-0.005497625097632408
1783153057499612400,11.0706123046875,0.005497625097632408,0.0030542362947016954,-0.005497625097632408
1783153057509323300,11.0803232421875,0.006108472589403391,0.0030542362947016954,-0.0024433890357613564
1783153057519033900,11.090033935546876,0.004886778071522713,0.0012216945178806782,-0.004886778071522713
1783153057528744400,11.099744384765625,0.004886778071522713,-0.0006108472589403391,-0.004886778071522713
1783153057538455000,11.109455078125,0.004275931045413017,0.0036650835536420345,-0.006108472589403391
1783153057548165600,11.11916552734375,0.004275931045413017,0.0030542362947016954,-0.008551862090826035
1783153057557876500,11.12887646484375,0.004886778071522713,0.0024433890357613564,-0.005497625097632408
1783153057567587000,11.138587158203125,0.0036650835536420345,0.0012216945178806782,-0.005497625097632408
1783153057577297700,11.148297607421876,0.00916270911693573,0.0012216945178806782,-0.004275931045413017
1783153057587008300,11.15800830078125,0.004886778071522713,0.0012216945178806782,-0.006108472589403391
1783153057596719000,11.167718994140625,0.005497625097632408,0,-0.004275931045413017
1783153057606429700,11.1774296875,0.004886778071522713,0.0030542362947016954,-0.009773556143045425
1783153057616140300,11.187140380859375,0.0030542362947016954,0.0018325417768210173,-0.006719320081174374
1783153057625851000,11.196850830078125,0.005497625097632408,0.0012216945178806782,-0.006719320081174374
1783153057635561500,11.2065615234375,0.0036650835536420345,0,-0.007330167107284069
1783153057645272300,11.216272216796876,0.0036650835536420345,0.0006108472589403391,-0.008551862090826035
1783153057654983000,11.22598291015625,0.0036650835536420345,0.0012216945178806782,-0.004886778071522713
1783153057664693500,11.235693603515625,0.005497625097632408,0.004275931045413017,-0.006108472589403391
1783153057674404000,11.245404052734376,0.006108472589403391,0.0012216945178806782,-0.006108472589403391
1783153057684115000,11.255114990234375,0.005497625097632408,-0.0006108472589403391,-0.004275931045413017
1783153057693825500,11.264825439453125,0.0030542362947016954,0.0030542362947016954,-0.006108472589403391
1783153057703536000,11.2745361328125,0.004886778071522713,0.0018325417768210173,-0.0036650835536420345
1783153057713246700,11.284246826171875,0.004275931045413017,0.0012216945178806782,-0.006108472589403391
1783153057722957600,11.29395751953125,0.005497625097632408,0.0018325417768210173,-0.006108472589403391
1783153057732668200,11.303668212890624,0.007330167107284069,0.0018325417768210173,-0.004886778071522713
1783153057742378800,11.313378662109375,0.0036650835536420345,0.0018325417768210173,-0.005497625097632408
1783153057752089300,11.32308935546875,0.004886778071522713,0.0036650835536420345,-0.006108472589403391
1783153057761800200,11.33280029296875,0.005497625097632408,0.004275931045413017,-0.010995250195264816
1783153057771510800,11.3425107421875,0.006719320081174374,0.0018325417768210173,-0.004886778071522713
1783153057781221400,11.352221435546875,0.004886778071522713,0.0030542362947016954,-0.006108472589403391
1783153057790932000,11.361931884765625,0.0036650835536420345,0.0036650835536420345,-0.004886778071522713
1783153057800642600,11.371642578125,0.004886778071522713,0.004275931045413017,-0.005497625097632408
1783153057810353400,11.381353515625,0.004886778071522713,0.0024433890357613564,-0.007330167107284069
1783153057820064000,11.39106396484375,0.005497625097632408,0.0018325417768210173,-0.005497625097632408
1783153057829774600,11.400774658203124,0.006108472589403391,0.004886778071522713,-0.007330167107284069
1783153057839485200,11.410485107421875,0.006108472589403391,0.0012216945178806782,-0.0036650835536420345
1783153057849196000,11.420196044921875,0.0036650835536420345,0.0030542362947016954,-0.006719320081174374
1783153057858906600,11.42990673828125,0.004886778071522713,0.0006108472589403391,-0.004886778071522713
1783153057868617200,11.4396171875,0.006108472589403391,-0.0018325417768210173,-0.0030542362947016954
1783153057878327800,11.449327880859375,0.004886778071522713,0.0030542362947016954,-0.006108472589403391
1783153057888038400,11.459038330078124,0.004886778071522713,0.0030542362947016954,-0.006108472589403391
1783153057897749200,11.468749267578126,0.004275931045413017,0.0030542362947016954,-0.005497625097632408
1783153057907459800,11.4784599609375,0.004886778071522713,0.0024433890357613564,-0.004886778071522713
1783153057917170400,11.48817041015625,0.006108472589403391,0.004275931045413017,-0.006108472589403391
1783153057926881000,11.497881103515626,0.004275931045413017,0.0030542362947016954,-0.0036650835536420345
1783153057936592000,11.507591796875,0.0036650835536420345,0.0036650835536420345,-0.009773556143045425
1783153057946302500,11.517302490234375,0.004275931045413017,-0.0012216945178806782,-0.006719320081174374
1783153057956013000,11.527012939453124,0.004275931045413017,0,-0.004275931045413017
1783153057965723600,11.5367236328125,0.004275931045413017,0.0012216945178806782,-0.005497625097632408
1783153057975434200,11.546434326171875,0.005497625097632408,0.0024433890357613564,-0.007941014133393764
1783153057985145000,11.55614501953125,0.0036650835536420345,0.0036650835536420345,-0.006108472589403391
1783153057994855700,11.565855712890626,0.0036650835536420345,-0.0006108472589403391,-0.006108472589403391
1783153058004566300,11.575566162109375,0.006719320081174374,0.0012216945178806782,-0.006108472589403391
1783153058014276900,11.58527685546875,0.006108472589403391,0.0030542362947016954,-0.007941014133393764
1783153058023987500,11.594987548828126,0.0036650835536420345,0.004275931045413017,-0.006719320081174374
1783153058033698300,11.6046982421875,0.004886778071522713,0.0024433890357613564,-0.004886778071522713
1783153058043409000,11.614408935546875,0.006108472589403391,0.0036650835536420345,-0.006108472589403391
1783153058053119500,11.624119384765624,0.004275931045413017,0.005497625097632408,-0.004886778071522713
1783153058062830000,11.633830078125,0.0036650835536420345,0.0012216945178806782,-0.0036650835536420345
