time,seconds_elapsed,z,y,x
1783153866768780000,0.176780029296875,4.675575256347656,8.216653823852539,-0.8353942036628723
1783153866778491000,0.186490966796875,4.7835516929626465,8.185546875,-0.6678966283798218
1783153866788201500,0.196201416015625,4.7473602294921875,8.20947551727295,-0.5721837282180786
1783153866797912300,0.205912353515625,4.795515537261963,8.259724617004395,-0.521934449672699
1783153866807623000,0.215622802734375,4.900799751281738,8.271688461303711,-0.4405784606933594
1783153866817333800,0.225333740234375,4.91037130355835,8.293224334716797,-0.3041875660419464
1783153866827044400,0.23504443359375,4.864907741546631,8.329116821289062,-0.13160525262355804
1783153866836755200,0.244755126953125,4.857728958129883,8.39611530303955,0.009571290574967861
1783153866846465800,0.2544658203125,4.958227634429932,8.357830047607422,0.12921242415905
1783153866856176600,0.2641767578125,5.085047245025635,8.20947551727295,0.009571290574967861
1783153866865887200,0.27388720703125,5.274080276489258,8.060821533203125,-0.3113660514354706
1783153866875597800,0.283597900390625,5.4658050537109375,7.8454670906066895,-0.5817549824714661
1783153866885308700,0.29330859375,5.669195175170898,7.6636128425598145,-0.7492526173591614
1783153866895019500,0.30301953125,5.7792649269104,7.560422420501709,-0.7899305820465088
1783153866904730000,0.312730224609375,5.807978630065918,7.5101728439331055,-0.8138588070869446
1783153866914440700,0.322440673828125,5.726622581481934,7.546065330505371,-0.6678966283798218
1783153866924151600,0.332151611328125,5.571089267730713,7.599006652832031,-0.4573282301425934
1783153866933862100,0.341862060546875,5.338985443115234,7.618149280548096,-0.2632105052471161
1783153866943573000,0.351572998046875,5.204688549041748,7.697112083435059,-0.19621145725250244
1783153866953283600,0.36128369140625,5.168796062469482,7.682755470275879,-0.14356936514377594
1783153866962994400,0.370994384765625,5.068297386169434,7.639684677124023,-0.15314064919948578
1783153866972705000,0.380705078125,4.7835516929626465,7.58943510055542,-0.29700911045074463
1783153866982416000,0.390415771484375,4.560719966888428,7.538887023925781,-0.45972105860710144
1783153866992126500,0.40012646484375,4.5822553634643555,7.502994537353516,-0.612861692905426
1783153867001837300,0.40983740234375,4.759324073791504,7.476673603057861,-0.6176473498344421
1783153867011548000,0.4195478515625,4.8553361892700195,7.462316513061523,-0.39032918214797974
1783153867021258800,0.4292587890625,5.041976451873779,7.507780075073242,-0.24885354936122894
1783153867030969300,0.43896923828125,5.19033145904541,7.505387306213379,-0.10049854964017868
1783153867040680200,0.44868017578125,5.309972763061523,7.5341010093688965,0.04307080805301666
1783153867050390800,0.458390869140625,5.370092391967773,7.483851909637451,0.20817556977272034
1783153867060101600,0.4681015625,4.728217601776123,6.4594244956970215,1.0199406147003174
1783153867069812200,0.477812255859375,5.554339408874512,7.46710205078125,-0.004785645287483931
1783153867079523000,0.487523193359375,6.035595893859863,7.912466049194336,-0.7085745930671692
1783153867089233700,0.497233642578125,5.978168487548828,7.445566654205322,-0.4381856322288513
1783153867098944500,0.506944580078125,6.08823823928833,7.019644260406494,-0.09092725813388824
1783153867108655000,0.516655029296875,6.325127601623535,6.86381196975708,-0.064606212079525
1783153867118365700,0.52636572265625,6.480959892272949,7.004988193511963,-0.07657032459974289
1783153867128076500,0.53607666015625,6.447161674499512,7.182356357574463,0.16749759018421173
1783153867137787400,0.545787353515625,6.291627883911133,7.306783199310303,0.5338985323905945
1783153867147498000,0.555498046875,6.114559173583984,7.392924785614014,0.97926265001297
1783153867157208600,0.56520849609375,6.016453266143799,7.340282440185547,1.043868899345398
1783153867166919400,0.57491943359375,6.198307991027832,7.548458099365234,0.9218349456787109
1783153867176630000,0.584630126953125,6.22702169418335,7.555636405944824,0.9218349456787109
1783153867186340900,0.5943408203125,6.2653069496154785,7.558029651641846,1.0079765319824219
1783153867196051500,0.604051513671875,6.3131632804870605,7.6875410079956055,1.036690354347229
1783153867205762300,0.61376220703125,6.571887493133545,7.65164852142334,1.0031908750534058
1783153867215473000,0.623472900390625,7.213462829589844,7.340282440185547,1.067797064781189
1783153867225183700,0.633183837890625,7.263712406158447,7.091429233551025,1.505982756614685
1783153867234894300,0.642894287109375,7.0531439781188965,6.181558132171631,1.8744773864746094
1783153867244605200,0.652605224609375,5.807978630065918,4.689932346343994,1.896012783050537
1783153867254315800,0.662315673828125,6.3131632804870605,6.6484575271606445,1.1012966632843018
1783153867264026600,0.672026611328125,7.017251491546631,7.989036560058594,0.32572299242019653
1783153867273737200,0.6817373046875,7.469494819641113,8.087141990661621,-0.643968403339386
1783153867283448000,0.691447998046875,7.519744396209717,7.677969455718994,-1.4533406496047974
1783153867293158700,0.70115869140625,8.19511890411377,7.261319637298584,-2.063809633255005
1783153867302869500,0.710869384765625,8.764909744262695,6.86381196975708,-2.008774518966675
1783153867312580000,0.720580078125,9.257830619812012,6.6245293617248535,-1.6854444742202759
1783153867322290700,0.730290771484375,9.688838005065918,6.365805625915527,-1.194616675376892
1783153867332001500,0.74000146484375,9.691230773925781,6.16480827331543,-0.9361918568611145
1783153867341712400,0.74971240234375,9.389735221862793,6.22702169418335,-0.8739784955978394
1783153867351423000,0.759423095703125,8.925228118896484,6.653243541717529,-1.2735798358917236
1783153867361133600,0.769133544921875,8.410472869873047,7.167999267578125,-1.8337994813919067
1783153867370844400,0.778844482421875,7.965108394622803,7.733004570007324,-2.506481647491455
1783153867380555000,0.788554931640625,7.596613883972168,7.670791149139404,-2.645564556121826
1783153867390265900,0.798265869140625,7.239784240722656,6.854240417480469,-2.1236300468444824
1783153867399976400,0.8079765625,7.292426109313965,6.049952983856201,-1.6734803915023804
1783153867409687300,0.817687255859375,7.7114691734313965,5.487340450286865,-1.812264084815979
1783153867419398000,0.82739794921875,8.39611530303955,4.994120121002197,-2.372483730316162
1783153867429108700,0.837108642578125,9.969097137451172,4.584648132324219,-2.9327032566070557
1783153867438819300,0.8468193359375,9.145368576049805,4.864907741546631,-2.441875457763672
1783153867448530200,0.8565302734375,8.563612937927246,5.226223945617676,-1.9800606966018677
1783153867458240800,0.86624072265625,7.948358535766602,5.642873764038086,-1.5251253843307495
1783153867467951600,0.87595166015625,7.704290866851807,5.7888360023498535,-1.2592228651046753
1783153867477662200,0.885662109375,7.682755470275879,5.688337802886963,-1.2783654928207397
1783153867487373000,0.895373046875,7.943572998046875,5.415555953979492,-1.529910922050476
1783153867497083600,0.905083740234375,8.487042427062988,5.1209397315979,-1.80508553981781
1783153867506794500,0.91479443359375,9.061619758605957,4.805087089538574,-1.9968105554580688
1783153867516505000,0.924505126953125,9.313164710998535,4.479363918304443,-2.1714866161346436
1783153867526215700,0.934215576171875,9.375378608703613,4.280759811401367,-2.3222343921661377
1783153867535926500,0.943926513671875,9.245866775512695,4.225724697113037,-2.341377019882202
1783153867545637400,0.953637451171875,9.183652877807617,4.3310089111328125,-2.334198474884033
1783153867555348000,0.963347900390625,9.090332984924316,4.42193603515625,-2.348555326461792
1783153867565058600,0.97305859375,8.877371788024902,4.524827480316162,-2.338984251022339
1783153867574769400,0.982769287109375,8.609076499938965,4.627718925476074,-2.2959132194519043
1783153867584480300,0.992480224609375,8.458329200744629,4.776372909545898,-2.1858434677124023
1783153867594190800,1.00219091796875,8.44157886505127,4.886443138122559,-2.001596212387085
1783153867603901400,1.0119013671875,8.463114738464355,4.934299468994141,-1.7835501432418823
1783153867613612300,1.0216123046875,8.56600570678711,4.9175496101379395,-1.683051586151123
1783153867623323000,1.031322998046875,8.745766639709473,4.797908306121826,-1.7021942138671875
1783153867633033700,1.04103369140625,8.846264839172363,4.673182487487793,-1.7596219778060913
1783153867642744300,1.050744384765625,8.965906143188477,4.615755081176758,-1.8290138244628906
1783153867652455200,1.060455078125,9.181260108947754,4.551148891448975,-1.80508553981781
1783153867662165800,1.070165771484375,9.272486686706543,4.508078098297119,-1.683051586151123
1783153867671876600,1.079876708984375,9.087940216064453,4.319045066833496,-1.6663018465042114
1783153867681587200,1.089587158203125,9.190832138061523,4.244867324829102,-1.7907286882400513
1783153867691298000,1.099298095703125,9.260522842407227,4.2831525802612305,-1.6567305326461792
1783153867701008600,1.109008544921875,9.083154678344727,4.1129631996154785,-1.501197099685669
1783153867710719500,1.118719482421875,8.757730484008789,4.014857292175293,-1.3070793151855469
1783153867720430000,1.12843017578125,8.522934913635254,4.065106391906738,-1.1156535148620605
1783153867730141000,1.138140869140625,8.362615585327148,4.165605068206787,-0.9170492887496948
1783153867739851500,1.1478515625,8.283653259277344,4.297509670257568,-0.7779664397239685
1783153867749562400,1.157562255859375,8.211868286132812,4.359723091125488,-0.701396107673645
1783153867759273000,1.16727294921875,8.063214302062988,4.426722049713135,-0.701396107673645
1783153867768983600,1.176983642578125,7.785646915435791,4.4721856117248535,-0.7612167000770569
1783153867778694400,1.1866943359375,7.4862446784973145,4.541577339172363,-0.8330013751983643
1783153867788405000,1.196405029296875,7.177570819854736,4.615755081176758,-0.890728235244751
1783153867798115800,1.20611572265625,7.000202655792236,4.756931304931641,-0.9505487680435181
1783153867807826400,1.215826416015625,6.928418159484863,4.864907741546631,-0.97926265001297
1783153867817537300,1.225537353515625,6.937989234924316,4.977370262145996,-0.9649057388305664
1783153867827247900,1.235247802734375,6.935596466064453,5.085047245025635,-0.9385846853256226
1783153867836958700,1.244958740234375,7.0025954246521,5.209474086761475,-0.9170492887496948
1783153867846669300,1.25466943359375,6.983452796936035,5.302793979644775,-0.9768698215484619
1783153867856380200,1.264380126953125,6.777669906616211,5.360520839691162,-1.1252248287200928
1783153867866090800,1.2740908203125,6.62931489944458,5.434698581695557,-1.342971682548523
1783153867875801600,1.283801513671875,6.68435001373291,5.4897332191467285,-1.6016956567764282
1783153867885512200,1.29351220703125,7.0097737312316895,5.511268615722656,-1.7261223793029785
1783153867895223000,1.30322314453125,7.385746002197266,5.494519233703613,-1.7548363208770752
1783153867904933600,1.31293359375,7.682755470275879,5.542375564575195,-1.623231053352356
1783153867914644500,1.32264453125,7.960322856903076,5.621338367462158,-1.446162223815918
1783153867924355000,1.33235498046875,8.233403205871582,5.626124382019043,-1.2352946996688843
1783153867934066000,1.34206591796875,8.52054214477539,5.62373161315918,-1.0223335027694702
1783153867943776500,1.351776611328125,8.764909744262695,5.626124382019043,-0.8018946647644043
1783153867953487000,1.361487060546875,8.944371223449707,5.616552829742432,-0.5865406394004822
1783153867963198000,1.371197998046875,9.008976936340332,5.5758748054504395,-0.4740779995918274
1783153867972908500,1.380908447265625,9.011369705200195,5.496912002563477,-0.5123631358146667
1783153867982619400,1.390619384765625,8.855836868286133,5.384449005126953,-0.8114659786224365
1783153867992330000,1.400330078125,8.580363273620605,5.319543838500977,-1.158724308013916
1783153868002040800,1.410040771484375,8.286046028137207,5.231009483337402,-1.5035899877548218
1783153868011751400,1.41975146484375,7.998608112335205,5.211866855621338,-1.6758731603622437
1783153868021462300,1.429462158203125,7.910073280334473,5.334199905395508,-1.7117655277252197
1783153868031172900,1.4391728515625,8.053643226623535,5.480162143707275,-1.6064813137054443
1783153868040883700,1.4488837890625,8.173583030700684,5.542375564575195,-1.4294124841690063
1783153868050594300,1.45859423828125,8.072785377502441,5.642873764038086,-1.347757339477539
1783153868060305200,1.46830517578125,7.929215908050537,5.736194133758545,-1.4485549926757812
1783153868070015700,1.478015625,7.7832536697387695,5.781657695770264,-1.5203397274017334
1783153868079726600,1.4877265625,7.754539966583252,5.72422981262207,-1.5466607809066772
1783153868089437200,1.497437255859375,7.862216949462891,5.72422981262207,-1.55623197555542
1783153868099148000,1.50714794921875,8.09671401977539,5.7649078369140625,-1.4940186738967896
1783153868108858600,1.516858642578125,8.362615585327148,5.824728488922119,-1.347757339477539
1783153868118569500,1.526569580078125,8.685647010803223,5.892026424407959,-1.2448660135269165
1783153868128280000,1.536280029296875,8.96829891204834,5.822335720062256,-1.2424731254577637
1783153868137991000,1.545990966796875,9.214759826660156,5.762515068054199,-1.3022937774658203
1783153868147701500,1.555701416015625,9.530911445617676,5.865406513214111,-1.3549357652664185
1783153868157412000,1.565412109375,9.770194053649902,6.057131290435791,-1.5035899877548218
1783153868167123000,1.575123046875,9.806086540222168,6.2653069496154785,-1.4820544719696045
1783153868176833800,1.584833740234375,9.609874725341797,6.315556049346924,-1.3956137895584106
1783153868186544400,1.59454443359375,9.38016414642334,6.308377742767334,-1.3716856241226196
1783153868196255000,1.6042548828125,9.140582084655762,6.148058891296387,-1.316650629043579
1783153868205965800,1.6139658203125,8.944371223449707,5.935097694396973,-1.1515458822250366
1783153868215676400,1.623676513671875,8.97787094116211,5.673980712890625,-0.9266205430030823
1783153868225387300,1.63338720703125,9.4088773727417,5.422734260559082,-0.6631109714508057
1783153868235097900,1.643097900390625,9.93559741973877,5.094618320465088,-0.2994019389152527
1783153868244808700,1.65280859375,10.443175315856934,4.7473602294921875,0.05503492057323456
1783153868254519300,1.662519287109375,10.861919403076172,4.467400074005127,0.3209373354911804
1783153868264230100,1.672230224609375,10.96032428741455,4.321437835693359,0.4262215197086334
1783153868273940700,1.681940673828125,10.885847091674805,4.2209391593933105,0.2994019389152527
1783153868283651600,1.691651611328125,10.46231746673584,4.024428367614746,0.03349951654672623
1783153868293362200,1.701362060546875,10.400104522705078,4.1129631996154785,-0.14117653667926788
1783153868303072800,1.71107275390625,10.050453186035156,4.146462440490723,-0.062213387340307236
1783153868312783600,1.72078369140625,9.734301567077637,4.055535316467285,-0.009571290574967861
1783153868322494500,1.730494384765625,9.344271659851074,4.036392688751221,0.014356935396790504
1783153868332205000,1.740205078125,8.855836868286133,4.050749778747559,0.12442677468061447
1783153868341915600,1.74991552734375,8.30997371673584,4.170390605926514,0.23210379481315613
1783153868351626500,1.75962646484375,8.01057243347168,4.268795490264893,0.3329014480113983
1783153868361337000,1.769337158203125,7.8693952560424805,4.357329845428467,0.4692923426628113
1783153868371048000,1.7790478515625,7.814360618591309,4.383651256561279,0.6559324860572815
1783153868380758500,1.788758544921875,7.756932735443115,4.467400074005127,0.9290133714675903
1783153868390469400,1.798469482421875,7.871788501739502,4.522434711456299,1.1850453615188599
1783153868400180000,1.808179931640625,8.027321815490723,4.536791801452637,1.410269856452942
1783153868409890800,1.817890869140625,8.219046592712402,4.527220249176025,1.5514464378356934
1783153868419601400,1.827601318359375,8.532505989074707,4.450650215148926,1.4964114427566528
1783153868429312300,1.837312255859375,8.793622970581055,4.271188259124756,1.378864049911499
1783153868439022800,1.84702294921875,8.874979019165039,4.033999919891357,1.072582721710205
1783153868448733700,1.856733642578125,8.848658561706543,3.78753924369812,0.6894320249557495
1783153868458444300,1.8664443359375,8.7505521774292,3.6125640869140625,0.275174617767334
1783153868468155100,1.876155029296875,8.633005142211914,3.459423303604126,-0.06699903309345245
1783153868477865700,1.88586572265625,8.482256889343262,3.334996461868286,-0.4405784606933594
1783153868487576600,1.89557666015625,8.305188179016113,3.253640651702881,-0.734895646572113
1783153868497287200,1.905287109375,8.154440879821777,3.1794631481170654,-0.9768698215484619
1783153868506998000,1.914998046875,7.797610759735107,3.037987470626831,-1.1467602252960205
1783153868516708600,1.92470849609375,7.855038642883301,2.966202735900879,-1.4988043308258057
1783153868526419200,1.934419189453125,7.615756034851074,3.07627272605896,-1.5586248636245728
1783153868536130000,1.944130126953125,7.249355316162109,3.256033420562744,-1.654337763786316
1783153868545840600,1.953840576171875,7.237390995025635,3.5407793521881104,-1.8337994813919067
1783153868555551500,1.963551513671875,7.146463871002197,4.050749778747559,-1.4533406496047974
1783153868565262000,1.973261962890625,7.112964630126953,4.40757942199707,-1.1084750890731812
1783153868574973000,1.982972900390625,7.514958381652832,4.7835516929626465,-1.0606186389923096
1783153868584683500,1.99268359375,7.709076404571533,5.231009483337402,-0.8955138921737671
1783153868594394400,2.002394287109375,7.840681552886963,5.458626747131348,-0.7947162389755249
1783153868604105000,2.01210498046875,7.945965766906738,5.539982795715332,-0.8787640929222107
1783153868613815800,2.02181591796875,7.919644832611084,5.7720866203308105,-0.8042874932289124
1783153868623526400,2.0315263671875,7.843074321746826,5.8749775886535645,-0.7755736112594604
1783153868633237200,2.0412373046875,7.929215908050537,5.896812438964844,-0.7827520966529846
1783153868642947800,2.05094775390625,7.929215908050537,5.863013744354248,-0.7731808423995972
1783153868652658700,2.06065869140625,7.843074321746826,5.829514026641846,-0.8090731501579285
1783153868662369300,2.070369384765625,7.761718273162842,5.755336761474609,-0.7995018362998962
1783153868672080100,2.080080078125,7.682755470275879,5.585446357727051,-0.8162516355514526
1783153868681790700,2.089790771484375,7.58943510055542,5.396413326263428,-0.7899305820465088
1783153868691501300,2.099501220703125,7.514958381652832,5.379663467407227,-0.6008976101875305
1783153868701212200,2.109212158203125,7.658827304840088,5.422734260559082,-0.48843491077423096
1783153868710923000,2.118923095703125,7.99382209777832,5.4658050537109375,-0.4621138870716095
1783153868720633600,2.128633544921875,8.623434066772461,5.484947681427002,-0.5386841893196106
1783153868730344200,2.13834423828125,9.198010444641113,5.334199905395508,-0.5626124143600464
1783153868740055000,2.148054931640625,9.451948165893555,5.175974369049072,-0.5027918815612793
1783153868749765600,2.157765625,9.289237022399902,5.202295303344727,-0.3807578980922699
1783153868759476500,2.1674765625,8.944371223449707,5.427519798278809,-0.24167509377002716
1783153868769187000,2.17718701171875,8.621041297912598,5.697908878326416,-0.13160525262355804
1783153868778898000,2.18689794921875,8.391329765319824,5.927918910980225,-0.04307080805301666
1783153868788608500,2.1966083984375,8.463114738464355,6.085845470428467,0.02392822690308094
1783153868798319400,2.2063193359375,8.796015739440918,6.04038143157959,0.007178467698395252
1783153868808030000,2.216030029296875,9.142974853515625,5.879763603210449,0.009571290574967861
1783153868817740800,2.22574072265625,9.416056632995605,5.666802406311035,-0.038285162299871445
1783153868827451400,2.235451416015625,9.674481391906738,5.456233978271484,-0.24885354936122894
1783153868837162000,2.245161865234375,10.004989624023438,5.370092391967773,-0.7492526173591614
1783153868846872800,2.254872802734375,10.208379745483398,5.298008441925049,-1.2233306169509888
1783153868856583700,2.264583740234375,9.976275444030762,5.324329376220703,-1.3932210206985474
1783153868866294300,2.274294189453125,9.305986404418945,5.396413326263428,-1.3405789136886597
1783153868876004900,2.2840048828125,8.446364402770996,5.571089267730713,-1.2616157531738281
1783153868885715700,2.2937158203125,7.811967849731445,5.817550182342529,-1.3094722032546997
1783153868895426600,2.303426513671875,7.792825222015381,5.932704448699951,-1.3716856241226196
1783153868905137200,2.31313720703125,8.367402076721191,5.62373161315918,-1.3860424757003784
1783153868914847700,2.32284765625,9.068798065185547,5.12811803817749,-1.2831511497497559
1783153868924558600,2.33255859375,9.810872077941895,4.709074974060059,-1.1539387702941895
1783153868934269200,2.342269287109375,10.56520938873291,4.338187217712402,-1.012762188911438
1783153868943980000,2.35197998046875,10.912168502807617,3.895216226577759,-0.8162516355514526
1783153868953690600,2.361690673828125,10.857133865356445,3.4307093620300293,-0.8210372924804688
1783153868963401500,2.3714013671875,10.445568084716797,3.2344980239868164,-1.0007981061935425
1783153868973112000,2.381112060546875,9.696016311645508,3.2727832794189453,-1.2759727239608765
1783153868982823000,2.390822998046875,8.9850492477417,3.5168511867523193,-1.5466607809066772
1783153868992533500,2.400533447265625,8.568398475646973,3.691826343536377,-1.6878372430801392
1783153869002244400,2.410244384765625,8.20947551727295,3.715754508972168,-1.8553348779678345
1783153869011955000,2.419954833984375,8.127820014953613,3.7372899055480957,-2.0207388401031494
1783153869021665800,2.429665771484375,8.348258972167969,3.8234314918518066,-1.9800606966018677
1783153869031376400,2.43937646484375,8.515756607055664,4.010071754455566,-1.7189439535140991
1783153869041087200,2.449087158203125,8.688039779663086,4.218546390533447,-1.5346965789794922
1783153869050797800,2.4587978515625,8.877371788024902,4.374079704284668,-1.3525429964065552
1783153869060508400,2.46850830078125,8.937192916870117,4.3549370765686035,-1.158724308013916
1783153869070219300,2.47821923828125,8.86780071258545,4.208974838256836,-1.0031908750534058
1783153869079929900,2.487929931640625,8.764909744262695,4.038785457611084,-0.9290133714675903
1783153869089640700,2.497640625,8.470293045043945,3.9023945331573486,-1.0606186389923096
1783153869099351300,2.507351318359375,7.76889705657959,3.8162529468536377,-1.2113664150238037
1783153869109062100,2.517062255859375,6.8997039794921875,3.8712878227233887,-1.2951152324676514
1783153869118772700,2.526772705078125,6.339484691619873,3.9263229370117188,-1.4892330169677734
1783153869128483600,2.536483642578125,6.229414463043213,3.974179267883301,-1.5394822359085083
1783153869138194200,2.546194091796875,6.325127601623535,4.031607151031494,-1.501197099685669
1783153869147905000,2.555905029296875,6.538387775421143,4.230510234832764,-1.407876968383789
1783153869157615600,2.56561572265625,6.744170665740967,4.53200626373291,-1.2185449600219727
1783153869167326500,2.575326416015625,6.832705020904541,4.824229717254639,-0.9170492887496948
1783153869177037000,2.585037109375,6.847062110900879,5.123332500457764,-0.6008976101875305
1783153869186748000,2.594747802734375,6.990631580352783,5.401198863983154,-0.27756741642951965
1783153869196458500,2.60445849609375,7.306783199310303,5.587839126586914,-0.08374879509210587
1783153869206169300,2.61416943359375,7.658827304840088,5.6548380851745605,0.10049854964017868
1783153869215880000,2.6238798828125,7.953144073486328,5.650052547454834,0.21296121180057526
1783153869225590500,2.633590576171875,8.367402076721191,5.618945598602295,0.24167509377002716
1783153869235301400,2.64330126953125,8.745766639709473,5.511268615722656,0.27756741642951965
1783153869245012200,2.65301220703125,8.896514892578125,5.341378211975098,0.27756741642951965
1783153869254722800,2.662722900390625,9.128618240356445,5.290830135345459,0.22971096634864807
1783153869264433400,2.672433349609375,9.296415328979492,5.257330417633057,0.21296121180057526
1783153869274144300,2.682144287109375,9.162117958068848,5.338985443115234,0.3735794425010681
1783153869283854800,2.691854736328125,8.760123252868652,5.595017433166504,0.4142574071884155
1783153869293565700,2.701565673828125,8.341080665588379,5.843871116638184,0.3329014480113983
1783153869303276300,2.7112763671875,7.984251022338867,5.949454307556152,0.2994019389152527
1783153869312987100,2.720987060546875,7.895716667175293,5.968596935272217,0.3400799036026001
1783153869322697700,2.73069775390625,8.147261619567871,5.822335720062256,0.34725838899612427
1783153869332408600,2.74040869140625,8.353044509887695,5.585446357727051,0.2922234535217285
1783153869342119200,2.750119140625,8.3267240524292,5.511268615722656,0.2679961323738098
1783153869351830000,2.759830078125,8.199904441833496,5.358128070831299,0.11006984114646912
1783153869361540600,2.76954052734375,8.058428764343262,5.195116996765137,-0.07417750358581543
1783153869371251500,2.77925146484375,7.65164852142334,5.192724227905273,-0.05742774158716202
1783153869380962000,2.788962158203125,7.158428192138672,5.348556995391846,0.0933200865983963
1783153869390673000,2.7986728515625,6.890132904052734,5.626124382019043,0.4094717800617218
1783153869400383500,2.808383544921875,7.230212688446045,5.7792649269104,0.7277171611785889
1783153869410094000,2.818093994140625,7.811967849731445,5.681159019470215,1.0055837631225586
1783153869419805000,2.827804931640625,8.28843879699707,5.537590026855469,1.067797064781189
1783153869429515800,2.837515869140625,8.561220169067383,5.4418768882751465,0.9002995491027832
1783153869448937000,2.85693701171875,8.269295692443848,5.528018474578857,0.38793638348579407
1783153869458647800,2.866647705078125,7.730611801147461,5.752943992614746,0.24406790733337402
1783153869468358400,2.8763583984375,7.299604415893555,5.987739562988281,0.035892341285943985
1783153869478069200,2.8860693359375,7.136892795562744,6.143272876739502,-0.20099709928035736
1783153869487779800,2.89577978515625,6.9930243492126465,6.1073808670043945,-0.4980062246322632
1783153869497490700,2.90549072265625,6.725028038024902,6.016453266143799,-0.8186444640159607
1783153869507201300,2.915201171875,6.387341022491455,6.021239280700684,-1.1778669357299805
1783153869516912000,2.924912109375,6.341877460479736,5.9422760009765625,-1.537089467048645
1783153869526622700,2.934622802734375,6.49770975112915,5.791228771209717,-1.8026927709579468
1783153869536333600,2.94433349609375,6.6939215660095215,5.748157978057861,-1.8744773864746094
1783153869546044200,2.954044189453125,6.957131862640381,5.851049423217773,-1.7907286882400513
1783153869555755000,2.963755126953125,7.251748085021973,6.045167446136475,-1.651944875717163
1783153869565465600,2.973465576171875,7.443173885345459,6.222236156463623,-1.4437693357467651
1783153869575176400,2.983176513671875,7.615756034851074,6.334698677062988,-1.2448660135269165
1783153869584887000,2.992886962890625,7.694719314575195,6.394519329071045,-1.1276177167892456
1783153869594597600,3.00259765625,7.723433494567871,6.3514485359191895,-1.1012966632843018
1783153869604308500,3.01230859375,7.816753387451172,6.2892351150512695,-1.0630114078521729
1783153869614019000,3.02201904296875,7.785646915435791,6.109773635864258,-0.9649057388305664
1783153869623730000,3.03172998046875,7.950751304626465,6.138487339019775,-0.924227774143219
1783153869633440500,3.0414404296875,8.199904441833496,6.210271835327148,-0.7731808423995972
1783153869643151400,3.0511513671875,8.39611530303955,6.2413787841796875,-0.5817549824714661
1783153869652862000,3.060862060546875,8.628219604492188,6.449554443359375,-0.40707895159721375
1783153869662572800,3.07057275390625,8.934800148010254,6.631708145141602,-0.2153540402650833
1783153869672283400,3.080283447265625,9.147761344909668,6.631708145141602,-0.03349951654672623
1783153869681994200,3.089994140625,8.874979019165039,6.547959327697754,0.007178467698395252
1783153869691704800,3.099704833984375,8.384151458740234,6.442375659942627,-0.09571290761232376
1783153869701415700,3.109415771484375,8.211868286132812,6.104988098144531,-0.2799602448940277
1783153869711126300,3.119126220703125,8.594719886779785,5.836692810058594,-0.5769693851470947
1783153869720837000,3.128837158203125,8.997013092041016,5.927918910980225,-0.5650052428245544
1783153869730547700,3.138547607421875,9.040083885192871,6.1313090324401855,-0.009571290574967861
1783153869740258600,3.148258544921875,8.757730484008789,6.033203125,0.6678966283798218
1783153869749969200,3.15796923828125,8.393722534179688,5.516054630279541,1.1874382495880127
1783153869759679700,3.1676796875,8.211868286132812,5.046761989593506,1.7476578950881958
1783153869769390600,3.177390625,8.93240737915039,4.591826438903809,2.5112674236297607
1783153869779101200,3.18710107421875,10.438389778137207,4.120141506195068,3.2967114448547363
1783153869788812000,3.19681201171875,12.188440322875977,3.7827534675598145,3.8377883434295654
1783153869798522600,3.206522705078125,13.380663871765137,3.4642090797424316,4.079463481903076
1783153869808233500,3.2162333984375,13.658231735229492,3.3134610652923584,3.9000017642974854
1783153869817944000,3.225944091796875,13.232309341430664,3.624528169631958,2.9781668186187744
1783153869827655000,3.235655029296875,12.27697467803955,3.943072557449341,1.934298038482666
1783153869837365500,3.245365478515625,11.190034866333008,3.9957146644592285,1.311864972114563
1783153869847076400,3.255076416015625,10.186843872070312,4.038785457611084,0.8377870321273804
1783153869856787000,3.264786865234375,9.485447883605957,3.9382870197296143,0.4262215197086334
1783153869866497800,3.274497802734375,9.128618240356445,3.6822550296783447,0.19381862878799438
1783153869876208400,3.28420849609375,9.231510162353516,3.3541390895843506,0.1986042857170105
1783153869885919200,3.293919189453125,9.581160545349121,3.0643084049224854,0.35443684458732605
1783153869895629800,3.3036298828125,9.696016311645508,2.9303104877471924,0.5410770177841187
1783153869905340700,3.313340576171875,9.562018394470215,2.887239694595337,0.675075113773346
1783153869915051300,3.32305126953125,9.430413246154785,2.9231319427490234,0.7923234105110168
1783153869924762000,3.33276220703125,9.090332984924316,3.01405930519104,0.8500502705574036
1783153869934472700,3.34247265625,8.656932830810547,3.1076784133911133,0.8787640929222107
1783153869944183300,3.352183349609375,8.369794845581055,3.145963668823242,0.7923234105110168
1783153869953894100,3.36189404296875,8.190332412719727,3.16749906539917,0.6942176818847656
1783153869963604700,3.371604736328125,8.00100040435791,3.2344980239868164,0.5458626747131348
1783153869973315600,3.381315673828125,7.855038642883301,3.356531858444214,0.37836506962776184
1783153869983026200,3.391026123046875,7.682755470275879,3.476173162460327,0.3089732229709625
1783153869992737000,3.400737060546875,7.569993495941162,3.670290946960449,0.33768710494041443
1783153870002447600,3.410447509765625,7.65164852142334,3.921537160873413,0.4214358925819397
1783153870012158500,3.420158447265625,7.744968891143799,4.177569389343262,0.5362913608551025
1783153870021869000,3.429869140625,7.752147197723389,4.453042984008789,0.7612167000770569
1783153870031580000,3.439579833984375,7.71386194229126,4.7234320640563965,0.9481559991836548
1783153870041290500,3.44929052734375,7.733004570007324,4.936692237854004,1.0390832424163818
1783153870051001300,3.45900146484375,7.969893932342529,5.053940296173096,1.1084750890731812
1783153870060712000,3.4687119140625,8.250153541564941,5.094618320465088,1.189831018447876
1783153870070422800,3.4784228515625,8.472685813903809,5.061119079589844,1.1467602252960205
1783153870080133400,3.48813330078125,8.465507507324219,5.132903575897217,1.0295119285583496
1783153870089844000,3.497843994140625,8.391329765319824,5.228616714477539,0.9002995491027832
1783153870099554800,3.507554931640625,8.17836856842041,5.202295303344727,0.7372884750366211
1783153870109265400,3.517265380859375,7.898109436035156,5.147260665893555,0.5673980712890625
1783153870118976300,3.526976318359375,7.807182312011719,5.113760948181152,0.32572299242019653
1783153870128686800,3.536686767578125,7.788039684295654,5.094618320465088,0.21774685382843018
1783153870138397700,3.546397705078125,7.58943510055542,5.044369220733643,0.2799602448940277
1783153870148108300,3.5561083984375,7.325925827026367,5.044369220733643,0.2946162819862366
1783153870157819100,3.565819091796875,7.2182488441467285,4.955834865570068,0.2922234535217285
1783153870167529700,3.57552978515625,7.237390995025635,4.852943420410156,0.38315072655677795
1783153870177240600,3.585240478515625,7.299604415893555,4.668396949768066,0.5099703073501587
1783153870186951200,3.594951171875,7.685148239135742,4.591826438903809,0.5961119532585144
1783153870196662000,3.604662109375,8.475078582763672,4.565505504608154,0.7277171611785889
1783153870206372600,3.61437255859375,8.96829891204834,4.565505504608154,0.8739784955978394
1783153870216083500,3.62408349609375,9.037691116333008,4.673182487487793,0.9457631707191467
1783153870225794000,3.6337939453125,9.068798065185547,4.876871585845947,0.924227774143219
1783153870235504600,3.643504638671875,8.702695846557617,4.934299468994141,0.8979067206382751
1783153870245215500,3.653215576171875,8.180761337280273,4.893621444702148,0.6607181429862976
1783153870264637000,3.672636962890625,7.740182876586914,4.821836948394775,-0.10289137065410614
1783153870274347500,3.682347412109375,7.610970497131348,4.756931304931641,-0.49322056770324707
1783153870284058400,3.692058349609375,7.455138206481934,4.754538536071777,-0.7707880139350891
1783153870293769000,3.70176904296875,7.414460182189941,4.843372344970703,-0.8524430394172668
1783153870303479800,3.711479736328125,7.359425067901611,4.922335147857666,-0.8644071817398071
1783153870313190400,3.7211904296875,7.445566654205322,5.049154758453369,-0.7372884750366211
1783153870322901200,3.7309013671875,7.723433494567871,5.209474086761475,-0.5315057039260864
1783153870332611800,3.74061181640625,8.034500122070312,5.262115955352783,-0.33050861954689026
1783153870342322700,3.75032275390625,8.388936996459961,5.278865814208984,-0.1746760457754135
1783153870352033300,3.760033203125,8.66171932220459,5.233402252197266,-0.1052841991186142
1783153870361744100,3.769744140625,8.85344409942627,5.132903575897217,-0.1746760457754135
1783153870371454700,3.779454833984375,8.82951545715332,5.07308292388916,-0.4405784606933594
1783153870381165600,3.78916552734375,8.66171932220459,4.986941337585449,-0.8500502705574036
1783153870390876200,3.798876220703125,8.443971633911133,4.874478816986084,-1.1778669357299805
1783153870400587000,3.8085869140625,8.345866203308105,4.776372909545898,-1.3932210206985474
1783153870410297600,3.818297607421875,8.376973152160645,4.7473602294921875,-1.4222339391708374
1783153870420008200,3.82800830078125,8.381758689880371,4.924727916717529,-1.316650629043579
1783153870429719000,3.837718994140625,8.283653259277344,5.12811803817749,-1.1491531133651733
1783153870439429600,3.8474296875,8.20229721069336,5.2645087242126465,-1.079761266708374
1783153870449140500,3.857140380859375,8.027321815490723,5.420341491699219,-1.1156535148620605
1783153870458851000,3.86685107421875,7.778468132019043,5.573482036590576,-1.165902853012085
1783153870468562000,3.87656201171875,7.675576686859131,5.585446357727051,-1.323829174041748
1783153870478272500,3.8862724609375,7.6636128425598145,5.525625705718994,-1.4988043308258057
1783153870487983400,3.8959833984375,7.788039684295654,5.408377170562744,-1.6184453964233398
1783153870497694000,3.90569384765625,8.056035995483398,5.341378211975098,-1.7021942138671875
1783153870507404800,3.91540478515625,8.269295692443848,5.326722145080566,-1.7476578950881958
1783153870517115400,3.925115478515625,8.3267240524292,5.370092391967773,-1.7404793500900269
1783153870526826200,3.934826171875,8.214261054992676,5.530411243438721,-1.7644076347351074
1783153870536536800,3.944536865234375,7.950751304626465,5.673980712890625,-1.695015788078308
1783153870546247700,3.95424755859375,7.6875410079956055,5.721837043762207,-1.6016956567764282
1783153870555958300,3.963958251953125,7.584649562835693,5.719444274902344,-1.470090389251709
1783153870565668900,3.9736689453125,7.64447021484375,5.666802406311035,-1.3812568187713623
1783153870575379700,3.983379638671875,7.744968891143799,5.590231895446777,-1.3716856241226196
1783153870585090300,3.99309033203125,7.718647480010986,5.520840167999268,-1.5179468393325806
1783153870594801200,4.00280126953125,7.599006652832031,5.482554912567139,-1.7165511846542358
1783153870604511700,4.01251171875,7.333104133605957,5.487340450286865,-1.9414764642715454
1783153870614222600,4.02222265625,7.079464912414551,5.604588985443115,-2.087737798690796
1783153870623933200,4.03193310546875,6.825526714324951,5.827121257781982,-2.090130567550659
1783153870633644000,4.04164404296875,6.464210510253906,6.160022735595703,-1.9103697538375854
1783153870643354600,4.051354736328125,6.128916263580322,6.480959892272949,-1.6615161895751953
1783153870653065500,4.0610654296875,6.049952983856201,6.784848690032959,-1.505982756614685
1783153870662776000,4.070776123046875,6.116951942443848,6.87816858291626,-1.407876968383789
1783153870672487000,4.08048681640625,6.310770511627197,6.909275531768799,-1.4222339391708374
1783153870682197500,4.090197509765625,6.636493682861328,6.911668300628662,-1.5035899877548218
1783153870691908400,4.099908447265625,6.957131862640381,6.9690961837768555,-1.6758731603622437
1783153870701619000,4.109618896484375,7.290033340454102,7.115357398986816,-1.6710875034332275
1783153870711329500,4.11932958984375,7.574779033660889,7.268497943878174,-1.4533406496047974
1783153870721040400,4.129040283203125,7.771289825439453,7.471887588500977,-1.0869396924972534
1783153870730751000,4.1387509765625,8.120641708374023,7.675576686859131,-0.766002357006073
1783153870740461800,4.1484619140625,8.618648529052734,7.802396297454834,-0.42382872104644775
1783153870750172400,4.15817236328125,9.166903495788574,7.723433494567871,-0.2560320198535919
1783153870759883300,4.16788330078125,9.691230773925781,7.536494255065918,-0.30179476737976074
1783153870769593900,4.17759375,9.981060981750488,7.388139247894287,-0.4286143481731415
1783153870779304700,4.1873046875,10.27777099609375,7.40488862991333,-0.7779664397239685
1783153870789015300,4.197015380859375,10.359127044677734,7.65164852142334,-1.158724308013916
1783153870798726100,4.20672607421875,10.244272232055664,7.960322856903076,-1.3214362859725952
1783153870808436700,4.216436767578125,10.134202003479004,8.300402641296387,-1.2281162738800049
1783153870818147600,4.226147705078125,10.03131103515625,8.443971633911133,-0.7923234105110168
1783153870827858200,4.235858154296875,9.887741088867188,8.355437278747559,-0.15314064919948578
1783153870837569000,4.245569091796875,9.947562217712402,8.070392608642578,0.35922250151634216
1783153870847279600,4.255279541015625,10.715956687927246,7.5101728439331055,0.5841478109359741
1783153870856990500,4.264990478515625,11.704791069030762,6.770491600036621,0.7923234105110168
1783153870866701000,4.274701171875,12.477972030639648,5.973382472991943,1.0845468044281006
1783153870876411600,4.28441162109375,12.772587776184082,5.207081317901611,1.2664014101028442
1783153870886122500,4.29412255859375,12.568899154663086,4.625326156616211,1.1826525926589966
1783153870895833000,4.3038330078125,12.17647647857666,4.273581027984619,0.8811569213867188
1783153870905544000,4.3135439453125,11.55404281616211,4.098606109619141,0.579362154006958
1783153870915254500,4.323254638671875,10.694421768188477,4.053142547607422,0.3400799036026001
1783153870924965400,4.33296533203125,9.835099220275879,4.033999919891357,0.09571290761232376
1783153870934676000,4.342676025390625,8.863015174865723,3.897608995437622,-0.2584248483181
1783153870944386800,4.35238671875,7.756932735443115,3.835395574569702,-0.8452646136283875
1783153870954097400,4.362097412109375,6.7345991134643555,3.8712878227233887,-1.5179468393325806
1783153870963808300,4.371808349609375,5.784050464630127,4.002892971038818,-2.2121646404266357
1783153870973518800,4.381518798828125,5.0587263107299805,4.053142547607422,-2.9063823223114014
1783153870983229700,4.391229736328125,4.677968502044678,3.998107433319092,-3.490530014038086
1783153870992940300,4.400940185546875,4.618147850036621,3.9000017642974854,-3.8928234577178955
1783153871002651100,4.410651123046875,4.790729999542236,3.8784663677215576,-3.9813578128814697
1783153871012361700,4.42036181640625,5.144867897033691,4.022035598754883,-3.7444684505462646
1783153871022072300,4.430072265625,5.611767292022705,4.196712017059326,-3.2679975032806396
1783153871031783200,4.439783203125,6.109773635864258,4.328616142272949,-2.6407787799835205
1783153871041493800,4.44949365234375,6.6149582862854,4.443471431732178,-2.111665964126587
1783153871051204600,4.45920458984375,7.11775016784668,4.584648132324219,-1.7476578950881958
1783153871060915200,4.468915283203125,7.560422420501709,4.790729999542236,-1.6040884256362915
1783153871070626000,4.4786259765625,7.658827304840088,4.9414777755737305,-1.2951152324676514
1783153871080336600,4.488336669921875,7.613363265991211,4.953442096710205,-1.1515458822250366
1783153871090047500,4.498047607421875,7.574779033660889,4.8553361892700195,-1.1395817995071411
1783153871099758000,4.507758056640625,7.428816795349121,4.805087089538574,-1.3549357652664185
1783153871109469000,4.517468994140625,7.189534664154053,4.77876615524292,-1.7524434328079224
1783153871119179500,4.527179443359375,6.99541711807251,4.781158924102783,-2.1260228157043457
1783153871128890000,4.53689013671875,7.045965194702148,4.716253280639648,-2.3988046646118164
1783153871138601000,4.54660107421875,7.2661051750183105,4.72582483291626,-2.628814697265625
1783153871148311800,4.556311767578125,7.599006652832031,5.118546962738037,-2.5307090282440186
1783153871158022400,4.5660224609375,7.89332389831543,4.661218643188477,-2.3222343921661377
1783153871167733000,4.57573291015625,8.228617668151855,4.443471431732178,-1.714158296585083
1783153871177443800,4.58544384765625,8.463114738464355,4.819443702697754,-1.6375880241394043
1783153871187154400,4.595154541015625,8.499007225036621,5.3940205574035645,-1.5777673721313477
1783153871196865300,4.604865234375,8.30997371673584,5.475376605987549,-1.5035899877548218
1783153871206575900,4.614575927734375,7.965108394622803,5.25972318649292,-1.3094722032546997
1783153871216286700,4.62428662109375,7.649255752563477,5.2166523933410645,-1.2783654928207397
1783153871225997300,4.633997314453125,7.395317554473877,5.398806095123291,-1.4485549926757812
1783153871235708200,4.643708251953125,7.132106781005859,5.523232936859131,-1.5634105205535889
1783153871245418800,4.653418701171875,6.916453838348389,5.5591254234313965,-1.4629119634628296
1783153871255129600,4.663129638671875,6.784848690032959,5.578267574310303,-1.3405789136886597
1783153871264840200,4.672840087890625,6.705885410308838,5.590231895446777,-1.2783654928207397
1783153871274550800,4.68255078125,6.792026996612549,5.62373161315918,-1.2352946996688843
1783153871284261600,4.69226171875,6.966702938079834,5.628517150878906,-1.2305090427398682
1783153871293972500,4.701972412109375,7.182356357574463,5.597410202026367,-1.2305090427398682
1783153871303683000,4.71168310546875,7.256533622741699,5.539982795715332,-1.1850453615188599
1783153871313393700,4.7213935546875,7.246962547302246,5.523232936859131,-1.1252248287200928
1783153871323104500,4.7311044921875,7.206284523010254,5.482554912567139,-1.1754741668701172
1783153871332815000,4.740815185546875,7.1799635887146,5.456233978271484,-1.2137593030929565
1783153871342526000,4.75052587890625,7.093822002410889,5.492125988006592,-1.316650629043579
1783153871352236500,4.760236572265625,6.916453838348389,5.66201639175415,-1.4581263065338135
1783153871361947400,4.769947509765625,6.873383045196533,5.776872158050537,-1.4892330169677734
1783153871371658000,4.779657958984375,6.880561351776123,5.810371398925781,-1.4916257858276367
1783153871381368800,4.789368896484375,7.019644260406494,5.807978630065918,-1.4581263065338135
1783153871391079400,4.799079345703125,7.309175968170166,5.947061538696289,-1.3549357652664185
1783153871400790300,4.808790283203125,7.618149280548096,6.028417587280273,-1.2137593030929565
1783153871410500900,4.8185009765625,7.878966808319092,6.1313090324401855,-1.0534402132034302
1783153871420211700,4.828211669921875,8.079963684082031,6.179165363311768,-0.9840483069419861
1783153871429922300,4.83792236328125,8.17836856842041,6.1935224533081055,-1.0271191596984863
1783153871439633200,4.847633056640625,8.240582466125488,6.191129684448242,-1.1252248287200928
1783153871449343700,4.85734375,8.30997371673584,6.143272876739502,-1.2137593030929565
1783153871459054300,4.867054443359375,8.487042427062988,6.071488380432129,-1.2041879892349243
1783153871468765200,4.87676513671875,8.714659690856934,6.081059455871582,-1.158724308013916
1783153871478475800,4.886475830078125,8.925228118896484,6.277271270751953,-1.189831018447876
1783153871488186600,4.8961865234375,8.7505521774292,6.631708145141602,-1.2664014101028442
1783153871497897200,4.905897216796875,8.422436714172363,6.655636310577393,-1.3357932567596436
1783153871507608000,4.915608154296875,8.240582466125488,6.55992317199707,-1.374078392982483
1783153871517318700,4.925318603515625,8.127820014953613,6.571887493133545,-1.4003994464874268
1783153871527029500,4.935029541015625,7.991429328918457,6.638886451721191,-1.3668999671936035
1783153871536740000,4.944739990234375,8.029714584350586,6.567101955413818,-1.2783654928207397
1783153871546451000,4.954450927734375,8.168797492980957,6.16480827331543,-1.1443674564361572
1783153871556161500,4.96416162109375,8.424829483032227,5.638088226318359,-0.9385846853256226
1783153871565872400,4.973872314453125,8.752944946289062,5.175974369049072,-0.6726822853088379
1783153871575583000,4.9835830078125,8.973084449768066,4.852943420410156,-0.4286143481731415
1783153871585293800,4.9932939453125,9.040083885192871,4.572684288024902,-0.15074782073497772
1783153871595004400,5.00300439453125,8.93240737915039,4.225724697113037,0.040677983313798904
1783153871604715000,5.012715087890625,9.123832702636719,3.8162529468536377,0.07178468257188797
1783153871614425900,5.02242578125,9.710372924804688,3.476173162460327,0.11724831163883209
1783153871624136400,5.032136474609375,10.330413818359375,3.19860577583313,0.06699903309345245
1783153871633847300,5.041847412109375,10.773385047912598,3.1435706615448,0.08614161610603333
1783153871643558000,5.051557861328125,10.646565437316895,3.390031576156616,0.08135596662759781
1783153871653268700,5.061268798828125,9.990633010864258,3.739682674407959,0.09092725813388824
1783153871662979300,5.070979248046875,9.198010444641113,4.151247978210449,0.05742774158716202
1783153871672690200,5.080690185546875,8.362615585327148,4.572684288024902,0.06939185410737991
1783153871682400800,5.09040087890625,7.613363265991211,4.970191955566406,0.07178468257188797
1783153871692111600,5.100111572265625,7.103393077850342,5.278865814208984,0.038285162299871445
1783153871701822200,5.109822265625,6.9475603103637695,5.573482036590576,0.10289137065410614
1783153871711533000,5.119532958984375,7.086643218994141,5.7720866203308105,0.2946162819862366
1783153871721243600,5.12924365234375,7.380960464477539,5.889334678649902,0.579362154006958
1783153871730954500,5.13895458984375,7.826324462890625,5.951847076416016,0.9720842242240906
1783153871740665000,5.1486650390625,8.384151458740234,5.980561256408691,1.4365909099578857
1783153871750375700,5.158375732421875,8.925228118896484,5.884549140930176,1.843370795249939
1783153871760086500,5.16808642578125,9.257830619812012,5.709873199462891,2.1643080711364746
1783153871769797400,5.17779736328125,9.36341381072998,5.532804012298584,2.2983062267303467
1783153871779508000,5.187508056640625,9.274879455566406,5.343770980834961,2.2671995162963867
1783153871789218600,5.197218505859375,9.095118522644043,5.1783671379089355,2.0303099155426025
1783153871798929400,5.206929443359375,8.772088050842285,5.00369119644165,1.6184453964233398
1783153871808640000,5.216639892578125,8.436793327331543,4.850550651550293,1.1682956218719482
1783153871818350800,5.226350830078125,8.060821533203125,4.646861553192139,0.6559324860572815
1783153871828061400,5.2360615234375,7.613363265991211,4.3788652420043945,0.19381862878799438
1783153871837772300,5.245772216796875,7.069893836975098,4.1608195304870605,-0.17946170270442963
1783153871847483000,5.25548291015625,6.547959327697754,4.007678985595703,-0.5650052428245544
1783153871857193700,5.26519384765625,6.073881149291992,3.969393730163574,-0.8739784955978394
1783153871866904300,5.274904296875,5.760122299194336,3.974179267883301,-1.0151549577713013
1783153871876615200,5.284615234375,5.6309099197387695,3.9813578128814697,-1.0247262716293335
1783153871886325800,5.29432568359375,5.5136613845825195,3.9933218955993652,-0.9433703422546387
1783153871896036600,5.30403662109375,5.3318071365356445,3.9861433506011963,-0.9385846853256226
1783153871905747200,5.313747314453125,5.286044120788574,4.048357009887695,-0.9218349456787109
1783153871915458000,5.3234580078125,5.50648307800293,4.122534275054932,-0.797109067440033
1783153871925168600,5.333168701171875,5.666802406311035,4.144069671630859,-0.5362913608551025
1783153871934879200,5.342879150390625,5.618945598602295,4.108177185058594,-0.4142574071884155
1783153871944590000,5.352590087890625,5.743372440338135,4.144069671630859,-0.3448655605316162
1783153871954301000,5.362301025390625,6.112166404724121,4.163212299346924,-0.2584248483181
1783153871964011500,5.372011474609375,6.533602237701416,4.093820571899414,0.0023928226437419653
1783153871973722000,5.38172216796875,7.048357963562012,4.1057844161987305,0.30658039450645447
1783153871983433000,5.391432861328125,7.71386194229126,4.139284133911133,0.5721837282180786
1783153871993143600,5.4011435546875,8.415258407592773,4.189533233642578,0.768395185470581
1783153872002854400,5.4108544921875,9.267701148986816,4.093820571899414,0.9672985672950745
1783153872012565000,5.42056494140625,10.127023696899414,3.9382870197296143,1.1515458822250366
1783153872022275800,5.43027587890625,10.871490478515625,3.7660038471221924,1.3334003686904907
1783153872031986400,5.439986328125,11.45803165435791,3.7205400466918945,1.4820544719696045
1783153872041697300,5.449697265625,11.865110397338867,3.677469253540039,1.5945172309875488
1783153872051408000,5.459407958984375,11.87468147277832,3.6798620223999023,1.6710875034332275
1783153872061118700,5.46911865234375,11.700005531311035,3.8545382022857666,1.7356936931610107
1783153872070829300,5.478829345703125,11.55404281616211,4.1608195304870605,1.7787644863128662
1783153872080540200,5.4885400390625,11.331212043762207,4.402793884277344,1.8625133037567139
1783153872090250800,5.498250732421875,11.24746322631836,4.47697114944458,1.831406593322754
1783153872099961600,5.507961669921875,11.168499946594238,4.429114818572998,1.7021942138671875
1783153872109672200,5.517672119140625,11.046465873718262,4.323830604553223,1.529910922050476
1783153872119383000,5.527383056640625,10.890633583068848,4.1991047859191895,1.2855439186096191
1783153872129093600,5.53709375,10.857133865356445,4.067499160766602,1.0534402132034302
1783153872138804200,5.54680419921875,10.833205223083496,3.9311084747314453,0.8620143532752991
1783153872148515000,5.55651513671875,10.82841968536377,3.8210387229919434,0.6774678826332092
1783153872158225700,5.5662255859375,10.742278099060059,3.78753924369812,0.4501497745513916
1783153872167936500,5.5759365234375,10.6657075881958,4.057928085327148,0.13878370821475983
1783153872177647000,5.585647216796875,10.27777099609375,4.508078098297119,-0.3281157910823822
1783153872187358000,5.59535791015625,9.545269012451172,4.852943420410156,-0.7181459069252014
1783153872197068500,5.605068603515625,8.982656478881836,4.898406982421875,-0.9720842242240906
1783153872206779400,5.614779296875,9.078369140625,4.6995038986206055,-1.0319048166275024
1783153872216490000,5.624489990234375,10.062417030334473,4.350151538848877,-0.7899305820465088
1783153872226200800,5.634200927734375,11.388639450073242,3.9885363578796387,-0.3927220106124878
1783153872235911400,5.643911376953125,12.595220565795898,3.61017107963562,-0.0023928226437419653
1783153872245622300,5.653622314453125,13.39980697631836,3.0957143306732178,0.1746760457754135
1783153872255332900,5.663332763671875,13.538590431213379,2.5689942836761475,0.07417750358581543
1783153872265043700,5.673043701171875,13.0525484085083,2.2743778228759766,-0.368793785572052
1783153872274754300,5.68275439453125,11.903395652770996,2.310270309448242,-0.9672985672950745
1783153872284465200,5.692465087890625,10.47188949584961,2.4059832096099854,-1.4413765668869019
1783153872294175700,5.70217578125,9.004191398620605,2.621636390686035,-1.8840487003326416
1783153872303886600,5.711886474609375,7.756932735443115,2.913560628890991,-2.2791635990142822
1783153872313597200,5.72159716796875,7.007380962371826,3.2512478828430176,-2.588136672973633
1783153872323307800,5.731307861328125,6.780063152313232,3.490530014038086,-2.6264219284057617
1783153872333018600,5.7410185546875,7.089035987854004,3.562314748764038,-2.3461625576019287
1783153872342729500,5.7507294921875,7.859824180603027,3.4378879070281982,-1.9247267246246338
1783153872352440000,5.760440185546875,8.798408508300781,3.2679975032806396,-1.6351951360702515
1783153872362150700,5.770150634765625,9.62901782989502,3.0810582637786865,-1.4629119634628296
1783153872371861500,5.779861572265625,10.268199920654297,2.755634307861328,-1.323829174041748
1783153872381572000,5.789572021484375,10.737492561340332,2.4634108543395996,-1.2424731254577637
1783153872391283000,5.799282958984375,11.034502029418945,2.26959228515625,-1.197009563446045
1783153872400993500,5.80899365234375,11.187642097473145,2.14516544342041,-1.2424731254577637
1783153872410704400,5.818704345703125,11.170892715454102,2.087737798690796,-1.220937728881836
1783153872420415000,5.8284150390625,11.036894798278809,2.0207388401031494,-1.0773683786392212
1783153872430125800,5.838125732421875,10.804491996765137,1.9680966138839722,-0.9170492887496948
1783153872439836400,5.84783642578125,10.486246109008789,1.92951238155365,-0.6774678826332092
1783153872449547300,5.85754736328125,10.069596290588379,1.9462621212005615,-0.5171487927436829
1783153872459257900,5.8672578125,9.645767211914062,2.0063817501068115,-0.40707895159721375
1783153872468968700,5.87696875,9.337093353271484,2.0518453121185303,-0.33529427647590637
1783153872478679300,5.88667919921875,9.1716890335083,2.0709879398345947,-0.2826521694660187
1783153872488390100,5.89639013671875,9.011369705200195,2.0709879398345947,-0.26560330390930176
1783153872498100700,5.906100830078125,8.70508861541748,2.1403799057006836,-0.23210379481315613
1783153872507811600,5.9158115234375,8.264510154724121,2.3700907230377197,-0.1459621787071228
1783153872517522200,5.925522216796875,7.77607536315918,2.6407787799835205,-0.08135596662759781
1783153872527232800,5.935232666015625,7.3283185958862305,2.911167860031128,0.031106693670153618
1783153872536943600,5.944943603515625,6.966702938079834,3.1411778926849365,0.12442677468061447
1783153872546654500,5.954654541015625,6.660421848297119,3.3924243450164795,0.2225325107574463
1783153872556365000,5.964364990234375,6.550352096557617,3.6029927730560303,0.26560330390930176
1783153872566075600,5.97407568359375,6.674778938293457,3.7899320125579834,0.2946162819862366
1783153872575786500,5.983786376953125,7.007380962371826,3.873680830001831,0.2273181527853012
1783153872585497000,5.9934970703125,7.479066371917725,3.9239299297332764,0.15074782073497772
1783153872595208000,6.0032080078125,7.9316086769104,4.010071754455566,0.16031911969184875
1783153872604918500,6.01291845703125,8.283653259277344,4.189533233642578,0.2922234535217285
1783153872614629400,6.02262939453125,8.381758689880371,4.374079704284668,0.4381856322288513
1783153872624340000,6.032340087890625,8.312366485595703,4.500899314880371,0.4573282301425934
1783153872634050800,6.04205078125,8.283653259277344,4.644468784332275,0.4166502356529236
1783153872643761400,6.051761474609375,8.238189697265625,4.7931227684021,0.39032918214797974
1783153872653472300,6.06147216796875,8.134998321533203,4.915156841278076,0.4573282301425934
1783153872663182800,6.071182861328125,8.108677864074707,5.025226593017578,0.4956133961677551
1783153872672893700,6.080893798828125,8.17836856842041,5.056333541870117,0.5123631358146667
1783153872682604300,6.090604248046875,8.259724617004395,5.06590461730957,0.5315057039260864
1783153872692315100,6.100315185546875,8.362615585327148,5.039583683013916,0.4956133961677551
1783153872702025700,6.110025634765625,8.525327682495117,5.032404899597168,0.4286143481731415
1783153872711736600,6.119736572265625,8.63061237335205,5.1065826416015625,0.40707895159721375
1783153872721447200,6.129447265625,8.695218086242676,5.125725269317627,0.4788636267185211
1783153872731158000,6.139157958984375,8.764909744262695,5.164010524749756,0.6248258352279663
1783153872740868600,6.14886865234375,8.855836868286133,5.140082359313965,0.7277171611785889
1783153872750579500,6.158579345703125,8.884550094604492,5.192724227905273,0.9170492887496948
1783153872760290000,6.1682900390625,8.925228118896484,5.166403293609619,1.1012966632843018
1783153872770001000,6.1780009765625,8.94676399230957,5.087440013885498,1.2831511497497559
1783153872779711500,6.18771142578125,8.989834785461426,5.111368179321289,1.4222339391708374
1783153872789422300,6.19742236328125,9.109476089477539,5.32911491394043,1.3956137895584106
1783153872799133000,6.2071328125,9.008976936340332,5.597410202026367,1.3070793151855469
1783153872808843800,6.21684375,8.697610855102539,5.659623622894287,1.2640085220336914
1783153872818554400,6.226554443359375,8.312366485595703,5.6069817543029785,1.1754741668701172
1783153872828265000,6.236264892578125,8.154440879821777,5.566303730010986,1.0582258701324463
1783153872837975800,6.245975830078125,8.269295692443848,5.425127029418945,1.0271191596984863
1783153872847686400,6.255686279296875,8.86780071258545,5.101797103881836,1.2065808773040771
1783153872857397200,6.265397216796875,9.746265411376953,4.7234320640563965,1.592124342918396
1783153872867107800,6.27510791015625,10.826026916503906,4.357329845428467,2.1092731952667236
1783153872876818700,6.284818603515625,12.032608032226562,4.017250061035156,2.5689942836761475
1783153872886529300,6.294529296875,12.978370666503906,3.4881372451782227,2.9303104877471924
1783153872896240000,6.304240234375,13.442877769470215,3.0332016944885254,3.2201411724090576
1783153872905950700,6.31395068359375,13.155439376831055,2.6814568042755127,3.1148569583892822
1783153872915661600,6.32366162109375,12.324831008911133,2.6168506145477295,2.6623141765594482
1783153872925372200,6.3333720703125,11.0775728225708,2.7675983905792236,2.0853450298309326
1783153872935083000,6.3430830078125,9.796515464782715,2.8920252323150635,1.5873386859893799
1783153872944793600,6.352793701171875,8.846264839172363,2.95902419090271,1.3573286533355713
1783153872954504400,6.36250439453125,8.446364402770996,3.0738797187805176,1.3597214221954346
1783153872964215000,6.372215087890625,8.161619186401367,3.1387851238250732,1.5658032894134521
1783153872973926000,6.38192578125,7.733004570007324,3.277568817138672,1.8242281675338745
1783153872983636500,6.391636474609375,7.366603374481201,3.442673683166504,1.9558334350585938
1783153872993347300,6.401347412109375,7.031608581542969,3.631706476211548,2.0135602951049805
1783153873003058000,6.411057861328125,6.595815658569336,3.739682674407959,1.9680966138839722
1783153873012768800,6.420768798828125,6.009274959564209,3.7420754432678223,1.9390836954116821
1783153873022479400,6.430479248046875,5.652445316314697,3.7923247814178467,1.781157374382019
1783153873032190000,6.44018994140625,5.537590026855469,3.8449668884277344,1.4964114427566528
1783153873041900800,6.44990087890625,5.492125988006592,3.91914439201355,1.1802598237991333
1783153873051611600,6.459611572265625,5.657230854034424,3.9502511024475098,0.8859425783157349
1783153873061322200,6.469322265625,6.15045166015625,3.998107433319092,0.6535396575927734
1783153873071032800,6.47903271484375,6.698707103729248,3.9550366401672363,0.5769693851470947
1783153873080743700,6.48874365234375,7.1871418952941895,3.9000017642974854,0.5338985323905945
1783153873090454500,6.49845458984375,7.4862446784973145,3.9095730781555176,0.5530411601066589
1783153873100165000,6.5081650390625,7.668398380279541,3.974179267883301,0.5434698462486267
1783153873109875700,6.517875732421875,7.742575645446777,4.055535316467285,0.5506483316421509
1783153873119586600,6.527586669921875,7.730611801147461,4.182354927062988,0.5602195858955383
1783153873129297200,6.537297119140625,7.740182876586914,4.342973232269287,0.6008976101875305
1783153873139008000,6.547008056640625,7.847859859466553,4.431507587432861,0.5841478109359741
1783153873148718600,6.556718505859375,7.957930088043213,4.462614059448242,0.5075774788856506
1783153873158429400,6.566429443359375,8.039285659790039,4.450650215148926,0.35443684458732605
1783153873168140000,6.57614013671875,8.091927528381348,4.395615100860596,0.11964113265275955
1783153873177851000,6.585850830078125,8.113463401794434,4.398007869720459,-0.040677983313798904
1783153873187561500,6.5955615234375,8.197511672973633,4.386044025421143,-0.15314064919948578
1783153873197272300,6.605272216796875,8.324331283569336,4.395615100860596,-0.16510476171970367
1783153873206983000,6.61498291015625,8.355437278747559,4.42193603515625,-0.12681959569454193
1783153873216693800,6.62469384765625,8.439186096191406,4.53200626373291,-0.019142581149935722
1783153873226404400,6.634404296875,8.56600570678711,4.620540618896484,0.1698904037475586
1783153873236115200,6.644115234375,8.714659690856934,4.689932346343994,0.4334000051021576
1783153873245825800,6.65382568359375,8.86062240600586,4.756931304931641,0.6415755748748779
1783153873255536600,6.66353662109375,8.958727836608887,4.7234320640563965,0.7061817646026611
1783153873265247200,6.673247314453125,8.922835350036621,4.682754039764404,0.6272186636924744
1783153873274958000,6.6829580078125,8.834300994873047,4.649254322052002,0.4573282301425934
1783153873284668700,6.692668701171875,8.66171932220459,4.649254322052002,0.2994019389152527
1783153873294379500,6.702379638671875,8.5133638381958,4.66361141204834,0.17946170270442963
1783153873304090000,6.712090087890625,8.463114738464355,4.7835516929626465,0.11246266216039658
1783153873313801000,6.721801025390625,8.53729248046875,4.91037130355835,0.05503492057323456
1783153873323511600,6.731511474609375,8.72901725769043,4.9486565589904785,-0.02153540402650833
1783153873333222400,6.741222412109375,8.918049812316895,4.9965128898620605,-0.14117653667926788
1783153873342933000,6.75093310546875,9.035298347473145,5.075475692749023,-0.275174617767334
1783153873352643800,6.760643798828125,9.068798065185547,5.159224510192871,-0.4094717800617218
1783153873362354400,6.7703544921875,9.107083320617676,5.19033145904541,-0.5410770177841187
1783153873372065300,6.780065185546875,9.351449966430664,5.161617755889893,-0.6894320249557495
1783153873381776000,6.78977587890625,9.798908233642578,5.168796062469482,-0.7588238716125488
1783153873391486500,6.799486572265625,10.28734302520752,5.118546962738037,-0.7133602499961853
1783153873401197300,6.809197265625,10.529316902160645,5.1209397315979,-0.5769693851470947
1783153873410908200,6.818908203125,10.737492561340332,5.137689113616943,-0.46450668573379517
1783153873420618800,6.82861865234375,10.890633583068848,5.3748779296875,-0.4453641176223755
1783153873430329300,6.838329345703125,10.680065155029297,6.002096652984619,-0.5865406394004822
1783153873440040200,6.848040283203125,10.27059268951416,6.3514485359191895,-0.8210372924804688
1783153873449750800,6.857750732421875,9.686445236206055,6.258128643035889,-0.8353942036628723
1783153873459461600,6.867461669921875,8.93958568572998,5.999703884124756,-0.5697908997535706
1783153873469172200,6.877172119140625,8.958727836608887,5.6931233406066895,-0.2225325107574463
1783153873478883000,6.886883056640625,10.04566764831543,5.379663467407227,0.24885354936122894
1783153873488593700,6.89659375,11.77418327331543,5.020441055297852,0.8186444640159607
1783153873498304500,6.906304443359375,13.629517555236816,4.359723091125488,1.2544373273849487
1783153873508015000,6.91601513671875,15.046966552734375,3.466601848602295,1.4629119634628296
1783153873517726000,6.925725830078125,15.286248207092285,2.676671266555786,1.311864972114563
1783153873527436500,6.9354365234375,14.072488784790039,2.417947292327881,0.7588238716125488
1783153873537147400,6.9451474609375,11.929716110229492,2.7795627117156982,0.09092725813388824
1783153873546858000,6.95485791015625,9.696016311645508,3.2201411724090576,-0.5123631358146667
1783153873556568800,6.96456884765625,7.740182876586914,3.6053855419158936,-1.194616675376892
1783153873566279400,6.974279541015625,6.284449577331543,3.9789650440216064,-1.8146568536758423
1783153873575990300,6.983990234375,5.494519233703613,4.196712017059326,-2.2480568885803223
1783153873585700900,6.993700927734375,5.405984401702881,4.342973232269287,-2.628814697265625
1783153873595411700,7.00341162109375,5.807978630065918,4.326223373413086,-2.5953152179718018
1783153873605122300,7.013122314453125,6.473781585693359,4.144069671630859,-2.0709879398345947
1783153873614833200,7.022833251953125,7.368996620178223,3.9000017642974854,-1.3956137895584106
1783153873624543700,7.032543701171875,8.357830047607422,3.7205400466918945,-0.8955138921737671
1783153873634254600,7.042254638671875,9.322735786437988,3.6029927730560303,-0.4453641176223755
1783153873643965200,7.051965087890625,10.179665565490723,3.5024940967559814,-0.04307080805301666
1783153873653676000,7.061676025390625,10.756634712219238,3.404388427734375,0.2392822653055191
1783153873663386600,7.07138671875,11.00578784942627,3.325425386428833,0.3161516785621643
1783153873673097500,7.081097412109375,10.957931518554688,3.363710403442383,0.13639089465141296
1783153873682808000,7.09080810546875,10.567602157592773,3.3541390895843506,-0.15553347766399384
1783153873692519000,7.100518798828125,9.842277526855469,3.3134610652923584,-0.47168517112731934
1783153873702229500,7.1102294921875,9.126225471496582,3.2727832794189453,-0.6798607110977173
1783153873711940400,7.1199404296875,8.451150894165039,3.3134610652923584,-0.7372884750366211
1783153873721651000,7.12965087890625,7.814360618591309,3.4881372451782227,-0.7420741319656372
1783153873731361800,7.13936181640625,7.237390995025635,3.6726837158203125,-0.6918248534202576
1783153873741072400,7.149072265625,6.811169624328613,3.864109516143799,-0.5841478109359741
1783153873750783200,7.158783203125,6.727420806884766,4.007678985595703,-0.368793785572052
1783153873760493800,7.168493896484375,6.909275531768799,4.086641788482666,-0.19621145725250244
1783153873770204700,7.17820458984375,7.182356357574463,4.069892406463623,-0.02392822690308094
1783153873779915300,7.187915283203125,7.270890712738037,4.175176620483398,0.11485548317432404
1783153873789626000,7.197626220703125,7.325925827026367,4.364508628845215,0.22971096634864807
1783153873799336700,7.207336669921875,7.538887023925781,4.527220249176025,0.24885354936122894
1783153873809047600,7.217047607421875,7.7832536697387695,4.59421968460083,0.36640095710754395
1783153873818758100,7.226758056640625,7.917252063751221,4.6061835289001465,0.5003990530967712
1783153873828469000,7.236468994140625,8.012965202331543,4.685146808624268,0.6056832075119019
1783153873838179600,7.2461796875,8.166404724121094,4.788337230682373,0.6702894568443298
1783153873847890400,7.255890380859375,8.286046028137207,4.845765113830566,0.7564310431480408
1783153873857601000,7.26560107421875,8.242975234985352,4.864907741546631,0.8668000102043152
1783153873867311600,7.2753115234375,8.082356452941895,4.903192520141602,0.9098708033561707
1783153873877022500,7.2850224609375,7.850253105163574,4.888835906982422,0.8524430394172668
1783153873886733300,7.2947333984375,7.538887023925781,4.876871585845947,0.6798607110977173
1783153873896444000,7.30444384765625,7.189534664154053,4.876871585845947,0.5937191247940063
1783153873906154800,7.31415478515625,6.997809886932373,4.927121162414551,0.5075774788856506
1783153873915865300,7.323865234375,6.882954120635986,4.9893341064453125,0.45972105860710144
1783153873925576200,7.333576171875,6.81595516204834,5.051547527313232,0.4262215197086334
1783153873935286800,7.343286865234375,6.87099027633667,5.171188831329346,0.4740779995918274
1783153873944997600,7.35299755859375,6.849454879760742,5.269294738769531,0.5051847100257874
1783153873954708200,7.362708251953125,6.8518476486206055,5.343770980834961,0.48843491077423096
1783153873964418800,7.372418701171875,6.9690961837768555,5.372485160827637,0.4980062246322632
1783153873974129700,7.382129638671875,7.134500026702881,5.353342533111572,0.5291129350662231
1783153873983840500,7.391840576171875,7.297211647033691,5.379663467407227,0.5697908997535706
1783153873993551000,7.401551025390625,7.39771032333374,5.461019515991211,0.6248258352279663
1783153874003261700,7.41126171875,7.380960464477539,5.504090309143066,0.7205387353897095
1783153874012972500,7.42097265625,7.2421770095825195,5.530411243438721,0.7612167000770569
1783153874022683100,7.43068310546875,7.163213729858398,5.671587944030762,0.6990033388137817
1783153874032394000,7.44039404296875,7.223034381866455,5.90159797668457,0.4381856322288513
1783153874042104800,7.450104736328125,7.043572425842285,6.09541654586792,0.15074782073497772
1783153874051815400,7.4598154296875,6.713063716888428,6.08823823928833,-0.05503492057323456
1783153874061526000,7.469526123046875,6.476174354553223,6.057131290435791,-0.21296121180057526
1783153874071236900,7.47923681640625,6.411269187927246,6.1073808670043945,-0.40707895159721375
1783153874080947500,7.488947509765625,6.464210510253906,6.116951942443848,-0.4668995141983032
1783153874090658300,7.498658203125,6.792026996612549,5.978168487548828,-0.33050861954689026
1783153874100369000,7.508368896484375,7.6013994216918945,5.712265968322754,-0.12921242415905
1783153874110079700,7.518079833984375,8.432007789611816,5.516054630279541,0.08853443711996078
1783153874119790300,7.527790283203125,9.296415328979492,5.343770980834961,0.3209373354911804
1783153874129501200,7.537501220703125,10.179665565490723,5.164010524749756,0.5913262963294983
1783153874139211800,7.547211669921875,10.92173957824707,5.061119079589844,0.7444669604301453
1783153874148922600,7.556922607421875,11.438888549804688,4.943870544433594,0.7420741319656372
1783153874158633200,7.56663330078125,11.673684120178223,4.91037130355835,0.5961119532585144
1783153874168344000,7.576343994140625,11.405388832092285,4.982155799865723,0.47647079825401306
1783153874178054700,7.5860546875,10.708778381347656,5.013262748718262,0.24167509377002716
1783153874187765500,7.595765625,9.933204650878906,5.044369220733643,-0.1579262912273407
1783153874197476000,7.60547607421875,9.255437850952148,5.1305108070373535,-0.43579283356666565
1783153874207187000,7.61518701171875,8.764909744262695,5.290830135345459,-0.49322056770324707
1783153874216897500,7.6248974609375,8.546863555908203,5.415555953979492,-0.22971096634864807
1783153874226608400,7.6346083984375,8.515756607055664,5.36769962310791,0.17228323221206665
1783153874236319000,7.644319091796875,8.491828918457031,5.221437931060791,0.5673980712890625
1783153874246029800,7.65402978515625,8.489435195922852,5.1305108070373535,0.8787640929222107
1783153874255740400,7.663740478515625,8.525327682495117,5.006083965301514,1.0606186389923096
1783153874265451300,7.673451171875,8.563612937927246,4.8314080238342285,1.1252248287200928
1783153874275161900,7.683161865234375,8.52772045135498,4.646861553192139,1.0845468044281006
1783153874284872700,7.692872802734375,8.19272518157959,4.505684852600098,0.9696913957595825
1783153874294583300,7.702583251953125,7.723433494567871,4.486542224884033,0.7540382146835327
1783153874304294100,7.712294189453125,7.230212688446045,4.445864677429199,0.39990049600601196
1783153874314004700,7.722004638671875,6.80159854888916,4.405186653137207,0.08853443711996078
1783153874323715600,7.731715576171875,6.524031162261963,4.40757942199707,-0.2105683982372284
1783153874333426200,7.74142626953125,6.439982891082764,4.462614059448242,-0.4262215197086334
1783153874343137000,7.751136962890625,6.428019046783447,4.500899314880371,-0.5578267574310303
1783153874352847600,7.76084765625,6.361020088195801,4.54636287689209,-0.5626124143600464
1783153874362558500,7.770558349609375,6.303592205047607,4.673182487487793,-0.490827739238739
1783153874372269000,7.78026904296875,6.3825554847717285,4.730610370635986,-0.490827739238739
1783153874381980000,7.78997998046875,6.669992923736572,4.692325115203857,-0.48843491077423096
1783153874391690500,7.7996904296875,7.007380962371826,4.613361835479736,-0.5530411601066589
1783153874401401300,7.8094013671875,7.3043904304504395,4.622933387756348,-0.675075113773346
1783153874411112000,7.81911181640625,7.435995578765869,4.682754039764404,-0.8548358678817749
1783153874420822800,7.82882275390625,7.46710205078125,4.761716842651367,-1.134796142578125
1783153874430533400,7.838533447265625,7.445566654205322,4.900799751281738,-1.3597214221954346
1783153874440244200,7.848244140625,7.555636405944824,4.991727352142334,-1.5801602602005005
1783153874449954800,7.857954833984375,7.685148239135742,5.037190914154053,-1.745265007019043
1783153874459665700,7.867665771484375,7.689933776855469,5.085047245025635,-1.8601205348968506
1783153874469376300,7.877376220703125,7.673183917999268,5.116153717041016,-1.903191328048706
1783153874479087000,7.887087158203125,7.70668363571167,5.152046203613281,-1.9319051504135132
1783153874488797700,7.896797607421875,7.807182312011719,5.192724227905273,-1.8792630434036255
1783153874498508500,7.906508544921875,7.855038642883301,5.2645087242126465,-1.7620147466659546
1783153874508219100,7.91621923828125,7.902894973754883,5.36769962310791,-1.6016956567764282
1783153874517930000,7.925929931640625,8.072785377502441,5.453841209411621,-1.4892330169677734
1783153874527640600,7.935640625,8.455936431884766,5.456233978271484,-1.415055513381958
1783153874537351400,7.945351318359375,8.855836868286133,5.358128070831299,-1.350150227546692
1783153874547062000,7.95506201171875,9.1716890335083,5.185545921325684,-1.3525429964065552
1783153874556772900,7.96477294921875,9.337093353271484,5.0826544761657715,-1.4222339391708374
1783153874566483500,7.9744833984375,9.3490571975708,5.070690155029297,-1.5227324962615967
1783153874576194300,7.9841943359375,9.279664993286133,5.144867897033691,-1.6351951360702515
1783153874585905000,7.99390478515625,9.073583602905273,5.161617755889893,-1.8026927709579468
1783153874595615700,8.00361572265625,8.85344409942627,5.137689113616943,-1.9920248985290527
1783153874605326300,8.013326416015625,8.731410026550293,5.168796062469482,-2.1930220127105713
1783153874615037200,8.023037109375,8.803194046020508,5.1783671379089355,-2.3150558471679688
1783153874624747800,8.032747802734375,9.006584167480469,5.1209397315979,-2.262413740158081
1783153874634458600,8.042458740234375,9.538089752197266,5.152046203613281,-2.090130567550659
1783153874644169200,8.052169189453124,10.091131210327148,5.197509765625,-1.8098711967468262
1783153874653880000,8.061880126953126,10.459924697875977,5.202295303344727,-1.4676976203918457
1783153874663590700,8.071590576171875,10.615458488464355,5.161617755889893,-1.2783654928207397
1783153874673301500,8.081301513671875,10.67288589477539,5.125725269317627,-1.1443674564361572
1783153874683012000,8.09101220703125,10.699207305908203,5.142475128173828,-1.1012966632843018
1783153874692723000,8.100722900390625,10.644172668457031,5.348556995391846,-1.1850453615188599
1783153874702433500,8.11043359375,10.17727279663086,5.822335720062256,-1.5179468393325806
1783153874712144400,8.120144287109374,9.40169906616211,6.250949859619141,-1.9680966138839722
1783153874721855000,8.12985498046875,8.769695281982422,6.253343105316162,-2.33180570602417
1783153874731565800,8.13956591796875,8.336295127868652,6.011667728424072,-2.4466612339019775
1783153874741276400,8.1492763671875,8.19272518157959,5.824728488922119,-2.3222343921661377
1783153874750987300,8.1589873046875,8.68325424194336,5.757729530334473,-2.018345832824707
1783153874760697900,8.16869775390625,9.609874725341797,5.573482036590576,-1.561017632484436
1783153874770408700,8.17840869140625,10.67288589477539,5.276473045349121,-1.1802598237991333
1783153874780119300,8.188119384765624,11.606685638427734,4.735395908355713,-0.9864411354064941
1783153874789830100,8.197830078125,11.987144470214844,4.206283092498779,-0.9194421172142029
1783153874799540700,8.207540771484375,11.690434455871582,3.7731821537017822,-1.079761266708374
1783153874809251600,8.21725146484375,10.785348892211914,3.715754508972168,-1.4222339391708374
1783153874818962200,8.226962158203126,9.530911445617676,3.91914439201355,-1.9462621212005615
1783153874828673000,8.236673095703125,8.324331283569336,4.153641223907471,-2.3030917644500732
1783153874838383600,8.246383544921875,7.347461223602295,4.362115859985352,-2.6647071838378906
1783153874848094500,8.256094482421876,6.686742782592773,4.524827480316162,-3.004487991333008
1783153874857805000,8.26580517578125,6.365805625915527,4.618147850036621,-3.342175006866455
1783153874867516000,8.275515869140625,6.432804584503174,4.694717884063721,-3.6583266258239746
1783153874877226500,8.2852265625,6.727420806884766,4.6301116943359375,-3.715754508972168
1783153874886937300,8.294937255859375,7.167999267578125,4.409972190856934,-3.5647075176239014
1783153874896648000,8.30464794921875,7.833503246307373,4.295116424560547,-3.3589248657226562
1783153874906358800,8.31435888671875,8.503792762756348,4.182354927062988,-3.1746773719787598
1783153874916069400,8.3240693359375,9.030512809753418,3.9574296474456787,-3.08345103263855
1783153874925780200,8.3337802734375,9.439984321594238,3.6583266258239746,-2.973381280899048
1783153874935490800,8.34349072265625,9.755837440490723,3.404388427734375,-2.880061149597168
1783153874945201700,8.35320166015625,9.923633575439453,3.1890344619750977,-2.769991397857666
1783153874954912300,8.362912353515625,9.959526062011719,3.0933215618133545,-2.566601276397705
1783153874964623000,8.372623046875,9.961918830871582,2.8896324634552,-2.3676979541778564
1783153874974333700,8.382333740234374,10.165308952331543,2.676671266555786,-2.173879384994507
1783153874984044500,8.39204443359375,10.378270149230957,2.451446771621704,-1.9079769849777222
1783153874993755100,8.401755126953125,10.419246673583984,2.3198416233062744,-1.5442678928375244
1783153875003466000,8.411466064453125,10.491031646728516,2.214557409286499,-1.3334003686904907
1783153875013176600,8.421176513671876,10.392926216125488,2.0614166259765625,-1.201795220375061
1783153875022887400,8.430887451171875,10.15573787689209,2.018345832824707,-1.0342975854873657
1783153875032598000,8.440597900390625,9.859027862548828,2.080559253692627,-0.8210372924804688
1783153875042308900,8.450308837890624,9.516554832458496,2.245664119720459,-0.5650052428245544
1783153875052019500,8.46001953125,8.918049812316895,2.427518606185913,-0.38793638348579407
1783153875061730300,8.469730224609375,8.293224334716797,2.6240291595458984,-0.33529427647590637
1783153875071441000,8.47944091796875,7.72104024887085,2.8226335048675537,-0.3616153299808502
1783153875081151700,8.48915185546875,7.333104133605957,2.95902419090271,-0.48843491077423096
1783153875090862300,8.4988623046875,7.012166976928711,3.088535785675049,-0.490827739238739
1783153875100573200,8.5085732421875,6.760920524597168,3.270390272140503,-0.4788636267185211
1783153875110283800,8.51828369140625,6.507281303405762,3.4067811965942383,-0.490827739238739
1783153875119994600,8.52799462890625,6.224628925323486,3.5431721210479736,-0.5195416212081909
1783153875129705200,8.537705322265625,5.96381139755249,3.5718860626220703,-0.490827739238739
1783153875139416000,8.547416015625,6.035595893859863,3.677469253540039,-0.5147559642791748
1783153875149126700,8.557126708984375,6.727420806884766,3.9311084747314453,-0.4621138870716095
1783153875158837500,8.56683740234375,7.450352191925049,4.1129631996154785,-0.19621145725250244
1783153875168548000,8.576548095703124,7.680362701416016,4.184747695922852,0.15314064919948578
1783153875178259000,8.586259033203126,7.536494255065918,4.309473514556885,0.2874378263950348
1783153875187969500,8.595969482421875,7.388139247894287,4.589433670043945,0.22013968229293823
1783153875197680400,8.605680419921875,7.349853992462158,4.912764072418213,0.07896314561367035
1783153875207391000,8.615390869140626,7.294818878173828,5.06590461730957,0.019142581149935722
1783153875217101800,8.625101806640625,7.098607540130615,5.07308292388916,-0.059820566326379776
1783153875226812400,8.6348125,7.0770721435546875,5.061119079589844,-0.24646073579788208
1783153875236523300,8.644523193359374,7.491030216217041,5.1544389724731445,-0.36640095710754395
1783153875246233900,8.65423388671875,8.127820014953613,5.207081317901611,-0.3113660514354706
1783153875255944700,8.66394482421875,8.707481384277344,5.207081317901611,-0.08374879509210587
1783153875265655300,8.6736552734375,9.233902931213379,5.228616714477539,0.20817556977272034
1783153875275366100,8.6833662109375,9.6433744430542,5.274080276489258,0.47647079825401306
1783153875285076700,8.69307666015625,9.916455268859863,5.283651351928711,0.6655037999153137
1783153875294787600,8.70278759765625,9.985847473144531,5.266901969909668,0.7420741319656372
1783153875304498200,8.712498291015624,9.863813400268555,5.518447399139404,0.6415755748748779
1783153875314209000,8.722208984375,9.420842170715332,5.867799282073975,0.4860421121120453
1783153875323919600,8.731919677734375,8.973084449768066,5.992525100708008,0.42382872104644775
1783153875333630500,8.74163037109375,8.798408508300781,6.059524059295654,0.3520440459251404
1783153875343341000,8.751341064453126,8.772088050842285,6.114559173583984,0.36640095710754395
1783153875353052000,8.761052001953125,8.757730484008789,6.152844429016113,0.5027918815612793
1783153875362762500,8.770762451171874,8.855836868286133,6.028417587280273,0.6678966283798218
1783153875372473300,8.780473388671876,9.164510726928711,5.640480995178223,0.8476574420928955
1783153875382184000,8.790183837890625,9.51894760131836,5.053940296173096,0.9768698215484619
1783153875391894800,8.799894775390625,9.90688419342041,4.390829563140869,0.9960124492645264
1783153875401605400,8.80960546875,10.244272232055664,3.7109687328338623,0.9290133714675903
1783153875411316200,8.819316162109375,10.5723876953125,3.1076784133911133,0.7564310431480408
1783153875421026800,8.82902685546875,10.859526634216309,2.6575286388397217,0.4812564551830292
1783153875430737700,8.838737548828124,10.904990196228027,2.396411895751953,0.11246266216039658
1783153875440448300,8.8484482421875,10.5723876953125,2.334198474884033,-0.24885354936122894
1783153875450159000,8.8581591796875,10.110274314880371,2.444268226623535,-0.6224330067634583
1783153875459869700,8.86786962890625,9.897313117980957,2.5857439041137695,-0.8548358678817749
1783153875469580500,8.87758056640625,9.626625061035156,2.667099952697754,-0.890728235244751
1783153875479291100,8.887291015625,9.416056632995605,2.724527597427368,-0.8620143532752991
1783153875489002000,8.897001953125,9.432806015014648,2.8274190425872803,-0.8452646136283875
1783153875498712600,8.906712646484374,9.475876808166504,2.92073917388916,-0.8162516355514526
1783153875508423400,8.91642333984375,9.451948165893555,3.098107099533081,-0.6702894568443298
1783153875518134000,8.926134033203125,9.274879455566406,3.334996461868286,-0.35443684458732605
1783153875527844900,8.935844970703124,8.949156761169434,3.5431721210479736,0.0023928226437419653
1783153875537555500,8.945555419921876,8.733802795410156,3.708575963973999,0.23688943684101105
1783153875547266300,8.955266357421875,8.575576782226562,3.842574119567871,0.3400799036026001
1783153875556977000,8.964976806640625,8.408080101013184,3.976572036743164,0.3161516785621643
1783153875566687700,8.974687744140626,8.324331283569336,4.050749778747559,0.17228323221206665
1783153875576398300,8.9843984375,8.345866203308105,4.120141506195068,0.01196411345154047
1783153875586109200,8.994109130859375,8.360222816467285,4.060320854187012,-0.11246266216039658
1783153875595819800,9.00381982421875,8.479864120483398,4.014857292175293,-0.19381862878799438
1783153875605530600,9.013530517578126,8.793622970581055,3.9143588542938232,-0.3089732229709625
1783153875615241200,9.0232412109375,9.265308380126953,3.76361083984375,-0.275174617767334
1783153875624952000,9.0329521484375,9.700801849365234,3.545564889907837,-0.19621145725250244
1783153875634662700,9.04266259765625,9.835099220275879,3.2751760482788086,-0.27756741642951965
1783153875644373500,9.05237353515625,9.789336204528809,2.9949166774749756,-0.6008976101875305
1783153875654084000,9.062083984375,9.442377090454102,2.7173492908477783,-0.9840483069419861
1783153875663795000,9.071794921875,9.023334503173828,2.480160713195801,-1.3668999671936035
1783153875673505500,9.081505615234375,8.647361755371094,2.307877540588379,-1.7069798707962036
1783153875683216400,9.09121630859375,8.417651176452637,2.200200319290161,-1.9776679277420044
1783153875692927000,9.100927001953124,8.372187614440918,2.0853450298309326,-2.0542383193969727
1783153875702637800,9.110637939453126,8.408080101013184,2.0829520225524902,-1.970489501953125
1783153875712348400,9.120348388671875,8.451150894165039,2.1403799057006836,-1.7668004035949707
1783153875722059300,9.130059326171875,8.7505521774292,2.245664119720459,-1.4916257858276367
1783153875731769900,9.139769775390626,8.922835350036621,2.276770830154419,-1.1802598237991333
1783153875741480700,9.149480712890625,8.958727836608887,2.33180570602417,-0.9266205430030823
1783153875751191300,9.15919140625,8.903693199157715,2.4155545234680176,-0.7516453862190247
1783153875760902100,9.168902099609374,8.824729919433594,2.506481647491455,-0.6367899179458618
1783153875770612700,9.17861279296875,8.851051330566406,2.6479573249816895,-0.5578267574310303
1783153875780323600,9.188323486328125,9.032905578613281,2.707777976989746,-0.4046861231327057
1783153875790034200,9.1980341796875,9.07119083404541,2.7340989112854004,-0.2392822653055191
1783153875799745000,9.2077451171875,9.008976936340332,2.7723841667175293,-0.11246266216039658
1783153875809455600,9.21745556640625,8.97787094116211,2.8369903564453125,-0.08135596662759781
1783153875819166500,9.22716650390625,8.925228118896484,2.810669183731079,-0.12442677468061447
1783153875828877000,9.236876953125,8.898907661437988,2.722134828567505,-0.22971096634864807
1783153875838588000,9.246587890625,8.999405860900879,2.6168506145477295,-0.385543555021286
1783153875848298500,9.256298583984375,9.159725189208984,2.4705893993377686,-0.5291129350662231
1783153875858009300,9.26600927734375,9.135796546936035,2.3676979541778564,-0.6535396575927734
1783153875867720200,9.27572021484375,8.889336585998535,2.30069899559021,-0.8234301209449768
1783153875877430800,9.2854306640625,8.692825317382812,2.2959132194519043,-1.0223335027694702
1783153875887141400,9.295141357421874,8.623434066772461,2.3126630783081055,-1.1874382495880127
1783153875896852200,9.304852294921876,8.63779067993164,2.2959132194519043,-1.3405789136886597
1783153875906562800,9.314562744140625,8.692825317382812,2.200200319290161,-1.410269856452942
1783153875916273700,9.324273681640625,8.786444664001465,2.0997018814086914,-1.477268934249878
1783153875925984500,9.333984619140624,9.104690551757812,2.0518453121185303,-1.3980066776275635
1783153875935695000,9.343695068359375,9.75105094909668,1.903191328048706,-1.3022937774658203
1783153875945405700,9.35340576171875,10.524531364440918,1.7787644863128662,-1.2472587823867798
1783153875955116500,9.363116455078124,10.996216773986816,2.097309112548828,-1.3597214221954346
1783153875964827400,9.372827392578126,10.888240814208984,2.8609185218811035,-1.7524434328079224
1783153875974538000,9.3825380859375,10.191629409790039,3.169891834259033,-2.1954147815704346
1783153875984248800,9.392248779296875,9.169296264648438,2.755634307861328,-2.365305185317993
1783153875993959400,9.40195947265625,8.796015739440918,2.434697151184082,-2.231307029724121
1783153876003670300,9.411670166015625,10.033703804016113,2.1547367572784424,-1.994417667388916
1783153876013380900,9.421380859375,12.061321258544922,2.087737798690796,-1.6423736810684204
1783153876023091700,9.431091796875,13.739587783813477,1.9752750396728516,-0.9768698215484619
1783153876032802300,9.44080224609375,14.479568481445312,1.80508553981781,-0.3161516785621643
1783153876042513200,9.45051318359375,14.386247634887695,1.77397882938385,-0.12203395366668701
1783153876052223700,9.4602236328125,13.586446762084961,1.812264084815979,-0.28504499793052673
1783153876061934600,9.4699345703125,12.492328643798828,1.9824535846710205,-0.5506483316421509
1783153876071645200,9.479645263671875,11.594720840454102,2.1643080711364746,-0.8524430394172668
1783153876081356000,9.48935595703125,11.053644180297852,2.2887349128723145,-1.074975609779358
1783153876091066600,9.499066650390626,10.670493125915527,2.293520450592041,-1.3046865463256836
1783153876100777500,9.508777587890625,10.24905776977539,2.3054845333099365,-1.5825530290603638
1783153876110488000,9.518488037109375,9.856635093688965,2.3222343921661377,-1.7356936931610107
1783153876120199000,9.528198974609374,9.583553314208984,2.2576282024383545,-1.8457635641098022
1783153876129909500,9.537909423828125,9.444769859313965,2.221735715866089,-1.8912272453308105
1783153876139620400,9.547620361328125,9.633803367614746,2.197807550430298,-1.8266209363937378
1783153876149331000,9.5573310546875,9.930811882019043,2.0039889812469482,-1.7333009243011475
1783153876159041800,9.567041748046876,10.2418794631958,1.6854444742202759,-1.8026927709579468
1783153876168752400,9.57675244140625,10.328021049499512,1.4003994464874268,-1.8625133037567139
1783153876178463200,9.586463134765625,10.44078254699707,1.048654556274414,-2.0709879398345947
1783153876188173800,9.596173828125,10.483853340148926,0.9074779748916626,-2.17627215385437
1783153876197884700,9.605884765625,10.452746391296387,0.8452646136283875,-2.169093608856201
1783153876207595300,9.61559521484375,10.428818702697754,0.8377870321273804,-2.2432711124420166
1783153876217306000,9.62530615234375,10.476675033569336,0.8763712644577026,-2.2815563678741455
1783153876227016700,9.6350166015625,10.608280181884766,0.9146564602851868,-2.2743778228759766
1783153876236727600,9.6447275390625,10.744670867919922,0.8955138921737671,-2.2504496574401855
1783153876246438100,9.654438232421874,10.79731273651123,0.8739784955978394,-2.20737886428833
1783153876256149000,9.66414892578125,10.730314254760742,0.9385846853256226,-2.1020946502685547
1783153876265859600,9.673859619140625,10.780563354492188,1.1084750890731812,-1.92951238155365
1783153876275570400,9.6835703125,10.625029563903809,1.2281162738800049,-1.599302887916565
1783153876285281000,9.693281005859374,10.282557487487793,1.3262219429016113,-1.4054841995239258
1783153876294992000,9.702991943359375,9.92124080657959,1.529910922050476,-1.378864049911499
1783153876304702500,9.712702392578125,9.638588905334473,1.7691932916641235,-1.4892330169677734
1783153876314413300,9.722413330078124,9.451948165893555,2.0039889812469482,-1.6375880241394043
1783153876324124200,9.732124267578126,9.260522842407227,2.183450698852539,-1.7596219778060913
1783153876333834800,9.741834716796875,9.037691116333008,1.9680966138839722,-2.4681966304779053
1783153876343545600,9.751545654296875,8.63061237335205,2.2671995162963867,-1.8936200141906738
1783153876353256200,9.761256103515626,8.796015739440918,2.7723841667175293,-1.4844473600387573
1783153876362966800,9.770966796875,9.150154113769531,2.9709885120391846,-1.1395817995071411
1783153876372677600,9.780677734375,9.245866775512695,2.935096025466919,-0.8644071817398071
1783153876382388500,9.790388427734374,9.205188751220703,2.9470601081848145,-0.8066803216934204
1783153876392099000,9.80009912109375,9.150154113769531,3.0020952224731445,-0.857228696346283
1783153876401810000,9.809809814453125,9.121439933776855,2.9805595874786377,-0.8955138921737671
1783153876411520500,9.8195205078125,9.442377090454102,3.3517463207244873,-1.6136597394943237
1783153876421231400,9.8292314453125,9.162117958068848,3.2129626274108887,-1.2233306169509888
1783153876430942000,9.83894189453125,9.018548965454102,3.61017107963562,-1.7045869827270508
1783153876440652800,9.84865283203125,8.738588333129883,3.2656047344207764,-1.4198411703109741
1783153876450363400,9.85836328125,8.231010437011719,2.5761725902557373,-0.6535396575927734
1783153876460074200,9.86807421875,8.673683166503906,2.2887349128723145,-0.5769693851470947
1783153876469784800,9.877784912109375,9.337093353271484,2.334198474884033,-0.6391827464103699
1783153876479495700,9.88749560546875,9.75105094909668,2.5546371936798096,-0.4788636267185211
1783153876489206300,9.897206298828126,9.825528144836426,2.7508487701416016,-0.3496512174606323
1783153876498917000,9.906917236328125,9.74387264251709,3.01405930519104,-0.2874378263950348
1783153876508627700,9.916627685546874,9.456734657287598,3.253640651702881,-0.2225325107574463
1783153876518338600,9.926338623046876,9.162117958068848,3.4259238243103027,-0.17706887423992157
1783153876528049200,9.936049072265625,8.882157325744629,3.6436707973480225,-0.1818545162677765
1783153876537760000,9.945760009765625,8.475078582763672,3.9957146644592285,-0.26560330390930176
1783153876547470600,9.955470703125,8.16401195526123,4.436293125152588,-0.3520440459251404
1783153876557181400,9.965181396484375,7.984251022338867,4.735395908355713,-0.3568296730518341
1783153876566892000,9.97489208984375,7.754539966583252,4.934299468994141,-0.15074782073497772
1783153876576603000,9.984602783203124,7.599006652832031,5.118546962738037,0.17228323221206665
1783153876586313500,9.9943134765625,7.555636405944824,5.307579517364502,0.5769693851470947
1783153876596024300,10.0040244140625,7.694719314575195,5.432305812835693,1.1252248287200928
1783153876605735000,10.01373486328125,8.091927528381348,5.396413326263428,1.7691932916641235
1783153876615445800,10.02344580078125,8.575576782226562,5.211866855621338,2.30069899559021
1783153876625156600,10.033156494140625,9.078369140625,5.008476734161377,2.683849811553955
1783153876634867200,10.0428671875,9.39452075958252,4.8314080238342285,2.8944180011749268
1783153876644578000,10.052578125,9.463912963867188,4.7401814460754395,2.903989315032959
1783153876654288600,10.06228857421875,9.375378608703613,4.8074798583984375,2.801098108291626
1783153876663999500,10.07199951171875,9.205188751220703,4.898406982421875,2.6168506145477295
1783153876673710000,10.0817099609375,8.93240737915039,4.872086048126221,2.4634108543395996
1783153876683421000,10.0914208984375,8.695218086242676,4.8792643547058105,2.386840581893921
1783153876693131500,10.101131591796875,8.458329200744629,4.905585289001465,2.307877540588379
1783153876702842400,10.11084228515625,8.154440879821777,4.963013172149658,2.1475582122802734
1783153876712553000,10.120552978515626,7.8526458740234375,5.075475692749023,2.0039889812469482
1783153876722263800,10.130263916015625,7.677969455718994,5.164010524749756,1.8529419898986816
1783153876731974400,10.139974365234375,7.52931547164917,5.195116996765137,1.8840487003326416
1783153876741685200,10.149685302734374,7.416852951049805,5.1544389724731445,2.001596212387085
1783153876751395800,10.159395751953125,7.263712406158447,5.192724227905273,2.2265214920043945
1783153876761106700,10.169106689453125,7.069893836975098,5.2645087242126465,2.4562325477600098
1783153876770817300,10.1788173828125,6.9236321449279785,5.341378211975098,2.6336004734039307
1783153876780528000,10.188528076171876,6.9236321449279785,5.461019515991211,2.698206663131714
1783153876790238700,10.19823876953125,6.937989234924316,5.542375564575195,2.7484560012817383
1783153876799949600,10.207949462890625,6.897311210632324,5.590231895446777,2.729313373565674
1783153876809660200,10.21766015625,6.818347930908203,5.664409637451172,2.700599431991577
1783153876819371000,10.22737109375,6.796812534332275,5.750551223754883,2.698206663131714
1783153876829081600,10.23708154296875,6.825526714324951,5.807978630065918,2.6718854904174805
1783153876838792400,10.24679248046875,6.87099027633667,5.8343000411987305,2.659921407699585
1783153876848503000,10.2565029296875,6.990631580352783,5.846263885498047,2.7340989112854004
1783153876858214000,10.2662138671875,7.175177574157715,5.843871116638184,2.810669183731079
1783153876867924700,10.2759248046875,7.321139812469482,5.781657695770264,2.8274190425872803
1783153876877635300,10.28563525390625,7.40488862991333,5.719444274902344,2.724527597427368
1783153876887346200,10.29534619140625,7.498208999633789,5.721837043762207,2.604886531829834
1783153876897056800,10.305056884765625,7.502994537353516,5.697908878326416,2.4681966304779053
1783153876906767600,10.314767578125,7.39053201675415,5.681159019470215,2.365305185317993
1783153876916478200,10.324478271484375,7.232605457305908,5.700301647186279,2.3533411026000977
1783153876926189000,10.33418896484375,7.184749126434326,5.7888360023498535,2.410768747329712
1783153876935899600,10.343899658203124,7.206284523010254,5.8343000411987305,2.480160713195801
1783153876945610500,10.353610595703126,7.170392036437988,5.831906795501709,2.475374937057495
1783153876955321000,10.363321044921875,7.110571384429932,5.807978630065918,2.403590440750122
1783153876965032000,10.373031982421875,7.0531439781188965,5.7649078369140625,2.307877540588379
1783153876984453400,10.392453369140625,6.937989234924316,5.614160060882568,1.9558334350585938
1783153876994164000,10.4021640625,6.918846607208252,5.56869649887085,1.781157374382019
1783153877003874800,10.411874755859374,6.844669342041016,5.573482036590576,1.654337763786316
1783153877013585400,10.42158544921875,6.722635269165039,5.604588985443115,1.5107684135437012
1783153877023296300,10.431296142578125,6.619743824005127,5.671587944030762,1.3597214221954346
1783153877033006800,10.4410068359375,6.653243541717529,5.7409796714782715,1.2592228651046753
1783153877042717700,10.4507177734375,6.722635269165039,5.851049423217773,1.2544373273849487
1783153877052428300,10.46042822265625,6.86381196975708,5.949454307556152,1.2472587823867798
1783153877062139100,10.47013916015625,7.031608581542969,6.061916828155518,1.2640085220336914
1783153877071850000,10.47985009765625,7.206284523010254,6.145665645599365,1.2424731254577637
1783153877081560600,10.489560546875,7.287640571594238,6.253343105316162,1.2376874685287476
1783153877091271400,10.499271484375,7.479066371917725,6.363412857055664,1.2329018115997314
1783153877100982000,10.50898193359375,7.742575645446777,6.488138675689697,1.2855439186096191
1783153877110692900,10.51869287109375,7.936394691467285,6.586244106292725,1.3836497068405151
1783153877120403500,10.528403564453125,7.99382209777832,6.658029079437256,1.4605190753936768
1783153877130114300,10.5381142578125,8.099106788635254,6.736992359161377,1.450947880744934
1783153877139825000,10.547824951171876,8.231010437011719,6.760920524597168,1.438983678817749
1783153877149535700,10.55753564453125,8.355437278747559,6.73938512802124,1.407876968383789
1783153877159246300,10.567246337890625,8.52772045135498,6.75374174118042,1.2496516704559326
1783153877168957200,10.576957275390624,8.82233715057373,6.736992359161377,1.134796142578125
1783153877178667800,10.586667724609375,9.05444049835205,6.6915283203125,0.9840483069419861
1783153877188378600,10.596378662109375,9.21715259552002,6.653243541717529,0.8835497498512268
1783153877198089200,10.606089111328124,9.384949684143066,6.607779502868652,0.7301099896430969
1783153877207800000,10.615800048828126,9.550054550170898,6.533602237701416,0.6224330067634583
1783153877217510700,10.6255107421875,9.660123825073242,6.4375901222229,0.5697908997535706
1783153877227221500,10.635221435546875,9.731908798217773,6.320342063903809,0.5362913608551025
1783153877236932000,10.64493212890625,9.801301002502441,6.171987056732178,0.4501497745513916
1783153877246643000,10.654642822265625,9.916455268859863,6.16480827331543,0.20338992774486542
1783153877256353800,10.664353759765625,9.763015747070312,6.361020088195801,-0.27038896083831787
1783153877266064400,10.674064453125,9.294022560119629,6.605386734008789,-0.7277171611785889
1783153877275775200,10.683775146484376,8.82233715057373,6.736992359161377,-1.0869396924972534
1783153877285485800,10.69348583984375,8.63779067993164,6.787241458892822,-1.2759727239608765
1783153877295196700,10.70319677734375,8.491828918457031,6.715456962585449,-1.134796142578125
1783153877304907300,10.7129072265625,8.647361755371094,6.583851337432861,-0.6080760359764099
1783153877314618000,10.7226181640625,9.339486122131348,6.387341022491455,0.0526420995593071
1783153877324328700,10.73232861328125,10.342377662658691,6.1002020835876465,0.5147559642791748
1783153877334039600,10.74203955078125,11.290534019470215,5.484947681427002,0.8353942036628723
1783153877343750100,10.751750244140625,11.66411304473877,4.768895626068115,1.048654556274414
1783153877353461000,10.7614609375,11.690434455871582,4.117748737335205,0.9074779748916626
1783153877363171600,10.771171630859374,11.601900100708008,3.699004650115967,0.33529427647590637
1783153877372882400,10.78088232421875,11.573185920715332,3.445066452026367,-0.3089732229709625
1783153877382593000,10.790593017578125,11.414960861206055,3.239283561706543,-0.9194421172142029
1783153877392303900,10.800303955078125,10.852348327636719,3.045166015625,-1.3884353637695312
1783153877402014700,10.8100146484375,10.055238723754883,3.0236306190490723,-1.800299882888794
1783153877411725300,10.819725341796875,9.159725189208984,3.145963668823242,-2.1786649227142334
1783153877421436200,10.829436279296875,8.618648529052734,3.349353551864624,-2.475374937057495
1783153877431146800,10.839146728515624,8.609076499938965,3.5120654106140137,-2.520838737487793
1783153877440857600,10.848857666015626,8.633005142211914,3.5407793521881104,-2.1403799057006836
1783153877450568200,10.858568115234375,8.66889762878418,3.4498519897460938,-1.6328023672103882
1783153877460279000,10.868279052734374,8.563612937927246,3.4713873863220215,-1.2903295755386353
1783153877469989600,10.87798974609375,8.400900840759277,3.5096726417541504,-1.170688509941101
1783153877479700500,10.887700439453125,8.15683364868164,3.524029493331909,-1.103689432144165
1783153877489411000,10.8974111328125,7.867002487182617,3.531208038330078,-0.9936196208000183
1783153877499122000,10.907121826171876,7.646862983703613,3.5671002864837646,-0.9768698215484619
1783153877508832500,10.91683251953125,7.4240312576293945,3.545564889907837,-0.9385846853256226
1783153877518543400,10.92654345703125,7.237390995025635,3.4881372451782227,-0.9625129103660583
1783153877528254000,10.93625390625,7.2349982261657715,3.332603693008423,-1.2640085220336914
1783153877537964800,10.94596484375,7.33549690246582,3.2297122478485107,-1.7189439535140991
1783153877547675400,10.95567529296875,7.591827869415283,3.2057840824127197,-2.1643080711364746
1783153877557386200,10.96538623046875,7.977072715759277,3.1339993476867676,-2.4993033409118652
1783153877567096800,10.975096923828126,7.898109436035156,3.07627272605896,-2.628814697265625
1783153877576807700,10.9848076171875,7.675576686859131,3.0260233879089355,-2.659921407699585
1783153877586518500,10.9945185546875,7.2349982261657715,3.2751760482788086,-2.355733871459961
1783153877596229000,11.00422900390625,7.206284523010254,3.6436707973480225,-2.0135602951049805
1783153877605940000,11.01393994140625,7.464709281921387,4.134498596191406,-1.4365909099578857
1783153877615650600,11.023650634765625,7.553243637084961,4.508078098297119,-0.8691928386688232
1783153877625361400,11.033361328125,7.433602809906006,4.7234320640563965,-0.5195416212081909
1783153877635072000,11.043072021484376,7.3283185958862305,4.817050933837891,-0.4381856322288513
1783153877644782800,11.052782958984375,7.373782157897949,4.912764072418213,-0.5315057039260864
1783153877654493400,11.062493408203125,8.197511672973633,5.228616714477539,-0.18903298676013947
1783153877664204300,11.072204345703126,8.767302513122559,4.093820571899414,-1.4222339391708374
1783153877673915000,11.081914794921875,8.39611530303955,3.9861433506011963,-1.958226203918457
1783153877683625700,11.091625732421875,8.077570915222168,3.8162529468536377,-2.3030917644500732
1783153877693336300,11.10133642578125,8.324331283569336,3.9861433506011963,-2.4681966304779053
1783153877703047200,11.111047119140625,8.307580947875977,4.2831525802612305,-2.2121646404266357
1783153877712758000,11.120758056640625,8.28843879699707,4.565505504608154,-1.9103697538375854
1783153877722468600,11.130468505859374,8.333902359008789,4.771587371826172,-1.5346965789794922
1783153877732179500,11.140179443359376,8.460721969604492,4.833800792694092,-1.4054841995239258
1783153877741890000,11.14989013671875,8.515756607055664,4.891228675842285,-1.3668999671936035
1783153877751601000,11.159600830078125,8.44157886505127,4.9965128898620605,-1.3549357652664185
1783153877761311500,11.1693115234375,8.11824893951416,5.063511848449707,-1.3022937774658203
1783153877771022300,11.179022216796875,7.938787460327148,5.125725269317627,-1.3956137895584106
1783153877780733000,11.18873291015625,7.881359577178955,5.132903575897217,-1.5083755254745483
1783153877790443800,11.19844384765625,7.902894973754883,5.085047245025635,-1.6160526275634766
1783153877800154400,11.208154296875,7.972286701202393,4.9965128898620605,-1.7620147466659546
1783153877809865200,11.217865234375,7.8693952560424805,5.07308292388916,-1.750050663948059
1783153877819575800,11.227575927734375,7.5652079582214355,5.319543838500977,-1.5251253843307495
1783153877829286700,11.23728662109375,7.249355316162109,5.640480995178223,-1.2855439186096191
1783153877838997200,11.246997314453125,7.000202655792236,5.97098970413208,-0.9625129103660583
1783153877848708000,11.2567080078125,6.847062110900879,6.148058891296387,-0.7229315638542175
1783153877858419000,11.2664189453125,6.81595516204834,6.155237197875977,-0.6248258352279663
1783153877868129500,11.276129638671875,7.199106216430664,6.035595893859863,-0.7420741319656372
1783153877877840400,11.28584033203125,7.70668363571167,5.843871116638184,-0.8787640929222107
1783153877887551000,11.295551025390624,8.056035995483398,5.571089267730713,-0.9553344249725342
1783153877897261800,11.30526171875,8.13260555267334,5.262115955352783,-1.0414760112762451
1783153877906972400,11.314972412109375,8.362615585327148,5.099404335021973,-1.1443674564361572
1783153877916683300,11.324683349609375,8.975478172302246,5.207081317901611,-1.2329018115997314
1783153877926393900,11.334393798828126,9.578767776489258,5.4514479637146,-1.012762188911438
1783153877936104700,11.344104736328125,9.62901782989502,5.781657695770264,-0.579362154006958
1783153877945815300,11.353815185546875,9.329915046691895,6.009274959564209,-0.13160525262355804
1783153877955526100,11.363526123046874,8.958727836608887,6.140880107879639,0.31375887989997864
1783153877965236700,11.37323681640625,8.640183448791504,6.1241302490234375,0.5961119532585144
1783153877974947600,11.382947509765625,8.44157886505127,6.0762739181518555,0.6822535395622253
1783153877984658200,11.392658203125,8.530113220214844,5.807978630065918,0.524327278137207
1783153877994369000,11.402369140625,8.863015174865723,5.353342533111572,0.22492532432079315
1783153878004079600,11.41207958984375,9.315557479858398,4.896014213562012,-0.02153540402650833
1783153878013790500,11.42179052734375,9.681659698486328,4.48414945602417,-0.20338992774486542
1783153878023501000,11.4315009765625,9.859027862548828,4.225724697113037,-0.17946170270442963
1783153878033212000,11.4412119140625,9.739087104797363,4.103391647338867,0.004785645287483931
1783153878042922800,11.4509228515625,9.808479309082031,3.998107433319092,0.3041875660419464
1783153878052633300,11.46063330078125,10.119845390319824,3.873680830001831,0.6391827464103699
1783153878062344200,11.47034423828125,10.359127044677734,3.7516467571258545,0.9290133714675903
1783153878072054800,11.4800546875,10.339984893798828,3.6583266258239746,1.189831018447876
1783153878081765600,11.489765625,9.988240242004395,3.675076484680176,1.287936806678772
1783153878091476200,11.499476318359376,9.368199348449707,3.79471755027771,1.2065808773040771
1783153878101187000,11.50918701171875,8.654540061950684,3.9000017642974854,1.1419745683670044
1783153878110897700,11.518897705078125,8.231010437011719,3.9406797885894775,1.1108678579330444
1783153878120608500,11.5286083984375,8.087141990661621,3.9143588542938232,1.1563315391540527
1783153878130319000,11.538319091796875,8.041678428649902,3.9023945331573486,1.3070793151855469
1783153878140030000,11.548030029296875,8.082356452941895,3.9023945331573486,1.5107684135437012
1783153878149740500,11.557740478515624,8.266902923583984,4.038785457611084,1.812264084815979
1783153878159451400,11.567451416015626,8.451150894165039,4.1297125816345215,2.1547367572784424
1783153878169162000,11.577161865234375,8.556434631347656,4.089034557342529,2.4083759784698486
1783153878178872800,11.586872802734375,8.329116821289062,4.048357009887695,2.5618157386779785
1783153878188583700,11.596583740234376,7.7832536697387695,4.041178226470947,2.444268226623535
1783153878198294300,11.606294189453125,7.52931547164917,3.983750581741333,2.0925233364105225
1783153878208005000,11.616005126953125,7.491030216217041,3.9167516231536865,1.6088740825653076
1783153878217715700,11.6257158203125,7.507780075073242,3.8162529468536377,1.2329018115997314
1783153878227426600,11.635426513671876,7.699504852294922,3.6726837158203125,0.8353942036628723
1783153878237137200,11.64513720703125,7.943572998046875,3.57906436920166,0.4453641176223755
1783153878246848000,11.654847900390624,8.089534759521484,3.483351469039917,0.17228323221206665
1783153878256558600,11.66455859375,8.254939079284668,3.452244758605957,0.016749758273363113
1783153878266269400,11.67426953125,8.424829483032227,3.5024940967559814,-0.0023928226437419653
1783153878275980000,11.68397998046875,8.415258407592773,3.5048868656158447,-0.03349951654672623
1783153878285691000,11.69369091796875,8.252546310424805,3.624528169631958,0.038285162299871445
1783153878295401500,11.7034013671875,8.01775074005127,3.8210387229919434,0.11485548317432404
1783153878305112300,11.7131123046875,7.819146156311035,3.9789650440216064,0.06699903309345245
1783153878314823200,11.7228232421875,7.5774712562561035,4.124927043914795,-0.035892341285943985
1783153878324533800,11.73253369140625,7.311568737030029,4.3070807456970215,-0.1459621787071228
1783153878334244600,11.74224462890625,7.132106781005859,4.42193603515625,-0.3089732229709625
1783153878343955200,11.751955078125,7.098607540130615,4.510470867156982,-0.4334000051021576
1783153878353666000,11.761666015625,7.045965194702148,4.634897232055664,-0.5051847100257874
1783153878363376600,11.771376708984375,6.935596466064453,4.761716842651367,-0.6631109714508057
1783153878373087500,11.78108740234375,6.937989234924316,4.826622486114502,-0.8500502705574036
1783153878382798000,11.790798095703124,7.110571384429932,4.869693279266357,-0.9649057388305664
1783153878392509000,11.800509033203125,7.299604415893555,4.8792643547058105,-1.0271191596984863
1783153878402219500,11.810219482421875,7.46710205078125,4.881657123565674,-1.0630114078521729
1783153878411930400,11.819930419921874,7.58943510055542,4.850550651550293,-1.103689432144165
1783153878421641000,11.829640869140626,7.761718273162842,4.77876615524292,-1.2544373273849487
1783153878431351800,11.839351806640625,7.912466049194336,4.651647090911865,-1.4533406496047974
1783153878441062400,11.8490625,7.974679470062256,4.503292083740234,-1.6710875034332275
1783153878450773200,11.858773193359376,7.989036560058594,4.453042984008789,-1.896012783050537
1783153878460484000,11.868484130859375,8.266902923583984,4.488935470581055,-2.097309112548828
1783153878470194700,11.878194580078125,8.695218086242676,4.658825874328613,-2.1164517402648926
1783153878479905500,11.887905517578124,9.131011009216309,4.77876615524292,-2.0685951709747314
1783153878489616100,11.8976162109375,9.600303649902344,4.867300510406494,-1.9752750396728516
1783153878499327000,11.907326904296875,10.033703804016113,4.857728958129883,-1.92951238155365
1783153878509037600,11.91703759765625,10.502995491027832,4.824229717254639,-1.8936200141906738
1783153878518748400,11.92674853515625,11.139785766601562,4.756931304931641,-1.8218353986740112
1783153878528459000,11.936458984375,11.793325424194336,4.47697114944458,-1.7787644863128662
1783153878538169900,11.946169921875,12.343974113464355,4.184747695922852,-1.8649061918258667
1783153878547880400,11.95588037109375,12.260225296020508,4.211368083953857,-2.0757737159729004
1783153878557591300,11.96559130859375,11.266605377197266,4.852943420410156,-2.410768747329712
1783153878567302000,11.975302001953125,10.534102439880371,5.614160060882568,-2.5450658798217773
1783153878577012700,11.9850126953125,7.464709281921387,6.6006011962890625,-2.604886531829834
1783153878586723600,11.9947236328125,6.9475603103637695,6.454638957977295,-2.6551358699798584
1783153878596434200,12.00443408203125,7.3283185958862305,5.415555953979492,-2.95184588432312
1783153878606145000,12.01414501953125,8.841479301452637,4.764110088348389,-2.7364916801452637
1783153878615855600,12.023855712890626,11.352746963500977,4.3310089111328125,-2.0925233364105225
1783153878625566500,12.03356640625,13.366307258605957,3.78753924369812,-1.347757339477539
1783153878635277000,12.043277099609375,14.029417991638184,3.1268210411071777,-0.8018946647644043
1783153878644988000,12.05298779296875,13.677373886108398,2.674278497695923,-0.8500502705574036
