time,seconds_elapsed,z,y,x
1783153866715371300,0.123371337890625,0.6108472347259521,1.077305555343628,-0.2883199155330658
1783153866744503300,0.15250341796875,0.7189671993255615,0.8506811857223511,-0.390942245721817
1783153866763924700,0.1719248046875,0.7855495810508728,0.729733407497406,-0.41354358196258545
1783153866773635300,0.18163525390625,0.8179244995117188,0.7309551239013672,-0.4214846193790436
1783153866783346200,0.19134619140625,0.8405258059501648,0.7395069599151611,-0.448361873626709
1783153866793057000,0.20105712890625,0.8612946271896362,0.7462263107299805,-0.48806697130203247
1783153866802767600,0.210767578125,0.8814526200294495,0.7566106915473938,-0.5088357925415039
1783153866812478200,0.220478271484375,0.8802309036254883,0.785320520401001,-0.5241069197654724
1783153866822189000,0.23018896484375,0.8637380003929138,0.7975374460220337,-0.5424323678016663
1783153866831899600,0.239899658203125,0.8228112459182739,0.7932615280151367,-0.578472375869751
1783153866841610500,0.249610595703125,0.7641699314117432,0.7987591624259949,-0.6181774139404297
1783153866851321000,0.259321044921875,0.707361102104187,0.8231930136680603,-0.6529957056045532
1783153866861032000,0.269031982421875,0.684148907661438,0.8488486409187317,-0.6792621612548828
1783153866870742500,0.278742431640625,0.6969767212867737,0.8751150369644165,-0.6963658928871155
1783153866880453400,0.288453369140625,0.7385143637657166,0.9044356942176819,-0.6865923404693604
1783153866890164000,0.2981640625,0.7843278646469116,0.9160417914390564,-0.6413896083831787
1783153866899874800,0.307874755859375,0.8289197087287903,0.9001597762107849,-0.5772506594657898
1783153866909585400,0.31758544921875,0.8612946271896362,0.8616763949394226,-0.5008947253227234
1783153866919296300,0.327296142578125,0.8686248064041138,0.8238039016723633,-0.4282039403915405
1783153866929006800,0.3370068359375,0.8515210747718811,0.7981482744216919,-0.37689274549484253
1783153866938717700,0.3467177734375,0.8197570443153381,0.785320520401001,-0.36162158846855164
1783153866948428300,0.35642822265625,0.7812736630439758,0.7957049012184143,-0.3567348122596741
1783153866958139100,0.36613916015625,0.7409577369689941,0.840296745300293,-0.3689517378807068
1783153866967849700,0.375849609375,0.7128587365150452,0.8964946866035461,-0.41232189536094666
1783153866977560300,0.385560302734375,0.7085828185081482,0.9221503138542175,-0.5045598149299622
1783153866987271200,0.395271240234375,0.7232431769371033,0.9258154034614563,-0.5998520255088806
1783153866996982000,0.40498193359375,0.7537854909896851,0.9343672394752502,-0.6786513328552246
1783153867006692600,0.414692626953125,0.7647807598114014,0.9673529863357544,-0.7434011101722717
1783153867016403200,0.4244033203125,0.7623373866081238,0.9972845315933228,-0.8063184022903442
1783153867026114000,0.434114013671875,0.7470661997795105,1.0369895696640015,-0.8619054555892944
1783153867035824600,0.44382470703125,0.7275190949440002,1.067531943321228,-0.9058864712715149
1783153867045535500,0.453535400390625,0.6951441764831543,1.0742512941360474,-0.9303967356681824
1783153867055246000,0.46324609375,0.5980194807052612,0.9991170763969421,-0.9847621321678162
1783153867064957000,0.47295703125,0.5277720093727112,0.8195279240608215,-1.0159153938293457
1783153867074667500,0.48266748046875,0.5931326746940613,0.8531245589256287,-0.9505546689033508
1783153867084378400,0.49237841796875,0.6444438695907593,0.8280798196792603,-0.897334635257721
1783153867094089000,0.5020888671875,0.6664343476295471,0.725457489490509,-0.8466343283653259
1783153867103799800,0.5117998046875,0.6749862432479858,0.6161158084869385,-0.786771297454834
1783153867113510400,0.521510498046875,0.6981984376907349,0.5299863815307617,-0.7018635272979736
1783153867123221200,0.53122119140625,0.707361102104187,0.42614230513572693,-0.6090146899223328
1783153867132931800,0.540931884765625,0.6927008032798767,0.34306707978248596,-0.5265503525733948
1783153867142642700,0.550642578125,0.6218425035476685,0.23433628678321838,-0.4618005156517029
1783153867152353300,0.560353271484375,0.5430431962013245,0.1169772520661354,-0.42698222398757935
1783153867162064100,0.570064208984375,0.48012593388557434,0.06444438546895981,-0.3671191930770874
1783153867171774700,0.579774658203125,0.4202629029750824,0.06444438546895981,-0.3115321099758148
1783153867181485600,0.589485595703125,0.34940463304519653,0.03023693896830082,-0.261442631483078
1783153867191196200,0.599196044921875,0.25709033012390137,-0.03390202298760414,-0.22540263831615448
1783153867200907000,0.608906982421875,0.15507884323596954,-0.08643488585948944,-0.21379654109477997
1783153867210617600,0.61861767578125,0.03229855000972748,0.049173206090927124,-0.21318569779396057
1783153867220328200,0.628328125,-0.1008661538362503,0.21295662224292755,-0.1966928243637085
1783153867230039000,0.6380390625,-0.21142950654029846,0.3913240134716034,-0.20035789906978607
1783153867239750000,0.64775,-0.3219928741455078,0.3516189455986023,-0.3506263196468353
1783153867249460500,0.65746044921875,-0.5962632894515991,0.5305972099304199,-0.6401679515838623
1783153867259171000,0.667171142578125,-0.60909104347229,0.7902072668075562,-0.8234221339225769
1783153867268882000,0.6768818359375,-0.554114818572998,1.1561048030853271,-0.984151303768158
1783153867278592500,0.686592529296875,-0.43377789855003357,1.5684267282485962,-1.141139030456543
1783153867288303400,0.696303466796875,-0.2199813723564148,1.8726285696029663,-1.2749146223068237
1783153867298014000,0.706013916015625,0.06528430432081223,1.9318808317184448,-1.3109545707702637
1783153867307724800,0.715724853515625,0.288930743932724,1.8139872550964355,-1.243761420249939
1783153867317435400,0.725435302734375,0.36039987206459045,1.654556155204773,-1.0635614395141602
1783153867327146200,0.735146240234375,0.33230090141296387,1.5128395557403564,-0.8020424246788025
1783153867336856800,0.74485693359375,0.2399866133928299,1.3503541946411133,-0.5467082858085632
1783153867346567700,0.754567626953125,0.174625962972641,1.126784086227417,-0.34757208824157715
1783153867356278300,0.7642783203125,0.12270393967628479,0.8341882824897766,-0.2095206081867218
1783153867365989000,0.773989013671875,0.1465269923210144,0.4291965663433075,-0.1050657257437706
1783153867375699700,0.78369970703125,0.17890189588069916,0.0528382882475853,-0.07207997888326645
1783153867385410600,0.79341064453125,0.1593547761440277,-0.24586601555347443,-0.14049486815929413
1783153867395121200,0.80312109375,0.11293038725852966,-0.4162923991680145,-0.29381752014160156
1783153867404832000,0.81283203125,0.10071343928575516,-0.3692571818828583,-0.4837910234928131
1783153867414542600,0.82254248046875,0.17706935107707977,-0.13652436435222626,-0.6591041684150696
1783153867424253200,0.832253173828125,0.37567105889320374,0.5318188667297363,-0.8222004175186157
1783153867433964000,0.841964111328125,0.573585569858551,1.01133394241333,-0.8289197087287903
1783153867443675000,0.8516748046875,0.6474980711936951,1.1603807210922241,-0.8551861643791199
1783153867453385500,0.861385498046875,0.6163448691368103,1.0186641216278076,-0.8411366939544678
1783153867463096000,0.871095947265625,0.5100574493408203,0.7566106915473938,-0.7837170362472534
1783153867472807000,0.880806884765625,0.3927747905254364,0.44691112637519836,-0.7043069005012512
1783153867482517500,0.890517578125,0.30969956517219543,0.1450762301683426,-0.6310052275657654
1783153867492228400,0.900228271484375,0.27358320355415344,-0.08948912471532822,-0.5619794726371765
1783153867501939000,0.90993896484375,0.2858765125274658,-0.15301723778247833,-0.4868452548980713
1783153867511649800,0.91964990234375,0.337798535823822,-0.060779303312301636,-0.4074351191520691
1783153867521360400,0.9293603515625,0.41476529836654663,0.08887827396392822,-0.3573456406593323
1783153867531071200,0.9390712890625,0.5015056133270264,0.23739051818847656,-0.33474430441856384
1783153867540781800,0.94878173828125,0.5711421966552734,0.3607816696166992,-0.3268032968044281
1783153867550492700,0.95849267578125,0.6236750483512878,0.43591588735580444,-0.3042019307613373
1783153867560203300,0.968203369140625,0.6627692580223083,0.4291965663433075,-0.2638860046863556
1783153867569914000,0.9779140625,0.6878139972686768,0.3229091465473175,-0.2217375487089157
1783153867579624700,0.987624755859375,0.7049177289009094,0.1665322333574295,-0.18569757044315338
1783153867589335600,0.99733544921875,0.7012526392936707,0.025350160896778107,-0.1698155403137207
1783153867599046100,1.007046142578125,0.6780404448509216,-0.06016845628619194,-0.18630841374397278
1783153867608757000,1.016757080078125,0.6407787799835205,-0.08215895295143127,-0.22601348161697388
1783153867618467600,1.026467529296875,0.6077930331230164,-0.051616594195365906,-0.28160059452056885
1783153867628178400,1.036178466796875,0.5882459282875061,0.009468132629990578,-0.3426853120326996
1783153867637889000,1.045888916015625,0.5803049206733704,0.05772506445646286,-0.4037700295448303
1783153867647599900,1.055599853515625,0.5741963982582092,0.08643488585948944,-0.4367557764053345
1783153867657310500,1.065310546875,0.5577035546302795,0.09926267713308334,-0.4227063059806824
1783153867667021000,1.07502099609375,0.527161180973053,0.06383354216814041,-0.40132665634155273
1783153867676732000,1.08473193359375,0.5344913601875305,-0.015576604753732681,-0.37383851408958435
1783153867686442500,1.0944423828125,0.5393781065940857,-0.024128466844558716,-0.3029802441596985
1783153867696153300,1.1041533203125,0.5418215394020081,-0.06444438546895981,-0.21746163070201874
1783153867705864000,1.113864013671875,0.5430431962013245,-0.14935214817523956,-0.1453816443681717
1783153867715574800,1.12357470703125,0.5467082858085632,-0.2214321345090866,-0.08674030750989914
1783153867725285400,1.133285400390625,0.5326588153839111,-0.2641914486885071,-0.042759306728839874
1783153867734996200,1.142996337890625,0.5002838969230652,-0.2727433145046234,-0.008551862090826035
1783153867744706800,1.152706787109375,0.4563029110431671,-0.24403348565101624,0.01954711228609085
1783153867754417700,1.162417724609375,0.4159869849681854,-0.17684027552604675,0.029320668429136276
1783153867764128300,1.172128173828125,0.3805578351020813,-0.07971556484699249,0.007941014133393764
1783153867773839000,1.181839111328125,0.36101073026657104,0.007635590620338917,-0.029320668429136276
1783153867783549700,1.1915498046875,0.3506263196468353,0.05650337040424347,-0.07635590434074402
1783153867793260500,1.201260498046875,0.34573954343795776,0.0791047215461731,-0.12461283802986145
1783153867802971100,1.21097119140625,0.337798535823822,0.09559759497642517,-0.16615045070648193
1783153867812682000,1.220681884765625,0.3298575282096863,0.10353861004114151,-0.1820324808359146
1783153867822392600,1.230392578125,0.30481278896331787,0.08826743066310883,-0.17225892841815948
1783153867832103400,1.240103515625,0.27113983035087585,0.06810946762561798,-0.1453816443681717
1783153867841814000,1.24981396484375,0.2259371280670166,0.06444438546895981,-0.11239589750766754
1783153867851524900,1.25952490234375,0.18073442578315735,0.05405998229980469,-0.09895725548267365
1783153867861235500,1.2692353515625,0.14530529081821442,0.008246437646448612,-0.11300674080848694
1783153867870946000,1.278946044921875,0.1361425817012787,-0.0650552362203598,-0.16004198789596558
1783153867880657000,1.288656982421875,0.15141376852989197,-0.13835690915584564,-0.20646637678146362
1783153867890367500,1.298367431640625,0.17768019437789917,-0.19333316385746002,-0.24006296694278717
1783153867900078300,1.308078369140625,0.20700086653232574,-0.2648022770881653,-0.25411245226860046
1783153867909789000,1.317788818359375,0.21677441895008087,-0.34726667404174805,-0.25777754187583923
1783153867919499800,1.327499755859375,0.2118876427412033,-0.41507071256637573,-0.25594499707221985
1783153867929210400,1.33721044921875,0.19478392601013184,-0.44255882501602173,-0.25533416867256165
1783153867938921200,1.346921142578125,0.1624090075492859,-0.41018393635749817,-0.25594499707221985
1783153867948631800,1.3566318359375,0.1086544543504715,-0.3387148082256317,-0.2492256760597229
1783153867958342700,1.3663427734375,0.04146125912666321,-0.25319617986679077,-0.23334364593029022
1783153867968053200,1.37605322265625,-0.031229566782712936,-0.15484978258609772,-0.21257483959197998
1783153867977764000,1.38576416015625,-0.07704310864210129,-0.06383354216814041,-0.18019993603229523
1783153867987474700,1.395474609375,-0.09109259396791458,-0.009468132629990578,-0.15943112969398499
1783153867997185500,1.405185546875,-0.06604786217212677,-0.003970507066696882,-0.1447708010673523
1783153868006896000,1.414896240234375,-0.02145601063966751,-0.032069481909275055,-0.13621893525123596
1783153868016606700,1.424606689453125,0.02924431301653385,-0.08154810965061188,-0.12827792763710022
1783153868026317600,1.434317626953125,0.07444700598716736,-0.12491826713085175,-0.10323318839073181
1783153868036028400,1.4440283203125,0.09765920788049698,-0.15057384967803955,-0.042759306728839874
1783153868045739000,1.453739013671875,0.09765920788049698,-0.1713426560163498,0.024433890357613564
1783153868055449600,1.46344970703125,0.09827005118131638,-0.2104368805885315,0.08735115826129913
1783153868065160400,1.473160400390625,0.11170869320631027,-0.25380703806877136,0.12155860662460327
1783153868074871300,1.482871337890625,0.13064496219158173,-0.26724568009376526,0.12583453953266144
1783153868084582000,1.492581787109375,0.16301986575126648,-0.25686126947402954,0.10811996459960938
1783153868094292500,1.50229248046875,0.19417306780815125,-0.25625041127204895,0.0910162404179573
1783153868104003300,1.51200341796875,0.20944425463676453,-0.2654131352901459,0.08368607610464096
1783153868113714000,1.5217138671875,0.20700086653232574,-0.28068432211875916,0.08429691940546036
1783153868123424800,1.5314248046875,0.2015032321214676,-0.30756160616874695,0.09895725548267365
1783153868133135400,1.54113525390625,0.21005509793758392,-0.33504971861839294,0.12216944992542267
1783153868142846200,1.55084619140625,0.23265644907951355,-0.3381039500236511,0.1569877415895462
1783153868152556800,1.560556884765625,0.25709033012390137,-0.2996205687522888,0.20096874237060547
1783153868162267600,1.570267578125,0.27175068855285645,-0.24464432895183563,0.24067382514476776
1783153868171978200,1.579978271484375,0.2668638825416565,-0.21532365679740906,0.2516690790653229
1783153868181689000,1.589689208984375,0.24792763590812683,-0.22021043300628662,0.2211267054080963
1783153868191399700,1.599399658203125,0.24304085969924927,-0.2495311051607132,0.1569877415895462
1783153868201110500,1.609110595703125,0.24670593440532684,-0.31977853178977966,0.04886778071522713
1783153868210821000,1.618821044921875,0.255257785320282,-0.42728766798973083,-0.09895725548267365
1783153868220532000,1.628531982421875,0.2778591513633728,-0.48104220628738403,-0.2516690790653229
1783153868230242600,1.63824267578125,0.30908870697021484,-0.45233240723609924,-0.37322768568992615
1783153868239953200,1.647953125,0.3170297145843506,-0.34971004724502563,-0.45019441843032837
1783153868249664000,1.6576640625,0.3243598937988281,-0.18661384284496307,-0.4556920528411865
1783153868259374600,1.66737451171875,0.3274141252040863,-0.008857285603880882,-0.4086568057537079
1783153868269085400,1.67708544921875,0.34512871503829956,0.1304158866405487,-0.3164188861846924
1783153868278796000,1.686796142578125,0.38727715611457825,0.21356746554374695,-0.21868331730365753
1783153868288507000,1.6965068359375,0.4721849262714386,0.25082916021347046,-0.05070032179355621
1783153868298217500,1.706217529296875,0.5338805317878723,0.27831727266311646,0.11483928561210632
1783153868307928300,1.71592822265625,0.5809157490730286,0.2471640706062317,0.2852656841278076
1783153868317639000,1.725638916015625,0.629172682762146,0.20073968172073364,0.4489727318286896
1783153868327349800,1.735349853515625,0.6804838180541992,0.15736952424049377,0.5790832042694092
1783153868337060400,1.745060302734375,0.7220214605331421,0.08826743066310883,0.656660795211792
1783153868346771200,1.754771240234375,0.7550072073936462,0.004581354558467865,0.6859814524650574
1783153868356481800,1.764481689453125,0.7745543122291565,-0.04734066128730774,0.6670452356338501
1783153868366192600,1.774192626953125,0.7806627750396729,-0.05344913527369499,0.6120689511299133
1783153868375903200,1.7839033203125,0.7684458494186401,-0.041232191026210785,0.5326588153839111
1783153868385614000,1.793614013671875,0.7183563709259033,-0.010689826682209969,0.4330907166004181
1783153868395324700,1.80332470703125,0.6438329815864563,0.03451287001371384,0.3249707520008087
1783153868405035300,1.81303515625,0.5338805317878723,0.08765657991170883,0.2211267054080963
1783153868414746000,1.82274609375,0.418430358171463,0.16103461384773254,0.12766708433628082
1783153868424457000,1.83245703125,0.31031039357185364,0.28076067566871643,0.05925218388438225
1783153868434167600,1.84216748046875,0.2259371280670166,0.40964943170547485,0.013438640162348747
1783153868443878100,1.851878173828125,0.18378867208957672,0.521434485912323,-0.015271181240677834
1783153868453589000,1.861589111328125,0.17890189588069916,0.6179483532905579,-0.036039989441633224
1783153868463299600,1.871299560546875,0.2143310308456421,0.7034669518470764,-0.037261683493852615
1783153868473010400,1.881010498046875,0.278469979763031,0.7975374460220337,-0.022601349279284477
1783153868482721000,1.890720947265625,0.363454133272171,0.8971055746078491,-0.009773556143045425
1783153868492432000,1.900431884765625,0.47585001587867737,0.9869000911712646,0.0012216945178806782
1783153868502142500,1.910142578125,0.6004628539085388,1.0858573913574219,-0.007941014133393764
1783153868511853300,1.919853271484375,0.7812736630439758,1.2116918563842773,-0.020157959312200546
1783153868521564000,1.92956396484375,0.9639169573783875,1.3851724863052368,-0.028098974376916885
1783153868531274800,1.939274658203125,1.132510781288147,1.5110070705413818,-0.08490777015686035
1783153868540985300,1.9489853515625,1.318819284439087,1.5696483850479126,-0.15454435348510742
1783153868550696200,1.9586962890625,1.4587032794952393,1.614240288734436,-0.1960819661617279
1783153868560406800,1.96840673828125,1.5197880268096924,1.5794219970703125,-0.2480039894580841
1783153868570117600,1.97811767578125,1.563768982887268,1.496957540512085,-0.24006296694278717
1783153868579828200,1.987828125,1.5570496320724487,1.4425921440124512,-0.208298921585083
1783153868589538800,1.997538818359375,1.5210096836090088,1.3515759706497192,-0.16798299551010132
1783153868599249700,2.007249755859375,1.4861913919448853,1.2642247676849365,-0.13805148005485535
1783153868608960500,2.01696044921875,1.458092451095581,1.2037508487701416,-0.08735115826129913
1783153868618671000,2.026671142578125,1.414722204208374,1.1157888174057007,-0.0647498071193695
1783153868628381700,2.036381591796875,1.3823473453521729,1.0088906288146973,-0.04886778071522713
1783153868638092500,2.046092529296875,1.3518049716949463,0.9288696050643921,-0.0397050715982914
1783153868647803100,2.05580322265625,1.3340904712677002,0.859233021736145,-0.05497625470161438
1783153868657514000,2.065513916015625,1.3267602920532227,0.8012025356292725,-0.08979454636573792
1783153868667224600,2.075224609375,1.326149344444275,0.757221519947052,-0.13682979345321655
1783153868676935400,2.084935302734375,1.3518049716949463,0.7150730490684509,-0.1832541823387146
1783153868686646000,2.09464599609375,1.3799039125442505,0.6649835705757141,-0.21929416060447693
1783153868696356900,2.10435693359375,1.392731785774231,0.5867951512336731,-0.22601348161697388
1783153868706067500,2.1140673828125,1.4000619649887085,0.5122717618942261,-0.18142163753509521
1783153868715778300,2.1237783203125,1.4226632118225098,0.47439923882484436,-0.08002099394798279
1783153868725489000,2.133489013671875,1.4678659439086914,0.5165477395057678,0.07696675509214401
1783153868735199700,2.14319970703125,1.5265072584152222,0.6075639724731445,0.25777754187583923
1783153868744910300,2.152910400390625,1.5906462669372559,0.7193490266799927,0.41293275356292725
1783153868754621200,2.16262109375,1.6364598274230957,0.8103652596473694,0.5008947253227234
1783153868764331800,2.172331787109375,1.6547852754592896,0.8983272314071655,0.5277720093727112
1783153868774042400,2.18204248046875,1.6364598274230957,0.9716289043426514,0.5008947253227234
1783153868783753200,2.191753173828125,1.5949221849441528,1.0437089204788208,0.4337015450000763
1783153868793463800,2.2014638671875,1.5466653108596802,1.1408336162567139,0.3640649616718292
1783153868803174700,2.211174560546875,1.4910781383514404,1.2434560060501099,0.3139754831790924
1783153868812885200,2.22088525390625,1.4373235702514648,1.3198118209838867,0.2901524603366852
1783153868822596000,2.23059619140625,1.3933426141738892,1.3711230754852295,0.29259583353996277
1783153868832306700,2.240306640625,1.3823473453521729,1.4175474643707275,0.33230090141296387
1783153868842017500,2.250017578125,1.420219898223877,1.4389270544052124,0.418430358171463
1783153868851728100,2.25972802734375,1.4764177799224854,1.4358727931976318,0.5198310017585754
1783153868861439000,2.26943896484375,1.508792757987976,1.358295202255249,0.5711421966552734
1783153868871149600,2.279149658203125,1.5063493251800537,1.1573264598846436,0.5381564497947693
1783153868880860400,2.2888603515625,1.4819154739379883,0.831744909286499,0.4214846193790436
1783153868890571000,2.298571044921875,1.4275500774383545,0.4689016342163086,0.23945212364196777
1783153868900281900,2.30828173828125,1.3670761585235596,0.19829629361629486,0.05986303091049194
1783153868909992400,2.317992431640625,1.313321590423584,0.06444438546895981,-0.09407047927379608
1783153868919703300,2.327703369140625,1.2546802759170532,0.02901524491608143,-0.20219044387340546
1783153868929414000,2.337413818359375,1.1997040510177612,0.10659284889698029,-0.24006296694278717
1783153868939124700,2.347124755859375,1.138619303703308,0.26732203364372253,-0.2211267054080963
1783153868948835300,2.35683544921875,1.0793671607971191,0.4438568949699402,-0.16187451779842377
1783153868958546000,2.3665458984375,1.0408837795257568,0.619170069694519,-0.08674030750989914
1783153868968256800,2.3762568359375,1.0213366746902466,0.7480587959289551,-0.016492875292897224
1783153868977967400,2.38596728515625,0.9981244206428528,0.784709632396698,0.02993151545524597
1783153868987678200,2.39567822265625,0.9688037633895874,0.7663842439651489,0.06352811306715012
1783153868997388800,2.405388916015625,0.9352071285247803,0.7144622206687927,0.07574506103992462
1783153869007099600,2.415099609375,0.9174925684928894,0.655210018157959,0.061084724962711334
1783153869016810200,2.424810302734375,0.9083298444747925,0.6472690105438232,0.028098974376916885
1783153869026521000,2.43452099609375,0.8759549856185913,0.6973584890365601,-0.016492875292897224
1783153869036231700,2.444231689453125,0.809983491897583,0.7468371391296387,-0.06902574002742767
1783153869045942500,2.453942626953125,0.7183563709259033,0.8244147300720215,-0.10384403169155121
1783153869055653000,2.463653076171875,0.6145123243331909,0.9270370602607727,-0.1313321590423584
1783153869065364000,2.473364013671875,0.5051707029342651,1.0284377336502075,-0.16126367449760437
1783153869075074600,2.483074462890625,0.416597843170166,1.1249516010284424,-0.18019993603229523
1783153869084785400,2.492785400390625,0.365286648273468,1.2281848192214966,-0.17531315982341766
1783153869094496000,2.50249609375,0.363454133272171,1.288658618927002,-0.16615045070648193
1783153869104206800,2.512206787109375,0.3921639323234558,1.2513970136642456,-0.18019993603229523
1783153869113917400,2.52191748046875,0.44958359003067017,1.1133455038070679,-0.22784602642059326
1783153869123628000,2.5316279296875,0.5454866290092468,0.9496384263038635,-0.2852656841278076
1783153869133339000,2.5413388671875,0.6505523324012756,0.8146411776542664,-0.3292466700077057
1783153869143049700,2.5510498046875,0.7440119385719299,0.6894174814224243,-0.3518480062484741
1783153869152760300,2.56076025390625,0.8057075142860413,0.5855734348297119,-0.3506263196468353
1783153869162471000,2.570470947265625,0.8386932611465454,0.5006656646728516,-0.3261924386024475
1783153869172181800,2.580181640625,0.8405258059501648,0.3913240134716034,-0.30847787857055664
1783153869181892400,2.589892333984375,0.8063184022903442,0.2752630412578583,-0.3054236173629761
1783153869191603200,2.599603271484375,0.7452336549758911,0.17386239767074585,-0.3035911023616791
1783153869201313800,2.609313720703125,0.6658235192298889,0.09009996801614761,-0.288930743932724
1783153869211024600,2.619024658203125,0.5796940326690674,-0.006413896102458239,-0.2632751762866974
1783153869220735200,2.6287353515625,0.5008947253227234,-0.10292776674032211,-0.23151111602783203
1783153869230446000,2.638446044921875,0.4337015450000763,-0.13408097624778748,-0.18691925704479218
1783153869240156700,2.64815673828125,0.3805578351020813,-0.1322484314441681,-0.1569877415895462
1783153869249867500,2.657867431640625,0.34940463304519653,-0.10048437118530273,-0.14110571146011353
1783153869259578000,2.667578125,0.3439069986343384,-0.018630841746926308,-0.12400199472904205
1783153869269288700,2.677288818359375,0.3255815804004669,0.07360709458589554,-0.10750912129878998
1783153869278999600,2.68699951171875,0.27358320355415344,0.09743013978004456,-0.0916270911693573
1783153869288710400,2.69671044921875,0.20455747842788696,0.038788799196481705,-0.08490777015686035
1783153869298421000,2.7064208984375,0.13064496219158173,-0.08032641559839249,-0.09712471067905426
1783153869308131600,2.716131591796875,0.053678203374147415,-0.24220094084739685,-0.11361759155988693
1783153869317842400,2.725842529296875,-0.020845163613557816,-0.3778090178966522,-0.12400199472904205
1783153869327553000,2.735552978515625,-0.08254073560237885,-0.45172154903411865,-0.10628741979598999
1783153869337263900,2.745263916015625,-0.13690614700317383,-0.5225798487663269,-0.07085828483104706
1783153869346974500,2.754974365234375,-0.17722205817699432,-0.5763344168663025,-0.03665083646774292
1783153869356685300,2.764685302734375,-0.17233528196811676,-0.6135960817337036,-0.007330167107284069
1783153869366396000,2.77439599609375,-0.15095563232898712,-0.6453601121902466,0.0012216945178806782
1783153869376106800,2.784106689453125,-0.1546207070350647,-0.6954495906829834,-0.033596597611904144
1783153869385817300,2.7938173828125,-0.19982340931892395,-0.7821899056434631,-0.1185043677687645
1783153869395528200,2.803528076171875,-0.2865637242794037,-0.855491578578949,-0.20157960057258606
1783153869405238800,2.81323876953125,-0.4038463830947876,-0.8622109293937683,-0.23151111602783203
1783153869414949600,2.82294970703125,-0.5339568853378296,-0.8170081973075867,-0.20035789906978607
1783153869424660200,2.83266015625,-0.6365792155265808,-0.768140435218811,-0.11056335270404816
1783153869444081700,2.85208154296875,-0.7453100085258484,-0.7510367035865784,0.1704263836145401
1783153869453792500,2.86179248046875,-0.8118923902511597,-0.8383878469467163,0.312142938375473
1783153869463503000,2.871503173828125,-0.8913025259971619,-0.9544488191604614,0.418430358171463
1783153869473214000,2.8812138671875,-0.9658258557319641,-1.044243335723877,0.47646087408065796
1783153869482924500,2.890924560546875,-1.031186580657959,-1.0466867685317993,0.49295374751091003
1783153869492635100,2.90063525390625,-1.072113275527954,-0.9831586480140686,0.4569137394428253
1783153869502346000,2.910345947265625,-1.0922712087631226,-0.9349017143249512,0.3689517378807068
1783153869512056600,2.920056640625,-1.0916603803634644,-0.9165763258934021,0.24372805655002594
1783153869521767400,2.929767333984375,-1.0635614395141602,-0.8921424150466919,0.12888877093791962
1783153869531478000,2.93947802734375,-1.0324082374572754,-0.8616000413894653,0.05497625470161438
1783153869541188900,2.94918896484375,-1.0232455730438232,-0.8353336453437805,0.012827792204916477
1783153869550899500,2.9588994140625,-1.0501227378845215,-0.7760814428329468,0.007330167107284069
1783153869560610300,2.9686103515625,-1.1148725748062134,-0.693617045879364,0.022601349279284477
1783153869570321000,2.97832080078125,-1.22054922580719,-0.6019899845123291,0.04031591862440109
1783153869580031700,2.98803173828125,-1.3506596088409424,-0.47920966148376465,0.06047387793660164
1783153869589742300,2.997742431640625,-1.488100290298462,-0.3405473530292511,0.07146912813186646
1783153869599453200,3.007453125,-1.6194324493408203,-0.1847812980413437,0.07452336698770523
1783153869609163800,3.017163818359375,-1.734271764755249,-0.051616594195365906,0.07330167293548584
1783153869618874600,3.02687451171875,-1.8375048637390137,0.03023693896830082,0.07635590434074402
1783153869628585200,3.036585205078125,-1.9248560667037964,0.1188097894191742,0.09040539711713791
1783153869638296000,3.046296142578125,-2.0140397548675537,0.22944949567317963,0.10323318839073181
1783153869648006700,3.056006591796875,-2.086730480194092,0.336347758769989,0.11606097966432571
1783153869657717200,3.06571728515625,-2.1612539291381836,0.4401918053627014,0.12155860662460327
1783153869667428000,3.075427978515625,-2.236999034881592,0.5611395835876465,0.13988402485847473
1783153869677138700,3.085138671875,-2.312133312225342,0.6393280029296875,0.1453816443681717
1783153869686849500,3.094849609375,-2.365277051925659,0.5819083452224731,0.11422843486070633
1783153869696560000,3.10456005859375,-2.364665985107422,0.42308807373046875,0.051922015845775604
1783153869706271000,3.11427099609375,-2.2828125953674316,0.26487863063812256,-0.007330167107284069
1783153869715981600,3.123981689453125,-2.1520912647247314,0.15675868093967438,-0.02626643143594265
1783153869725692400,3.1336923828125,-2.0629074573516846,0.038788799196481705,-0.01588202826678753
1783153869735403000,3.143403076171875,-2.052523136138916,-0.1432436853647232,-0.021379653364419937
1783153869745113900,3.15311376953125,-2.0360302925109863,-0.4450022280216217,-0.10628741979598999
1783153869754824400,3.162824462890625,-1.970058798789978,-0.9165763258934021,-0.30725616216659546
1783153869764535300,3.172535400390625,-1.9071414470672607,-1.3936480283737183,-0.5790832042694092
1783153869774246000,3.182245849609375,-1.8735449314117432,-1.64165198802948,-0.8118160367012024
1783153869783956700,3.191956787109375,-1.8882052898406982,-1.6007252931594849,-0.9199360013008118
1783153869793667300,3.201667236328125,-1.9566200971603394,-1.3618839979171753,-0.860683798789978
1783153869803378000,3.2113779296875,-2.0604641437530518,-1.0613471269607544,-0.6633801460266113
1783153869813088800,3.2210888671875,-2.1636972427368164,-0.8444963097572327,-0.38910970091819763
1783153869822799600,3.230799560546875,-2.2076783180236816,-0.8151756525039673,-0.0916270911693573
1783153869832510200,3.24051025390625,-2.238220691680908,-0.9605573415756226,0.19180603325366974
1783153869842220800,3.250220703125,-2.2626545429229736,-1.2097829580307007,0.4300364851951599
1783153869851931600,3.259931640625,-2.26387619972229,-1.4981029033660889,0.6114581227302551
1783153869861642200,3.269642333984375,-2.229058027267456,-1.771762490272522,0.7287407517433167
1783153869871353000,3.27935302734375,-2.16552996635437,-1.9684553146362305,0.8044858574867249
1783153869881063700,3.289063720703125,-2.093449831008911,-2.0228207111358643,0.873511552810669
1783153869890774500,3.2987744140625,-2.0335869789123535,-1.9550166130065918,0.9425373077392578
1783153869900485000,3.308485107421875,-1.9779998064041138,-1.8530051708221436,0.9859074950218201
1783153869910196000,3.318196044921875,-1.9248560667037964,-1.7497719526290894,1.0158389806747437
1783153869919906600,3.327906494140625,-1.8857618570327759,-1.6611990928649902,1.0494356155395508
1783153869929617400,3.337617431640625,-1.8680472373962402,-1.626991629600525,1.063485026359558
1783153869939328000,3.347327880859375,-1.844224214553833,-1.6404303312301636,1.0555440187454224
1783153869949038800,3.357038818359375,-1.7990214824676514,-1.6514256000518799,1.0243908166885376
1783153869958749400,3.36674951171875,-1.734271764755249,-1.670361876487732,0.9895725846290588
1783153869968460300,3.376460205078125,-1.6518073081970215,-1.7039583921432495,0.9504783153533936
1783153869978171000,3.3861708984375,-1.5559042692184448,-1.744274377822876,0.897334635257721
1783153869987881500,3.395881591796875,-1.4679423570632935,-1.7913095951080322,0.813648521900177
1783153869997592300,3.40559228515625,-1.3750935792922974,-1.7900879383087158,0.7036960124969482
1783153870007303200,3.41530322265625,-1.2852989435195923,-1.7271705865859985,0.5919110178947449
1783153870017013800,3.425013671875,-1.2321553230285645,-1.6715835332870483,0.49173203110694885
1783153870026724400,3.434724365234375,-1.2199382781982422,-1.6587557792663574,0.4080459773540497
1783153870036435200,3.444435302734375,-1.233987808227539,-1.670361876487732,0.3396310806274414
1783153870046145800,3.454145751953125,-1.265751838684082,-1.6789137125015259,0.2901524603366852
1783153870055856600,3.463856689453125,-1.316452145576477,-1.669140100479126,0.26632940769195557
1783153870065567200,3.473567138671875,-1.3738718032836914,-1.6135530471801758,0.27060532569885254
1783153870075278000,3.483278076171875,-1.428848147392273,-1.5433056354522705,0.27915719151496887
1783153870084988700,3.49298876953125,-1.4746615886688232,-1.4718364477157593,0.2620534598827362
1783153870094699500,3.502699462890625,-1.5064257383346558,-1.386928677558899,0.21868331730365753
1783153870104410000,3.51241015625,-1.5271944999694824,-1.32767653465271,0.1441599577665329
1783153870114121000,3.522120849609375,-1.5265836715698242,-1.290414810180664,0.04947862774133682
1783153870123831600,3.53183154296875,-1.5143667459487915,-1.2476555109024048,-0.04153761267662048
1783153870133542400,3.54154248046875,-1.5009280443191528,-1.2000094652175903,-0.129499614238739
1783153870143253000,3.5512529296875,-1.5045931339263916,-1.1939009428024292,-0.22784602642059326
1783153870152963800,3.5609638671875,-1.5009280443191528,-1.2110047340393066,-0.3396310806274414
1783153870162674400,3.57067431640625,-1.4935978651046753,-1.2048962116241455,-0.4489727318286896
1783153870172385000,3.580385009765625,-1.4807701110839844,-1.1908466815948486,-0.554649293422699
1783153870182096000,3.590095947265625,-1.4557254314422607,-1.15114164352417,-0.6413896083831787
1783153870191806500,3.599806396484375,-1.4196853637695312,-1.0656230449676514,-0.6584933400154114
1783153870201517300,3.609517333984375,-1.408690094947815,-0.9275715351104736,-0.5754181146621704
1783153870211228000,3.619227783203125,-1.4355673789978027,-0.8585458397865295,-0.4282039403915405
1783153870220938800,3.628938720703125,-1.4764941930770874,-0.818840742111206,-0.2651077210903168
1783153870230649300,3.6386494140625,-1.5333030223846436,-0.7601994276046753,-0.1313321590423584
1783153870240360200,3.648360107421875,-1.5821707248687744,-0.7913526296615601,-0.05375456064939499
1783153870259781600,3.66778173828125,-1.5907225608825684,-0.9666658043861389,0.030542362481355667
1783153870269492200,3.6774921875,-1.557736873626709,-1.0308047533035278,0.042759306728839874
1783153870279203000,3.687203125,-1.501538872718811,-1.077839970588684,0.01832541823387146
1783153870288913700,3.69691357421875,-1.4251830577850342,-1.0955545902252197,-0.03665083646774292
1783153870298624500,3.70662451171875,-1.3586006164550781,-1.0796725749969482,-0.11911521852016449
1783153870308335000,3.716335205078125,-1.307289481163025,-1.0619579553604126,-0.21318569779396057
1783153870318045700,3.726045654296875,-1.2773579359054565,-1.0155335664749146,-0.29565006494522095
1783153870327756500,3.735756591796875,-1.2749146223068237,-0.9416210651397705,-0.36223241686820984
1783153870337467400,3.74546728515625,-1.2907966375350952,-0.8457180261611938,-0.393385648727417
1783153870347178000,3.755177978515625,-1.316452145576477,-0.7547017931938171,-0.38666632771492004
1783153870356888600,3.764888671875,-1.3476054668426514,-0.6832326650619507,-0.342074453830719
1783153870366599400,3.774599365234375,-1.3647091388702393,-0.6306998133659363,-0.2632751762866974
1783153870376310000,3.78431005859375,-1.3573789596557617,-0.6294780969619751,-0.183865025639534
1783153870386020900,3.794020751953125,-1.3060678243637085,-0.6533011198043823,-0.10750912129878998
1783153870395731500,3.8037314453125,-1.2303227186203003,-0.6887302994728088,-0.05131116881966591
1783153870405442300,3.8134423828125,-1.1350305080413818,-0.7137750387191772,0.0006108472589403391
1783153870415153000,3.82315283203125,-1.0452359914779663,-0.693617045879364,0.042759306728839874
1783153870424863700,3.83286376953125,-0.9957574009895325,-0.6416950225830078,0.06169557198882103
1783153870434574300,3.84257421875,-0.960328221321106,-0.5842754244804382,0.062306419014930725
1783153870444285200,3.85228515625,-0.9365051984786987,-0.5109737515449524,0.04581354558467865
1783153870453995800,3.861995849609375,-0.924288272857666,-0.45111069083213806,0.006108472589403391
1783153870463706400,3.871706298828125,-0.9126821756362915,-0.4169032573699951,-0.05803048983216286
1783153870473417200,3.881417236328125,-0.8796964287757874,-0.3906368315219879,-0.1178935244679451
1783153870483128000,3.891128173828125,-0.8271635174751282,-0.3912476599216461,-0.16065283119678497
1783153870492838700,3.900838623046875,-0.7581378221511841,-0.38941511511802673,-0.16553960740566254
1783153870502549200,3.91054931640625,-0.6842252612113953,-0.3668137788772583,-0.12583453953266144
1783153870512260000,3.920260009765625,-0.6109235882759094,-0.3411581814289093,-0.06047387793660164
1783153870521970700,3.929970703125,-0.5467846393585205,-0.3142809271812439,0.013438640162348747
1783153870531681500,3.939681640625,-0.4966951906681061,-0.29351210594177246,0.07024743407964706
1783153870541392100,3.94939208984375,-0.4563792645931244,-0.28129515051841736,0.09529217332601547
1783153870551103000,3.95910302734375,-0.4282802939414978,-0.26663482189178467,0.09712471067905426
1783153870560813600,3.9688134765625,-0.405678927898407,-0.21654535830020905,0.09956810623407364
1783153870570524400,3.9785244140625,-0.38552096486091614,-0.1291942000389099,0.11361759155988693
1783153870580235000,3.988235107421875,-0.35558944940567017,-0.018630841746926308,0.1563768982887268
1783153870589945900,3.99794580078125,-0.31588438153266907,0.08887827396392822,0.20768806338310242
1783153870599656400,4.007656494140625,-0.24930204451084137,0.17141900956630707,0.2620534598827362
1783153870609367000,4.017366943359375,-0.1656159609556198,0.21540001034736633,0.3042019307613373
1783153870619078000,4.027077880859375,-0.07887565344572067,0.2575484812259674,0.337798535823822
1783153870628788700,4.036788818359375,-0.015958385542035103,0.2691545784473419,0.3500154912471771
1783153870638499300,4.046499267578125,0.009697199799120426,0.23433628678321838,0.3310792148113251
1783153870648210000,4.0562099609375,0.00908635277301073,0.20073968172073364,0.2919849753379822
1783153870657920800,4.065920654296875,-0.005573981441557407,0.17752748727798462,0.2510582208633423
1783153870667631400,4.07563134765625,-0.015958385542035103,0.154926136136055,0.21562908589839935
1783153870677342200,4.08534228515625,-0.00007635590736754239,0.16042375564575195,0.19302773475646973
1783153870687052800,4.095052734375,0.06223006546497345,0.17630578577518463,0.19424942135810852
1783153870696763600,4.104763671875,0.15630054473876953,0.1921878159046173,0.21562908589839935
1783153870706474200,4.11447412109375,0.250981867313385,0.21173493564128876,0.2492256760597229
1783153870716185000,4.12418505859375,0.30786702036857605,0.23800136148929596,0.2773246467113495
1783153870725895700,4.133895751953125,0.32313820719718933,0.2587701678276062,0.2870981991291046
1783153870735606500,4.1436064453125,0.2987042963504791,0.30519455671310425,0.2919849753379822
1783153870745317000,4.153317138671875,0.24853847920894623,0.37238776683807373,0.3029802441596985
1783153870755027700,4.16302783203125,0.21677441895008087,0.4548521339893341,0.3432961702346802
1783153870764738600,4.172738525390625,0.2131093442440033,0.5409815907478333,0.3903313875198364
1783153870774449400,4.182449462890625,0.2393757700920105,0.619170069694519,0.44958359003067017
1783153870784160000,4.192159912109375,0.3115321099758148,0.6888066530227661,0.5149442553520203
1783153870793870600,4.20187060546875,0.40071579813957214,0.6845307350158691,0.5754181146621704
1783153870803581400,4.21158154296875,0.48073679208755493,0.5843517780303955,0.6230642199516296
1783153870813292000,4.2212919921875,0.5265503525733948,0.3772745430469513,0.6658235192298889
1783153870823003000,4.2310029296875,0.5167768001556396,0.058335911482572556,0.6920899152755737
1783153870832713500,4.24071337890625,0.4489727318286896,-0.3570402264595032,0.6627692580223083
1783153870842424300,4.25042431640625,0.38788801431655884,-0.7528692483901978,0.6163448691368103
1783153870852135000,4.260135009765625,0.3561239540576935,-0.9953756332397461,0.6041279435157776
1783153870861845800,4.269845703125,0.31947311758995056,-1.0582928657531738,0.6517740488052368
1783153870871556400,4.279556396484375,0.2686964273452759,-0.9599464535713196,0.7214106321334839
1783153870881267200,4.28926708984375,0.22043950855731964,-0.7577560544013977,0.7721109390258789
1783153870890977800,4.298977783203125,0.20455747842788696,-0.4987567961215973,0.8050966858863831
1783153870900688600,4.308688720703125,0.20455747842788696,-0.19088977575302124,0.8283088803291321
1783153870910399200,4.318399169921875,0.18012358248233795,0.11270131915807724,0.8576295375823975
1783153870920110000,4.328110107421875,0.13186664879322052,0.338791161775589,0.9040539264678955
1783153870929820700,4.337820556640625,0.0689493864774704,0.5165477395057678,0.9663603901863098
1783153870939531300,4.34753125,0.012140588834881783,0.6130616068840027,1.009730577468872
1783153870949242000,4.3572421875,-0.014125842601060867,0.6429930925369263,1.0158389806747437
1783153870958952700,4.36695263671875,-0.005573981441557407,0.6356629133224487,0.9565867781639099
1783153870968663600,4.37666357421875,0.04023956134915352,0.5696914196014404,0.8393041491508484
1783153870978374100,4.3863740234375,0.14530529081821442,0.46218231320381165,0.6768187880516052
1783153870988085000,4.3960849609375,0.29626092314720154,0.34489962458610535,0.49356457591056824
1783153870997795600,4.405795654296875,0.4727957844734192,0.21112407743930817,0.312142938375473
1783153871007506400,4.41550634765625,0.6303943991661072,0.07238540053367615,0.15393351018428802
1783153871017217000,4.425217041015625,0.7409577369689941,-0.04734066128730774,0.03665083646774292
1783153871026927900,4.434927978515625,0.7886037826538086,-0.1169772520661354,-0.04886778071522713
1783153871036638500,4.444638427734375,0.7739434838294983,-0.1310267299413681,-0.1056765764951706
1783153871046349300,4.454349365234375,0.7220214605331421,-0.07971556484699249,-0.13438639044761658
1783153871056060000,4.464059814453125,0.6499415040016174,0.019241688773036003,-0.13744063675403595
1783153871065770500,4.4737705078125,0.5497625470161438,0.1291942000389099,-0.1313321590423584
1783153871075481300,4.4834814453125,0.41476529836654663,0.22273017466068268,-0.13560809195041656
1783153871085192000,4.49319189453125,0.2760266065597534,0.30214032530784607,-0.16248537600040436
1783153871094902800,4.50290283203125,0.15813308954238892,0.38521555066108704,-0.19424942135810852
1783153871104613400,4.51261328125,0.07811209559440613,0.4524087607860565,-0.24433889985084534
1783153871114324200,4.52232421875,0.04756972938776016,0.5177693963050842,-0.3249707520008087
1783153871124034800,4.532034912109375,0.07139277458190918,0.553809404373169,-0.4294256269931793
1783153871133745700,4.54174560546875,0.13736428320407867,0.5709131360054016,-0.5051707029342651
1783153871143456300,4.551456298828125,0.2259371280670166,0.6136724352836609,-0.5344913601875305
1783153871153167000,4.5611669921875,0.3164188861846924,0.6405497193336487,-0.5222744345664978
1783153871162877700,4.570877685546875,0.3695625960826874,0.6539883613586426,-0.47768256068229675
1783153871172588500,4.580588623046875,0.4043808877468109,0.6619293689727783,-0.38666632771492004
1783153871182299100,4.590299072265625,0.41232189536094666,0.6374954581260681,-0.2492256760597229
1783153871192010000,4.600010009765625,0.39888325333595276,0.540370762348175,-0.0910162404179573
1783153871201720600,4.609720458984375,0.38483378291130066,0.4566846787929535,0.033596597611904144
1783153871211431200,4.61943115234375,0.3811686933040619,0.362003356218338,0.09345962852239609
1783153871221142000,4.62914208984375,0.4092676639556885,0.2954210042953491,0.11483928561210632
1783153871230852600,4.6388525390625,0.4446968138217926,0.24227729439735413,0.10873081535100937
1783153871240563500,4.6485634765625,0.4752391576766968,0.21051323413848877,0.06780404597520828
1783153871250274000,4.658274169921875,0.49173203110694885,0.21784339845180511,0
1783153871259985000,4.66798486328125,0.5033381581306458,0.2709871232509613,-0.08918370306491852
1783153871269695500,4.677695556640625,0.5173876285552979,0.3369586169719696,-0.17958909273147583
1783153871279406300,4.68740625,0.5387672781944275,0.3888806402683258,-0.24067382514476776
1783153871289117000,4.697116943359375,0.5638120174407959,0.42186638712882996,-0.2602209448814392
1783153871298827800,4.706827880859375,0.5815265774726868,0.43408334255218506,-0.24006296694278717
1783153871308538400,4.716538330078125,0.601073682308197,0.4182012975215912,-0.2095206081867218
1783153871318249200,4.726249267578125,0.6218425035476685,0.3803287744522095,-0.1588202863931656
1783153871327959800,4.735959716796875,0.6511631608009338,0.338791161775589,-0.10811996459960938
1783153871337670700,4.745670654296875,0.6780404448509216,0.28931254148483276,-0.05619794875383377
1783153871347381200,4.75538134765625,0.7104153633117676,0.20929154753684998,-0.018936265259981155
1783153871357091800,4.765091796875,0.7446228265762329,0.11392301321029663,-0.0012216945178806782
1783153871366802700,4.774802734375,0.7837170362472534,0.04734066128730774,-0.014660334214568138
1783153871376513500,4.784513427734375,0.8228112459182739,-0.0021379655227065086,-0.053143709897994995
1783153871386224000,4.79422412109375,0.8619054555892944,-0.017409147694706917,-0.08918370306491852
1783153871395934700,4.803934814453125,0.8845068216323853,0.0198525357991457,-0.11606097966432571
1783153871405645600,4.8136455078125,0.8887827396392822,0.06261184066534042,-0.130721315741539
1783153871415356200,4.823356201171875,0.8759549856185913,0.09437590092420578,-0.12827792763710022
1783153871425067000,4.83306689453125,0.8576295375823975,0.10109522193670273,-0.10750912129878998
1783153871434777600,4.842777587890625,0.8509102463722229,0.06749862432479858,-0.08674030750989914
1783153871444488400,4.852488525390625,0.860683798789978,0.0021379655227065086,-0.06169557198882103
1783153871454199000,4.862198974609375,0.888171911239624,-0.06444438546895981,-0.046424392610788345
1783153871463910000,4.871909912109375,0.9187142848968506,-0.09437590092420578,-0.024433890357613564
1783153871473620500,4.881620361328125,0.9370396733283997,-0.05405998229980469,0.004275931045413017
1783153871483331300,4.891331298828125,0.9370396733283997,0.008246437646448612,0.0397050715982914
1783153871493042000,4.9010419921875,0.9303203821182251,0.016798298805952072,0.0390942245721817
1783153871502752500,4.91075244140625,0.9327637553215027,0.026571854948997498,-0.016492875292897224
1783153871512463400,4.92046337890625,0.9431481957435608,0.07543963938951492,-0.11545012891292572
1783153871522174200,4.93017431640625,0.9449806809425354,0.13408097624778748,-0.24433889985084534
1783153871531884800,4.939884765625,0.9413156509399414,0.17630578577518463,-0.3903313875198364
1783153871541595400,4.949595458984375,0.9486457705497742,0.21662171185016632,-0.527161180973053
1783153871551306200,4.95930615234375,0.9743013978004456,0.26732203364372253,-0.6420004963874817
1783153871561016800,4.969016845703125,1.0152281522750854,0.3497864007949829,-0.7201889157295227
1783153871570727700,4.978727783203125,1.0518789291381836,0.4444677233695984,-0.7470661997795105
1783153871580438300,4.988438232421875,1.073258638381958,0.5098283886909485,-0.7342383861541748
1783153871590149000,4.998149169921875,1.0909732580184937,0.5110501050949097,-0.7207997441291809
1783153871599859700,5.007859619140625,1.1435060501098633,0.47317755222320557,-0.7207997441291809
1783153871609570600,5.017570556640625,1.2216944694519043,0.49028128385543823,-0.6810947060585022
1783153871619281200,5.02728125,1.327981948852539,0.5996229648590088,-0.5625903010368347
1783153871628992000,5.036991943359375,1.4318259954452515,0.757221519947052,-0.3536805510520935
1783153871638702600,5.04670263671875,1.5136795043945312,0.9074899554252625,-0.07330167293548584
1783153871648413200,5.0564130859375,1.5625473260879517,0.9905651807785034,0.21257483959197998
1783153871658124000,5.0661240234375,1.5973656177520752,0.9911760091781616,0.4330907166004181
1783153871667835000,5.0758349609375,1.6205778121948242,0.938032329082489,0.5845808386802673
1783153871677545500,5.08554541015625,1.6266862154006958,0.8445726633071899,0.6529957056045532
1783153871687256000,5.095256103515625,1.6340163946151733,0.6973584890365601,0.6597150564193726
1783153871696967000,5.104966796875,1.6382923126220703,0.5189911127090454,0.6090146899223328
1783153871706677500,5.114677490234375,1.6340163946151733,0.38521555066108704,0.5222744345664978
1783153871716388400,5.124388427734375,1.6248537302017212,0.30458372831344604,0.41354358196258545
1783153871726099000,5.134098876953125,1.5924787521362305,0.2740413546562195,0.29442837834358215
1783153871735809800,5.143809814453125,1.5283398628234863,0.30458372831344604,0.1850867122411728
1783153871745520400,5.153520263671875,1.434880256652832,0.440802663564682,0.08735115826129913
1783153871755231200,5.163231201171875,1.3200409412384033,0.6619293689727783,0.0018325417768210173
1783153871764941800,5.17294189453125,1.1984822750091553,0.90993332862854,-0.07146912813186646
1783153871774652700,5.182652587890625,1.0769237279891968,1.1402227878570557,-0.13316470384597778
1783153871784363300,5.19236328125,0.962695300579071,1.3283637762069702,-0.17225892841815948
1783153871794074000,5.20207421875,0.8783983588218689,1.4511439800262451,-0.18691925704479218
1783153871803784700,5.21178466796875,0.8222004175186157,1.5067311525344849,-0.17653486132621765
1783153871813495600,5.22149560546875,0.8014315962791443,1.5372735261917114,-0.14904673397541046
1783153871823206100,5.2312060546875,0.8191461563110352,1.5415494441986084,-0.11117420345544815
1783153871832917000,5.2409169921875,0.8655705451965332,1.5048985481262207,-0.07757759839296341
1783153871842627600,5.250627685546875,0.9364288449287415,1.4163256883621216,-0.05008947476744652
1783153871852338400,5.26033837890625,1.0341644287109375,1.2953779697418213,-0.047646086663007736
1783153871862049000,5.270049072265625,1.1447277069091797,1.1530505418777466,-0.06291726976633072
1783153871871759600,5.279759521484375,1.2559019327163696,1.0278269052505493,-0.08490777015686035
1783153871881470500,5.289470458984375,1.3469182252883911,0.9398648738861084,-0.10750912129878998
1783153871891181000,5.29918115234375,1.4220523834228516,0.8537353873252869,-0.14110571146011353
1783153871900892000,5.308891845703125,1.4929107427597046,0.7645516991615295,-0.19180603325366974
1783153871910602500,5.3186025390625,1.5668232440948486,0.6955259442329407,-0.25777754187583923
1783153871920313300,5.328313232421875,1.6205778121948242,0.6796439290046692,-0.312142938375473
1783153871930024000,5.33802392578125,1.650509238243103,0.6448256373405457,-0.365286648273468
1783153871939734800,5.34773486328125,1.6828842163085938,0.5208236575126648,-0.4220954477787018
1783153871949445400,5.3574453125,1.7219784259796143,0.38216131925582886,-0.469741553068161
1783153871959156200,5.36715625,1.7604618072509766,0.20257222652435303,-0.4960079789161682
1783153871968866800,5.37686669921875,1.7836740016937256,0.0021379655227065086,-0.517998456954956
1783153871978577700,5.38657763671875,1.7787872552871704,-0.16095824539661407,-0.5515950918197632
1783153871988288300,5.396288330078125,1.7580183744430542,-0.2476985603570938,-0.6077930331230164
1783153871997999000,5.4059990234375,1.7348061800003052,-0.222042977809906,-0.6725428104400635
1783153872007709700,5.415709716796875,1.7262543439865112,-0.0791047215461731,-0.7207997441291809
1783153872017420500,5.425420654296875,1.72991943359375,0.13896775245666504,-0.7336275577545166
1783153872027131100,5.435131103515625,1.7390820980072021,0.38399386405944824,-0.7085828185081482
1783153872036841700,5.444841796875,1.7451906204223633,0.6717029213905334,-0.6438329815864563
1783153872046552600,5.454552490234375,1.7482448816299438,0.9588011503219604,-0.5540384650230408
1783153872056263200,5.46426318359375,1.7415255308151245,1.1719868183135986,-0.4837910234928131
1783153872065974000,5.47397412109375,1.719534993171692,1.3228660821914673,-0.4306473135948181
1783153872075684600,5.4836845703125,1.666391372680664,1.433429479598999,-0.38849884271621704
1783153872085395500,5.4933955078125,1.5937005281448364,1.5140613317489624,-0.3530697226524353
1783153872095106000,5.50310595703125,1.5252856016159058,1.5586531162261963,-0.30847787857055664
1783153872104817000,5.51281689453125,1.4690876007080078,1.5824761390686035,-0.258999228477478
1783153872114527500,5.522527587890625,1.4257174730300903,1.581254482269287,-0.20402298867702484
1783153872124238300,5.53223828125,1.3988401889801025,1.5617073774337769,-0.13927318155765533
1783153872133949000,5.541948974609375,1.3835690021514893,1.5439927577972412,-0.05803048983216286
1783153872143659800,5.55165966796875,1.3805148601531982,1.5501012802124023,0.03420744836330414
1783153872153370400,5.561370361328125,1.3854016065597534,1.5641508102416992,0.14843589067459106
1783153872163081200,5.571081298828125,1.3847907781600952,1.614240288734436,0.2626643180847168
1783153872172791800,5.580791748046875,1.3835690021514893,1.6808226108551025,0.34757208824157715
1783153872182502700,5.590502685546875,1.3750171661376953,1.6014124155044556,0.3512371778488159
1783153872192213200,5.600213134765625,1.3566917181015015,1.3430240154266357,0.24189551174640656
1783153872201924000,5.609924072265625,1.3548592329025269,1.0143882036209106,0.04153761267662048
1783153872211634700,5.619634765625,1.3835690021514893,0.7902072668075562,-0.18081079423427582
1783153872221345300,5.62934521484375,1.401283621788025,0.7443937659263611,-0.33474430441856384
1783153872231056100,5.63905615234375,1.378682255744934,0.8537353873252869,-0.365286648273468
1783153872240767000,5.64876708984375,1.3383663892745972,1.0937983989715576,-0.28404396772384644
1783153872250477600,5.6584775390625,1.3096565008163452,1.3717339038848877,-0.1178935244679451
1783153872260188200,5.668188232421875,1.3151541948318481,1.6411175727844238,0.10323318839073181
1783153872269899000,5.67789892578125,1.3481398820877075,1.826815128326416,0.3390202224254608
1783153872279609600,5.687609619140625,1.40617036819458,1.8885107040405273,0.5375455617904663
1783153872289320400,5.697320556640625,1.4617575407028198,1.7864991426467896,0.6591041684150696
1783153872299031000,5.707031005859375,1.5142903327941895,1.5262782573699951,0.6872031688690186
1783153872308742000,5.716741943359375,1.5698775053024292,1.1713759899139404,0.6340594291687012
1783153872318452500,5.726452392578125,1.6254645586013794,0.8073109984397888,0.5033381581306458
1783153872328163300,5.736163330078125,1.651731014251709,0.5116609334945679,0.32252734899520874
1783153872337874000,5.7458740234375,1.637070655822754,0.3479538559913635,0.12400199472904205
1783153872347584800,5.755584716796875,1.5979764461517334,0.3656684458255768,-0.07024743407964706
1783153872357295400,5.76529541015625,1.5649906396865845,0.5031090974807739,-0.24006296694278717
1783153872367006200,5.775006103515625,1.5430002212524414,0.6668161153793335,-0.367730051279068
1783153872376716800,5.784716796875,1.5368916988372803,0.8207496404647827,-0.4349232614040375
1783153872386427600,5.794427734375,1.5387243032455444,0.9129875898361206,-0.4416425824165344
1783153872396138200,5.80413818359375,1.5601038932800293,0.9331455230712891,-0.3823903799057007
1783153872405849000,5.81384912109375,1.5943113565444946,0.886721134185791,-0.2779355049133301
1783153872415559700,5.8235595703125,1.6303513050079346,0.8005917072296143,-0.15026842057704926
1783153872425270300,5.833270263671875,1.6596720218658447,0.6973584890365601,-0.024433890357613564
1783153872434981000,5.842981201171875,1.6773865222930908,0.6093965172767639,0.08857285231351852
1783153872444692000,5.85269189453125,1.6889926195144653,0.5422033071517944,0.183865025639534
1783153872454402600,5.862402587890625,1.6932686567306519,0.48722705245018005,0.2516690790653229
1783153872464113200,5.872113037109375,1.6957119703292847,0.44874367117881775,0.29381752014160156
1783153872473824000,5.881823974609375,1.6908252239227295,0.44568943977355957,0.33291175961494446
1783153872483534600,5.89153466796875,1.702431321144104,0.48967042565345764,0.37078428268432617
1783153872493245400,5.901245361328125,1.7189241647720337,0.5544202327728271,0.420873761177063
1783153872502956000,5.9109560546875,1.7305302619934082,0.6295544505119324,0.45385950803756714
1783153872512667000,5.9206669921875,1.7225892543792725,0.6820873022079468,0.46363306045532227
1783153872522377500,5.93037744140625,1.6987662315368652,0.7004127502441406,0.45263782143592834
1783153872532088300,5.94008837890625,1.6615045070648193,0.6936933994293213,0.4227063059806824
1783153872541799000,5.949798828125,1.6016415357589722,0.6442148089408875,0.37261682748794556
1783153872551509800,5.959509765625,1.5289506912231445,0.5623612403869629,0.30908870697021484
1783153872561220400,5.969220458984375,1.4544273614883423,0.4713450074195862,0.24494975805282593
1783153872570931200,5.97893115234375,1.3860124349594116,0.4035409688949585,0.18753011524677277
1783153872580641800,5.988641845703125,1.3438639640808105,0.3638359010219574,0.16737215220928192
1783153872590352600,5.9983525390625,1.3084348440170288,0.35894912481307983,0.18019993603229523
1783153872600063200,6.008063232421875,1.2644537687301636,0.3882697820663452,0.21746163070201874
1783153872609774000,6.017774169921875,1.1942063570022583,0.43530502915382385,0.2632751762866974
1783153872619484700,6.027484619140625,1.1233481168746948,0.4554629921913147,0.2993151545524597
1783153872629195300,6.0371953125,1.0592091083526611,0.44568943977355957,0.32374903559684753
1783153872638906000,6.046906005859375,0.998735249042511,0.42369893193244934,0.3408527672290802
1783153872648617000,6.056616943359375,0.9272661209106445,0.38399386405944824,0.34573954343795776
1783153872658327600,6.06632763671875,0.846023440361023,0.3210766017436981,0.33718767762184143
1783153872668038100,6.0760380859375,0.7617265582084656,0.26487863063812256,0.32313820719718933
1783153872677749000,6.0857490234375,0.6768187880516052,0.231282040476799,0.2987042963504791
1783153872687459800,6.0954599609375,0.5992411375045776,0.22761696577072144,0.258999228477478
1783153872697170400,6.10517041015625,0.5436540842056274,0.25143998861312866,0.22845686972141266
1783153872706881000,6.114881103515625,0.5015056133270264,0.2746522128582001,0.2101314514875412
1783153872716591900,6.124591796875,0.4599680006504059,0.27770644426345825,0.1979145109653473
1783153872726302500,6.134302490234375,0.41476529836654663,0.2563267946243286,0.1850867122411728
1783153872736013300,6.144013427734375,0.37383851408958435,0.22456271946430206,0.17286977171897888
1783153872745724000,6.153723876953125,0.33230090141296387,0.19035527110099792,0.17348061501979828
1783153872755434800,6.163434814453125,0.2870981991291046,0.14018943905830383,0.18142163753509521
1783153872765145300,6.173145263671875,0.24181915819644928,0.07360709458589554,0.19424942135810852
1783153872774856200,6.182856201171875,0.1984490007162094,0.022906772792339325,0.2095206081867218
1783153872784566800,6.19256689453125,0.15324631333351135,0.0009162708884105086,0.22967857122421265
1783153872794277600,6.202277587890625,0.09949174523353577,-0.032069481909275055,0.25533416867256165
1783153872803988200,6.21198828125,0.034131091088056564,-0.13347013294696808,0.2632751762866974
1783153872813699000,6.221698974609375,-0.037948887795209885,-0.30939415097236633,0.21746163070201874
1783153872823409700,6.23140966796875,-0.07643226534128189,-0.5213581323623657,0.0916270911693573
1783153872833120500,6.24112060546875,-0.07765395939350128,-0.749204158782959,-0.11483928561210632
1783153872842831000,6.2508310546875,-0.049554985016584396,-0.9422318935394287,-0.3542914092540741
1783153872852542000,6.2605419921875,-0.0067956759594380856,-1.0479084253311157,-0.5741963982582092
1783153872862252500,6.27025244140625,0.00908635277301073,-1.0295830965042114,-0.7415685653686523
1783153872871963400,6.27996337890625,-0.0037414394319057465,-0.901915967464447,-0.8179244995117188
1783153872881674000,6.289674072265625,-0.03245126083493233,-0.6587987542152405,-0.7702783942222595
1783153872891384800,6.299384765625,-0.08742751181125641,-0.32100024819374084,-0.6126797795295715
1783153872901095400,6.309095458984375,-0.13873867690563202,0.016187451779842377,-0.390942245721817
1783153872910806300,6.31880615234375,-0.16072918474674225,0.23616881668567657,-0.1301104724407196
1783153872920516900,6.328516845703125,-0.14301460981369019,0.29236677289009094,0.11972606182098389
1783153872930227500,6.3382275390625,-0.09475768357515335,0.1799708753824234,0.3261924386024475
1783153872939938300,6.347938232421875,-0.03733803704380989,-0.055892523378133774,0.4734066128730774
1783153872949649000,6.35764892578125,0.021914144977927208,-0.2782409191131592,0.5809157490730286
1783153872959359700,6.36735986328125,0.061619218438863754,-0.40285375714302063,0.6554391384124756
1783153872969070300,6.3770703125,0.05734328553080559,-0.46577104926109314,0.6823163628578186
1783153872978781200,6.38678125,0.0231358390301466,-0.49203747510910034,0.6694886088371277
1783153872988491800,6.39649169921875,-0.0293970238417387,-0.44988900423049927,0.6151232123374939
1783153872998202600,6.40620263671875,-0.08681666851043701,-0.3399364948272705,0.5143333673477173
1783153873007913200,6.415913330078125,-0.15217731893062592,-0.222042977809906,0.3567348122596741
1783153873017624000,6.4256240234375,-0.21509459614753723,-0.12247487902641296,0.1557660549879074
1783153873027334700,6.435334716796875,-0.26212984323501587,-0.03451287001371384,-0.05375456064939499
1783153873037045500,6.44504541015625,-0.29206135869026184,0.030847785994410515,-0.2480039894580841
1783153873046756000,6.454756103515625,-0.3085542321205139,0.05344913527369499,-0.42514967918395996
1783153873056467000,6.464467041015625,-0.2975589632987976,0.07238540053367615,-0.5589252710342407
1783153873066177500,6.474177490234375,-0.27862271666526794,0.11270131915807724,-0.6322268843650818
1783153873075888400,6.483888427734375,-0.2627406716346741,0.14942851662635803,-0.6505523324012756
1783153873085599000,6.493598876953125,-0.25174543261528015,0.1940203607082367,-0.6175665855407715
1783153873095309800,6.503309814453125,-0.24197186529636383,0.22700610756874084,-0.5583143830299377
1783153873105020400,6.5130205078125,-0.23525254428386688,0.22578442096710205,-0.49356457591056824
1783153873114731300,6.522731201171875,-0.24258272349834442,0.18791188299655914,-0.42453885078430176
1783153873124441900,6.53244189453125,-0.26396235823631287,0.12308572232723236,-0.3701734244823456
1783153873134152700,6.542152587890625,-0.29145050048828125,0.05344913527369499,-0.32313820719718933
1783153873143863300,6.55186328125,-0.3213820159435272,0.011911521665751934,-0.2858765125274658
1783153873153574100,6.56157421875,-0.3470376133918762,-0.025961007922887802,-0.25533416867256165
1783153873163284700,6.57128466796875,-0.3519243896007538,-0.04489727318286896,-0.23212195932865143
1783153873172995600,6.58099560546875,-0.3274904787540436,-0.05100574716925621,-0.23212195932865143
1783153873182706200,6.5907060546875,-0.2871745824813843,-0.046729814261198044,-0.2498365342617035
1783153873192417000,6.6004169921875,-0.24075017869472504,-0.025350160896778107,-0.26632940769195557
1783153873202127600,6.610127685546875,-0.193104088306427,-0.008246437646448612,-0.26877278089523315
1783153873211838500,6.61983837890625,-0.14790138602256775,-0.008246437646448612,-0.27060532569885254
1783153873221549000,6.629549072265625,-0.11308310180902481,-0.007635590620338917,-0.265718549489975
1783153873231259600,6.639259765625,-0.09720107167959213,-0.003359660040587187,-0.25777754187583923
1783153873240970500,6.648970458984375,-0.10697462409734726,0.018630841746926308,-0.2363978922367096
1783153873250681300,6.658681396484375,-0.1289651244878769,0.05528167635202408,-0.2101314514875412
1783153873260392000,6.668391845703125,-0.14851224422454834,0.10720369219779968,-0.17653486132621765
1783153873270102500,6.6781025390625,-0.15034478902816772,0.1665322333574295,-0.1557660549879074
1783153873279813400,6.6878134765625,-0.139960378408432,0.21662171185016632,-0.14171656966209412
1783153873289524000,6.69752392578125,-0.1149156391620636,0.2575484812259674,-0.13682979345321655
1783153873299234800,6.70723486328125,-0.08498412370681763,0.30519455671310425,-0.13682979345321655
1783153873308945400,6.7169453125,-0.06726955622434616,0.34245625138282776,-0.13499724864959717
1783153873318656300,6.72665625,-0.05077667906880379,0.3754419982433319,-0.11972606182098389
1783153873328366800,6.736366943359375,-0.025121092796325684,0.417590469121933,-0.08796200156211853
1783153873338077700,6.74607763671875,0.005421269219368696,0.4395809471607208,-0.045202698558568954
1783153873347788300,6.755788330078125,0.04879142343997955,0.4426352083683014,-0.0024433890357613564
1783153873357499100,6.7654990234375,0.0952158197760582,0.4157579243183136,0.028098974376916885
1783153873367209700,6.775209716796875,0.1587439328432083,0.3791070878505707,0.051922015845775604
1783153873376920600,6.784920654296875,0.23448899388313293,0.35833826661109924,0.08429691940546036
1783153873386631200,6.794631103515625,0.31092125177383423,0.3784962296485901,0.1459924876689911
1783153873396342000,6.804342041015625,0.37444937229156494,0.4004867374897003,0.22845686972141266
1783153873406052600,6.814052490234375,0.4159869849681854,0.40598437190055847,0.3164188861846924
1783153873415763500,6.823763427734375,0.448361873626709,0.47623178362846375,0.39888325333595276
1783153873425474000,6.83347412109375,0.43797749280929565,0.5739673376083374,0.46607646346092224
1783153873435185000,6.843184814453125,0.41171106696128845,0.5788541436195374,0.5100574493408203
1783153873444895500,6.8528955078125,0.38849884271621704,0.4585172235965729,0.5289937257766724
1783153873454606300,6.8626064453125,0.35795649886131287,0.13835690915584564,0.4471401870250702
1783153873464317000,6.87231689453125,0.3500154912471771,-0.30695074796676636,0.21990501880645752
1783153873474027800,6.88202783203125,0.34818294644355774,-0.6276455521583557,-0.0653606578707695
1783153873483738400,6.89173828125,0.3127537965774536,-0.6728482842445374,-0.2864873707294464
1783153873493449200,6.90144921875,0.24731677770614624,-0.4559974670410156,-0.35978904366493225
1783153873503159800,6.911159912109375,0.19111883640289307,0.03145863488316536,-0.24494975805282593
1783153873512870700,6.92087060546875,0.16485241055488586,0.6845307350158691,0.025655584409832954
1783153873522581200,6.930581298828125,0.17584764957427979,1.2660572528839111,0.3775036036968231
1783153873532292000,6.9402919921875,0.19783815741539001,1.581254482269287,0.7006418108940125
1783153873542002700,6.950002685546875,0.21921780705451965,1.5739243030548096,0.9407047629356384
1783153873551713500,6.959713623046875,0.24487338960170746,1.3143142461776733,1.0848647356033325
1783153873561424100,6.969424072265625,0.27358320355415344,0.8848885893821716,1.1215155124664307
1783153873571135000,6.979135009765625,0.32130566239356995,0.3760528564453125,1.0555440187454224
1783153873580845600,6.988845458984375,0.39766156673431396,-0.08887827396392822,0.9168817400932312
1783153873590556200,6.99855615234375,0.5033381581306458,-0.3955236077308655,0.7214106321334839
1783153873600267000,7.00826708984375,0.5992411375045776,-0.5299099683761597,0.46851983666419983
1783153873609977900,7.017977783203125,0.6536065936088562,-0.5286883115768433,0.21318569779396057
1783153873619688400,7.0276884765625,0.6762079000473022,-0.4040754735469818,-0.014049487188458443
1783153873629399300,7.0373994140625,0.6786513328552246,-0.19150061905384064,-0.1850867122411728
1783153873639110000,7.04710986328125,0.6615476012229919,0.060779303312301636,-0.2742704153060913
1783153873648820500,7.056820556640625,0.6120689511299133,0.2990860939025879,-0.2736595869064331
1783153873658531300,7.06653125,0.5430431962013245,0.45973891019821167,-0.18569757044315338
1783153873668242200,7.0762421875,0.47829338908195496,0.5275429487228394,-0.03665083646774292
1783153873677952800,7.085952880859375,0.44103172421455383,0.5348731279373169,0.13682979345321655
1783153873687663400,7.095663330078125,0.43736663460731506,0.4817294180393219,0.29259583353996277
1783153873697374200,7.105374267578125,0.469741553068161,0.38277217745780945,0.4080459773540497
1783153873707084800,7.115084716796875,0.5167768001556396,0.2819823622703552,0.4862344264984131
1783153873716795600,7.124795654296875,0.5601469278335571,0.1934095174074173,0.5283828973770142
1783153873726506200,7.13450634765625,0.5931326746940613,0.11514470726251602,0.5210527181625366
1783153873736217000,7.144217041015625,0.6212316751480103,0.055892523378133774,0.46363306045532227
1783153873745927700,7.153927734375,0.6358919739723206,0.0393996499478817,0.36284327507019043
1783153873755638500,7.163638427734375,0.6432221531867981,0.08338065445423126,0.2516690790653229
1783153873765349000,7.17334912109375,0.6505523324012756,0.1677539348602295,0.16615045070648193
1783153873775060000,7.18306005859375,0.6474980711936951,0.25327253341674805,0.10934165865182877
1783153873784770600,7.1927705078125,0.6206207871437073,0.29114508628845215,0.06780404597520828
1783153873794481400,7.2024814453125,0.5974085927009583,0.31313556432724,0.04092676565051079
1783153873804192000,7.21219189453125,0.5680879354476929,0.3253525197505951,0.0525328628718853
1783153873813902800,7.22190283203125,0.5332696437835693,0.31985488533973694,0.09773556143045425
1783153873823613400,7.231613525390625,0.49112120270729065,0.2825932204723358,0.1575985997915268
1783153873833324300,7.24132421875,0.4428642690181732,0.22700610756874084,0.24006296694278717
1783153873843035000,7.251034912109375,0.3939964771270752,0.17752748727798462,0.34512871503829956
1783153873852745700,7.260745849609375,0.3274141252040863,0.13957859575748444,0.4618005156517029
1783153873862456300,7.270456298828125,0.24976016581058502,0.10659284889698029,0.5595360994338989
1783153873872167200,7.280167236328125,0.174625962972641,0.08704573661088943,0.6285618543624878
1783153873881877800,7.289877685546875,0.120871402323246,0.06872031837701797,0.6743753552436829
1783153873891588600,7.299588623046875,0.08360971510410309,0.028404397889971733,0.6945333480834961
1783153873901299200,7.30929931640625,0.05428905040025711,-0.013133215717971325,0.6823163628578186
1783153873911010000,7.319010009765625,0.031076854094862938,-0.03573456406593323,0.6536065936088562
1783153873920720600,7.328720703125,0.014583977870643139,-0.0522274412214756,0.6120689511299133
1783153873930431500,7.338431396484375,-0.0067956759594380856,-0.058335911482572556,0.5674771070480347
1783153873940142000,7.34814208984375,-0.0293970238417387,-0.059557609260082245,0.5253286361694336
1783153873949853000,7.35785302734375,-0.056274302303791046,-0.08948912471532822,0.48806697130203247
1783153873959563500,7.3675634765625,-0.07643226534128189,-0.13530266284942627,0.45080527663230896
1783153873969274400,7.3772744140625,-0.08987089991569519,-0.168899267911911,0.418430358171463
1783153873978985000,7.38698486328125,-0.09903360903263092,-0.19944162666797638,0.39827242493629456
1783153873988695800,7.39669580078125,-0.11369394510984421,-0.22815145552158356,0.3927747905254364
1783153873998406400,7.406406494140625,-0.139960378408432,-0.2483094036579132,0.39766156673431396
1783153874008117200,7.4161171875,-0.1796654462814331,-0.25686126947402954,0.3836120665073395
1783153874017827800,7.425827880859375,-0.22670069336891174,-0.24159009754657745,0.3274141252040863
1783153874027538700,7.43553857421875,-0.26212984323501587,-0.1701209545135498,0.2644968628883362
1783153874037249300,7.445249267578125,-0.2871745824813843,-0.10964708030223846,0.18936264514923096
1783153874046960000,7.454960205078125,-0.2969481348991394,-0.10964708030223846,0.07085828483104706
1783153874056670700,7.464670654296875,-0.2835094928741455,-0.16523417830467224,-0.09284878522157669
1783153874066381600,7.474381591796875,-0.24991288781166077,-0.23181653022766113,-0.2907632887363434
1783153874076092200,7.484092041015625,-0.19066070020198822,-0.31855684518814087,-0.5204418897628784
1783153874085803000,7.493802978515625,-0.13690614700317383,-0.42545512318611145,-0.7757760286331177
1783153874095513600,7.503513671875,-0.07337802648544312,-0.45355409383773804,-1.0055309534072876
1783153874105224400,7.513224365234375,-0.0031305921729654074,-0.3906368315219879,-1.1826766729354858
1783153874114935000,7.52293505859375,0.06100837141275406,-0.28373855352401733,-1.2999593019485474
1783153874124646000,7.53264599609375,0.10315682739019394,-0.13347013294696808,-1.339664340019226
1783153874134356500,7.5423564453125,0.12697987258434296,0.08582404255867004,-1.293239951133728
1783153874144067300,7.5520673828125,0.14164020121097565,0.33085015416145325,-1.1649620532989502
1783153874153778000,7.56177783203125,0.16363070905208588,0.5281538367271423,-0.9523872137069702
1783153874163488800,7.57148876953125,0.1727934181690216,0.6381063461303711,-0.6713211536407471
1783153874173199400,7.581199462890625,0.16790664196014404,0.623445987701416,-0.36162158846855164
1783153874182910200,7.59091015625,0.17768019437789917,0.4572955369949341,-0.0653606578707695
1783153874192620800,7.600620849609375,0.21738526225090027,0.15981291234493256,0.19180603325366974
1783153874202331600,7.61033154296875,0.2546469569206238,-0.19150061905384064,0.39888325333595276
1783153874212042200,7.620042236328125,0.2625879645347595,-0.5238015055656433,0.5467082858085632
1783153874221753000,7.629753173828125,0.2259371280670166,-0.7400414347648621,0.6322268843650818
1783153874231463700,7.639463623046875,0.1605764776468277,-0.8353336453437805,0.6413896083831787
1783153874241174500,7.649174560546875,0.07750124484300613,-0.8310576677322388,0.5821374654769897
1783153874250885000,7.658885009765625,-0.01779092662036419,-0.72599196434021,0.47585001587867737
1783153874260596000,7.668595947265625,-0.10758547484874725,-0.5152496695518494,0.34635040163993835
1783153874270306600,7.678306640625,-0.18943901360034943,-0.22937314212322235,0.21196399629116058
1783153874280017200,7.68801708984375,-0.25052374601364136,0.0791047215461731,0.08612946420907974
1783153874289728000,7.69772802734375,-0.30427828431129456,0.3351260721683502,-0.04214845970273018
1783153874299438800,7.70743896484375,-0.3378748893737793,0.5086066722869873,-0.15149012207984924
1783153874309149400,7.7171494140625,-0.3397074341773987,0.5984012484550476,-0.24189551174640656
1783153874318860300,7.7268603515625,-0.3134410083293915,0.6155049800872803,-0.30969956517219543
1783153874328571000,7.73657080078125,-0.2596864402294159,0.6014555096626282,-0.35795649886131287
1783153874338281500,7.746281494140625,-0.1937149316072464,0.5867951512336731,-0.3787252902984619
1783153874347992300,7.755992431640625,-0.1265217363834381,0.5855734348297119,-0.38666632771492004
1783153874357703200,7.765703125,-0.07215633243322372,0.6075639724731445,-0.40193748474121094
1783153874367413800,7.775413818359375,-0.03245126083493233,0.6484907269477844,-0.43858832120895386
1783153874377124600,7.78512451171875,0.008475505746901035,0.6912500262260437,-0.4703523814678192
1783153874386835200,7.794835205078125,0.04879142343997955,0.7431720495223999,-0.4752391576766968
1783153874396545800,7.8045458984375,0.08055548369884491,0.7963157296180725,-0.448361873626709
1783153874406256600,7.814256591796875,0.11537377536296844,0.8286906480789185,-0.3970507085323334
1783153874415967500,7.823967529296875,0.15141376852989197,0.8372425436973572,-0.34451785683631897
1783153874425678000,7.833677978515625,0.1880646049976349,0.8329665660858154,-0.3035911023616791
1783153874435388700,7.843388671875,0.23326729238033295,0.8219713568687439,-0.2754921019077301
1783153874445099500,7.853099609375,0.2858765125274658,0.8384642004966736,-0.2516690790653229
1783153874454810000,7.86281005859375,0.34757208824157715,0.8396859169006348,-0.24128466844558716
1783153874464521000,7.87252099609375,0.40987852215766907,0.8097543716430664,-0.2516690790653229
1783153874474231800,7.882231689453125,0.4734066128730774,0.7718818783760071,-0.26632940769195557
1783153874483942400,7.8919423828125,0.5326588153839111,0.7315659523010254,-0.2895416021347046
1783153874493653000,7.901653076171875,0.5833591222763062,0.6778113842010498,-0.3115321099758148
1783153874503363800,7.91136376953125,0.6077930331230164,0.6087856292724609,-0.342074453830719
1783153874513074400,7.921074462890625,0.6041279435157776,0.5305972099304199,-0.3787252902984619
1783153874522785300,7.930785400390625,0.5943543910980225,0.48905959725379944,-0.39949411153793335
1783153874532496000,7.940495849609375,0.5839699506759644,0.5098283886909485,-0.39949411153793335
1783153874542206700,7.950206787109375,0.5741963982582092,0.5593070387840271,-0.3775036036968231
1783153874551917300,7.959917236328125,0.569309651851654,0.6228351593017578,-0.33291175961494446
1783153874561628200,7.969628173828125,0.5760289430618286,0.6808656454086304,-0.28221142292022705
1783153874571338800,7.9793388671875,0.5888567566871643,0.729733407497406,-0.23273280262947083
1783153874581049600,7.989049560546875,0.6047387719154358,0.7584432363510132,-0.19424942135810852
1783153874590760200,7.99876025390625,0.6358919739723206,0.7437828779220581,-0.17286977171897888
1783153874600471000,8.008470947265625,0.6872031688690186,0.6845307350158691,-0.16004198789596558
1783153874610181600,8.018181640625,0.7495095729827881,0.5977904200553894,-0.15515519678592682
1783153874619892500,8.027892578125,0.8240329623222351,0.49761146306991577,-0.14782503247261047
1783153874629603300,8.037603271484375,0.893058717250824,0.40964943170547485,-0.12278030067682266
1783153874639314000,8.04731396484375,0.9400939345359802,0.3778853714466095,-0.06963659077882767
1783153874649024500,8.0570244140625,0.9547542929649353,0.3760528564453125,0.007330167107284069
1783153874658735400,8.0667353515625,0.9468132257461548,0.39376741647720337,0.09712471067905426
1783153874668446000,8.076446044921875,0.9352071285247803,0.4127036929130554,0.18936264514923096
1783153874678156800,8.08615673828125,0.9174925684928894,0.4652365446090698,0.27976804971694946
1783153874687867400,8.095867431640626,0.8887827396392822,0.5617504119873047,0.37689274549484253
1783153874697578200,8.105578125,0.8515210747718811,0.6710920929908752,0.46668729186058044
1783153874707288800,8.115288818359375,0.818535327911377,0.6845307350158691,0.5015056133270264
1783153874716999700,8.124999755859376,0.8148702383041382,0.5984012484550476,0.47829338908195496
1783153874726710300,8.134710205078125,0.8509102463722229,0.46157145500183105,0.40132665634155273
1783153874736421000,8.144421142578125,0.911384105682373,0.25449424982070923,0.26999449729919434
1783153874746131700,8.154131591796874,0.9602518677711487,0.027182703837752342,0.09956810623407364
1783153874755842600,8.163842529296875,0.9791881442070007,-0.11086877435445786,-0.046424392610788345
1783153874765553200,8.17355322265625,0.9602518677711487,-0.12186402827501297,-0.1185043677687645
1783153874775264000,8.183263916015624,0.9290986657142639,0.026571854948997498,-0.08429691940546036
1783153874784974600,8.192974609375,0.9132166504859924,0.2880908250808716,0.03787253051996231
1783153874794685400,8.202685546875,0.9248227477073669,0.5788541436195374,0.19913621246814728
1783153874804396000,8.21239599609375,0.9510892033576965,0.8207496404647827,0.34757208824157715
1783153874814107000,8.22210693359375,0.9871291518211365,0.9575794339179993,0.45019441843032837
1783153874823817500,8.2318173828125,1.0207257270812988,0.9618553519248962,0.4960079789161682
1783153874833528300,8.2415283203125,1.0531007051467896,0.8775584697723389,0.48012593388557434
1783153874843239000,8.251239013671874,1.0946383476257324,0.7541673183441162,0.40254834294319153
1783153874852949800,8.26094970703125,1.133732557296753,0.6057314276695251,0.28037887811660767
1783153874862660400,8.270660400390625,1.1923738718032837,0.4817294180393219,0.130721315741539
1783153874872371200,8.28037109375,1.2546802759170532,0.3931565582752228,-0.033596597611904144
1783153874882081800,8.290081787109376,1.3072131872177124,0.34673216938972473,-0.1979145109653473
1783153874891792600,8.299792724609375,1.3444747924804688,0.3351260721683502,-0.34818294644355774
1783153874901503200,8.309503173828125,1.3628002405166626,0.38155046105384827,-0.4587462842464447
1783153874911214000,8.319214111328124,1.373795509338379,0.42125552892684937,-0.5210527181625366
1783153874920924700,8.328924560546875,1.3890666961669922,0.39559996128082275,-0.5412106513977051
1783153874930635500,8.338635498046875,1.411668062210083,0.32901760935783386,-0.5088357925415039
1783153874940346000,8.34834619140625,1.443432092666626,0.2581593096256256,-0.446529358625412
1783153874950057000,8.358056884765626,1.4690876007080078,0.18241426348686218,-0.38544461131095886
1783153874959767800,8.367767822265625,1.4904673099517822,0.11514470726251602,-0.342074453830719
1783153874969478400,8.377478515625,1.5246747732162476,0.08032641559839249,-0.2999260127544403
1783153874979189000,8.38718896484375,1.5625473260879517,0.1328592747449875,-0.25716668367385864
1783153874988899800,8.39689990234375,1.5827052593231201,0.24899661540985107,-0.21318569779396057
1783153874998610400,8.4066103515625,1.5845377445220947,0.3998758792877197,-0.16492876410484314
1783153875008321300,8.4163212890625,1.5918679237365723,0.5586961507797241,-0.09284878522157669
1783153875018032000,8.4260322265625,1.599808931350708,0.6888066530227661,-0.014660334214568138
1783153875027742700,8.43574267578125,1.6022523641586304,0.7981482744216919,0.0647498071193695
1783153875037453300,8.445453369140624,1.5875920057296753,0.9252045154571533,0.130721315741539
1783153875047164200,8.4551640625,1.5454435348510742,1.0333244800567627,0.17348061501979828
1783153875056874800,8.464874755859375,1.4868022203445435,1.061423420906067,0.1966928243637085
1783153875066585600,8.474585693359375,1.4183872938156128,1.006447196006775,0.20280128717422485
1783153875076296200,8.484296142578126,1.3560808897018433,0.8977164030075073,0.2095206081867218
1783153875086007000,8.494007080078125,1.3041589260101318,0.7755469679832458,0.21685077250003815
1783153875095717600,8.503717529296875,1.243685007095337,0.6692595481872559,0.20035789906978607
1783153875105428500,8.513428466796874,1.1966497898101807,0.6051205396652222,0.15943112969398499
1783153875115139000,8.52313916015625,1.1606098413467407,0.5354839563369751,0.1050657257437706
1783153875124850000,8.532849853515625,1.1312891244888306,0.4389701187610626,0.03420744836330414
1783153875134560500,8.542560546875,1.1202938556671143,0.3119138777256012,-0.02993151545524597
1783153875144271400,8.552271240234376,1.1300674676895142,0.2434989959001541,-0.05008947476744652
1783153875153982000,8.56198193359375,1.1392301321029663,0.3003077805042267,-0.005497625097632408
1783153875163692800,8.57169287109375,1.111131191253662,0.415147066116333,0.06963659077882767
1783153875173403400,8.5814033203125,1.0439379215240479,0.4463002681732178,0.15332266688346863
1783153875183114200,8.5911142578125,0.9681929349899292,0.36811181902885437,0.22723518311977386
1783153875192824800,8.600824951171875,0.9003888368606567,0.2587701678276062,0.284654825925827
1783153875202535700,8.61053564453125,0.841747522354126,0.17813833057880402,0.29748260974884033
1783153875212246300,8.620246337890626,0.7959339618682861,0.11086877435445786,0.2473931461572647
1783153875221957000,8.62995703125,0.7788302302360535,0.024128466844558716,0.15454435348510742
1783153875231667700,8.639667724609374,0.8075400590896606,-0.06994201242923737,0.06719319522380829
1783153875241378600,8.649378662109376,0.8582404255867004,-0.10048437118530273,0.0018325417768210173
1783153875251089200,8.659089111328125,0.8985562920570374,-0.1175880953669548,-0.023212196305394173
1783153875260800000,8.668800048828125,0.9101623892784119,-0.15973655879497528,-0.0006108472589403391
1783153875270510600,8.678510498046874,0.8906152844429016,-0.17745113372802734,0.04947862774133682
1783153875280221400,8.688221435546875,0.8643488883972168,-0.144465371966362,0.11056335270404816
1783153875289932300,8.697932373046875,0.8423583507537842,-0.07421794533729553,0.16309621930122375
1783153875299643000,8.707642822265624,0.8197570443153381,0.030847785994410515,0.20096874237060547
1783153875309353500,8.717353515625,0.7959339618682861,0.09865183383226395,0.22601348161697388
1783153875319064300,8.727064208984375,0.7751652002334595,0.05772506445646286,0.2101314514875412
1783153875328775000,8.73677490234375,0.7537854909896851,-0.027793550863862038,0.15393351018428802
1783153875338485800,8.74648583984375,0.7275190949440002,-0.1169772520661354,0.08124268800020218
1783153875348196600,8.756196533203125,0.6859814524650574,-0.19883078336715698,-0.029320668429136276
1783153875357907200,8.7659072265625,0.6114581227302551,-0.2495311051607132,-0.17714570462703705
1783153875367617800,8.77561767578125,0.5320479869842529,-0.21532365679740906,-0.34940463304519653
1783153875377328600,8.78532861328125,0.4593571424484253,-0.07421794533729553,-0.5381564497947693
1783153875387039200,8.795039306640625,0.4227063059806824,0.13591352105140686,-0.7140804529190063
1783153875396750000,8.80475,0.4172086715698242,0.37177690863609314,-0.8472451567649841
1783153875406461000,8.8144609375,0.4453076422214508,0.5855734348297119,-0.9168817400932312
1783153875416171500,8.824171630859375,0.499673068523407,0.7645516991615295,-0.8918370008468628
1783153875425882000,8.833882080078125,0.5790832042694092,0.9087116718292236,-0.7666133046150208
1783153875435593000,8.843593017578126,0.6792621612548828,0.9905651807785034,-0.5766398310661316
1783153875445303600,8.853303466796875,0.7959339618682861,0.9636878967285156,-0.38910970091819763
1783153875455014400,8.863014404296875,0.9425373077392578,0.8751150369644165,-0.20585553348064423
1783153875464725200,8.872725341796874,1.0915840864181519,0.7755469679832458,-0.03787253051996231
1783153875474435800,8.882435791015626,1.2241379022598267,0.6167266368865967,0.11422843486070633
1783153875484146400,8.892146484375,1.342031478881836,0.4530195891857147,0.26755109429359436
1783153875493857300,8.901857177734374,1.447708010673523,0.35528403520584106,0.4049917459487915
1783153875503568000,8.91156787109375,1.5326157808303833,0.3094705045223236,0.5222744345664978
1783153875513278700,8.92127880859375,1.5790401697158813,0.30458372831344604,0.6041279435157776
1783153875522989600,8.930989501953125,1.5759859085083008,0.35406234860420227,0.6261184215545654
1783153875532700200,8.9407001953125,1.5430002212524414,0.45118704438209534,0.5766398310661316
1783153875542410800,8.95041064453125,1.4965758323669434,0.5916818976402283,0.4691306948661804
1783153875552121600,8.96012158203125,1.439156174659729,0.7413395047187805,0.3396310806274414
1783153875561832200,8.969832275390624,1.3890666961669922,0.8751150369644165,0.1973036676645279
1783153875571543000,8.97954296875,1.3469182252883911,0.9881218075752258,0.08551861345767975
1783153875581254000,8.98925390625,1.3120999336242676,1.0711970329284668,-0.011606098152697086
1783153875590964500,8.998964599609375,1.2748382091522217,1.1218973398208618,-0.08796200156211853
1783153875600675000,9.008675048828126,1.2430741786956787,1.1616023778915405,-0.13621893525123596
1783153875610386000,9.018385986328125,1.2143644094467163,1.2342932224273682,-0.14721418917179108
1783153875620096500,9.028096435546875,1.170383334159851,1.3564627170562744,-0.12339114397764206
1783153875629807400,9.037807373046874,1.1190721988677979,1.5177264213562012,-0.0787992998957634
1783153875639518200,9.047518310546875,1.0909732580184937,1.6612755060195923,-0.029320668429136276
1783153875649228800,9.057228759765625,1.1086877584457397,1.7822232246398926,-0.004886778071522713
1783153875658939400,9.066939453125,1.1697725057601929,1.8652985095977783,-0.025655584409832954
1783153875668650200,9.076650146484376,1.271173119544983,1.8976733684539795,-0.08612946420907974
1783153875678361000,9.086361083984375,1.40617036819458,1.868963599205017,-0.16126367449760437
1783153875688071700,9.09607177734375,1.572320818901062,1.8329235315322876,-0.22479179501533508
1783153875697782500,9.105782470703126,1.7348061800003052,1.7810015678405762,-0.2724378705024719
1783153875707493000,9.1154931640625,1.8814095258712769,1.6936503648757935,-0.29442837834358215
1783153875717204000,9.125203857421875,1.9950271844863892,1.603855848312378,-0.29442837834358215
1783153875726914600,9.13491455078125,2.0787131786346436,1.5397168397903442,-0.27060532569885254
1783153875736625400,9.14462548828125,2.140408754348755,1.4682477712631226,-0.24067382514476776
1783153875746336000,9.1543359375,2.1886656284332275,1.3821182250976562,-0.21562908589839935
1783153875756046800,9.164046875,2.2253165245056152,1.2984322309494019,-0.20219044387340546
1783153875765757400,9.17375732421875,2.2485287189483643,1.2245197296142578,-0.2107423096895218
1783153875775468300,9.18346826171875,2.265632390975952,1.193366527557373,-0.22479179501533508
1783153875785179000,9.193178955078125,2.2668542861938477,1.2116918563842773,-0.24433889985084534
1783153875794889700,9.2028896484375,2.254026412963867,1.2318499088287354,-0.28221142292022705
1783153875804600300,9.212600341796875,2.233868360519409,1.2355148792266846,-0.3384093940258026
1783153875814311200,9.222311279296875,2.216153860092163,1.2342932224273682,-0.3921639323234558
1783153875824021800,9.232021728515624,2.1972177028656006,1.2373474836349487,-0.4471401870250702
1783153875833732600,9.241732666015626,2.195995807647705,1.2550621032714844,-0.49173203110694885
1783153875843443200,9.251443115234375,2.210045337677002,1.3124816417694092,-0.5070032477378845
1783153875853154000,9.261154052734375,2.230814218521118,1.3833400011062622,-0.49173203110694885
1783153875862864600,9.27086474609375,2.2583022117614746,1.4151040315628052,-0.45385950803756714
1783153875872575500,9.280575439453125,2.2864012718200684,1.3747881650924683,-0.41048935055732727
1783153875882286000,9.2902861328125,2.313889503479004,1.2917128801345825,-0.35856732726097107
1783153875891997000,9.299996826171874,2.340766668319702,1.2068051099777222,-0.312142938375473
1783153875901707500,9.30970751953125,2.3755850791931152,1.1567156314849854,-0.2870981991291046
1783153875911418400,9.31941845703125,2.4287288188934326,1.0937983989715576,-0.27976804971694946
1783153875921129000,9.32912890625,2.47881817817688,1.0217183828353882,-0.28282228112220764
1783153875930839800,9.33883984375,2.516690731048584,0.9862892627716064,-0.2602209448814392
1783153875940550400,9.34855029296875,2.5441787242889404,1.035767912864685,-0.1985253542661667
1783153875950261200,9.35826123046875,2.5533416271209717,1.2055834531784058,-0.0916270911693573
1783153875959971800,9.367971923828126,2.5240209102630615,1.4163256883621216,0.026877280324697495
1783153875969682700,9.3776826171875,2.493478536605835,1.4511439800262451,0.11239589750766754
1783153875979393300,9.387393310546875,2.5148582458496094,1.1664892435073853,0.11911521852016449
1783153875989104000,9.397104248046874,2.5527307987213135,0.6155049800872803,-0.007941014133393764
1783153875998814700,9.406814697265625,2.624199867248535,0.11147962510585785,-0.20035789906978607
1783153876008525600,9.416525634765625,2.6803977489471436,-0.050394900143146515,-0.30969956517219543
1783153876018236200,9.426236083984374,2.695668935775757,0.08765657991170883,-0.2742704153060913
1783153876027947000,9.435947021484376,2.6248106956481934,0.38399386405944824,-0.13744063675403595
1783153876037657600,9.44565771484375,2.5014195442199707,0.7132405042648315,0.04153761267662048
1783153876047368400,9.455368408203125,2.374974250793457,0.9630770683288574,0.20463383197784424
1783153876057079000,9.4650791015625,2.265021562576294,1.067531943321228,0.31092125177383423
1783153876066790000,9.474789794921875,2.1740055084228516,1.0638668537139893,0.3549022674560547
1783153876076500500,9.48450048828125,2.0921518802642822,1.0498173236846924,0.3555130958557129
1783153876086211300,9.49421142578125,2.0206828117370605,1.0583692789077759,0.3390202224254608
1783153876095922000,9.503921875,1.9620413780212402,1.0809705257415771,0.3042019307613373
1783153876105632800,9.5136328125,1.919282078742981,1.0944092273712158,0.23151111602783203
1783153876115343400,9.52334326171875,1.8905723094940186,1.0913549661636353,0.12644538283348083
1783153876125054200,9.53305419921875,1.868581771850586,1.052871584892273,0.0024433890357613564
1783153876134764800,9.542764892578125,1.8386502265930176,1.0088906288146973,-0.11545012891292572
1783153876144475600,9.5524755859375,1.7965017557144165,0.9838458895683289,-0.2101314514875412
1783153876154186500,9.5621865234375,1.76595938205719,1.0076688528060913,-0.2773246467113495
1783153876163897000,9.57189697265625,1.7543532848358154,1.0650885105133057,-0.3133646547794342
1783153876173608000,9.58160791015625,1.7830631732940674,1.1347250938415527,-0.33352261781692505
1783153876183318500,9.591318603515624,1.8307092189788818,1.193366527557373,-0.3286358118057251
1783153876193029000,9.601029052734376,1.883242130279541,1.1994749307632446,-0.29259583353996277
1783153876202740000,9.610739990234375,1.925390601158142,1.141444444656372,-0.21868331730365753
1783153876212450800,9.620450927734375,1.9650956392288208,1.0192749500274658,-0.11117420345544815
1783153876222161400,9.630161376953126,1.998692274093628,0.8525137305259705,0.03237490355968475
1783153876231872300,9.639872314453125,2.0267910957336426,0.6802547574043274,0.1985253542661667
1783153876241582800,9.649582763671875,2.0640528202056885,0.5110501050949097,0.3811686933040619
1783153876251293700,9.659293701171874,2.0872650146484375,0.37238776683807373,0.5351021885871887
1783153876261004300,9.66900439453125,2.102536201477051,0.31802234053611755,0.6560499668121338
1783153876270715100,9.678715087890625,2.1049797534942627,0.4029301106929779,0.7366818189620972
1783153876280425700,9.68842578125,2.088486671447754,0.5696914196014404,0.762948215007782
1783153876290136600,9.698136474609376,2.0750482082366943,0.7059103846549988,0.7623373866081238
1783153876299847200,9.70784716796875,2.0616095066070557,0.7816554307937622,0.7476770281791687
1783153876309558000,9.71755810546875,2.051225185394287,0.8140303492546082,0.7391251921653748
1783153876319268600,9.7272685546875,2.045116662979126,0.8103652596473694,0.7336275577545166
1783153876328979500,9.7369794921875,2.0414514541625977,0.7981482744216919,0.7165238261222839
1783153876338690000,9.74668994140625,2.1104772090911865,0.6411605477333069,0.6652126908302307
1783153876348401000,9.75640087890625,2.1367437839508057,0.42003384232521057,0.6126797795295715
1783153876358111500,9.766111572265626,2.100092887878418,0.387658953666687,0.5894675850868225
1783153876367822300,9.775822265625,2.016406774520874,0.4255314767360687,0.5870242118835449
1783153876377533000,9.785532958984374,1.9241688251495361,0.4713450074195862,0.578472375869751
1783153876387243800,9.795243896484376,1.8551430702209473,0.512882649898529,0.5351021885871887
1783153876396954400,9.804954345703125,1.8172706365585327,0.5654155015945435,0.47768256068229675
1783153876406665200,9.814665283203125,1.8197139501571655,0.6918608546257019,0.43614494800567627
1783153876416375800,9.824375732421874,1.8673601150512695,0.854957103729248,0.40193748474121094
1783153876426086700,9.834086669921875,1.897902488708496,0.8329665660858154,0.35917818546295166
1783153876435797200,9.84379736328125,1.9773125648498535,0.8189170956611633,0.31947311758995056
1783153876445508000,9.853508056640624,1.9534895420074463,0.5654155015945435,0.2620534598827362
1783153876455218700,9.86321875,1.928444743156433,0.38460469245910645,0.21318569779396057
1783153876464929500,9.872929443359375,1.9376075267791748,0.44935452938079834,0.2486148327589035
1783153876474640100,9.88264013671875,1.9406617879867554,0.6839198470115662,0.3549022674560547
1783153876484351000,9.89235107421875,1.923557996749878,0.9282587766647339,0.49417543411254883
1783153876494061600,9.9020615234375,1.9034000635147095,1.1396119594573975,0.6450546979904175
1783153876503772400,9.9117724609375,1.8850746154785156,1.2849935293197632,0.7898254990577698
1783153876513483300,9.921483154296874,1.8704142570495605,1.366847038269043,0.91566002368927
1783153876523193900,9.93119384765625,1.8484238386154175,1.408995509147644,1.0298885107040405
1783153876532904700,9.94090478515625,1.8300983905792236,1.3644037246704102,1.1312891244888306
1783153876542615300,9.950615234375,1.8197139501571655,1.2013075351715088,1.2045907974243164
1783153876552326100,9.960326171875,1.8209357261657715,0.9716289043426514,1.2339115142822266
1783153876562036700,9.97003662109375,1.817881464958191,0.7303442358970642,1.2058124542236328
1783153876571747600,9.97974755859375,1.7916150093078613,0.5122717618942261,1.1184613704681396
1783153876581458200,9.989458251953126,1.7274760007858276,0.35589489340782166,0.962695300579071
1783153876591169000,9.9991689453125,1.637681484222412,0.2941993176937103,0.739736020565033
1783153876600879600,10.008879638671875,1.5210096836090088,0.3485647141933441,0.47951510548591614
1783153876610590500,10.018590576171874,1.3933426141738892,0.5525876879692078,0.22479179501533508
1783153876620301000,10.028301025390626,1.271173119544983,0.8830560445785522,0.018936265259981155
1783153876630012000,10.038011962890625,1.1709941625595093,1.2434560060501099,-0.1172826737165451
1783153876639722500,10.047722412109374,1.0958600044250488,1.5592639446258545,-0.18691925704479218
1783153876649433300,10.057433349609376,1.0408837795257568,1.7681736946105957,-0.20096874237060547
1783153876659144000,10.06714404296875,1.0017894506454468,1.8842346668243408,-0.17470231652259827
1783153876668854800,10.076854736328125,0.9840749502182007,1.899505853652954,-0.12705622613430023
1783153876678565400,10.0865654296875,0.990183413028717,1.8365886211395264,-0.06352811306715012
1783153876688276200,10.096276123046875,1.009730577468872,1.743129014968872,0.009773556143045425
1783153876697986800,10.10598681640625,1.035996913909912,1.6325656175613403,0.08246438205242157
1783153876707697700,10.11569775390625,1.0757020711898804,1.4810755252838135,0.14049486815929413
1783153876717408300,10.125408203125,1.1251806020736694,1.303318977355957,0.17348061501979828
1783153876727119000,10.135119140625,1.1813786029815674,1.1591590642929077,0.1704263836145401
1783153876736829700,10.14482958984375,1.2326897382736206,1.061423420906067,0.14843589067459106
1783153876746540500,10.15454052734375,1.26872980594635,0.993619441986084,0.10873081535100937
1783153876756251400,10.16425146484375,1.2840009927749634,0.9325346946716309,0.04825693368911743
1783153876765962000,10.1739619140625,1.276059865951538,0.867784857749939,-0.026877280324697495
1783153876775672800,10.1836728515625,1.2559019327163696,0.8195279240608215,-0.09895725548267365
1783153876785383400,10.193383544921875,1.2271921634674072,0.784709632396698,-0.15087927877902985
1783153876795094300,10.20309423828125,1.1856545209884644,0.7425612211227417,-0.183865025639534
1783153876804804900,10.212804931640624,1.1435060501098633,0.6826981902122498,-0.20157960057258606
1783153876814515700,10.222515625,1.0928057432174683,0.6130616068840027,-0.21868331730365753
1783153876824226300,10.232226318359375,1.037218689918518,0.5452575087547302,-0.23884128034114838
1783153876833937200,10.241937255859375,0.9797990322113037,0.491502970457077,-0.2522799074649811
1783153876843647700,10.251647705078126,0.9193251132965088,0.4524087607860565,-0.26938363909721375
1783153876853358600,10.261358642578125,0.8484668135643005,0.43774840235710144,-0.2779355049133301
1783153876863069200,10.271069091796875,0.7721109390258789,0.4432460367679596,-0.2730487287044525
1783153876872780000,10.280780029296874,0.7043069005012512,0.4389701187610626,-0.261442631483078
1783153876882490600,10.29049072265625,0.6493306159973145,0.4133145213127136,-0.2363978922367096
1783153876892201500,10.300201416015625,0.6047387719154358,0.39559996128082275,-0.20035789906978607
1783153876901912000,10.309912109375,0.5644228458404541,0.366279274225235,-0.1588202863931656
1783153876911623000,10.319622802734376,0.5247178077697754,0.31680065393447876,-0.12461283802986145
1783153876921333500,10.32933349609375,0.48012593388557434,0.26365694403648376,-0.11117420345544815
1783153876931044400,10.33904443359375,0.42331716418266296,0.2459423840045929,-0.10873081535100937
1783153876940755200,10.348755126953124,0.35795649886131287,0.26487863063812256,-0.11972606182098389
1783153876950465800,10.3584658203125,0.2895416021347046,0.2972535490989685,-0.1459924876689911
1783153876960176600,10.3681767578125,0.23265644907951355,0.34306707978248596,-0.18142163753509521
1783153876979597800,10.387597900390626,0.15568970143795013,0.4432460367679596,-0.2718270421028137
1783153876989308700,10.39730859375,0.14041851460933685,0.470734179019928,-0.2877090573310852
1783153876999019500,10.40701953125,0.12392564117908478,0.48905959725379944,-0.2901524603366852
1783153877008730000,10.416730224609376,0.10376767814159393,0.48967042565345764,-0.2767138183116913
1783153877018441000,10.42644091796875,0.09277242422103882,0.44996535778045654,-0.26877278089523315
1783153877028151600,10.436151611328125,0.09949174523353577,0.4145362079143524,-0.2651077210903168
1783153877037862400,10.4458623046875,0.10376767814159393,0.387658953666687,-0.261442631483078
1783153877047573000,10.455572998046875,0.09765920788049698,0.37177690863609314,-0.2602209448814392
1783153877057283800,10.465283935546875,0.08422056585550308,0.36994436383247375,-0.2602209448814392
1783153877066994400,10.474994384765624,0.06528430432081223,0.3913240134716034,-0.25533416867256165
1783153877076705300,10.484705322265626,0.04512634128332138,0.4267531633377075,-0.2602209448814392
1783153877086416000,10.494415771484375,0.024968381971120834,0.4316399395465851,-0.258999228477478
1783153877096126700,10.504126708984375,-0.0031305921729654074,0.4188121557235718,-0.2486148327589035
1783153877105837300,10.51383740234375,-0.05138752609491348,0.39682164788246155,-0.21440738439559937
1783153877115548200,10.523548095703125,-0.1149156391620636,0.3607816696166992,-0.18019993603229523
1783153877125258800,10.5332587890625,-0.18638476729393005,0.31741151213645935,-0.15087927877902985
1783153877134969600,10.542969482421874,-0.25296711921691895,0.2868691384792328,-0.12888877093791962
1783153877144680400,10.552680419921876,-0.3201603293418884,0.2850365936756134,-0.12033691257238388
1783153877154391000,10.56239111328125,-0.3794125020503998,0.3003077805042267,-0.11606097966432571
1783153877164101600,10.5721015625,-0.4307236671447754,0.3210766017436981,-0.09407047927379608
1783153877173812500,10.5818125,-0.4673745036125183,0.36750099062919617,-0.056808795779943466
1783153877183523300,10.5915234375,-0.5021927952766418,0.4017084240913391,-0.020157959312200546
1783153877193234000,10.60123388671875,-0.5296809077262878,0.4163687527179718,0.010995250195264816
1783153877202944800,10.61094482421875,-0.5547256469726562,0.4426352083683014,0.0390942245721817
1783153877212655400,10.6206552734375,-0.5773270130157471,0.46462568640708923,0.05803048983216286
1783153877222366200,10.6303662109375,-0.6078693866729736,0.4970006048679352,0.06780404597520828
1783153877232076800,10.640076904296874,-0.6451310515403748,0.5458683967590332,0.07635590434074402
1783153877241787600,10.64978759765625,-0.6756734251976013,0.6258893609046936,0.09834641218185425
1783153877251498200,10.659498291015625,-0.697053074836731,0.7285116910934448,0.13866232335567474
1783153877261209000,10.669208984375,-0.697053074836731,0.7279008626937866,0.1844758689403534
1783153877270919700,10.678919677734376,-0.6854469776153564,0.5623612403869629,0.19119518995285034
1783153877280630500,10.688630615234375,-0.6494069695472717,0.30641624331474304,0.1698155403137207
1783153877290341000,10.698341064453125,-0.6023717522621155,0.013133215717971325,0.09590301662683487
1783153877300052000,10.708052001953124,-0.586489737033844,-0.29351210594177246,-0.07269082218408585
1783153877309762600,10.717762451171875,-0.6176429390907288,-0.4847072958946228,-0.30664533376693726
1783153877319473400,10.727473388671875,-0.6891120672225952,-0.49020493030548096,-0.5277720093727112
1783153877329184300,10.737184326171874,-0.771576464176178,-0.3002314269542694,-0.6700994372367859
1783153877338894800,10.746894775390626,-0.8748096227645874,-0.002748812548816204,-0.7488987445831299
1783153877348605700,10.756605712890625,-0.9755994081497192,0.30214032530784607,-0.7605048418045044
1783153877358316300,10.76631640625,-1.0293539762496948,0.5385382175445557,-0.7000309824943542
1783153877368027100,10.776027099609376,-1.012250304222107,0.6723137497901917,-0.5509842038154602
1783153877377737700,10.78573779296875,-0.9548306465148926,0.7480587959289551,-0.3243598937988281
1783153877387448600,10.795448486328125,-0.8839723467826843,0.7431720495223999,-0.04031591862440109
1783153877397159200,10.8051591796875,-0.8112815022468567,0.6136724352836609,0.24250635504722595
1783153877406870000,10.8148701171875,-0.7330930829048157,0.364446759223938,0.4679090082645416
1783153877416580600,10.82458056640625,-0.6445202231407166,0.04856235533952713,0.6053496599197388
1783153877426291500,10.83429150390625,-0.5437304377555847,-0.23425991833209991,0.6939224600791931
1783153877436002000,10.844001953125,-0.4832565486431122,-0.41201648116111755,0.730573296546936
1783153877445713000,10.853712890625,-0.4692070484161377,-0.4724903404712677,0.7128587365150452
1783153877455423500,10.863423583984375,-0.4832565486431122,-0.4566083252429962,0.6389462351799011
1783153877465134300,10.87313427734375,-0.5015819668769836,-0.40285375714302063,0.5222744345664978
1783153877474845000,10.882844970703125,-0.5223507881164551,-0.34726667404174805,0.3836120665073395
1783153877484555800,10.8925556640625,-0.558390736579895,-0.30756160616874695,0.2107423096895218
1783153877494266400,10.902266357421874,-0.6011500358581543,-0.28129515051841736,0.02504473738372326
1783153877503977200,10.911977294921876,-0.6439093947410583,-0.26968905329704285,-0.1575985997915268
1783153877513688000,10.92168798828125,-0.6805602312088013,-0.277630090713501,-0.32130566239356995
1783153877523398700,10.931398681640625,-0.6933879852294922,-0.2904578745365143,-0.44958359003067017
1783153877533109500,10.941109619140626,-0.6768951416015625,-0.3405473530292511,-0.5247178077697754
1783153877542820000,10.950820068359375,-0.6274164915084839,-0.40163207054138184,-0.5668662786483765
1783153877552531000,10.960531005859375,-0.511966347694397,-0.38391751050949097,-0.5754181146621704
1783153877562241500,10.970241455078124,-0.3635304868221283,-0.30878329277038574,-0.5442649126052856
1783153877571952400,10.979952392578125,-0.2047101855278015,-0.2635805904865265,-0.5265503525733948
1783153877581663000,10.9896630859375,-0.05077667906880379,-0.29717719554901123,-0.5247178077697754
1783153877591373800,10.999373779296874,0.0555107444524765,-0.42240089178085327,-0.5173876285552979
1783153877601084400,11.00908447265625,0.08483141660690308,-0.5610632300376892,-0.444085955619812
1783153877610795300,11.018795166015625,0.021914144977927208,-0.6716265678405762,-0.3164188861846924
1783153877620505900,11.028505859375,-0.10758547484874725,-0.7907418012619019,-0.182643324136734
1783153877630216700,11.038216796875,-0.24991288781166077,-0.9538379907608032,-0.06047387793660164
1783153877639927300,11.04792724609375,-0.38491013646125793,-1.146865725517273,0.04947862774133682
1783153877649638100,11.05763818359375,-0.5980958342552185,-1.3814311027526855,0.18142163753509521
1783153877659349000,11.067348876953124,-0.6823927164077759,-1.0222529172897339,0.30664533376693726
1783153877678770400,11.0867705078125,-0.530902624130249,-0.721716046333313,0.29381752014160156
1783153877688481000,11.09648095703125,-0.3739148676395416,-0.5781669020652771,0.26816195249557495
1783153877698192000,11.10619189453125,-0.24869118630886078,-0.3949127495288849,0.2638860046863556
1783153877707902500,11.11590234375,-0.18333053588867188,-0.27946263551712036,0.27060532569885254
1783153877717613300,11.12561328125,-0.17783290147781372,-0.2360924631357193,0.30725616216659546
1783153877727324000,11.135323974609374,-0.19615831971168518,-0.21898874640464783,0.38727715611457825
1783153877737034800,11.14503466796875,-0.21570543944835663,-0.21165858209133148,0.49051034450531006
1783153877746745300,11.154745361328125,-0.24319356679916382,-0.2214321345090866,0.5894675850868225
1783153877756456200,11.164456298828124,-0.2700708508491516,-0.2593046724796295,0.6578825116157532
1783153877766166800,11.174166748046876,-0.2816769480705261,-0.3026748299598694,0.6872031688690186
1783153877775877600,11.183877685546875,-0.2816769480705261,-0.305118203163147,0.6786513328552246
1783153877785588500,11.19358837890625,-0.26518407464027405,-0.2623589038848877,0.6511631608009338
1783153877795299000,11.203299072265626,-0.21692712604999542,-0.20493926107883453,0.6273401379585266
1783153877805010000,11.213010009765625,-0.15645325183868408,-0.13835690915584564,0.6151232123374939
1783153877814720500,11.222720458984375,-0.11919157207012177,-0.12613995373249054,0.5986303091049194
1783153877824431400,11.232431396484374,-0.11613733321428299,-0.1817270666360855,0.5790832042694092
1783153877834142000,11.242141845703125,-0.1546207070350647,-0.2733541429042816,0.5522059202194214
1783153877843852800,11.251852783203125,-0.23891763389110565,-0.38880428671836853,0.5204418897628784
1783153877853563400,11.2615634765625,-0.352535218000412,-0.5341859459877014,0.4715740978717804
1783153877863274200,11.271274169921876,-0.44965994358062744,-0.6722373962402344,0.418430358171463
1783153877872984800,11.28098486328125,-0.5015819668769836,-0.7003363966941833,0.36284327507019043
1783153877882695700,11.29069580078125,-0.4973060190677643,-0.591605544090271,0.27976804971694946
1783153877892406300,11.30040625,-0.44904908537864685,-0.45477578043937683,0.15515519678592682
1783153877902117000,11.3101171875,-0.36841726303100586,-0.40041038393974304,0.028098974376916885
1783153877911827700,11.31982763671875,-0.28961795568466187,-0.3765873312950134,-0.0525328628718853
1783153877921538600,11.32953857421875,-0.22914408147335052,-0.2654131352901459,-0.06291726976633072
1783153877931249200,11.339249267578126,-0.2212030589580536,-0.1695101112127304,-0.02870982140302658
1783153877940960000,11.3489599609375,-0.2590755820274353,-0.18600298464298248,0.006108472589403391
1783153877950670600,11.358670654296875,-0.3335989713668823,-0.24281178414821625,-0.00916270911693573
1783153877960381400,11.36838134765625,-0.42400434613227844,-0.275186687707901,-0.07696675509214401
1783153877970092300,11.37809228515625,-0.5247941613197327,-0.34421244263648987,-0.18142163753509521
1783153877979803000,11.387802978515625,-0.6268056631088257,-0.42789849638938904,-0.3011476993560791
1783153877989513700,11.397513671875,-0.6958313584327698,-0.43767204880714417,-0.4220954477787018
1783153877999224300,11.407224365234375,-0.7098808884620667,-0.3552076816558838,-0.5436540842056274
1783153878008935200,11.41693505859375,-0.6732300519943237,-0.2348707765340805,-0.6462764143943787
1783153878018645800,11.426645751953124,-0.6103127598762512,-0.08460234850645065,-0.7214106321334839
1783153878028356600,11.436356689453126,-0.5437304377555847,0.0021379655227065086,-0.781884491443634
1783153878038067200,11.446067138671875,-0.5015819668769836,-0.008246437646448612,-0.8160919547080994
1783153878047778000,11.455778076171875,-0.4685961902141571,-0.0021379655227065086,-0.786160409450531
1783153878057488600,11.465488525390626,-0.4557684063911438,0.03023693896830082,-0.6737645268440247
1783153878067199500,11.475199462890625,-0.47287213802337646,0.057114217430353165,-0.49234288930892944
1783153878076910000,11.48491015625,-0.5083012580871582,0.06994201242923737,-0.2754921019077301
1783153878086621000,11.494620849609374,-0.5443412661552429,0.02107422985136509,-0.07635590434074402
1783153878096331500,11.50433154296875,-0.5681642889976501,-0.10598199814558029,0.08857285231351852
1783153878106042400,11.51404248046875,-0.585878849029541,-0.2874036431312561,0.19913621246814728
1783153878115753200,11.523753173828124,-0.5889331102371216,-0.46210595965385437,0.2651077210903168
1783153878125463800,11.5334638671875,-0.5956524610519409,-0.5983248949050903,0.29503923654556274
1783153878135174700,11.543174560546875,-0.6084802150726318,-0.7223268747329712,0.2999260127544403
1783153878144885200,11.55288525390625,-0.6432985067367554,-0.804791271686554,0.2987042963504791
1783153878154596000,11.56259619140625,-0.7239303588867188,-0.7931851744651794,0.2901524603366852
1783153878164306700,11.572306640625,-0.8344936966896057,-0.6826218366622925,0.2504473626613617
1783153878174017500,11.582017578125,-0.9444462060928345,-0.457830011844635,0.1563768982887268
1783153878183728000,11.59172802734375,-1.057452917098999,-0.24525517225265503,0.0030542362947016954
1783153878193439000,11.60143896484375,-1.1533559560775757,-0.11147962510585785,-0.16737215220928192
1783153878203149600,11.611149658203125,-1.2174949645996094,-0.016187451779842377,-0.3029802441596985
1783153878212860400,11.6208603515625,-1.2535349130630493,0.016187451779842377,-0.38422292470932007
1783153878222571000,11.630571044921876,-1.2749146223068237,-0.011911521665751934,-0.41048935055732727
1783153878232281900,11.64028173828125,-1.261475920677185,-0.037567105144262314,-0.38544461131095886
1783153878241992700,11.64999267578125,-1.216273307800293,-0.055892523378133774,-0.337798535823822
1783153878251703300,11.659703369140624,-1.1490800380706787,-0.0784938707947731,-0.26632940769195557
1783153878261414100,11.6694140625,-1.0831085443496704,-0.09681928902864456,-0.16187451779842377
1783153878271124700,11.679124755859375,-1.0269105434417725,-0.13835690915584564,-0.034818295389413834
1783153878280835600,11.688835693359374,-0.9810970425605774,-0.20066332817077637,0.07391251623630524
1783153878290546200,11.698546142578126,-0.956052303314209,-0.2593046724796295,0.15149012207984924
1783153878300257000,11.708257080078125,-0.9401702880859375,-0.3148917555809021,0.21257483959197998
1783153878309967600,11.717967529296875,-0.9303967356681824,-0.34482327103614807,0.25472331047058105
1783153878319678500,11.727678466796876,-0.920012354850769,-0.3399364948272705,0.2602209448814392
1783153878329389000,11.73738916015625,-0.9047411680221558,-0.32344362139701843,0.2223484069108963
1783153878339100000,11.747099853515625,-0.8809180855751038,-0.31122666597366333,0.17714570462703705
1783153878348810500,11.756810546875,-0.8607601523399353,-0.2782409191131592,0.130721315741539
1783153878358521300,11.766521240234376,-0.8491540551185608,-0.2617480456829071,0.08124268800020218
1783153878368232000,11.77623193359375,-0.8357154130935669,-0.2855710983276367,0.0397050715982914
1783153878377942800,11.78594287109375,-0.8143357634544373,-0.3106158375740051,0.013438640162348747
1783153878387653600,11.795653564453126,-0.799064576625824,-0.3106158375740051,-0.007330167107284069
1783153878397364200,11.8053642578125,-0.7953994870185852,-0.30756160616874695,-0.021990500390529633
1783153878407075000,11.815074951171875,-0.7972320318222046,-0.324054479598999,-0.031153209507465363
1783153878416785700,11.82478564453125,-0.7978428602218628,-0.33321717381477356,-0.046424392610788345
1783153878426496500,11.83449658203125,-0.7764632105827332,-0.2916795611381531,-0.07391251623630524
1783153878436207000,11.84420703125,-0.7257629036903381,-0.223264679312706,-0.12216944992542267
1783153878445918000,11.85391796875,-0.6469635963439941,-0.17439688742160797,-0.19241689145565033
1783153878455628500,11.863628662109376,-0.5498389005661011,-0.12858334183692932,-0.27121618390083313
1783153878465339400,11.87333935546875,-0.454546719789505,-0.08521319180727005,-0.3292466700077057
1783153878475050000,11.883050048828125,-0.38246673345565796,-0.06810946762561798,-0.34940463304519653
1783153878484760800,11.8927607421875,-0.33115556836128235,-0.07971556484699249,-0.3261924386024475
1783153878494471400,11.902471435546875,-0.29511559009552,-0.09804098308086395,-0.288930743932724
1783153878504182300,11.912182373046875,-0.25296711921691895,-0.11453386396169662,-0.2241809368133545
1783153878513893000,11.92189306640625,-0.217537984251976,-0.04062134400010109,-0.15454435348510742
1783153878523603700,11.931603759765625,-0.15584240853786469,0.21784339845180511,-0.11972606182098389
1783153878533314600,11.941314453125,-0.06116108223795891,0.6130616068840027,-0.08857285231351852
1783153878543025200,11.951025146484374,0.01885990984737873,1.0363787412643433,0.0024433890357613564
1783153878552736000,11.960736083984376,0.036574479192495346,1.237958312034607,0.16126367449760437
1783153878562446600,11.970446533203125,-0.031229566782712936,1.141444444656372,0.43858832120895386
1783153878572157400,11.980157470703125,-0.25418880581855774,0.43713757395744324,0.6517740488052368
1783153878581868000,11.989867919921876,-0.42217180132865906,-0.45294323563575745,0.5412106513977051
1783153878591579000,11.999578857421875,-0.42095011472702026,-1.0191986560821533,0.20219044387340546
1783153878601289500,12.00928955078125,-0.3262687921524048,-1.258039951324463,-0.24617144465446472
1783153878611000300,12.019000244140624,-0.2315874695777893,-1.0381349325180054,-0.6468872427940369
1783153878620711000,12.0287109375,-0.16989189386367798,-0.4321744441986084,-0.869235634803772
1783153878630421800,12.038421875,-0.16072918474674225,0.20196136832237244,-0.8759549856185913
1783153878640132400,12.04813232421875,-0.1796654462814331,0.45912808179855347,-0.6859814524650574
