time,seconds_elapsed,z,y,x
1783169931288878300,0.12187841796875,0.930009397804737,2.5939824742227793,-2.9668691536590455
1783169931298826500,0.131826416015625,0.11158405969738959,2.582620829991996,-3.4749119070380923
1783169931308775400,0.141775390625,0.9410773197859525,1.9119184941947458,-3.2233035828396677
1783169931318754600,0.151754638671875,1.53931969178915,1.1143348685860632,-2.711144041791558
1783169931328703500,0.161703369140625,2.1618507018744944,0.16536884137690067,-2.7113369340151547
1783169931338652400,0.17165234375,2.9349668257027863,-0.0032739071041345594,-2.778508436012268
1783169931348600300,0.181600341796875,3.347098597073555,0.06915536929070949,-2.832576126286387
1783169931358580200,0.191580322265625,3.335658919170499,0.0010036240845918655,-2.826265627965331
1783169931368528400,0.2015283203125,1.8004799804478884,-0.1255740066051483,-2.1866499198272824
1783169931378477300,0.211477294921875,0.1558516559690237,0.5785591818898916,-0.2655772283181548
1783169931388426200,0.22142626953125,1.5290899741977453,1.6519173124432562,-0.6254927825003862
1783169931398405400,0.2314052734375,0.8795768491625785,2.022489577457309,-1.7152996512904761
1783169931408354300,0.241354248046875,1.0091448938399552,2.675266672724485,-2.0355302608162162
1783169931418303500,0.251303466796875,1.2009493221998213,2.671914147426188,-1.7192793685764074
1783169931428282600,0.26128271484375,0.8319406532406807,1.719832034023106,-1.2839905935019253
1783169931438231600,0.2712314453125,-1.4099416167259216,-1.4560624396488069,0.5051066999271512
1783169931448179500,0.281179443359375,-7.6357772027581925,-10.419654472327231,7.399537420344353
1783169931458128400,0.29112841796875,-5.988561784395575,-10.335375768184662,8.168806805616617
1783169931468107500,0.301107421875,-3.957141881507635,-1.7680317090466617,2.936586243598163
1783169931478056400,0.311056396484375,-6.539173805695772,0.4558591232858598,2.76243788343817
1783169931488005400,0.32100537109375,-7.927854023206233,0.5425953035831451,2.772053268523514
1783169931497984500,0.330984619140625,-7.205645664316416,0.7390516494020819,1.4177984677061437
1783169931507933400,0.340933349609375,-6.30832682223618,0.6478180115550756,0.8445663260579108
1783169931517881300,0.35088134765625,-5.876748592117428,-0.5826724624276161,1.681153636060655
1783169931527830300,0.360830322265625,-5.472160075733065,-1.744838172724843,3.217963683116436
1783169931537809400,0.370809326171875,-6.146120828804373,-2.411539748448133,4.878326752343773
1783169931547758300,0.38075830078125,-6.029962885320186,-2.5496213544487953,5.396977116715908
1783169931557738800,0.39073876953125,-4.508190540659427,-2.384303658737242,4.93001134687364
1783169931567718000,0.4007177734375,-4.349593969896436,-2.1987240962415933,4.1002983065545555
1783169931577667000,0.4106669921875,-4.64720329003036,-1.308506902860105,3.156103147009015
1783169931587616000,0.420615966796875,-4.789949380710721,0.7980971280887722,1.7004928350418804
1783169931597564000,0.43056396484375,-3.746602942061424,2.486438922087848,-0.19170937048755585
1783169931607544000,0.4405439453125,-0.36261341496407984,3.763183197723329,-1.8743264301642775
1783169931617492000,0.450491943359375,2.777137732180953,3.3041683868855234,-2.376794744411856
1783169931627441000,0.46044091796875,4.743274138775468,2.6393577394753693,-0.7229886956125497
1783169931637389800,0.470389892578125,7.331407886970043,3.6844504372701046,1.1610000275187193
1783169931647369000,0.480368896484375,7.72550774256587,2.9118811336696147,2.86664498462677
1783169931657318000,0.49031787109375,6.756490276452898,2.2942150992721317,3.311186156693101
1783169931667265800,0.500265869140625,6.148684541812539,2.4667215374439952,2.624717511965334
1783169931677246000,0.510245849609375,6.261454011902213,1.5452049504354595,1.8757064863458275
1783169931687193900,0.52019384765625,7.001674997344613,1.4285812891356646,0.7669544593933969
1783169931697142800,0.530142822265625,7.32613608404696,1.9127721884146331,0.03531864833892323
1783169931707091700,0.540091796875,7.041904131880402,2.0919614653512832,0.18892598684672265
1783169931717070800,0.55007080078125,6.870686564475298,2.110295286682248,0.6362957699351013
1783169931727019800,0.560019775390625,6.996028515890241,2.1225287453114987,0.8857333259657025
1783169931736969000,0.569968994140625,7.020163424715399,2.0144678913041947,0.9329922130078077
1783169931746948000,0.579947998046875,7.034604038000106,1.614207759512961,0.9065116909045725
1783169931756897000,0.58989697265625,6.8318520991683,1.1830083726439624,0.8461392744630575
1783169931766845000,0.599844970703125,6.55573915604949,0.973540496495366,0.6614118718173354
1783169931776793900,0.6097939453125,6.31047084852755,1.0708457093410193,0.3682791491081938
1783169931786773000,0.61977294921875,5.703047975724935,1.2720073102414606,0.24507287628138436
1783169931796722000,0.629721923828125,5.3571179845362895,1.1848539274454115,-0.019878822283260524
1783169931806670800,0.6396708984375,6.050314768475293,1.11602640186958,-0.6331451238844543
1783169931816650000,0.64964990234375,6.0700920666128395,1.0249084262914956,-0.9923122708521783
1783169931826599000,0.659598876953125,5.726726372954249,0.9507555409744382,-1.2080391343303023
1783169931836546800,0.669546875,5.640215964236855,0.8213442942939698,-0.832257171843946
1783169931846495700,0.679495849609375,5.194304672861099,0.6712398036748171,-0.4613284946076572
1783169931856475000,0.689474853515625,4.112998213651776,0.7652847726155072,-0.4915541945885867
1783169931866423800,0.699423828125,2.736330505496263,1.3325978264130651,-1.0723176085244863
1783169931876372700,0.709372802734375,1.0194061756134032,0.8300351118803024,-0.11282989504002033
1783169931886321700,0.71932177734375,-1.323734574869275,0.10411730401329695,0.14884893760010598
1783169931896300800,0.72930078125,-1.3221277241945266,-0.5486069650880993,0.225220448814705
1783169931906250000,0.73925,-4.167309649553895,-2.001610455557704,0.4752942934548482
1783169931916198000,0.749197998046875,-8.087034531337022,-3.1368659470975397,0.8524046184681355
1783169931926178000,0.759177978515625,-13.540276556110381,-3.425458140300214,1.235453795478493
1783169931936126000,0.7691259765625,-18.214045781505106,-2.720843890289962,1.2138386143893003
1783169931946075000,0.779074951171875,-20.72609173079729,-1.0547340210389344,0.5363225799892097
1783169931956023800,0.78902392578125,-21.05386354948282,-0.18420345183685422,0.3166425949711352
1783169931966003000,0.7990029296875,-20.697569400668144,-0.19688670006021855,1.090067200226709
1783169931975952000,0.808951904296875,-20.56441297610998,-0.49408773165419695,2.827026090943813
1783169931985900800,0.81890087890625,-20.268464867186545,-0.6540325021557509,4.19326066789031
1783169931995880000,0.8288798828125,-18.97082159590721,-0.7991009713690728,4.2234576532334085
1783169932005827800,0.838827880859375,-16.770743162447214,-0.9259729818955064,3.34951384152174
1783169932015776800,0.84877685546875,-14.605557178670168,-1.2240535728029907,1.7993859016008673
1783169932025726000,0.858725830078125,-11.772016006743907,-1.7307018030837178,-0.35016499840989707
1783169932035704800,0.868704833984375,-8.887647149378061,-2.259000431897491,-2.232678972813487
1783169932045653800,0.87865380859375,-6.394438002502918,-2.301195751939714,-3.39731370357275
1783169932055602700,0.888602783203125,-3.6317549121320245,-1.923784726946801,-4.162926319903135
1783169932065581800,0.898581787109375,-1.023283893829584,-1.3032508820280433,-4.141478458204865
1783169932075531000,0.908531005859375,1.4491314713418484,-0.4228155163399875,-3.7185315705701707
1783169932085478700,0.918478759765625,3.7461674732536077,0.3315096900396049,-3.1851193981349466
1783169932095428000,0.928427978515625,5.7544303724378345,0.896216579926759,-2.633123521260917
1783169932105407000,0.938406982421875,7.660383820748328,1.332260557282716,-2.131766090864688
1783169932115356000,0.94835595703125,9.24869579924345,1.1818885017685592,-1.4404292555786669
1783169932125304800,0.958304931640625,10.329488463711739,0.8214591528452933,-0.878323122774437
1783169932135254000,0.96825390625,11.153242303365468,0.7550973597958683,-0.473762042386271
1783169932145233000,0.97823291015625,11.92676934608221,0.8169884371720254,-0.11672076499871908
1783169932155181800,0.988181884765625,12.542754880046843,0.7862468235582113,0.11423844666369258
1783169932165130000,0.9981298828125,13.037545645403862,0.7411734638616442,0.35601854674369093
1783169932175108900,1.00810888671875,13.479930516219138,0.9099043290175497,0.7150106294054538
1783169932185057800,1.018057861328125,13.64951200685501,1.225839579436928,1.1367123392846434
1783169932195006700,1.0280068359375,13.699744649010896,1.353820793314278,1.4872458056807518
1783169932204956000,1.037955810546875,13.515948755061626,1.4330718785531817,1.7040613411784171
1783169932214934800,1.047934814453125,13.136754207652807,1.5999259900517762,1.8144219965606927
1783169932224883700,1.0578837890625,12.686364894080162,1.7393777153618633,1.8286850613214074
1783169932234832000,1.067831787109375,12.049668580520152,1.8352179702214895,1.834856297302246
1783169932244812000,1.07781201171875,11.398396629118919,2.024271346307546,1.73713212839216
1783169932254759700,1.087759765625,10.79596031255722,2.240222520060837,1.6863604109235106
1783169932264709000,1.097709228515625,10.132515108281373,2.2434224851459263,1.555840326218307
1783169932274658000,1.107657958984375,9.492418630889057,2.141962929099798,1.4323141920536755
1783169932284637000,1.117636962890625,8.794264516803622,2.063256910523027,1.3951051359914242
1783169932294585900,1.1275859375,8.20160842050016,1.972838534581661,1.1619107126228512
1783169932304535000,1.13753515625,7.693890369030833,1.7987977264493702,0.9664549221485853
1783169932314514000,1.147513916015625,7.193174305278062,1.650038074567914,0.5940121505549177
1783169932324462800,1.157462890625,6.773359578189253,1.3152281739391385,0.42979025072343646
1783169932334411000,1.167410888671875,6.210533387482166,0.9734280490968376,0.48471061230413615
1783169932344360000,1.17735986328125,5.289833669814467,0.7084728251345456,0.45925044622458516
1783169932354338800,1.1873388671875,4.0859710905164475,0.5110800387157127,0.5214966206487268
1783169932364287700,1.197287841796875,2.5803333035767078,0.4728086506515741,0.40228710757419467
1783169932374237000,1.20723681640625,0.907910963243246,0.6733459821738302,0.04117693677991628
1783169932384184800,1.217184814453125,-0.7756301524758339,0.5035241069108247,-0.19333762927651404
1783169932394164700,1.227164794921875,-2.9007793094187972,-0.3407680783808231,-0.25924597947001454
1783169932404113000,1.23711279296875,-6.269134045010805,-1.2410226816520094,0.18130846104770898
1783169932414061800,1.247061767578125,-10.460760389697551,-1.9552784741021692,1.0192259967409074
1783169932424040700,1.257040771484375,-14.815148023611306,-2.064664000841975,0.9485595653001219
1783169932433990000,1.266989990234375,-18.393152640855313,-1.1239384171031415,-0.5287981758337468
1783169932443939000,1.27693896484375,-19.88958245446682,-0.103582904875651,-2.618137841314077
1783169932453888000,1.286887939453125,-20.41650088096857,1.1547647863909603,-4.463373786072433
1783169932463867000,1.296866943359375,-20.96871273868084,1.0404796510413288,-4.601609413591027
1783169932473815800,1.30681591796875,-21.54024421389103,-0.30732173585295675,-3.800785198625922
1783169932483764000,1.316763916015625,-21.20848829400539,-1.2254244227647781,-2.9135312389642
1783169932493743900,1.326743896484375,-20.32636059131622,-1.7358847586795687,-2.7544468846842647
1783169932503692000,1.336692138671875,-19.978927794349193,-1.6943481948070227,-3.103666272807121
1783169932513641000,1.346640869140625,-19.194373161661623,-1.1520745243936776,-3.6262820336788892
1783169932523590000,1.35658984375,-16.430529210817813,-0.42235162515528496,-4.777818213412165
1783169932533568800,1.36656884765625,-12.904880219233036,0.14954835457373408,-5.278764578789472
1783169932543518000,1.37651806640625,-9.54441009941101,0.2460884099994786,-4.72573906660676
1783169932553489200,1.3864892578125,-6.286723477715253,-0.4222252222966403,-3.642335927379131
1783169932563469000,1.396468994140625,-3.4275855077177284,-1.4591801332779228,-2.4796605139940975
1783169932573417200,1.406417236328125,-1.4437316581249235,-2.7375936572998762,-1.7170231140822172
1783169932583366100,1.4163662109375,0.4267857351452112,-3.5224133706644176,-1.5147235951930285
1783169932593315000,1.426315185546875,2.2601637765884397,-3.466976730124652,-1.5381871806278824
1783169932603294200,1.436294189453125,4.374306970870495,-2.456251581355929,-1.8993458667390046
1783169932613243100,1.4462431640625,6.684910310363769,-1.240217795009911,-2.0884327067032453
1783169932623192000,1.456192138671875,8.453335694903135,-0.6251674960687756,-1.6064371255114673
1783169932633140000,1.466139892578125,9.967192444133758,-0.528472122217156,-0.6712145961683244
1783169932643120000,1.4761201171875,11.30333466515541,-0.4853991790901869,0.2786456764668226
1783169932653068000,1.486068115234375,12.448852607512473,-0.162918014158681,1.2109937463521956
1783169932663017000,1.496016845703125,13.423662101030349,0.2617562087252736,2.0962427959322927
1783169932672996000,1.50599609375,14.065752382588386,0.5952066575691104,2.6701094360917805
1783169932682945300,1.5159453125,14.430573536729812,0.958021732585132,2.8863258366525173
1783169932692894200,1.525894287109375,14.470252051645517,1.398334034910053,2.727700039795041
1783169932702842000,1.535842041015625,14.523313779747486,1.9142779168024657,2.62546248511374
1783169932712822300,1.545822265625,14.462124859291315,2.288816601229459,2.4904759225189683
1783169932722770200,1.555770263671875,14.50279238524437,2.602147660499811,2.16534672729671
1783169932732719000,1.565718994140625,14.40347977809906,2.956022473213076,1.8345611137479543
1783169932742698200,1.5756982421875,13.837295509135723,3.339489291113615,1.5348115667149425
1783169932752647200,1.585647216796875,13.091741345971823,3.430514546906948,1.3508341787189244
1783169932762596000,1.59559619140625,12.371728451299667,3.2365733987793326,1.2458237983234226
1783169932772545000,1.605544921875,11.650924113988875,2.863270832018554,1.296519674076885
1783169932782524200,1.615524169921875,10.593314756709336,2.473691376456618,1.3209268239721654
1783169932792473000,1.62547314453125,9.458574813476204,2.002468679822236,1.2140874745838344
1783169932802421000,1.6354208984375,8.294563767573237,1.4053630567640065,0.8426625382632017
1783169932812370200,1.6453701171875,6.833889157953858,1.2903120516084134,0.4499250935943797
1783169932822349000,1.65534912109375,5.4134682327896355,1.4931000846669078,0.09127042619343846
1783169932832298000,1.665298095703125,4.431705266872048,1.448058727543801,-0.535439257816039
1783169932842247200,1.6752470703125,3.0984131745845076,1.200119081920758,-1.1772497360520064
1783169932852226300,1.685226318359375,0.5444160892695188,1.0523320744637399,-1.241004853734374
1783169932862175200,1.69517529296875,-2.0417402213722466,0.8337614389270543,-0.839756660753861
1783169932872123100,1.705123046875,-4.564736019223928,-0.04620101201962679,-0.3969684698347002
1783169932882072300,1.715072265625,-8.324850769287348,-0.5157306410005316,0.2618972976963967
1783169932892051200,1.72505126953125,-12.30282968711853,-0.7736575372286141,1.0011308064714073
1783169932902000000,1.735000244140625,-15.233877293550968,-1.4139888462901116,1.3398837456375359
1783169932911949000,1.744948974609375,-17.29683039882183,-1.902638770804554,1.2733325674958527
1783169932921928200,1.75492822265625,-19.81820765556097,-1.4360225450523196,-0.06877484554052353
1783169932931877000,1.764877197265625,-21.682811440873145,-0.4460710119821131,-1.7927131458386778
1783169932941826000,1.774825927734375,-22.222638448786736,-0.22226116061769424,-2.764626625654101
1783169932951774200,1.784774169921875,-22.099949642229078,-0.7069777642711996,-3.2431796651765703
1783169932961754000,1.794754150390625,-22.309318368852136,-1.112024838078022,-3.4903245802253484
1783169932971702000,1.804701904296875,-22.784057695305346,-0.9776846105627715,-3.498687919422984
1783169932981651000,1.81465087890625,-21.407480588042734,-1.527974998693168,-4.142151827421785
1783169932991630000,1.824630126953125,-17.84105534943342,-2.428888212003559,-4.725073296174407
1783169933001579000,1.8345791015625,-14.161017760169505,-2.6687036609470844,-4.190142828130722
1783169933011528200,1.844528076171875,-11.442678838437795,-2.1129000623531637,-3.281944572378695
1783169933021476000,1.85447607421875,-8.082368293091655,-0.9458240028563887,-3.6164296249672767
1783169933031456300,1.864456298828125,-3.5936458384901284,0.4060143844690174,-4.479237417897582
1783169933041404200,1.874404052734375,-0.032627427360415455,1.8494652528911828,-4.612833695177733
1783169933051353300,1.884353271484375,2.4223808759361503,2.1637097737446425,-3.5912227029964328
1783169933061302300,1.89430224609375,4.240696957325935,2.2996689807638524,-2.0698523632653054
1783169933071281200,1.90428125,6.106304951244592,2.184018256149441,-1.0655923188574612
1783169933081230000,1.91422998046875,7.950567959317564,1.3835557141035795,-0.417754725819081
1783169933091179000,1.924178955078125,9.705891870221494,0.40515886361822484,-0.19706125290952622
1783169933101158100,1.934158203125,11.6191728849411,-0.6245186767712235,-0.05437609863616526
1783169933111107000,1.944107177734375,12.781309953665733,-2.360824729602784,-0.6191641640007496
1783169933121055200,1.95405517578125,13.684176493000983,-3.8330154433622954,-0.8123279710803181
1783169933131004200,1.964004150390625,13.957947841429709,-3.7986470175534484,-0.4362925087569281
1783169933140983000,1.973983154296875,13.63043321237564,-3.182568836869299,0.3519171393068507
1783169933150932000,1.983931884765625,12.905679845178126,-3.0501418956294652,0.6543753973092884
1783169933160881200,1.993881103515625,12.149198629808426,-2.931488920459151,0.4167790491873398
1783169933170860000,2.003860107421875,11.92337444294691,-2.3321315729513765,0.017157763288915155
1783169933180809200,2.013809326171875,11.50777821033597,-1.6245600805707274,-0.3352071928506717
1783169933190757000,2.023757080078125,10.559543420010804,-1.2979198962636291,-0.3515310260660946
1783169933200706300,2.033706298828125,9.21659561062753,-1.548442032660544,0.1463354021429084
1783169933210685200,2.043685302734375,8.662433787891269,-1.0139213875267654,-0.11200787460003048
1783169933220634000,2.053634033203125,7.7827622461825605,-0.42655462980307635,-0.08889478310327976
1783169933230583300,2.063583251953125,6.80561174249649,-0.20775756509937346,0.21012602953007445
1783169933240562200,2.073562255859375,6.452264753049612,-0.12504632946923375,0.06330678939297794
1783169933250511000,2.083510986328125,6.237351251780987,-0.025873642251268026,0.013162738835997879
1783169933260460000,2.0934599609375,6.12895049829483,0.09264394303634763,-0.15031592314643785
1783169933270408200,2.103408203125,6.118072545927762,0.18393230674527583,-0.17822730003669857
1783169933280388000,2.11338818359375,6.255702316507697,0.20725297657810152,-0.18524095992473885
1783169933290336300,2.123336181640625,6.396738096138835,0.19787154637910426,-0.2624320256276056
1783169933300285200,2.13328515625,6.379255046418309,0.2880135165318847,-0.13993130725426597
1783169933310234000,2.143234130859375,6.249211200922727,0.25504487451836466,0.1712748140176758
1783169933320213000,2.153212890625,5.869850064775347,0.169636983682774,0.4728470099005848
1783169933330162200,2.163162109375,4.9661459055721755,0.35333657765071835,0.7856797642599791
1783169933340111400,2.173111328125,3.3831811333239075,0.7924599259193986,0.9648108812686055
1783169933350090000,2.183090087890625,1.817034224885702,1.1451843995537607,1.015279158811271
1783169933360038100,2.1930380859375,0.7743897970259189,1.5525395311072467,1.1762686160601674
1783169933369987300,2.2029873046875,-1.4909008210569619,2.118288331262767,1.5966881771743298
1783169933379936300,2.212936279296875,-4.224701515814662,2.038169669409096,2.0463101596362887
1783169933389915100,2.2229150390625,-6.860072231480479,1.2744663938313723,2.691970554766059
1783169933399864300,2.2328642578125,-10.03433062838316,0.3258452345371246,3.312202055737376
1783169933409813200,2.242813232421875,-12.498948471546173,-0.9141165398851037,3.1433319282412526
1783169933419792100,2.252792236328125,-15.292109702289103,-1.8223824540458617,2.285898814086616
1783169933429741000,2.262740966796875,-18.087286364507673,-1.9335957807347177,1.3726158024162054
1783169933439689200,2.272689208984375,-19.963503430724142,-1.7459043406516312,0.06158434951454401
1783169933449638100,2.28263818359375,-21.319339363253114,-1.7228275625772773,-0.9801425251089035
1783169933459617000,2.292616943359375,-21.702133396458624,-1.7668975904501973,-1.4074077143341301
1783169933469566200,2.302566162109375,-21.701593298232552,-1.548502092284709,-1.622154042342305
1783169933479515100,2.31251513671875,-21.26820772643089,-1.0924452544696628,-1.804343816269189
1783169933489464000,2.322464111328125,-19.809449179565906,-0.6181088097289205,-2.356896011851728
1783169933499443000,2.33244287109375,-17.33687248635292,-0.3631581893652677,-3.3557129884228107
1783169933509392400,2.342392333984375,-14.310550149989128,-0.4663672194272279,-4.239928603301942
1783169933519340000,2.352340087890625,-10.712322244405746,-0.7381962016165257,-4.441091227115691
1783169933529320200,2.3623203125,-7.372492177030444,-0.7751531095486134,-3.881167479851842
1783169933539268400,2.372268310546875,-4.547414297544956,-0.5689087254911661,-3.025162644934654
1783169933549217300,2.38221728515625,-1.86334589420557,-0.5595415430132299,-2.2818426705636083
1783169933559198500,2.392198486328125,0.9059107293367386,-0.785838461953029,-1.8831648395277558
1783169933569177300,2.40217724609375,3.811078044581413,-1.131182250751555,-1.353779876782
1783169933579126300,2.412126220703125,6.647187021169066,-1.5157595141120255,-0.7561142817534506
1783169933589074400,2.422074462890625,9.005270489239692,-2.2207352909110485,-0.439831313874945
1783169933599054300,2.432054443359375,10.306224492502212,-2.710829276753962,-0.6856541134744882
1783169933609002200,2.442002197265625,11.225644691753386,-3.4683027180314063,-0.39779907543994486
1783169933618951400,2.451951416015625,12.80887951311469,-4.581622856616973,-0.3822447287596762
1783169933628900400,2.461900390625,13.058919272822141,-3.5808187978819013,-0.820788487042114
1783169933638879200,2.471879150390625,12.955612043082713,-2.0421762747019527,-0.528938643750362
1783169933648828200,2.481828125,13.005474098360537,-1.1504023533977568,-0.11939466038309036
1783169933658777300,2.49177734375,12.702521079111099,-0.6942210124202072,0.0957498731624335
1783169933668756200,2.501756103515625,12.315001770949364,-0.418418742685765,0.348298693081364
1783169933678705200,2.511705078125,12.127342187309264,0.04821297289654612,0.647799452985078
1783169933688653300,2.5216533203125,12.026904960048197,0.6413594830654561,0.8614951028965413
1783169933698602200,2.531602294921875,11.578474963849782,1.2685653530940413,0.8961600274339317
1783169933708581000,2.5415810546875,11.285385166966915,1.9188615913309155,0.9149415194671601
1783169933718530300,2.5515302734375,10.884307289052009,2.53877671982944,0.7307451549582183
1783169933728479500,2.5614794921875,10.361570532149075,3.191712220528722,0.5179753877200186
1783169933738427100,2.57142724609375,10.13237014685273,3.7138884209394454,0.3288431011788547
1783169933748407300,2.5814072265625,10.023706358516216,4.087371020442247,0.11022822464164346
1783169933758355500,2.59135546875,9.8265658298254,4.058845183181762,-0.06749035868793725
1783169933768304400,2.601304443359375,9.979881245315074,3.5616567090332505,-0.11416548189218155
1783169933778283300,2.611283203125,10.035174677991867,2.985232493345439,-0.06051124039031565
1783169933788232400,2.621232421875,9.594190321624279,2.6881521655216813,-0.011387363193929195
1783169933798181400,2.631181396484375,8.966990735206007,2.579838213536143,0.07606401616800576
1783169933808130300,2.64113037109375,8.130777226951718,2.6699957465842363,0.11968133183736353
1783169933818109200,2.651109130859375,7.303868138137459,2.7317408396184444,-0.007691303421277553
1783169933828058400,2.661058349609375,6.33173341678679,2.5111495849743486,-0.25033165532611307
1783169933838006300,2.67100634765625,4.561280325812101,2.2916250827789306,-0.5614492763306945
1783169933847986200,2.680986083984375,2.184496248924732,1.9712150250330567,-0.40144627283588047
1783169933857934300,2.690934326171875,-0.14257482576668262,2.0589717805497347,-0.5863044622544199
1783169933867883300,2.70088330078125,-4.5410307339876885,2.85855111002028,-1.3100161383792757
1783169933877832200,2.710832275390625,-8.935535858756303,3.0162545313358304,-1.731377071996778
1783169933887811000,2.72081103515625,-12.739310886847973,1.827759909300506,-1.0501693434718995
1783169933897760300,2.73076025390625,-16.730034719961882,1.0178570464752614,0.6067002941491082
1783169933907708200,2.740708251953125,-19.189556701290606,0.5215251891560853,2.0502152042508124
1783169933917657300,2.7506572265625,-19.765006811249254,0.1071508264902979,1.875371847563982
1783169933927636500,2.760636474609375,-20.0813804530859,-0.047536023483052844,1.2884380744300783
1783169933937585400,2.77058544921875,-20.576138485217093,-0.7874902477480471,1.600218104866147
1783169933947534300,2.780534423828125,-20.863784045219422,-2.0515429457232357,1.9903242146506905
1783169933957513200,2.79051318359375,-20.72964796197414,-3.389525241653621,1.4531608729884027
1783169933967462400,2.80046240234375,-19.903480046916005,-4.6896343185245986,0.6660147625029087
1783169933977411300,2.810411376953125,-19.409292508149147,-5.440944853258133,-0.528025036036782
1783169933987359200,2.820359130859375,-18.846506649452447,-5.169399364185333,-2.10592350133881
1783169933997339100,2.830339111328125,-16.809682841694354,-4.895418756920099,-3.3188480696231126
1783169934007287300,2.840287353515625,-13.644080629456042,-4.527762963874638,-3.993270010465383
1783169934017236200,2.850236328125,-10.534453402417897,-3.8798008676737545,-4.188871493020653
1783169934027215400,2.86021533203125,-7.582661114120483,-2.891175614771247,-3.840737562046945
1783169934037164300,2.870164306640625,-4.311994014820456,-1.6086347816862165,-3.259905466789007
1783169934047113200,2.88011328125,-0.9918599970400332,-0.33565577686838804,-2.645937702387571
1783169934057061000,2.89006103515625,1.850785103318095,0.645932124743238,-2.064933903824538
1783169934067041300,2.900041259765625,4.049633702722192,1.2007827334612606,-1.5208514304235576
1783169934076989200,2.9099892578125,6.050633917427063,1.4637036020517349,-1.009060941883549
1783169934086938400,2.9199384765625,7.768162058421969,1.5963605526551603,-0.7306983932070433
1783169934096917200,2.929917236328125,9.249903421467542,1.8451988276183604,-0.66277410008125
1783169934106866400,2.939866455078125,10.605859765505791,2.1292779273107647,-0.7682126427609473
1783169934116815400,2.9498154296875,11.574807673513888,2.2631414772249756,-0.8810023519210517
1783169934126764300,2.959764404296875,12.40555122592449,2.067366537798941,-0.7119619824245572
1783169934136743400,2.969743408203125,12.84332772616148,1.655600969392061,-0.08808445310108363
1783169934146692400,2.9796923828125,13.073877187979221,0.8365897942207753,0.4048947693219408
1783169934156640300,2.98964013671875,13.617012589788436,0.7148819615244865,0.8012386409848928
1783169934166589200,2.999589111328125,13.651244529736042,1.550382937595248,1.4322913956999779
1783169934176568300,3.009568359375,13.301618606638907,1.9723028202697634,1.47767221391052
1783169934186517200,3.019517333984375,13.184604338586329,1.9194021279484033,1.255332508163899
1783169934196466200,3.029466064453125,12.960890275746584,1.9336963184997438,1.246822015580535
1783169934206445300,3.0394453125,12.238867794817684,2.2598972346067425,1.233233635210991
1783169934216394200,3.049394287109375,11.319591387951373,2.605925425472855,1.0597794678602368
1783169934226342100,3.059342041015625,10.532205331230163,2.8411504778862,0.8343554592974484
1783169934236291000,3.069291015625,9.765958508649469,3.155447897970676,0.6479544974163174
1783169934246270200,3.079270263671875,9.177517399692535,3.3654970080733295,0.5718688539383933
1783169934256219400,3.089219482421875,8.834884696483611,3.3046737060591576,0.3484513263598084
1783169934266168300,3.099168212890625,8.419403614684938,3.0837977892547843,0.21371603511236606
1783169934276147500,3.1091474609375,8.232589834219217,2.738265272951126,0.3274282659448683
1783169934286096400,3.119096435546875,8.28607241808176,2.4116139827281233,0.39448395954258736
1783169934296045300,3.12904541015625,8.022520850372313,2.2817418405376375,0.426662620222196
1783169934305993200,3.1389931640625,7.504863004168867,2.0663550226688385,0.6846024124644696
1783169934315973400,3.148973388671875,7.595400768706202,2.4379268201142548,0.12405064209592528
1783169934325921300,3.15892138671875,6.5244251493752,2.819225061804056,-0.06336958896350116
1783169934335870200,3.1688701171875,5.232427775028348,3.078595252175629,-0.2299076567828655
1783169934345849300,3.178849365234375,3.9786926190584895,2.930930994315445,-0.8795472577419131
1783169934355798300,3.18879833984375,2.0425000998288394,2.5268974814653395,-1.2196776227410882
1783169934365747200,3.198747314453125,-0.018981179323792455,2.258120726453513,-1.9335493112444877
1783169934375695000,3.208695068359375,-2.6010762318760157,1.6313810126319526,-3.568938682734966
1783169934385675300,3.21867529296875,-6.327645270690321,0.5792514019377529,-5.432679713737964
1783169934395623200,3.228623046875,-11.050185248994827,-0.5345753709957003,-5.799260278767347
1783169934405572000,3.238572021484375,-15.919062035948038,-1.9143065583750605,-5.640003782790899
1783169934415521300,3.248521240234375,-17.905086215317247,-2.0220885954409837,-6.251718215307593
1783169934425500200,3.258500244140625,-19.463440277922153,-1.6805610769949852,-6.031156479018926
1783169934435449300,3.268449462890625,-21.17869404424429,-1.8719167386740445,-5.482983083042502
1783169934445398300,3.278398193359375,-21.73073288347721,-2.8332348824560643,-5.068256619003415
1783169934455377400,3.28837744140625,-21.331219186139105,-3.5918098552346227,-4.274795041760802
1783169934465326300,3.298326416015625,-20.262537815225123,-3.8589141469895836,-3.714537824758887
1783169934475274200,3.308274169921875,-19.330103820621964,-3.9991275043219328,-3.6230434901490804
1783169934485223200,3.31822314453125,-19.098626138043404,-4.117334781551361,-4.451298732875287
1783169934495202300,3.328202392578125,-18.466680818402764,-3.7318054781630634,-5.553925920271873
1783169934505151200,3.338151123046875,-16.240233433455227,-2.7092189189478755,-6.278453077498078
1783169934515100200,3.34810009765625,-13.024915296411514,-1.6261794984661042,-6.062016896706819
1783169934525079300,3.358079345703125,-9.518447975158692,-1.0049667313724755,-4.7129921054974195
1783169934535028200,3.3680283203125,-6.1406754228800535,-0.9446189379155635,-2.6476205409079787
1783169934544977200,3.37797705078125,-3.0102497379630804,-1.0605042019382118,-0.36939240757972
1783169934554955500,3.38795556640625,-0.07852934683561325,-1.5974997858181594,1.2308484936401247
1783169934564934400,3.397934326171875,2.3090520183980465,-2.509783265057206,1.975271753077954
1783169934574883600,3.407883544921875,4.391898741662502,-2.285513175769895,2.471901570430398
1783169934584832800,3.417832763671875,6.27813275950253,-1.5424766945153474,2.603490015019476
1783169934594781700,3.42778173828125,7.892590986645221,-1.2416980966955422,2.589384040516615
1783169934604760600,3.437760498046875,9.30803938409388,-0.931580738774687,2.8388290492013093
1783169934614709500,3.44770947265625,10.51423245216608,-0.5608759334221481,3.2046026817619797
1783169934624657700,3.45765771484375,11.438880615198611,-0.11462547321990131,3.4659985327422618
1783169934634637600,3.467637451171875,12.137931385862826,0.39871801691576836,3.528938096258044
1783169934644585700,3.477585693359375,12.620600336271524,0.8623818226031958,3.4736569385409353
1783169934654534700,3.48753466796875,12.854461699116229,1.301180359364301,3.426006129571795
1783169934664483600,3.497483642578125,12.956897991240023,1.7256541643053291,3.3464863103941083
1783169934674462500,3.50746240234375,12.857960647147893,2.008642838412523,3.2063720295220612
1783169934684411600,3.51741162109375,12.663778968262672,2.0629174494355915,3.132234780165553
1783169934694360600,3.527360595703125,12.660529026556015,2.3730590650148686,3.218293353462219
1783169934704339500,3.53733935546875,12.203082195687294,2.8955662509456275,3.10611132787168
1783169934714288400,3.547288330078125,11.656223389440774,3.024301351930201,2.9737767410904166
1783169934724236500,3.557236572265625,11.4532996011734,2.884946657253802,2.987838584190607
1783169934734185500,3.567185546875,11.096712022370099,2.7504502162635323,2.8287878399193285
1783169934744164400,3.577164306640625,10.440231980931758,2.671921453949809,2.4651713853925465
1783169934754113800,3.58711376953125,9.857370133411884,2.4687685331016778,2.145258463513851
1783169934764062700,3.597062744140625,9.340589654564857,2.2781645665727552,1.8040316815800963
1783169934774041600,3.60704150390625,8.818891008538007,2.0862512710109353,1.516656316821277
1783169934783990500,3.616990478515625,8.394536884453892,1.9388162918619811,1.3612816307142377
1783169934793938700,3.626938720703125,8.009868289548159,1.8712367935858665,1.32618240641281
1783169934803887600,3.6368876953125,7.253508070209622,1.6770115678198634,1.240367871005088
1783169934813866500,3.646866455078125,5.7929451042711735,1.0485805399104953,1.3736946836940944
1783169934823815700,3.656815673828125,4.84150011972785,1.1503835025668143,0.7499668650396167
1783169934833764600,3.6667646484375,2.8947715934365985,1.6993537480093537,0.38074937563538547
1783169934843713500,3.676713623046875,-0.09667875151038169,2.1003610449060797,0.0074812956660985945
1783169934853692400,3.6866923828125,-2.504026308965683,2.049268132659048,-0.4958668701559305
1783169934863641600,3.6966416015625,-4.786458615985512,2.0191832293882963,-0.5637864140413701
1783169934873589500,3.706589599609375,-8.180082817390561,1.4761993648789822,-0.2906310055539012
1783169934883569400,3.7165693359375,-12.913250572693347,0.4691700018882751,-0.6315232948362827
1783169934893517600,3.726517578125,-17.412686144489047,-0.3173193982541561,-1.9497874754704534
1783169934903466500,3.736466552734375,-20.184377886223793,-0.6286161752179265,-4.581873616507649
1783169934913415700,3.746415771484375,-20.5738822307229,0.04424772252738476,-8.340763793212174
1783169934923394600,3.75639453125,-20.00884596275091,0.27995237515121696,-10.23039680584073
1783169934933343700,3.76634375,-20.34420955173969,-0.6156359898746013,-9.583562544625996
1783169934943291600,3.776291748046875,-20.515168175947665,-1.794012830260396,-8.289473750957846
1783169934953271600,3.786271484375,-19.89088476923704,-2.5654940463632343,-7.059787579095363
1783169934963219700,3.7962197265625,-19.211842182856795,-2.795983886948228,-5.8384203227669
1783169934973168600,3.806168701171875,-17.766762617254255,-2.608012753140926,-5.002945065659285
1783169934983117600,3.81611767578125,-16.01372535598278,-2.4135306300044057,-4.493523717403412
1783169934993096700,3.8260966796875,-14.055478825855253,-2.1837023220680654,-3.8802226002171634
1783169935003045600,3.836045654296875,-11.336788021945953,-1.8908412193745374,-3.5431235657379028
1783169935012994600,3.84599462890625,-8.14800659417212,-1.553553676585853,-3.30258959326148
1783169935022942500,3.8559423828125,-4.8367748447716234,-1.4692811099231242,-2.606265617212653
1783169935032922600,3.865922607421875,-1.8767770381867885,-2.199949546383321,-1.7101313087418675
1783169935042870500,3.87587060546875,0.37572248738408087,-4.003728860637545,-1.050085245385021
1783169935052819500,3.8858193359375,2.2885312084168192,-5.556649207755923,-0.6254593186222016
1783169935062798600,3.895798583984375,3.972289181756973,-4.997054838576912,-0.7931769150823355
1783169935072747500,3.90574755859375,5.733548327928781,-3.3641561148583885,-1.656272585043311
1783169935082696700,3.91569677734375,7.815725773629546,-2.3326851151809094,-2.148674993959069
1783169935092644400,3.925644287109375,9.578225859773159,-1.604061628551781,-1.7994991527169941
1783169935102624800,3.935624755859375,10.959956112015247,-1.050807860571146,-0.8677060863658785
1783169935112572700,3.94557275390625,12.059176413577795,-0.5496579354457557,0.2797898050006479
1783169935122521600,3.955521484375,12.942773604297637,-0.2708339798025787,1.450541922661662
1783169935132500700,3.965500732421875,13.424562264740466,-0.21267507469207048,2.5067837909802795
1783169935142449700,3.97544970703125,13.595811980849504,-0.04325257401019335,3.332835093921423
1783169935152398600,3.985398681640625,13.477662571287155,0.14031126474887132,3.783904790973663
1783169935162347500,3.995347412109375,13.13805067720413,0.3143739924520254,3.9606265087530015
1783169935172326700,4.00532666015625,12.360566421294212,0.45977293572872874,3.9317996427193282
1783169935182275600,4.015275634765625,11.283297254776954,0.6329147491946816,3.7397900471761822
1783169935192223500,4.025223388671875,10.349932701325416,0.8840570633165538,3.4828228262931105
1783169935202203400,4.035203369140625,9.445970767968893,1.0603772145576775,3.25337226562798
1783169935212151600,4.045151611328125,8.592209328064323,1.0673358015239238,2.987196779155731
1783169935222100500,4.0551005859375,7.913079063400626,1.0091650598451494,2.7235572409018873
1783169935232049400,4.06504931640625,7.437313316509127,0.9844589270032942,2.427302842508256
1783169935242028500,4.075028564453125,7.113424476736784,1.0868431966789067,2.101907251434773
1783169935251977500,4.0849775390625,6.894595847851037,1.1709094271145761,1.802442512692511
1783169935261925400,4.09492529296875,6.7194573076099156,1.1525238755963743,1.598280853193253
1783169935271874600,4.10487451171875,6.484085540202259,1.2032482467919587,1.368427410815656
1783169935281853700,4.114853759765625,6.242667478367686,1.2880663185082375,1.16824429955855
1783169935291802600,4.124802734375,5.980760170733928,1.4512382343627512,0.9164223326094448
1783169935301751600,4.13475146484375,5.485805154725909,1.7914752746067941,0.6840193518795072
1783169935311730700,4.144730712890625,5.039337398511171,2.029841547655314,0.544994912070781
1783169935321679600,4.1546796875,4.334287095171213,2.2955409410484133,0.12055018709376454
1783169935331628500,4.164628662109375,2.680949394536018,2.4952859531491995,-0.5778916578918695
1783169935341576700,4.17457666015625,0.4701853164106607,2.894123358660936,-0.741870360084623
1783169935351556600,4.184556640625,-1.3996540314674377,3.3524820436775684,-0.9609200113099068
1783169935361504500,4.19450439453125,-2.7501877659350633,3.281978182387352,-1.5976852253876626
1783169935371453400,4.204453369140625,-4.450793413701653,2.902361025652289,-1.769569586138427
1783169935381432600,4.2144326171875,-7.53070705499947,2.60925486215651,-1.2978124903663992
1783169935391381500,4.224381591796875,-10.74129816352129,2.1547730185732243,-0.7467598856918514
1783169935401330400,4.234330322265625,-13.198446985977887,1.6127978927150368,-0.9693825000330806
1783169935411278600,4.244278564453125,-14.748139603221416,1.14809743745625,-1.7812246603578328
1783169935421258500,4.254258544921875,-16.12595589689016,1.5580451427862048,-3.189287623730302
1783169935431206400,4.264206298828125,-16.938569918370245,1.2270076003029942,-4.279631375876069
1783169935441155600,4.274155517578125,-17.348707885575294,0.43933512785583734,-5.06140076175928
1783169935451134500,4.284134521484375,-16.996252876532076,0.05067746331393718,-5.598668732839823
1783169935461083600,4.294083740234375,-15.618340721273421,-0.27104572285711764,-5.6173219953835005
1783169935471032600,4.304032470703125,-14.179296928703785,-0.8448606328293681,-5.032659820443391
1783169935480981500,4.3139814453125,-13.416785785520077,-1.8412822386965155,-4.027282170182466
1783169935490960600,4.323960693359375,-12.810351339232922,-2.8307535870343443,-2.997913403481245
1783169935500909600,4.33390966796875,-11.470436613935231,-3.4839228964895006,-2.4670778035357595
1783169935510857500,4.343857421875,-8.979828004947304,-3.803070094692707,-2.6996248689115045
1783169935520806700,4.353806640625,-6.1645765229493374,-3.5700928212061522,-3.2643969329893587
1783169935530785500,4.36378564453125,-3.6331332147479056,-2.944581626266241,-3.1848885119885204
1783169935540734500,4.373734375,-1.6336457426935433,-2.1559175124332306,-2.452161973954737
1783169935550683400,4.383683349609375,0.05966448736786842,-1.6888646488294004,-1.4190176342375576
1783169935560680700,4.3936806640625,1.9179028293013571,-3.087720515656471,-1.2578789777763186
1783169935570629600,4.403629638671875,1.9965899970471859,-3.993096699725091,-0.6089788700729608
1783169935580577500,4.41357763671875,2.7161767752617596,-4.4667888552129265,0.1329864017535001
1783169935590526500,4.4235263671875,4.179875701138377,-4.2080631002247335,0.47677561805378643
1783169935600505600,4.433505615234375,5.2512289216101165,-3.687870474846661,0.6112895581681281
1783169935610454500,4.44345458984375,6.248962194597721,-3.180790721280873,0.6198642750941217
1783169935620403500,4.453403564453125,7.519317061457038,-2.847755282978713,0.7225906362056732
1783169935630382600,4.463382568359375,8.680249430567025,-2.8613641216143963,0.9929195160303265
1783169935640331500,4.47333154296875,9.525541732811927,-2.7442326569229363,1.2020360945232211
1783169935650280400,4.483280517578125,10.076903695696592,-2.2356543353624643,1.2737068076357245
1783169935660228600,4.493228515625,10.427517460787296,-1.4931370556764303,1.3962946380369365
1783169935670208500,4.50320849609375,10.777857669633626,-0.8194063119687139,1.5485383326418698
1783169935680156400,4.513156494140625,10.919681384772062,-0.34134660892114044,1.5631187927886843
1783169935690105300,4.523105224609375,10.837496438038349,0.13618541699051856,1.671983656655252
1783169935700054500,4.533054443359375,10.680500872731209,0.5431082215413451,1.8715332923144101
1783169935710033400,4.543033447265625,10.453056391191481,0.8557000067517161,1.9793468935623764
1783169935719982600,4.552982666015625,10.165927548539639,1.003311657641828,2.0462147364377974
1783169935729931500,4.562931640625,9.909591319036483,1.305300800295174,2.045572054620087
1783169935739910700,4.57291064453125,9.316770387560128,1.7939543780714273,1.9007555874064563
1783169935749858600,4.582858642578125,8.91340293740332,2.1258134660705923,1.6327454328529536
1783169935759807500,4.592807373046875,8.856859212404489,2.3664883083224297,1.3738152413338423
1783169935769756700,4.602756591796875,8.738606342467666,2.6803032055869696,1.1035363381307572
1783169935779735600,4.612735595703125,8.623980430856346,3.028933687905967,0.9202722129706293
1783169935789684500,4.6226845703125,8.47837369004786,3.217892371445894,0.8287389345899224
1783169935799633400,4.63263330078125,8.353333351927995,3.1442133872509,0.7609529539562762
1783169935809612500,4.642612548828125,8.265985323342681,3.098377226488292,0.8342085981726646
1783169935819561500,4.6525615234375,7.9932123383015385,3.032947015200555,0.941703415795043
1783169935829509400,4.66250927734375,6.956831647011637,2.947357228459418,1.1192430258285253
1783169935839458600,4.67245849609375,5.247572152668237,2.7687545192390677,1.2696214380182325
1783169935849437400,4.6824375,3.229748813456297,2.460457800874114,1.2602176498569548
1783169935859386400,4.692386474609375,0.671724956843257,1.888711075478047,1.3804720688745378
1783169935869335300,4.702335205078125,-3.0150755506843328,1.0563282314278184,1.2254087137389926
1783169935879314400,4.712314453125,-8.800879551029205,0.8132150561131537,0.6292476780544967
1783169935889263600,4.722263671875,-16.47335362254381,0.8780744817756115,-0.1600257267832756
1783169935899212500,4.732212646484375,-23.119533512496947,0.8549214235946535,-1.2878291487514972
1783169935909160700,4.74216064453125,-26.25818225135803,1.574238737218082,-3.801043849562108
1783169935919139600,4.7521396484375,-26.44108148872852,2.4534575667232272,-6.275546250140667
1783169935929088500,4.762088623046875,-26.871404165828228,1.1940193768061698,-5.96982668878734
1783169935939037400,4.772037353515625,-27.32692441254854,-1.514086174072325,-3.358322001877427
1783169935948986600,4.781986572265625,-26.10756732699871,-3.965254460814595,-1.2240822874408215
1783169935958965500,4.791965576171875,-24.036031102299688,-5.799208840841055,-0.09491820811126381
1783169935968914400,4.80191455078125,-21.593982818341253,-6.636946782183647,0.4540836380459368
1783169935978862600,4.811862548828125,-18.921350001251696,-6.697471101251244,0.6516920034442096
1783169935988842500,4.821842529296875,-16.004966879987716,-6.4136863083302975,0.696448333080858
1783169935998790400,4.831790283203125,-12.86059450278282,-5.745910381373763,0.602690035594441
1783169936008739600,4.841739501953125,-9.335997066077589,-4.727087558606267,0.27721261145640164
1783169936018688500,4.8516884765625,-5.557385705336928,-3.4759769059211014,-0.36022783500179645
1783169936028667400,4.86166748046875,-1.927700000694394,-2.843852138060331,-1.2279919351652264
1783169936038616300,4.8716162109375,1.063642792224884,-3.6220232071906326,-2.31022953774482
1783169936048565500,4.8815654296875,3.4427088425695893,-5.032501999533176,-3.6301229270160196
1783169936058544600,4.891544677734375,5.752078840875625,-4.54444141921401,-4.5064477886453265
1783169936068493600,4.90149365234375,7.927430244836211,-1.7942004617869853,-4.579287691667676
1783169936078441700,4.911441650390625,10.31089014622569,0.22128654343187806,-4.8854590884417295
1783169936088390700,4.921390625,12.701438544571399,1.0220692573428154,-4.934979198414087
1783169936098369500,4.93136962890625,14.395988545560837,1.5082073451668023,-4.159173104849457
1783169936108318500,4.941318359375,15.430596966481207,2.1296385773167015,-2.8207781364649533
1783169936118267600,4.951267578125,15.708359430372713,2.8510677685275674,-1.6573839072860777
1783169936128215600,4.961215576171875,15.593196927666662,3.9278152492582796,-1.2971890977710485
1783169936138195500,4.971195556640625,15.736894619983433,4.304917208302021,-0.6953665291935205
1783169936148143600,4.9811435546875,16.00988387812376,4.488513780286908,-0.15819646552950142
1783169936158092500,4.991092529296875,15.510013617545365,4.768246082946658,0.28002310229986904
1783169936168071400,5.001071533203125,14.616495921313762,5.164315777310729,0.5985910393103957
1783169936178020400,5.011020263671875,13.74315475167036,5.53757567397356,0.8242289828848093
1783169936187969500,5.020969482421875,13.16183487289548,5.648187089246511,0.884314983600378
1783169936197918500,5.03091845703125,12.732252200508118,5.837662197875976,0.8354601326037198
1783169936207897300,5.0408974609375,11.887925528424978,5.869840127903223,0.991291184176132
1783169936217846500,5.050846435546875,11.31986026802063,5.780545056903362,0.9627426236271858
1783169936227794400,5.06079443359375,10.973790576100349,5.7452808512985705,0.865535318198055
1783169936237774600,5.070774658203125,10.582325745183228,5.711242972618341,0.7015021824043244
1783169936247722800,5.08072265625,10.365103382450341,5.663879163897037,0.4700649049013853
1783169936257671700,5.090671630859375,10.307578245198727,5.583080703085661,0.1295609573494643
1783169936267620600,5.10062060546875,10.211291123354435,5.553235015398264,-0.19263839496597646
1783169936277599500,5.110599609375,10.157787496703863,5.519332745796442,-0.22398593858368693
1783169936287548400,5.12054833984375,10.130306784582137,5.415176790273189,-0.1955347009293735
1783169936297496600,5.13049658203125,9.865878434038162,5.374876928588748,-0.32230734273456035
1783169936307476500,5.1404765625,9.550427167743443,5.382926379531622,-0.3672241236299276
1783169936317424600,5.150424560546875,9.22603622366786,5.171909885701536,-0.3945387584697455
1783169936327373600,5.16037353515625,8.80971109226048,4.659645422974228,-0.361844074559398
1783169936337322500,5.170322509765625,7.997240863165259,3.957130191069841,-0.26806111755575984
1783169936347301400,5.18030126953125,5.668881502228975,2.8583947504147886,0.3015135975634679
1783169936357250600,5.19025048828125,2.032694745129347,1.608886564490199,1.265464172208309
1783169936367199500,5.200199462890625,-4.473509687900543,0.2851470211848616,2.2067507508307695
1783169936377147400,5.2101474609375,-13.817770139932632,-1.1997568975448607,2.413545535312593
1783169936387127600,5.22012744140625,-19.746977818083764,-2.9965117199897766,-1.4243115028619766
1783169936397075500,5.230075439453125,-23.788942009091375,-3.0676746297106146,-8.69614959501028
1783169936407024600,5.240024658203125,-27.29033568034172,-1.8223354000337422,-15.661232937538623
1783169936417003500,5.25000341796875,-29.96088759950399,-2.8917583830952642,-18.402093487679956
1783169936426952700,5.25995263671875,-28.787642276787757,-5.160529829031229,-14.69138135868907
1783169936436901600,5.269901611328125,-25.764242549872396,-7.519146381065249,-9.87718074929714
1783169936446849500,5.279849609375,-25.175425593340396,-7.822511488246917,-8.215630516111851
1783169936456829400,5.289829345703125,-24.849409678411483,-7.149614565014839,-7.93118112180233
1783169936466777600,5.299777587890625,-23.483365655601023,-5.413337299886345,-7.9121257081985465
1783169936476726500,5.3097265625,-21.258301249444482,-1.7542437144517897,-7.483827814924717
1783169936486705700,5.31970556640625,-18.78542177389264,0.6341488210342824,-6.380372652271389
1783169936496654600,5.329654541015625,-16.34806720070839,1.4629067525856196,-5.344813214236497
1783169936506603500,5.339603515625,-13.518284504532813,2.0016547330908474,-3.860907951155305
1783169936516552400,5.349552490234375,-10.407227536952496,2.3393932345174253,-1.9511996803559362
1783169936526531600,5.359531494140625,-7.334522804120183,2.2857347095660865,-0.45251668099015946
1783169936536480500,5.36948046875,-4.152897677841782,2.12091707233116,0.38460780462920663
1783169936546428400,5.379428466796875,-1.145984975346923,1.969961956232041,0.671987699432671
1783169936556390000,5.389389892578125,1.6022633469581604,1.7778135367400942,0.8301398874290287
1783169936566368800,5.39936865234375,4.206630437073112,1.6849997900947928,1.083329781730473
1783169936576317700,5.409317626953125,6.6175400709241625,1.6884019997537134,1.3676505812242625
1783169936586267000,5.419266845703125,8.608738438060879,1.9039356787472963,1.5434595680728553
1783169936596245800,5.429245849609375,10.16499114447236,2.1679187697418034,1.586935721705854
1783169936606194700,5.439194580078125,11.302466065627335,2.4084233699932693,1.572516005078703
1783169936616142800,5.449142822265625,12.080841132897138,2.7238009865298864,1.6340478937536478
1783169936626091800,5.459091796875,12.55145373480916,2.907594834652543,2.0008288036607205
1783169936636070700,5.469070556640625,13.009407930678128,2.7957603073254225,2.4141765266925095
1783169936646019600,5.47901953125,13.44773738862276,2.5750907267481087,2.773015683814883
1783169936655969000,5.488968994140625,13.750643646121024,2.323292432935536,3.1847511493444443
1783169936665948000,5.498947998046875,14.000010036611556,2.56554869915992,3.4415213863506913
1783169936675896800,5.508896728515625,13.851336893969773,3.317778686825931,3.618055180342495
1783169936685845800,5.518845703125,13.684568122667073,3.9858763930827377,3.771522863784432
1783169936695794000,5.5287939453125,13.612645042228698,4.438193459847569,3.842954361313581
1783169936705773800,5.53877392578125,13.298569740462302,4.796171323965489,3.645454643921554
1783169936715721700,5.5487216796875,12.674849812853335,5.044703309458494,3.261461464059353
1783169936725671000,5.5586708984375,12.033624623692035,5.0324645901322365,2.9206355180114505
1783169936735649800,5.56864990234375,11.434403177523611,4.8498292643949386,2.4918311365202066
1783169936745598700,5.5785986328125,11.148050579941271,4.760580078363418,2.1575383916333317
1783169936755547600,5.588547607421875,10.83715741534233,4.712594338351487,1.7472358815163374
1783169936765495800,5.598495849609375,10.529175169754028,4.74378238055855,1.2324962608471512
1783169936775475700,5.608475830078125,10.568861867976189,4.755716856241226,0.8716388957701623
1783169936785424000,5.618423828125,10.678960073029995,4.577954104976356,0.7199241934753954
1783169936795372800,5.628372802734375,10.521630161201953,4.14025622293353,0.5104644275680184
1783169936805321700,5.63832177734375,10.141406855267286,3.705219961315393,0.5402476810110732
1783169936815300600,5.648300537109375,8.84893075749278,3.2379853114038704,0.7352706695586443
1783169936825249800,5.658249755859375,7.438193021953105,3.0599346831083296,0.5903646974306553
1783169936835199000,5.668198974609375,5.770584803903103,2.814608800180256,0.39965434791781007
1783169936845177900,5.678177734375,2.7816403042972087,2.2143127105176448,0.4485304608982056
1783169936855126800,5.688126708984375,-0.6946212637841701,1.4919785332910716,0.36772199014946816
1783169936865075000,5.698074951171875,-4.307001028838753,1.0698976148359476,0.43650107347369194
1783169936875024000,5.70802392578125,-9.220505477547645,1.156691005213186,-0.09270582929141818
1783169936885002800,5.718002685546875,-15.106186148661374,1.0177742635626346,-1.4268195401601493
1783169936894952000,5.727951904296875,-20.21241623222828,-0.054922480472549794,-3.3553932549491523
1783169936904900900,5.73790087890625,-24.546847119784353,-0.9009486499499529,-5.1572921622842545
1783169936914879700,5.747879638671875,-27.964008848643303,-1.3907615538291633,-5.462030895906686
1783169936924828700,5.75782861328125,-29.44260606844425,-2.611569276578724,-3.6991076159149405
1783169936934776800,5.76777685546875,-31.17329121265411,-2.9936639293432235,-1.0416121622025967
1783169936944725800,5.777725830078125,-31.426309695911407,-3.3775764451846477,-1.1329793633013963
1783169936954704600,5.78770458984375,-30.488736584854124,-4.373771256558597,-2.8066572566539048
1783169936964653800,5.79765380859375,-29.625061069178578,-4.075113888676464,-3.9642967216983434
1783169936974602800,5.807602783203125,-27.434207560181616,-2.655449627098441,-4.152648379255831
1783169936984552000,5.817552001953125,-23.925467617821692,-1.768728459139168,-4.688117484220862
1783169936994530800,5.82753076171875,-19.83893012559414,-1.8030059917941688,-4.776971241194009
1783169937004480000,5.83747998046875,-15.814347277498245,-1.8971686688303946,-3.580330429843068
1783169937014428000,5.847427978515625,-11.60274314366579,-1.5655799222052096,-1.8950155824497341
1783169937024407800,5.85740771484375,-7.020116662964225,-1.0982781984068453,-1.105410242243856
1783169937034356000,5.86735595703125,-2.197143549051881,-0.23813377946689723,-0.8906432367738336
1783169937044305000,5.877304931640625,1.8766244779735803,1.0122910829111933,-0.8321911208704114
1783169937054253800,5.88725390625,5.419803281030059,2.3744531497217714,-0.8307998126424848
1783169937064232700,5.897232666015625,8.676504983341694,3.6385157845690843,-0.827422883555293
1783169937074182000,5.907181884765625,11.60337559635043,4.99795500228703,-0.7726048863705247
1783169937084130800,5.917130859375,14.178749816215037,5.890514082619547,-0.6532183362286538
1783169937094109700,5.927109619140625,16.34388436206579,5.712381621259451,0.09978680052831769
1783169937104057900,5.937057861328125,17.874147471696137,5.674754193654656,1.098900202762708
1783169937114006800,5.9470068359375,18.70806263988018,6.023627837079763,1.7409540247678756
1783169937123955700,5.956955810546875,19.35956138577461,6.355114876896143,1.649678009083867
1783169937133934800,5.966934814453125,19.37440941081643,6.600001491624116,1.1842611491840331
1783169937143883800,5.9768837890625,18.633377108991144,6.51976358730495,1.1858159774105994
1783169937153833000,5.9868330078125,17.534478294467924,6.402476347529888,1.0366531515557318
1783169937163811800,5.996811767578125,16.156851385891436,6.403923623728752,0.8466350220907479
1783169937173760800,6.0067607421875,14.592100315725803,6.41237581025362,0.6400226084385067
1783169937183709000,6.016708984375,13.011934234285354,6.5447244255602355,0.27764081027321513
1783169937193657900,6.026657958984375,11.851770511460304,6.548777500343323,0.07027377886138857
1783169937203637000,6.036636962890625,10.868310093975067,6.494761832517385,-0.025033903491497037
1783169937213586000,6.0465859375,10.06392614070177,6.466542284727097,-0.09962525329105555
1783169937223534800,6.056534912109375,9.360843922564387,6.315872999832034,0.0019186931028962134
1783169937233483800,6.06648388671875,8.549685360589622,6.009553719019889,-0.23951321459393946
1783169937243463000,6.076462890625,8.936890780496597,6.024037586924433,-1.132984477867931
1783169937253411800,6.086411865234375,8.87265533195138,5.541347593727708,-1.3026102460369466
1783169937263359700,6.09635986328125,8.177392847654223,4.901773678904772,-1.4805594597846268
1783169937273339600,6.106339599609375,8.249344569665194,4.642616839022934,-1.8350760775327681
1783169937283287800,6.116287841796875,8.209155767139793,4.363962979249656,-1.90724816429615
1783169937293236700,6.12623681640625,7.910980629816651,3.8854818359196184,-1.921708505194634
1783169937303185700,6.136185546875,7.6909139835685485,3.469990817248821,-2.11604493625015
1783169937313164800,6.146164794921875,7.349647892537712,3.1563533223778006,-2.083964182987064
1783169937323114000,6.156114013671875,6.581890080872178,2.60386615485549,-1.9761001667261122
1783169937333061600,6.1660615234375,5.581301418453455,1.869703738799691,-1.7209464250057935
1783169937343041800,6.176041748046875,4.277061817649007,1.0735631516061723,-1.4901552633866666
1783169937352990000,6.185989990234375,2.5154829380035397,0.4918260703325271,-0.9136389855012297
1783169937362939000,6.19593896484375,-0.34025136103034015,0.17473229752779007,0.33370698088817297
1783169937372887800,6.2058876953125,-5.187580333042145,0.1080345505222678,1.3949858935259283
1783169937382867000,6.215866943359375,-9.34802418847978,0.39375279572382565,0.8085783362232148
1783169937392815900,6.22581591796875,-13.975696264088153,0.3499555934429168,-0.5822269106172024
1783169937402764800,6.235764892578125,-19.907003544867038,-1.4675360198214649,-0.7654647322922945
1783169937412712700,6.245712646484375,-26.12440155742168,-3.198319071447849,-0.7275438746988773
1783169937422692900,6.25569287109375,-32.16528564972877,-4.222015929992497,-1.818213936189562
1783169937432640800,6.265640869140625,-36.69662091913223,-4.673290501967072,-3.897241539557278
1783169937442589700,6.275589599609375,-39.177572641980646,-4.7246299363210795,-7.645010895049571
1783169937452568800,6.28556884765625,-39.24101197171211,-4.436244663867354,-12.240135038274525
1783169937462517800,6.295517822265625,-36.529679129350185,-4.3966517814084884,-15.133596718156337
1783169937472466700,6.305466796875,-31.638902645277977,-3.9484719605788587,-14.250705629879235
1783169937482414800,6.315414794921875,-26.352107904767987,-3.297445800632238,-10.369577312994002
1783169937492395000,6.32539501953125,-20.64852099986076,-4.002241544689237,-6.593724311050773
1783169937502342700,6.3353427734375,-14.618057763803005,-4.413205149063468,-2.9421839174747464
1783169937512291800,6.345291748046875,-9.167507462331653,-4.0712680269032715,-0.1286380703508854
1783169937522271000,6.35527099609375,-4.1734629114866255,-2.9763749408900737,1.210109072472155
1783169937532220000,6.365219970703125,0.32370939155220985,-1.1122697527498007,1.4735541110672057
1783169937542168800,6.3751689453125,4.4767660593479865,0.9022241497784852,1.166399183148518
1783169937552117800,6.38511767578125,8.098404066613316,2.7545684652373192,1.028553797056526
1783169937562129200,6.395129150390625,11.195152522855997,4.217129911516607,1.0814380496997387
1783169937572078300,6.405078369140625,13.77603410796523,5.394340922993421,1.296901659131795
1783169937582026200,6.415026123046875,15.88371716632247,6.038314534080028,1.9203269877083597
1783169937592006100,6.425006103515625,17.25249558253288,5.8746799691498275,2.4508671118386087
1783169937601954300,6.434954345703125,18.027157766759395,5.914450838524103,2.8833430214494467
1783169937611903200,6.4449033203125,18.43944209834337,6.325624578517675,3.357818436269462
1783169937621852200,6.45485205078125,18.341001597857474,6.513846472215652,3.6254514280736445
1783169937631831300,6.464831298828125,17.974036417424678,6.257348914670944,3.722165543158352
1783169937641780200,6.4747802734375,17.252320225965974,6.207749894243478,3.655421034401655
1783169937651728100,6.48472802734375,16.04179409712553,6.614012481319904,3.371203403021395
1783169937661677000,6.494677001953125,14.786173273539543,7.020915704387426,2.9797920558571813
1783169937671656200,6.50465625,13.698399079620838,7.135183888602256,2.67781226555407
1783169937681605000,6.514605224609375,12.596281887573003,7.105378532925248,2.2895853936448693
1783169937691554000,6.524553955078125,11.60591359039545,7.033535531985759,1.7906405773483216
1783169937701533200,6.534533203125,10.874765553724766,6.928914881560206,1.3709519608572125
1783169937711482000,6.544482177734375,10.120692568540573,6.776918731975555,1.011138990266621
1783169937721431300,6.554431396484375,8.946077126514911,6.307625980490446,0.7771452332139015
1783169937731379000,6.56437890625,8.801281702089309,6.035870648059249,-0.11957545117693953
1783169937741359400,6.574359375,8.38279091708064,5.688607946962118,-0.5672570127613842
1783169937751307300,6.584307373046875,7.569305957984924,5.262061281269788,-1.2056908176384866
1783169937761256200,6.594256103515625,7.187634206807613,4.4445884215816855,-2.0194654073305425
1783169937771235300,6.6042353515625,6.855084506195783,3.7264959735780954,-2.548240129223466
1783169937781184300,6.614184326171875,6.643930065199732,3.1569056955635544,-3.062013242948055
1783169937791133200,6.62413330078125,6.4972676778584715,2.6105393490090965,-3.3716543616592882
1783169937801081000,6.6340810546875,6.32294922182858,2.2231965664580464,-3.559824232909083
1783169937811061200,6.644061279296875,5.7997197129726406,1.8946695454910396,-3.6758170489594337
1783169937821009200,6.654009033203125,4.691848487442732,1.3021740465767682,-3.483480705679953
1783169937830958000,6.6639580078125,3.721214233782887,0.40016953089833257,-2.903293922588229
1783169937840907000,6.673906982421875,2.138536461782455,-0.4262603960968554,-2.448529170410335
1783169937850886100,6.68388623046875,-0.05584054516553878,-0.7768016804732382,-1.8474020367510615
1783169937860835000,6.6938349609375,-2.1841186477839947,-1.2675612906180322,-0.784923173739016
1783169937870784000,6.703783935546875,-5.651555688896775,-2.290206740413606,0.9933019394766539
1783169937880763100,6.71376318359375,-12.0434995364964,-2.947247046083212,2.027455675432086
1783169937890712300,6.72371240234375,-18.622909490990637,-3.255203864969313,1.4686270299285649
1783169937900660000,6.733659912109375,-23.71597497255802,-3.6900294064462185,0.6421547250963747
1783169937910609200,6.743609130859375,-27.27871538517475,-3.8954967417165633,-0.7273005674622952
1783169937920588300,6.75358837890625,-30.729356189787385,-4.20672629866302,-3.331212168894708
1783169937930537200,6.763537109375,-33.99423359977007,-4.598900446893275,-7.144829668825865
1783169937940486100,6.773486083984375,-35.00734564367532,-4.579297044017911,-11.467694037228823
1783169937950465300,6.78346533203125,-33.67187211569547,-4.459172242729365,-14.651684139072895
1783169937960414200,6.793414306640625,-31.266043146109578,-5.025196644955873,-15.122592509061096
1783169937970362000,6.803362060546875,-27.162220172560215,-5.22860091021657,-13.215516194200514
1783169937980311000,6.81331103515625,-21.631686818313597,-4.921959557843208,-10.320276398730277
1783169937990290200,6.823290283203125,-15.904023456770181,-4.689823703616857,-7.092081244456768
1783169938000239000,6.833239013671875,-10.262301179623604,-3.8624978506952523,-4.039494001501798
1783169938010188000,6.84318798828125,-5.293703204724192,-2.928480970814824,-1.8961586150050163
1783169938020137000,6.853136962890625,-0.8391215046554803,-1.6850731475919485,-0.01603971904441714
1783169938030116000,6.8631162109375,3.1790415395259854,-0.02220949372053146,0.9721673084460198
1783169938040065000,6.87306494140625,6.573445493131875,2.0798162695273756,1.4126812708228826
1783169938050013200,6.88301318359375,9.7865243268162,4.779570317776501,1.8315230612263083
1783169938059993000,6.8929931640625,12.610790889918803,6.760904001241922,2.1119912769451736
1783169938069941000,6.90294091796875,14.504030402606725,7.842218059235811,2.525837158757448
1783169938079890200,6.91289013671875,15.93983360581994,8.401264731404185,3.0254210036098956
1783169938089839000,6.922839111328125,16.815087331086396,8.606507902529835,3.6649148389339445
1783169938099818200,6.932818359375,17.148984939175843,8.546005210772156,4.161528728064894
1783169938109767200,6.94276708984375,17.388520840525626,8.270986492630838,4.201284399870038
1783169938119715300,6.95271533203125,17.422189301371574,7.957481099706888,3.8515181915193795
1783169938129695200,6.9626953125,17.341282119488714,7.780490209597349,3.349354851567745
1783169938139643100,6.97264306640625,16.82190636345148,8.037686855322121,2.5311086694195866
1783169938149592000,6.982592041015625,15.962638142824172,8.403930735743046,1.5903960912927984
1783169938159541200,6.992541259765625,15.199105255377292,8.588084357088803,0.910860606829077
1783169938169520000,7.00252001953125,14.240070838618278,8.788620373436808,0.43149537414088845
1783169938179469000,7.012468994140625,13.032427571737765,8.708025326243042,0.397493443556875
1783169938189418000,7.02241796875,12.286896789449452,8.409764264202117,-0.12088475281037389
1783169938199397000,7.032397216796875,11.878196746093034,8.296002860465645,-0.6412206591166556
1783169938209346000,7.042345947265625,10.985380476129054,7.91790136899054,-0.807949390669912
1783169938219294000,7.0522939453125,10.4042347848773,7.330131875684857,-1.2315242009446024
1783169938229243100,7.0622431640625,10.043975239562988,6.730441058439016,-1.3279863870948552
1783169938239222000,7.072221923828125,9.745434191536903,6.045010232326388,-1.4848653402850032
1783169938249171200,7.082171142578125,9.454615262195468,5.324639610257744,-1.7246921874053776
1783169938259120000,7.0921201171875,8.961281125387549,4.628537168005108,-1.624162021163851
1783169938269069300,7.1020693359375,8.288306460744142,3.873858033621311,-1.3703013879939914
1783169938279048200,7.112048095703125,7.486428352811932,2.990307604652643,-1.1553162827938794
1783169938288997000,7.1219970703125,6.452974947145581,2.2959818166837094,-0.9783326992079615
1783169938298945300,7.1319453125,4.915860071924328,1.607086090939492,-0.7255680445812642
1783169938308924200,7.141924072265625,2.1202777515143154,0.437527640042454,-0.2827598337873816
1783169938318873000,7.151873046875,-1.4843185200572013,-1.2193782744683324,0.26547033387757835
1783169938328822000,7.161822021484375,-5.08721500197351,-2.6446573071882127,0.717658513565734
1783169938338771200,7.171771240234375,-9.447589309081435,-3.7329578630685805,1.1257073264718056
1783169938348750000,7.18175,-14.737279186511039,-4.580153953108192,1.1020211112622171
1783169938358699000,7.191698974609375,-20.506830555713176,-5.062774388200045,0.49700274231806396
1783169938368647200,7.201647216796875,-25.574462320816515,-4.248713675042986,-0.2130067908644676
1783169938378627000,7.211626953125,-28.388250160002706,-2.8539319257870317,-1.2999915879711508
1783169938388575000,7.221574951171875,-29.947399172377583,-2.3531261379241943,-1.210921777094528
1783169938398524200,7.231524169921875,-30.620997521877285,-2.649240543325245,1.0747359947778283
1783169938408473300,7.241473388671875,-30.23818010779619,-3.1362954537332057,2.473412559515238
1783169938418452200,7.2514521484375,-29.832849248611925,-3.463881394457817,2.1702793613933027
1783169938428401200,7.261401123046875,-29.322718290781975,-3.194517925599217,0.8518282798849046
1783169938438350000,7.27135009765625,-28.04327469305992,-2.630081961607933,-1.2696977181248366
1783169938448298200,7.28129833984375,-24.995523784220218,-1.9676674155540763,-3.3479046527594325
1783169938458278100,7.291278076171875,-20.49509101808071,-1.1910581889130174,-4.872938045042753
1783169938468226300,7.301226318359375,-15.03478212366104,-0.64235477771312,-5.1767894744366405
1783169938478175200,7.31117529296875,-9.396892556545138,-0.8754305431380868,-4.061314788165689
1783169938488154000,7.321154052734375,-3.931710503131151,-1.679715419951081,-2.508276367625594
1783169938498103000,7.33110302734375,0.8284154017239809,-1.813221973121166,-1.508071736088395
1783169938508052200,7.34105224609375,4.90804326069355,-0.991502269643545,-1.367373079457134
1783169938518000000,7.351000244140625,8.273990935143829,0.2093605433166027,-1.6404934166312217
1783169938527980000,7.36097998046875,10.294885936886072,2.1058818541541693,-2.3571080471672117
1783169938537928200,7.37092822265625,11.94418809839487,3.7669621317401525,-2.4143960146620866
1783169938547877000,7.380877197265625,13.045247305822372,4.552553121738136,-1.9815975950986147
1783169938557862400,7.3908623046875,13.909174165910482,4.799361644439399,-1.341306033525616
1783169938567811600,7.4008115234375,14.626803380316495,4.900428109514713,-0.8289907173939048
1783169938577760500,7.410760498046875,14.991684155690669,5.005383690983057,-0.47588053237758576
1783169938587709400,7.42070947265625,14.68636031565666,5.159238035655021,-0.398290219957754
1783169938597688300,7.430688232421875,14.095533772867917,5.321376224547624,-0.4759193300180137
1783169938607637500,7.440637451171875,13.609399776697158,5.3215346299797295,-0.6743406922996044
1783169938617585400,7.45058544921875,12.836037569153309,5.278194669947028,-0.8710133112177252
1783169938627565600,7.460565673828125,11.824541143751144,5.437899494212865,-0.9563058685779571
1783169938637513700,7.470513671875,10.903329969429969,5.40724950440526,-0.9627797407671809
1783169938647462700,7.480462646484375,10.134863717234134,5.099558350718021,-0.7671799387123436
1783169938657411600,7.49041162109375,9.70370049765706,4.998707866480946,-0.5220315312430263
1783169938667390500,7.500390380859375,9.20878522913754,4.9276668295741075,-0.4237442485574633
1783169938677339600,7.510339599609375,8.921431345558165,4.851075757324695,-0.5500289607152342
1783169938687287600,7.52028759765625,8.913970508158206,4.729482052527368,-0.7188155015811324
1783169938697236500,7.530236572265625,8.847267208194733,4.532245662246644,-0.9979480847820639
1783169938707215600,7.540215576171875,8.962116407167912,4.2103503343790765,-1.0965583888769148
1783169938717164500,7.55016455078125,9.091511433365941,3.752015322498977,-0.9667423607878386
1783169938727113500,7.560113525390625,9.148671244436501,3.4146015229821205,-0.8029135884597897
1783169938737092600,7.570092529296875,9.347608008894325,3.2183184879034754,-0.6269619782701135
1783169938747041500,7.58004150390625,9.49810252174437,2.968766511712968,-0.5074819776911288
1783169938756990500,7.589990478515625,9.393449722614884,2.9048528424680233,-0.31038258472830055
1783169938766938400,7.5999384765625,8.814352196064592,2.824545964565873,0.20778814290072767
1783169938776918500,7.60991845703125,7.719070987516641,2.569926183591783,0.7301300917997956
1783169938786866400,7.619866455078125,6.371439404231309,2.208515714676678,0.9729245565541088
1783169938796815600,7.629815673828125,4.7303445145756005,1.665302863717079,1.1084307591088116
1783169938806794500,7.63979443359375,2.503157124915719,0.6499494706258178,1.1173117655050009
1783169938816743700,7.64974365234375,-0.3227876005321741,-1.1075532456219195,0.9896714009545743
1783169938826692600,7.659692626953125,-4.3373488208293915,-2.528625328171253,0.45199799087829884
1783169938836640500,7.669640625,-8.331209198403357,-3.5222684092357754,-0.2091992152750492
1783169938846620700,7.67962060546875,-11.744928093332051,-5.43563447189033,-1.1203648694653063
1783169938856568600,7.689568603515625,-14.781442153364418,-5.284297662997245,-2.572214294528961
1783169938866517500,7.699517578125,-17.974670039153096,-4.451949305738508,-3.3390906471848485
1783169938876466400,7.709466552734375,-20.465610072052478,-4.05970735296905,-3.8695541989475486
1783169938886445600,7.719445556640625,-22.172713265144825,-3.7615970975756645,-4.6487338605985045
1783169938896394500,7.72939453125,-23.465951579463482,-3.6709967891961335,-5.098204598021507
1783169938906343400,7.739343505859375,-24.526985065972802,-3.2803564264044165,-5.48684794177711
1783169938916322600,7.749322509765625,-25.104336041116714,-2.2931661747410894,-6.075588325941562
1783169938926271500,7.759271484375,-24.2967793030262,-1.1103159883335232,-6.88659140509367
1783169938936219400,7.769219482421875,-21.232369520330426,0.3824659702949226,-7.826242491468787
1783169938946168300,7.779168212890625,-16.66261479616165,1.5500046058021484,-8.174026586091518
1783169938956147500,7.7891474609375,-12.393597753280401,1.7017429812334477,-6.837440128433704
1783169938966096400,7.799096435546875,-8.984151713365316,0.7524281405866146,-4.360620683084428
1783169938976045600,7.809045654296875,-5.376817541262507,0.03767221659459173,-1.8972133847549557
1783169938986024700,7.819024658203125,-1.6162211451619863,-0.09442710012607276,-0.1129565170943737
1783169938995973600,7.8289736328125,1.8630629856109617,-0.09964446944817901,0.797953920225799
1783169939005921500,7.838921630859375,5.097805369570851,0.022134236527234313,1.4001863847784697
1783169939015870500,7.848870361328125,8.011118581870198,0.3120059481464326,1.942289667060971
1783169939025849600,7.858849609375,10.403197843044996,0.45177901436537504,2.453573886579275
1783169939035798500,7.868798583984375,12.13318974429369,0.5698027517214417,3.1198087215736505
1783169939045747500,7.87874755859375,13.298005092316865,0.7086014199502766,3.816489840497076
1783169939055726600,7.8887265625,13.93623986749053,0.8120121100641786,4.2065503575742245
1783169939065675500,7.898675537109375,14.209708433580397,1.0322823160603642,4.401066090719402
1783169939075624400,7.90862451171875,14.17423263105154,1.225801147122681,4.547965501686931
1783169939085572600,7.918572509765625,13.825259034383295,1.3794086774267256,4.5281978481605645
1783169939095552500,7.928552490234375,13.229042030727863,1.422538647970557,4.447723212476075
1783169939105500400,7.93850048828125,12.291309929716586,1.3105959840938448,4.336006174048781
1783169939115449300,7.948449462890625,11.166226872622966,1.1922219719953835,4.340584441749751
1783169939125398500,7.9583984375,10.096635985648632,1.3498045434102415,4.212184564068913
1783169939135377400,7.96837744140625,9.36927039012611,1.5665931909009814,3.728458798083663
1783169939145326600,7.97832666015625,8.676183496302366,1.6643839953064918,3.2193852403521537
1783169939155274800,7.988274658203125,8.005429430317879,1.9323845052488147,2.556713943058252
1783169939165254700,7.998254638671875,7.40302993863523,2.273222287864983,1.9473396439269184
1783169939175202600,8.00820263671875,7.033289448270201,2.379019580854475,1.7234581155657767
1783169939185151500,8.0181513671875,6.905306042435765,2.4853227775394915,1.8335612890556454
1783169939195100700,8.0281005859375,6.963510394123197,2.747171048462391,2.2101550063163042
1783169939205079600,8.03807958984375,7.009029451760649,2.4325490725986656,2.7110946496918795
1783169939215028500,8.048028564453125,6.904218247199058,1.8427574258156119,3.125996470297873
1783169939224977400,8.057977294921875,6.965684231030941,1.417243318041414,3.5137183152943847
1783169939234956500,8.06795654296875,7.096185172644257,1.1816665295809508,3.752311967357993
1783169939244905500,8.077905517578126,6.844713334307074,1.0986167827114461,3.6545638330504295
1783169939254853400,8.087853271484375,6.076475630170107,1.3056534131251274,3.265209418416023
1783169939264802600,8.097802490234375,5.185451504319906,1.5151765996575355,2.5044766830816863
1783169939274781400,8.107781494140625,4.170352085989713,1.4777482017561792,1.213434417502582
1783169939284730400,8.11773046875,2.233728774127364,1.5373022144868969,-0.3200003079012036
1783169939294679300,8.12767919921875,-1.0410586199730634,1.2693717010408638,-1.6276593617603181
1783169939304628700,8.137628662109375,-4.735137009549141,0.28704817863106724,-2.4217580678626893
1783169939314607600,8.147607666015626,-7.31291069177091,-0.8505313719421624,-2.3017241597279905
1783169939324555500,8.157555419921875,-8.954251080620288,-2.3786185988381505,-2.1722534379452467
1783169939334504700,8.167504638671875,-11.281560055720805,-4.179856996437907,-2.7827704773709177
1783169939344483600,8.177483642578125,-14.228525362253189,-4.924532038679719,-3.8211838435322045
1783169939354432500,8.1874326171875,-16.896063486552237,-4.9569542988568545,-4.285948888459801
1783169939364381400,8.19738134765625,-18.81576781231761,-4.30539505494684,-4.833637715789675
1783169939374330600,8.20733056640625,-19.861057786250115,-3.8472289698928592,-5.756331237623095
1783169939384309500,8.2173095703125,-20.37090115931034,-4.10825248042941,-6.591480331516266
1783169939394258400,8.227258544921876,-20.930620616173744,-3.922924262346327,-7.3057134737432
1783169939404206600,8.23720654296875,-21.42824981982708,-3.535122922372818,-8.355753857073188
1783169939414186500,8.2471865234375,-22.291121033382414,-3.4290199244350195,-9.322090121278165
1783169939424134400,8.257134521484375,-21.553047581362723,-3.040129327920079,-9.49433527816534
1783169939434083600,8.26708349609375,-18.072533032011986,-2.3814127596013246,-9.512693357154726
1783169939444032500,8.277032470703125,-14.069831176334619,-1.6623047048144042,-9.169828598755597
1783169939454011400,8.287011474609375,-10.26452703897953,-1.2325628963425754,-7.673426257672905
1783169939463960300,8.296960205078125,-6.850994022011757,-1.0348651721604167,-5.514609224405884
1783169939473909500,8.306909423828126,-3.3357927746832368,-0.6462436018452048,-2.953268206068873
1783169939483857700,8.316857666015625,0.455656440320611,-0.10181319178938865,-0.6543903756827115
1783169939493836300,8.326836181640624,3.499256074699759,-0.005387538257241249,0.11405775633454322
1783169939503785700,8.33678564453125,5.754799205750227,-0.17626798266246912,0.331814372074604
1783169939513734700,8.346734619140625,7.384747847491503,-0.10428133546859025,0.7542693845391273
1783169939523713500,8.356713623046875,8.56231454053819,0.28468364145681263,1.5550246259212492
1783169939533662500,8.366662353515625,9.881344883239269,1.036816452358663,2.601185537469387
1783169939543611600,8.376611572265626,11.014721136903763,1.804413812765479,3.8730993242084977
1783169939553559600,8.3865595703125,11.712878758120537,1.9212277359403669,5.13702912645638
1783169939563573500,8.396573486328125,11.774146004509925,1.4149620752364396,6.315878260529041
1783169939573521700,8.406521728515624,11.790096437835693,0.8539543321281671,7.247989014527201
1783169939583470600,8.416470703125,11.84356850030422,0.7507835882499814,7.74415749797821
1783169939593449500,8.426449462890625,11.85032089717388,1.0161411824680864,7.7283309832930565
1783169939603398700,8.436398681640625,11.490084732735156,1.501417538896203,7.774233487290143
1783169939613347600,8.44634765625,10.803563773298263,1.598336236642301,7.2459770901829
1783169939623296800,8.456296875,9.86425813935995,1.796592763751,6.343971551591157
1783169939633275600,8.466275634765625,9.007749446573852,2.133747035548836,5.708733035624027
1783169939643224800,8.476224853515625,8.491911217013001,2.3187799239471554,5.259533224096894
1783169939653172700,8.4861728515625,8.05097011526525,2.4378338811337947,4.793859247630834
1783169939663151600,8.496151611328125,7.794953619235754,2.49418471390903,4.294434392732382
1783169939673100800,8.506100830078125,7.711563388365507,2.5817653822064397,3.9401735033109784
1783169939683049700,8.5160498046875,7.632278254726529,2.5505568817332387,3.655745444050431
1783169939692998700,8.52599853515625,7.584522816339135,2.381903611858189,3.4207390028238294
1783169939702977500,8.5359775390625,7.583817298418283,2.1823943082094193,3.1869550891295075
1783169939712926700,8.5459267578125,7.289276718205213,1.818141163214296,2.884752011464536
1783169939722874600,8.55587451171875,7.167211596503853,1.5515579727239905,2.577223062601685
1783169939732823600,8.565823486328124,7.29180009920299,1.619910647329688,2.1372841236338016
1783169939742802700,8.575802734375,7.023577617073059,2.0511329036176202,1.9284429280161857
1783169939752751600,8.585751708984375,5.779855905595421,1.8461789246968925,1.3851917908728122
1783169939762700500,8.595700439453125,4.038116283407807,1.1794019456498324,0.42496027328372
1783169939772679700,8.6056796875,1.4048013312280176,0.789268509466946,-0.21650252402573822
1783169939782628600,8.615628662109375,-2.0542975051283836,0.24852643253505227,-0.9449769575729966
1783169939792577800,8.625577880859375,-5.179740725457668,-0.3925450273692608,-1.5608230830669403
1783169939802525700,8.635525634765624,-8.777707934278249,-1.0001021940760313,-2.290772265341878
1783169939812505600,8.645505615234375,-12.226784558314085,-1.76042591021806,-3.3072233905419703
1783169939822453800,8.655453857421875,-15.291805750906466,-2.572876557829976,-4.608325570103526
1783169939832402700,8.665402587890625,-19.19935562624931,-2.988422521558404,-4.867008070471883
1783169939842381800,8.6753818359375,-21.42203284500837,-2.962853488276899,-4.556121043352783
1783169939852330800,8.685330810546875,-20.978062750828265,-2.1509278874523936,-4.459188317081332
1783169939862279700,8.69527978515625,-19.60535050230026,-1.3885779261797666,-5.092431859838962
1783169939872227600,8.7052275390625,-18.049743692576886,-1.6387433580935,-5.208808999031782
1783169939882207700,8.715207763671875,-17.50565201295614,-3.0636987118169663,-5.143861018303037
1783169939892155600,8.72515576171875,-17.257211505138873,-3.796756381501257,-5.060801626822352
1783169939902104600,8.7351044921875,-15.32436128207445,-3.6398224832534787,-4.380725021219253
1783169939912053500,8.745053466796875,-11.644320185679197,-3.4761110536947846,-3.8590310513675212
1783169939922032600,8.75503271484375,-9.229863673001526,-1.427692085210979,-3.394990229061246
1783169939931981600,8.764981689453125,-7.9496637039542195,1.3538140713125466,-2.2944132521927356
1783169939941930500,8.774930419921875,-6.525742077192664,1.0749201191730797,-2.402998422335088
1783169939951909600,8.78490966796875,-4.868619597321748,-0.23283932632058857,-2.998993015411496
1783169939961858800,8.79485888671875,-2.834073671367764,-0.11256430290639399,-2.533965227894485
1783169939971806500,8.804806396484375,-0.8124462636977434,1.17636652347669,-1.8001736909776924
1783169939981755600,8.814755615234375,1.2227934897392987,2.147338192397356,-0.8421861529231071
1783169939991734800,8.82473486328125,3.2683862948864695,2.3032143982857463,-0.054224049879610534
1783169940001683700,8.83468359375,4.988519649943709,2.6800240963846442,0.145599142023921
1783169940011632600,8.844632568359375,6.3621215407878156,3.113713619568944,0.7669765981599688
1783169940021611800,8.85461181640625,7.6323834686666725,3.1003117016822097,1.4144073639631272
1783169940031560700,8.864560791015625,8.674472600731253,2.7462372747436166,1.6146704085886479
1783169940041508600,8.874508544921875,9.024830929756163,2.243980411289632,1.9550584016107022
1783169940051457500,8.88445751953125,9.05553469557762,1.8610940236255527,2.051078104690462
1783169940061436700,8.894436767578124,9.382038686284423,1.8571818186178803,1.9883596365794538
1783169940071385600,8.904385498046874,9.699110247257352,1.9818539079472421,2.1322217256776987
1783169940081334500,8.91433447265625,9.829025497937202,1.9117340775385498,2.155253495566547
1783169940091283500,8.924283447265625,9.890389774960278,1.9875980045571922,1.967974727937579
1783169940101262600,8.9342626953125,10.26064581363201,2.0454779465958475,1.9710674332559108
1783169940111211500,8.94421142578125,10.328946027398109,1.9773820232301949,2.2326957778178156
1783169940121159700,8.95415966796875,9.875511354780196,2.33237619536221,1.9214881404422222
1783169940131139800,8.964139892578125,9.57162017789781,2.9954081426620482,1.4633335996955632
1783169940141087500,8.97408740234375,9.55157224612534,3.5227135226547714,1.3329923786886035
1783169940151036700,8.98403662109375,9.829937352085112,3.8405820792242884,1.2289401758007705
1783169940160985600,8.993985595703125,9.718216514265537,4.086346645830571,1.06619145379439
1783169940170964700,9.00396484375,9.17088775241971,4.214454554827511,0.9640632047064602
1783169940180913700,9.01391357421875,8.518306471985579,4.213647330097854,0.8762012352496386
1783169940190861800,9.02386181640625,7.98155463373363,4.067039887814223,0.7188882745563984
1783169940200841700,9.033841796875,7.626132007056475,4.176487227743864,0.5994017711713909
1783169940210789600,9.04378955078125,7.46994425100088,4.598682127967477,0.50367286773175
1783169940220738600,9.053738525390624,7.341978380823135,4.813417350059748,0.06264912920184433
1783169940230687700,9.063687744140625,7.077180612444877,4.863216861495375,-0.0006934621568769217
1783169940240666600,9.07366650390625,5.811831591048836,4.072904395933449,-0.011822247479856014
1783169940250615600,9.083615478515625,4.586786522990465,2.721627441883087,0.08586750770397483
1783169940260564500,9.093564453125,2.5655238569796084,1.4750640772387384,0.05877564876936376
1783169940270543600,9.103543701171875,0.45041094088256356,0.23738749114423988,-0.02489047643281519
1783169940280492500,9.113492431640625,-0.7233271337866782,-0.31706191636174913,-0.16604984591100364
1783169940290440400,9.1234404296875,-2.091522197151184,0.004793664017319679,0.1104829665876925
1783169940300389600,9.1333896484375,-4.08380426787138,-1.3724556434184312,0.7940349932163954
1783169940310368500,9.143368408203125,-6.4519222232222555,-3.5126559467598795,1.0252012717582284
1783169940320317700,9.153317626953125,-9.348947148543596,-4.325736416707933,0.3101756274467334
1783169940330266600,9.1632666015625,-11.651031666016578,-3.9345390045553446,-0.013615487572178243
1783169940340214800,9.17321484375,-12.385958052182197,-3.0845997532874345,-0.36614305039495226
1783169940350194700,9.183194580078125,-13.909682699954509,-2.157489876316488,-1.1314360793821514
1783169940360142600,9.193142578125,-15.840628550702332,-2.512104693742096,-1.4346588554836808
1783169940370091800,9.203091796875,-16.928747612535954,-2.751601724386215,-1.4106642319120466
1783169940380070700,9.213070556640625,-17.40686313742399,-1.5178914115741848,-1.8570918022468685
1783169940390019600,9.22301953125,-17.993980304300784,0.06873743613958358,-3.0232220322608945
1783169940399968500,9.232968505859375,-17.153063732922075,0.9089386988557875,-3.8170541963815685
1783169940409917700,9.242917724609375,-14.746553210812806,1.2917233797110617,-4.066059936866164
1783169940419896600,9.252896484375,-12.187884626555443,1.4320238308049738,-4.006779772640765
1783169940429845500,9.262845458984375,-9.689270405766367,1.0962700003895909,-3.706098789976537
1783169940439793700,9.272793701171874,-7.416776139914989,0.6582322188679128,-2.801190807941556
1783169940449773600,9.282773681640625,-5.211739791786671,0.3266270325645804,-1.4990946489065884
1783169940459721500,9.292721435546875,-2.9383085373461246,0.26213147177845236,-0.2811462245782837
1783169940469670700,9.302670654296875,-0.7761217353850602,0.282728415735811,0.14150900489976628
1783169940479619800,9.312619873046875,1.5978163044214249,0.28087080517038704,0.24702088681031018
1783169940489598700,9.3225986328125,3.603999474722147,0.45801089449226856,0.5023432630958036
1783169940499547600,9.332547607421875,4.991695941892266,0.4479436009209603,0.7801580051638185
1783169940509495800,9.342495849609374,5.969204757496715,0.13705832736752926,0.9040892129980027
1783169940519444700,9.35244482421875,6.83906977546215,-0.16323343678340316,0.6799241915203631
1783169940529423600,9.362423583984375,7.723049828019738,-0.42080205762572587,0.44374107119720424
1783169940539372800,9.372372802734375,8.367327975010872,-0.7216111236490309,0.5443595002440735
1783169940549321700,9.38232177734375,8.821630662634968,-1.1946045562829821,0.7678360645335167
1783169940559329800,9.392329833984375,8.974011427623033,-1.7963018179804087,0.8281989824943244
1783169940569278700,9.40227880859375,9.073409374964237,-2.1292470937810837,0.8509396604821086
1783169940579227600,9.4122275390625,9.506082999104262,-2.207390510039031,0.8221621865481138
1783169940589175800,9.42217578125,9.863379018437861,-2.1478267065666614,0.6512124032337218
1783169940599155700,9.43215576171875,9.945960271012783,-1.9615536088488994,0.44487869692500676
1783169940609103600,9.442103515625,10.072857635176181,-1.5276035350322723,0.3294313128629699
1783169940619052500,9.452052490234376,10.165338350474833,-0.9682380061730742,0.19175481706447897
1783169940629031700,9.46203173828125,9.880471607536077,-0.5869745435357093,0.2770582246122882
1783169940638980600,9.471980712890625,9.529054124847054,-0.24512656096369026,0.5697382351178676
1783169940648929500,9.481929443359375,9.026491556444764,-0.09157543702200055,0.8197302832260728
1783169940658878500,9.49187841796875,8.713951209160685,-0.26576858617179094,1.026306018129736
1783169940668857600,9.501857666015624,8.663461377373338,-0.09858677708879113,1.1017675018273294
1783169940678805500,9.511805419921876,8.544964761808513,0.4474377702906728,1.2761314044341445
1783169940688754400,9.52175439453125,8.52020499908328,0.7258875588592142,1.5113871442466973
1783169940698703600,9.53170361328125,8.298987429234385,0.7979248402617871,1.5380737833812832
1783169940708682500,9.5416826171875,8.204817445674538,0.9013993893921375,1.470431302871555
1783169940718631700,9.551631591796875,8.388780512884258,1.0844761022213847,1.457143074492365
1783169940728580600,9.56158056640625,8.096031492263078,1.312127139183879,1.1501045394949614
1783169940738559700,9.571559814453124,7.3728008045881985,1.2762414406798779,0.6888694222591817
1783169940748508700,9.5815087890625,6.11527853129506,1.1560368521533906,0.22176183279342948
1783169940758456800,9.591456787109376,3.562219603613019,0.8722193260066211,-0.32468649295605717
1783169940768405800,9.60140576171875,0.46384793008267877,0.2875401999317109,-0.5528979768129065
1783169940778384600,9.611384521484375,-2.071012493085861,-0.28475816799774767,-0.7145714342705906
1783169940788333600,9.62133349609375,-4.742125553262233,-0.7555282985590398,-0.575350448976457
1783169940798282500,9.631282470703125,-7.374657830631732,-1.2611745121903717,-0.3699250531516969
1783169940808261600,9.64126171875,-9.98622915303707,-1.6345568661890924,-0.5481373748149723
1783169940818210600,9.65121044921875,-14.357721066486835,-2.1540591712154447,0.0762064385796897
1783169940828159500,9.661159423828124,-16.71052454832792,-2.488577979943156,0.553141101386398
1783169940838107600,9.671107666015626,-17.47937658497095,-1.4894998682178555,0.4058688019858673
1783169940848086500,9.68108642578125,-18.95855131239891,-0.7598712231341749,0.5072538680236787
1783169940858035500,9.691035400390625,-19.859280839705466,-0.538870657036826,0.20970168490447103
1783169940867984600,9.700984619140625,-20.23162128343582,0.6390086821556091,-0.7549590473037212
1783169940877963500,9.710963623046876,-20.069650267803667,2.3289944439694286,-1.9123393499553203
1783169940887912700,9.72091259765625,-19.495846171486377,3.548809502419829,-2.933734361298382
1783169940897861600,9.730861572265624,-18.207218565833568,4.0325998580738895,-3.5607711583703754
1783169940907809800,9.740809814453126,-15.909994932395218,4.101756688669323,-3.8426144618347284
1783169940917789700,9.750789794921875,-12.948009751385449,3.6938451653420925,-3.55740606585145
1783169940927737600,9.760737548828125,-9.886092370027303,2.962486993052065,-2.7701649705588816
1783169940937686800,9.770686767578125,-6.851283360347152,2.2509496657803654,-1.686813853779435
1783169940947635700,9.7806357421875,-3.978986633569002,1.2108829794541,-0.5484034053400159
1783169940957614600,9.790614501953126,-1.4038912306457758,0.27557178544681515,0.2693108253559097
1783169940967563500,9.8005634765625,0.6555296088457108,0.024651352181006222,0.7685664976999164
1783169940977512700,9.8105126953125,2.3990607906252146,0.03513593958262354,0.8938154370691627
1783169940987491600,9.82049169921875,4.116259845796227,0.048123796775750814,0.8647693753268569
1783169940997440500,9.8304404296875,5.474126407369971,0.19957951934076845,0.8397806992165744
1783169941007388700,9.840388671875,6.54626405621767,0.5103355404913426,0.8659208103843032
1783169941017337600,9.850337646484375,7.764186725050211,0.5907515047911555,0.7830237698584794
1783169941027316500,9.86031640625,9.113494717115163,0.5729691067978739,0.7640485818840563
1783169941037265700,9.870265625,9.994964248156547,0.8228272263281047,0.7050882972627878
1783169941047214800,9.88021484375,10.664043074405193,1.0903884680703282,0.5116208310615271
1783169941057193700,9.89019384765625,11.27030684030056,1.2786056855931878,0.29518443107455966
1783169941067142700,9.900142578125,11.758095033419131,1.1029451673045754,0.09714775726161896
1783169941077090800,9.9100908203125,12.15907354261279,0.7383207047790289,-0.12781020469199866
1783169941087039700,9.920039794921875,12.457959458553791,0.5270382534891367,-0.31762090195138004
1783169941097018600,9.9300185546875,12.625676324361562,0.38193537054955956,-0.500353733246401
1783169941106967800,9.9399677734375,12.685360685473679,0.14044453573971985,-0.5737885334219783
1783169941116916700,9.949916748046874,12.566479454505442,0.0025958617120981214,-0.4269169603094458
1783169941126865700,9.95986572265625,12.219825240695476,-0.27505378945469855,-0.3633160102754831
1783169941136844500,9.969844482421875,11.74099426101446,-0.6045581310212612,-0.3234032482124865
1783169941146793700,9.979793701171875,11.023325299119948,-0.5747507295176386,-0.27289944269871336
1783169941156741600,9.98974169921875,10.160250671947002,-0.1464087048411369,-0.5731924672249704
1783169941166721500,9.999721435546874,9.53959597712755,0.23647972864955663,-0.9130614048089831
1783169941176669700,10.009669677734376,8.961943973210454,0.5006193253800273,-1.1666042042013256
1783169941186618600,10.01961865234375,8.1591218624264,0.5777370518520474,-1.3874308019712567
1783169941196567600,10.029567626953124,7.552704367274045,0.6436082849055528,-1.4567930920109151
1783169941206546400,10.03954638671875,7.036264664688706,0.5871519459292293,-1.131179912663996
1783169941216495900,10.049495849609375,5.729847135323285,0.5537209471009671,-0.7397599438019097
1783169941226443500,10.059443603515625,3.299277692234516,0.2269648813292384,-0.4082769591061398
1783169941236423700,10.069423583984374,0.7086638176620006,-0.33302783951759335,-0.555902200130187
1783169941246371800,10.079371826171876,-1.9544003760933875,-0.36783100348189474,-0.7593492450866848
1783169941256320800,10.08932080078125,-4.208780308583378,-0.07353577633202076,-0.7841496320832521
1783169941266269700,10.099269775390624,-5.929568912678957,-0.20684417658150195,-0.6560206072330474
1783169941276248600,10.10924853515625,-8.759790000271797,-2.1279757586710155,-0.1312224242882803
1783169941286197800,10.11919775390625,-12.995628411650657,-4.832993572667241,0.8630677590407431
1783169941296146700,10.129146728515625,-16.567824050354957,-5.676142433142662,0.7847191755995154
1783169941306094600,10.139094482421875,-17.812626542806623,-5.18029719029665,-0.35724925758242604
1783169941316074500,10.149074462890624,-18.74299366800785,-4.1159295909285545,-1.5817952900774777
1783169941326022700,10.159022705078126,-21.838965294659136,-2.270632709763199,-1.6145780541300774
1783169941335971600,10.1689716796875,-20.148245081090927,-1.8988740114435552,-1.7683973274886606
1783169941345950700,10.17895068359375,-18.997148461818693,-0.928062355390191,-3.4099215484723446
1783169941355899600,10.188899658203125,-18.741923992949722,0.7992645644329488,-3.2026576851740476
1783169941365848600,10.1988486328125,-16.525031202811,0.5957148993521928,-2.4133204943850637
1783169941375796500,10.20879638671875,-15.402947912055254,0.22607523901313542,-1.3801118572600186
1783169941385776600,10.218776611328124,-13.943051885592936,-0.4070988917700946,-0.5134842137806117
1783169941395724500,10.228724609375,-11.839554003965853,-0.6805487531594931,-0.6969318057488649
1783169941405673700,10.238673828125,-9.410210303279756,0.27827114406600595,-1.1524176387429237
1783169941415652900,10.24865283203125,-6.643198243793845,1.0720484361942857,-1.0473794935576617
1783169941425601800,10.258601806640625,-3.859639538654685,1.2216348942887036,-1.8734648448988793
1783169941435550700,10.26855078125,-1.4398352352082728,1.9355624046325683,-2.377338203638792
1783169941445499600,10.278499755859375,-0.12397183210551738,1.5719181853160262,0.2620170698848553
1783169941455478800,10.288478759765624,0.5692354732275009,-0.18710297267064452,1.9313835115127265
1783169941465427700,10.298427734375,2.4251351430803534,-0.5160203811947256,1.6831874799758195
1783169941475375600,10.308375732421876,4.550832581555843,0.5499144674900919,1.3756119154922664
1783169941485355500,10.31835546875,6.382421401494741,1.358223996709287,1.0484021876689047
1783169941495303700,10.3283037109375,8.459197280412912,2.051206553375721,0.6357800754979253
1783169941505252600,10.338252685546875,10.0896100325346,2.617189162287116,0.5190967929653824
1783169941515201500,10.348201416015625,10.71406762676835,0.954581967394799,0.771848076653853
1783169941525180700,10.3581806640625,10.37976669857502,0.11824877828359603,0.20571488029062746
1783169941535129600,10.368129638671874,11.121204658591747,1.701834605039656,0.5836082819730043
1783169941545077500,10.378077392578126,12.11475976911187,2.3618816913098097,0.7515897900663315
1783169941555026400,10.3880263671875,12.166629072558878,1.7694424526274204,0.6317470936547964
1783169941565015800,10.398015869140625,12.171279528713226,1.3070040970817207,0.6313336174830794
1783169941574965000,10.407965087890625,12.189483878445625,1.469738206040859,0.6565113133594394
1783169941584914000,10.417913818359375,11.98801554968357,1.91357093757689,0.8854758440732955
1783169941594893000,10.42789306640625,11.572316441220044,2.440876317569613,1.0135253008812666
1783169941604842000,10.437842041015625,11.180488037687539,2.8004508032292126,1.4400892099693416
1783169941614791000,10.447791015625,10.709937395095825,2.5345719616159794,1.8609967007309198
1783169941624738800,10.45773876953125,10.200227293026447,2.23412318027243,2.032000333124399
1783169941634719000,10.467718994140625,9.599313071465492,1.8057655196353792,2.040909323506057
1783169941644667000,10.4776669921875,8.965822860470414,1.1318863073676824,1.9613545791454612
1783169941654615800,10.48761572265625,8.57180892959237,0.8800804147705436,1.780581540148705
1783169941664595000,10.497594970703124,8.19560011999607,0.905445449912548,1.3152091769777237
1783169941674543900,10.5075439453125,7.761131429132819,1.0797202129311858,0.9320558089405298
1783169941684492800,10.517492919921875,7.335282098054885,1.1257828759260475,0.6830855781607329
1783169941694441000,10.52744091796875,6.583271890619397,0.8713480961300433,0.4157547841735184
1783169941704420900,10.5374208984375,5.7592211138457055,0.6191580265209078,0.13897826257944107
1783169941714368800,10.54736865234375,4.894161450335383,0.2837339395165443,-0.027596447455883025
1783169941724317700,10.557317626953125,4.030666551923751,-0.25175635436698796,-0.46124242375940083
1783169941734267000,10.567266845703125,3.103962625405192,-0.8556117439463734,-0.9771910548921674
1783169941744246000,10.57724609375,1.4367103811860085,-1.4908919070981441,-1.2123750446427612
1783169941754195000,10.58719482421875,-1.3272609954297543,-1.8275849911250173,-1.3217242579601705
1783169941764143900,10.597143798828125,-4.879162618646025,-1.782597848407179,-1.4705843014761806
1783169941774123000,10.607123046875,-7.7927739371091125,-1.5874818112812936,-1.3804542409569025
1783169941784072000,10.617072021484375,-10.724917522084713,-0.9835717689052224,-1.4150155589893458
1783169941794019800,10.627019775390625,-13.194272330641745,0.09708879361599683,-1.606002387356013
1783169941803969000,10.636968994140625,-14.162759635400771,0.7497956001259386,-1.745481439064443
1783169941813948000,10.646947998046874,-14.422780690896511,1.6903282916411757,-1.714365877571702
1783169941823896800,10.656896728515624,-15.373553475266695,1.6311244075223803,-1.0185038930114358
1783169941833845800,10.666845703125,-16.12390305601358,1.6058469045333563,-0.9860209156230092
1783169941843825000,10.676824951171875,-15.47244405760765,2.154459276448935,-1.251979398343712
1783169941853773800,10.68677392578125,-15.253856251740455,2.585512167519331,-1.3888964906096457
1783169941863721700,10.6967216796875,-15.544879179221391,3.142956665188074,-1.6601869820080697
1783169941873671000,10.7066708984375,-13.829832333648204,3.357180138365924,-1.9079601119577883
1783169941883649800,10.71664990234375,-11.531847652709484,3.0731293879851695,-1.4969778028830885
1783169941893598700,10.7265986328125,-9.325523018336295,2.7659266023367644,-0.632689269875735
1783169941903548000,10.7365478515625,-6.975600060367584,1.9984164818219838,0.15849859028123317
1783169941913497000,10.7464970703125,-4.557680255493522,0.805876529918611,0.7181822451788932
1783169941923476000,10.75647607421875,-2.2699001577049494,-0.7109479100111872,0.4433985048372298
1783169941933425000,10.7664248046875,-0.012789338946342467,-1.8638617347732185,-0.22375267781708388
1783169941943373000,10.776373046875,1.9057903667032718,-2.3837337498947977,-0.9868607274480163
1783169941953353000,10.78635302734375,3.436078026252985,-2.3642099881269036,-1.4954899024128914
1783169941963300900,10.79630078125,4.549315747252106,-1.9953063869774341,-1.569713222617656
1783169941973249800,10.806249755859374,5.03691513980031,-1.5070894470527767,-1.146496578130871
1783169941983199000,10.816198974609375,5.287862077480554,-1.1365621902242302,-0.36992753736972805
1783169941993177900,10.826177734375,6.012782033416628,-1.2774210058532653,0.3768117439255118
1783169942003126800,10.836126708984375,6.442337817797064,-1.620164037568867,1.0177171996131538
1783169942013075700,10.84607568359375,6.514313505205512,-1.720632975142449,1.6277929250121115
1783169942023054800,10.856054931640625,6.901224910601973,-1.991799109508842,1.7889694292657077
1783169942033003800,10.866003662109375,7.229312371107936,-2.279513935355097,1.612693263296783
1783169942042952000,10.875951904296874,7.237897828623652,-2.0286713348321617,1.4770283630490302
1783169942052900900,10.88590087890625,7.489843714213371,-1.7673706147894261,1.3870242669969797
1783169942062879700,10.895879638671875,7.779915040057897,-1.4875520951509476,1.077876850086823
1783169942072829000,10.905828857421875,7.891291009962559,-1.1284240380845962,0.6444606639511883
1783169942082777900,10.91577783203125,7.829082683330774,-1.2889398864723742,0.47122375608030703
1783169942092757000,10.925757080078125,7.414742588260769,-1.2758442580558358,0.26403584409505126
1783169942102706000,10.935705810546875,6.960337024784088,-0.8424990182645619,-0.0783953451924026
1783169942112654000,10.945654052734374,7.017285823452473,-0.4808298253480345,-0.16387261146977544
1783169942122603000,10.95560302734375,6.884996244856715,-0.527517342242971,-0.025700112315267323
1783169942132582000,10.965581787109375,6.330123058980703,-0.8830304967477917,0.14789883380103855
1783169942142530800,10.97553076171875,5.901167578580975,-1.2457817127473652,0.47308699266891924
1783169942152480000,10.98547998046875,5.845038864123821,-1.5747794199660419,0.6080641298482194
1783169942162429000,10.995428955078125,5.786712347361445,-1.6894157068409024,0.3896007175456732
1783169942172407800,11.00540771484375,5.965134147056937,-1.4598276374012231,-0.08955372193604708
1783169942182356700,11.015356689453125,6.551366347792745,-1.0726873186197132,-0.4568938731610775
1783169942192305000,11.025304931640624,6.531132538059353,-0.8937895719755441,-0.863958424270153
1783169942202284800,11.035284912109375,6.250744401839375,-0.8565536279063671,-1.1520986359216272
1783169942212232700,11.045232666015625,5.903395191502571,-0.8576496795147657,-1.1618111977711318
1783169942222182000,11.055181884765625,4.811836802870035,-0.9666925302967428,-1.1360364858496934
1783169942232131000,11.065131103515625,3.7296880476176737,-1.1193068117797373,-0.9501081099163741
1783169942242110000,11.07510986328125,2.824535443171859,-1.4287392561763523,-0.9092589437860995
1783169942252059000,11.085058837890625,1.9025363333433865,-1.6153540069386363,-0.4253105480261147
1783169942262007000,11.095007080078124,0.5596458071053028,-1.523573548863828,-0.09541243050214834
1783169942271987000,11.104987060546875,-1.451064485231042,-0.70942954133749,-0.1075260895434767
1783169942281935000,11.11493505859375,-2.742126040032506,-0.3527068649124354,0.27738740176772697
1783169942291884000,11.124884033203125,-4.7278918607264755,0.021974223659932613,0.21086037168661131
1783169942301833000,11.1348330078125,-7.417701438066363,2.5352389010921117,-0.9807323807608336
1783169942311811800,11.144811767578124,-7.88380971429646,5.342624179759621,-2.091043181462586
1783169942321760800,11.1547607421875,-7.45148154259324,5.838716090843081,-2.1093524528741834
1783169942331710000,11.1647099609375,-7.676704840952158,5.049609201678633,-1.1653274622637777
1783169942341657900,11.174657958984374,-8.262886188283563,5.242090506386757,0.017571933580376207
1783169942351637800,11.1846376953125,-8.644947815561293,5.266264578178524,1.0635562099199742
1783169942361586000,11.1945859375,-8.850843313115835,4.171437835399806,1.62470927978307
1783169942371534800,11.204534912109375,-9.255887172052264,3.3154569658800956,1.3429228210724888
1783169942381513700,11.214513671875,-9.792014740926026,3.382256127433479,0.525834394124709
1783169942391463000,11.224462890625,-9.713951842558384,3.93096582224369,-0.5175959234157577
1783169942401412000,11.234412109375,-8.825614179313183,4.217571517804265,-1.5714635734163225
1783169942411359700,11.24435986328125,-7.904685329064726,3.7700881548061966,-1.6252910251937807
1783169942421340000,11.25433984375,-6.919126477995515,3.3381785007759928,-1.2464867922767997
1783169942431288000,11.2642880859375,-5.885972347536683,2.6902918078988787,-1.3597254873134195
1783169942441237000,11.274237060546875,-4.480814457955956,1.256820993155986,-0.5751654477983713
1783169942451216000,11.2842158203125,-5.019500479140877,-0.6520438856218009,-0.30320578843411056
1783169942461165000,11.2941650390625,-4.02707115778029,-0.8351679447241127,-0.5031517664670944
1783169942471114000,11.304114013671875,-2.8372382728785275,-1.074070443541184,-0.9062971713710576
1783169942481063000,11.31406298828125,-1.5966583665579557,-1.461865134578198,-1.2498280655287206
1783169942491041800,11.324041748046875,-1.085817799153924,-1.5837945010706782,-1.0695048891913146
1783169942500991000,11.333990966796875,-0.7419961784213781,-1.6627515717990695,-0.4511718422524631
1783169942510939000,11.34393896484375,-0.2925309939563274,-2.091503200189769,0.2279045002669096
1783169942520887800,11.3538876953125,0.21654373281896114,-2.392171177241951,0.8649618291590362
