time,seconds_elapsed,z,y,x
1783169931277903400,0.1109033203125,-1.8121644258499146,0.397940456867218,0.049900446087121964
1783169931287883300,0.12088330078125,-2.135340690612793,0.044972535222768784,0.30386215448379517
1783169931297831400,0.13083154296875,-2.3060224056243896,-0.18203026056289673,0.5522719621658325
1783169931307780600,0.140780517578125,-2.3355863094329834,-0.3268585503101349,0.6921651363372803
1783169931317759500,0.150759521484375,-2.205623149871826,-0.43590912222862244,0.6916831135749817
1783169931327708400,0.16070849609375,-2.041902780532837,-0.5180346369743347,0.6122146844863892
1783169931337657300,0.1706572265625,-1.9216581583023071,-0.5880275368690491,0.48437732458114624
1783169931347605500,0.18060546875,-1.8721593618392944,-0.6906630992889404,0.2729939818382263
1783169931357585400,0.19058544921875,-1.919412612915039,-1.0261465311050415,-0.155019149184227
1783169931367533600,0.200533447265625,-2.2950379848480225,-0.8451155424118042,-1.0649563074111938
1783169931377482500,0.210482421875,-2.4551172256469727,-0.384343683719635,-1.637220859527588
1783169931387431400,0.220431396484375,-2.3792171478271484,0.128683939576149,-2.1284430027008057
1783169931397410300,0.230410400390625,-2.231905460357666,0.3566066026687622,-2.385542869567871
1783169931407359500,0.240359375,-2.1240062713623047,0.43783247470855713,-2.423377513885498
1783169931417308400,0.250308349609375,-1.9481574296951294,0.34899580478668213,-2.3153300285339355
1783169931427287300,0.260287353515625,-1.5223603248596191,-0.21455463767051697,-2.2507576942443848
1783169931437236200,0.270236328125,-0.25965553522109985,-2.3505873680114746,-2.0422534942626953
1783169931447184400,0.280184326171875,0.9349615573883057,-3.2366766929626465,-1.3371286392211914
1783169931457133300,0.29013330078125,1.3321746587753296,-3.532113790512085,-0.4557590186595917
1783169931467112200,0.3001123046875,1.2872815132141113,-3.5254101753234863,0.21162676811218262
1783169931477061600,0.3100615234375,1.0316205024719238,-2.941293716430664,0.7484593391418457
1783169931487010600,0.320010498046875,0.7488707900047302,-2.0315515995025635,1.3770537376403809
1783169931496989400,0.329989501953125,0.5212775468826294,-1.5306999683380127,2.0507960319519043
1783169931506938400,0.3399384765625,0.3144167959690094,-1.3513050079345703,2.601447343826294
1783169931516886500,0.349886474609375,0.037946850061416626,-1.3929016590118408,2.7799928188323975
1783169931526835500,0.35983544921875,-0.4068857431411743,-1.6662261486053467,2.3928987979888916
1783169931536814300,0.369814453125,-0.9386822581291199,-2.1368167400360107,1.4947558641433716
1783169931546763500,0.379763427734375,-1.3417292833328247,-2.4321610927581787,0.31983739137649536
1783169931556744000,0.389743896484375,-1.5071046352386475,-2.6683783531188965,-0.9758163094520569
1783169931566722800,0.399722900390625,-1.5662654638290405,-3.262057304382324,-2.0655181407928467
1783169931576671700,0.409671630859375,-1.4581049680709839,-3.5528645515441895,-2.7803683280944824
1783169931586621000,0.419620849609375,-0.9888705611228943,-3.0336902141571045,-3.0598385334014893
1783169931596568800,0.42956884765625,-0.3076736629009247,-1.6689425706863403,-2.9304237365722656
1783169931606548700,0.439548828125,0.49452877044677734,-0.3596298098564148,-2.6331212520599365
1783169931616497000,0.449496826171875,1.1652549505233765,0.1399589627981186,-2.2079660892486572
1783169931626446000,0.459446044921875,1.2842609882354736,0.08613727986812592,-1.6919264793395996
1783169931636395000,0.46939501953125,0.95181804895401,-0.43887484073638916,-1.2503812313079834
1783169931646374000,0.479373779296875,0.29435306787490845,-1.377945899963379,-0.9887230396270752
1783169931656323000,0.489322998046875,-0.3116034269332886,-2.16148042678833,-0.9484137296676636
1783169931666271000,0.49927099609375,-0.54289311170578,-2.2594072818756104,-0.9740407466888428
1783169931676251000,0.5092509765625,-0.48365136981010437,-1.7366763353347778,-0.9338283538818359
1783169931686199000,0.519198974609375,-0.3265477418899536,-1.0426621437072754,-0.8471661806106567
1783169931696148000,0.52914794921875,-0.16521266102790833,-0.4557504951953888,-0.788116991519928
1783169931706097000,0.539096923828125,-0.02875361777842045,-0.013756025582551956,-0.7646353840827942
1783169931716075800,0.54907568359375,0.093723826110363,0.2928537130355835,-0.7548349499702454
1783169931726025000,0.55902490234375,0.16639696061611176,0.43816056847572327,-0.7477453351020813
1783169931735974000,0.568973876953125,0.21585559844970703,0.45738911628723145,-0.6997115015983582
1783169931745952800,0.578952880859375,0.2461858093738556,0.4197024703025818,-0.6446943283081055
1783169931755901700,0.588901611328125,0.29892224073410034,0.41681987047195435,-0.6082667708396912
1783169931765849900,0.598849853515625,0.38991793990135193,0.4895992577075958,-0.6167633533477783
1783169931775798800,0.608798828125,0.5214815735816956,0.6924977898597717,-0.5489541888237
1783169931785778000,0.61877783203125,0.6568899750709534,0.8956642150878906,-0.4272511899471283
1783169931795726800,0.628726806640625,0.8125682473182678,1.2333359718322754,-0.24948786199092865
1783169931805676000,0.638676025390625,1.0348320007324219,1.5062311887741089,-0.023320768028497696
1783169931815655000,0.648655029296875,1.2550578117370605,1.5766710042953491,0.16826863586902618
1783169931825603800,0.658603759765625,1.3190245628356934,1.3695313930511475,0.3177875578403473
1783169931835552000,0.668552001953125,1.2237030267715454,0.9281665086746216,0.4391600489616394
1783169931845501000,0.6785009765625,1.0337493419647217,0.16162191331386566,0.5436862111091614
1783169931855480000,0.68847998046875,0.8717508912086487,-1.2164931297302246,0.6463225483894348
1783169931865429000,0.698428955078125,0.6973761320114136,-1.3506051301956177,0.8593679666519165
1783169931875378000,0.7083779296875,0.7414464354515076,-1.418672800064087,1.1011148691177368
1783169931885326800,0.718326904296875,1.0228147506713867,-0.4414253532886505,1.309773564338684
1783169931895306000,0.728305908203125,1.3356142044067383,0.46210479736328125,1.1416670083999634
1783169931905255000,0.7382548828125,1.2791045904159546,0.9549475312232971,0.5071089863777161
1783169931915202800,0.748202880859375,0.7125364542007446,0.8523209691047668,-0.5654734969139099
1783169931925182700,0.7581826171875,-0.008802812546491623,0.7552093863487244,-1.5256770849227905
1783169931935131000,0.768130859375,-0.42743682861328125,0.8012074828147888,-1.8966714143753052
1783169931945079800,0.778079833984375,-0.34403565526008606,1.0858796834945679,-1.6590683460235596
1783169931955029000,0.788029052734375,0.03729597106575966,1.0084969997406006,-0.9986609220504761
1783169931965008000,0.7980078125,0.3255882263183594,0.4220463037490845,-0.15359541773796082
1783169931974957000,0.80795703125,0.40391579270362854,-0.3617669939994812,0.673884928226471
1783169931984906000,0.817906005859375,0.48035091161727905,-1.268041729927063,1.4881395101547241
1783169931994884900,0.827884765625,0.7291258573532104,-2.224989891052246,2.214937925338745
1783169932004833000,0.8378330078125,1.0718342065811157,-3.0558292865753174,2.674744129180908
1783169932014782000,0.847781982421875,1.3264161348342896,-3.299548625946045,2.7522084712982178
1783169932024731000,0.85773095703125,1.3983800411224365,-2.899905204772949,2.3501787185668945
1783169932034710000,0.8677099609375,1.2040680646896362,-2.039374828338623,1.5322582721710205
1783169932044659000,0.877658935546875,0.8285333514213562,-0.9612554907798767,0.5174239873886108
1783169932054608000,0.88760791015625,0.3618412911891937,0.022045647725462914,-0.4694220721721649
1783169932064586800,0.897586669921875,-0.116587333381176,0.7749186158180237,-1.226651668548584
1783169932074536000,0.907535888671875,-0.47136831283569336,1.2008973360061646,-1.6247870922088623
1783169932084483800,0.91748388671875,-0.6299137473106384,1.3464311361312866,-1.6489689350128174
1783169932094432800,0.927432861328125,-0.6078531742095947,1.323257327079773,-1.392963171005249
1783169932104412000,0.937411865234375,-0.4241808354854584,1.1426364183425903,-0.9459476470947266
1783169932114360800,0.94736083984375,-0.211616650223732,0.7368140816688538,-0.41280993819236755
1783169932124309800,0.957309814453125,-0.09451159089803696,0.23260341584682465,0.0897517204284668
1783169932134259000,0.967259033203125,-0.09616248309612274,-0.1682867407798767,0.4800547659397125
1783169932144238000,0.977238037109375,-0.15256664156913757,-0.419087290763855,0.7195781469345093
1783169932154187000,0.98718701171875,-0.21848919987678528,-0.5170905590057373,0.8129363059997559
1783169932164135000,0.997135009765625,-0.2842700779438019,-0.4897681176662445,0.7542223930358887
1783169932174114000,1.007114013671875,-0.35251596570014954,-0.4239025413990021,0.5835278630256653
1783169932184063000,1.01706298828125,-0.40052637457847595,-0.3756287395954132,0.3490125834941864
1783169932194012000,1.027011962890625,-0.44190603494644165,-0.3948189616203308,0.08385016024112701
1783169932203960800,1.0369609375,-0.5025736689567566,-0.4555795192718506,-0.18887723982334137
1783169932213940000,1.04693994140625,-0.5639150142669678,-0.493698388338089,-0.444004625082016
1783169932223889000,1.056888916015625,-0.6037977337837219,-0.4924057126045227,-0.6809905171394348
1783169932233836800,1.0668369140625,-0.6520214676856995,-0.477669358253479,-0.9100931882858276
1783169932243817000,1.07681689453125,-0.6780538558959961,-0.42526954412460327,-1.1226084232330322
1783169932253764900,1.086764892578125,-0.6250883936882019,-0.38123124837875366,-1.2943577766418457
1783169932263713800,1.0967138671875,-0.5009680390357971,-0.3264870345592499,-1.413418173789978
1783169932273662700,1.106662841796875,-0.38209331035614014,-0.31339094042778015,-1.469310998916626
1783169932283641900,1.116641845703125,-0.2921208143234253,-0.30245041847229004,-1.4309766292572021
1783169932293590800,1.1265908203125,-0.21760928630828857,-0.25346821546554565,-1.2842484712600708
1783169932303540000,1.1365400390625,-0.13488325476646423,-0.17265726625919342,-1.0518237352371216
1783169932313519000,1.14651904296875,-0.05481477826833725,-0.10091383010149002,-0.7674233913421631
1783169932323468000,1.156468017578125,0.04141109064221382,-0.10571977496147156,-0.4905412197113037
1783169932333416000,1.166416015625,0.18285450339317322,-0.2297988384962082,-0.2717913091182709
1783169932343364900,1.17636474609375,0.3500365614891052,-0.4054851830005646,-0.11676336824893951
1783169932353344000,1.186343994140625,0.5007326006889343,-0.525496244430542,-0.010672617703676224
1783169932363293000,1.19629296875,0.6156373620033264,-0.4756419062614441,0.14093421399593353
1783169932373241900,1.206241943359375,0.7226122617721558,-0.1500408947467804,0.38597166538238525
1783169932383190000,1.21618994140625,0.8703756332397461,0.1891334354877472,0.6245320439338684
1783169932393170000,1.226169921875,0.9637492299079895,0.1803508698940277,0.6954099535942078
1783169932403117800,1.236117919921875,0.9013692140579224,-0.25137948989868164,0.581146776676178
1783169932413066800,1.246066650390625,0.7830143570899963,-0.9840385317802429,0.436611145734787
1783169932423046000,1.2560458984375,0.5913176536560059,-1.5792680978775024,0.42963314056396484
1783169932432994800,1.265994873046875,0.3770226538181305,-1.5565305948257446,0.7278547286987305
1783169932442943700,1.27594384765625,0.09986641258001328,-1.1580908298492432,1.1529130935668945
1783169932452892700,1.285892578125,-0.13652242720127106,-0.6632682681083679,1.3962700366973877
1783169932462871800,1.295871826171875,-0.25132811069488525,-0.3542611300945282,1.2303298711776733
1783169932472821000,1.305821044921875,-0.2496817409992218,-0.16314497590065002,0.7094703912734985
1783169932482769000,1.315768798828125,-0.10029064863920212,-0.14613111317157745,-0.032459672540426254
1783169932492749000,1.3257490234375,0.04728522524237633,-0.4229331612586975,-0.952501118183136
1783169932502697000,1.335697021484375,0.05477030575275421,-0.6026483178138733,-1.8836628198623657
1783169932512646000,1.34564599609375,0.03400057554244995,-0.27064719796180725,-2.536609172821045
1783169932522594800,1.3555947265625,0.050514306873083115,0.40514057874679565,-2.932222604751587
1783169932532574000,1.365573974609375,0.11478011310100555,1.125634789466858,-3.1121933460235596
1783169932542523000,1.37552294921875,0.24022698402404785,1.690862774848938,-2.9900615215301514
1783169932552494000,1.385494140625,0.46009063720703125,1.9450452327728271,-2.55224609375
1783169932562474200,1.39547412109375,0.775649905204773,1.6606366634368896,-1.8310465812683105
1783169932572422100,1.405422119140625,1.0358319282531738,1.056136965751648,-0.8992024660110474
1783169932582371300,1.415371337890625,1.1486797332763672,0.2930334806442261,0.10155991464853287
1783169932592320300,1.4253203125,1.0333280563354492,-0.2860826253890991,1.0883822441101074
1783169932602299100,1.435299072265625,0.7793453335762024,-0.46076709032058716,1.9817553758621216
1783169932612248000,1.445248046875,0.4963120222091675,-0.44385042786598206,2.702099323272705
1783169932622197200,1.455197265625,0.28131264448165894,-0.374524861574173,3.193484306335449
1783169932632145200,1.465145263671875,0.18531154096126556,-0.29957446455955505,3.411489963531494
1783169932642125000,1.475125,0.1682465374469757,-0.1983778029680252,3.316438913345337
1783169932652073200,1.4850732421875,0.18243558704853058,0.02107066474854946,2.9068212509155273
1783169932662022100,1.495022216796875,0.21482069790363312,0.326921671628952,2.2301621437072754
1783169932672001000,1.5050009765625,0.24785055220127106,0.6310245394706726,1.4189252853393555
1783169932681950200,1.5149501953125,0.23853400349617004,0.8682426810264587,0.6269989013671875
1783169932691899100,1.524899169921875,0.18544097244739532,1.025054931640625,-0.02805027738213539
1783169932701847000,1.534846923828125,-0.0010514160385355353,1.0822566747665405,-0.4692399203777313
1783169932711827000,1.544826904296875,-0.2646034359931946,1.0969158411026,-0.6919158697128296
1783169932721775000,1.554775146484375,-0.5481643080711365,1.044552206993103,-0.7731106281280518
1783169932731724300,1.564724365234375,-0.8203332424163818,0.8647041916847229,-0.8046043515205383
1783169932741703000,1.574702880859375,-1.0176942348480225,0.6063530445098877,-0.8311136960983276
1783169932751652400,1.58465234375,-1.1553658246994019,0.29373815655708313,-0.8324506282806396
1783169932761601300,1.594601318359375,-1.2339978218078613,-0.06176270171999931,-0.8327374458312988
1783169932771550200,1.60455029296875,-1.2277462482452393,-0.4526982307434082,-0.8667652010917664
1783169932781529000,1.614529052734375,-1.082143783569336,-0.7284070253372192,-0.9223719835281372
1783169932791478300,1.624478271484375,-0.7677983641624451,-0.858807384967804,-0.9845671653747559
1783169932801426200,1.63442626953125,-0.4667370915412903,-0.9092796444892883,-1.063161849975586
1783169932811375000,1.644375,-0.25916099548339844,-0.8810828924179077,-1.0719149112701416
1783169932821354200,1.654354248046875,-0.0668775662779808,-0.7029663920402527,-0.9144887924194336
1783169932831303200,1.66430322265625,0.11172866076231003,-0.47585707902908325,-0.6539035439491272
1783169932841252000,1.674252197265625,0.24280865490436554,-0.4368441700935364,-0.3985061049461365
1783169932851231000,1.68423095703125,0.39663150906562805,-0.33633407950401306,-0.11564403772354126
1783169932861180200,1.69418017578125,0.6625707745552063,-0.2519369125366211,0.1684207022190094
1783169932871128000,1.704128173828125,0.8266319036483765,-0.48605433106422424,0.3416827619075775
1783169932881077000,1.714076904296875,0.7767753601074219,-0.9408074617385864,0.46808570623397827
1783169932891056000,1.72405615234375,0.538489818572998,-1.2573113441467285,0.6967513561248779
1783169932901005000,1.734005126953125,0.17348097264766693,-1.3884248733520508,0.9880820512771606
1783169932910954200,1.743954345703125,-0.2500703036785126,-1.6870206594467163,1.0619399547576904
1783169932920933000,1.75393310546875,-0.6644775867462158,-1.9636317491531372,0.7999829649925232
1783169932930882300,1.76388232421875,-1.0283751487731934,-1.8409199714660645,0.31920355558395386
1783169932940831200,1.773831298828125,-1.207221269607544,-1.36222505569458,-0.327862024307251
1783169932950779100,1.783779052734375,-1.1364829540252686,-0.9147199392318726,-1.1625845432281494
1783169932960759000,1.793759033203125,-0.7882773280143738,-0.8360075354576111,-2.051771640777588
1783169932970707200,1.803707275390625,0.02664865553379059,-1.0115811824798584,-2.573939323425293
1783169932980656000,1.81365625,1.1177177429199219,-1.1749491691589355,-2.5851194858551025
1783169932990635300,1.82363525390625,2.1518540382385254,-1.4273028373718262,-2.2683701515197754
1783169933000584200,1.833584228515625,2.8153796195983887,-1.9348832368850708,-1.7997565269470215
1783169933010533000,1.843533203125,2.9557347297668457,-1.8891314268112183,-1.1229820251464844
1783169933020481000,1.85348095703125,2.7863261699676514,-0.6030400395393372,-0.33984971046447754
1783169933030461200,1.863461181640625,2.5861010551452637,1.136244297027588,0.3028642535209656
1783169933040409000,1.8734091796875,2.479870319366455,2.5941731929779053,0.6795891523361206
1783169933050358000,1.88335791015625,2.4177989959716797,3.446791172027588,0.778632402420044
1783169933060307200,1.89330712890625,2.3410747051239014,3.7561421394348145,0.793947696685791
1783169933070286000,1.9032861328125,2.233099937438965,3.576233386993408,0.8715540766716003
1783169933080235300,1.9132353515625,2.0403459072113037,3.012197732925415,1.0566920042037964
1783169933090184200,1.92318408203125,1.7148858308792114,2.307067394256592,1.3506386280059814
1783169933100163300,1.933163330078125,1.1948235034942627,1.6220024824142456,1.710719347000122
1783169933110112300,1.9431123046875,0.5804924368858337,1.0305498838424683,1.951743721961975
1783169933120060200,1.95306005859375,-0.06526155769824982,0.48552700877189636,1.824892282485962
1783169933130009000,1.963009033203125,-0.7066386342048645,0.07050719112157822,1.2600014209747314
1783169933139988200,1.97298828125,-1.2153692245483398,-0.18082863092422485,0.34286147356033325
1783169933149937200,1.982937255859375,-1.556350827217102,-0.2148182988166809,-0.6614205241203308
1783169933159886000,1.992885986328125,-1.8030644655227661,0.009165268391370773,-1.49590265750885
1783169933169865200,2.002865234375,-1.9807138442993164,0.3115975558757782,-2.0324084758758545
1783169933179814100,2.012814208984375,-2.073991060256958,0.49612587690353394,-2.2530300617218018
1783169933189762000,2.022761962890625,-1.9895869493484497,0.5694027543067932,-1.9907808303833008
1783169933199711000,2.0327109375,-1.8923711776733398,0.4955940246582031,-1.689943790435791
1783169933209690000,2.042690185546875,-1.7607172727584839,0.3535010814666748,-1.3781850337982178
1783169933219639000,2.05263916015625,-1.577116847038269,0.16591493785381317,-1.074151635169983
1783169933229588000,2.062587890625,-1.3422396183013916,0.022048311308026314,-0.7722054123878479
1783169933239567000,2.072567138671875,-1.079604983329773,-0.024691497907042503,-0.46321478486061096
1783169933249516300,2.082516357421875,-0.7812913060188293,-0.0018370485631749034,-0.1644134372472763
1783169933259465200,2.09246533203125,-0.5026644468307495,0.05053428187966347,0.13311490416526794
1783169933269413000,2.1024130859375,-0.24402011930942535,0.16535939276218414,0.43680235743522644
1783169933279393300,2.112393310546875,0.0008953547803685069,0.2969389855861664,0.7146022915840149
1783169933289341200,2.122341064453125,0.19601264595985413,0.40511712431907654,0.9418338537216187
1783169933299290000,2.1322900390625,0.308810830116272,0.4600277841091156,1.1262105703353882
1783169933309239000,2.142239013671875,0.3558041751384735,0.4134770631790161,1.2429540157318115
1783169933319218200,2.15221826171875,0.3373812139034271,0.21034099161624908,1.2606635093688965
1783169933329167000,2.1621669921875,0.2638452351093292,-0.1414910852909088,1.1845471858978271
1783169933339116000,2.172115966796875,0.20977400243282318,-0.46026933193206787,1.1508586406707764
1783169933349095200,2.18209521484375,0.228522390127182,-0.5989803671836853,1.2924896478652954
1783169933359043000,2.19204296875,0.3239802122116089,-0.9008579254150391,1.612033724784851
1783169933368992000,2.201991943359375,0.5157637596130371,-1.3487168550491333,2.117281913757324
1783169933378941200,2.211941162109375,0.7318207025527954,-1.8483911752700806,2.617417335510254
1783169933388920000,2.221920166015625,0.8090960383415222,-2.291379451751709,2.8889007568359375
1783169933398869000,2.231868896484375,0.7146177291870117,-2.3064491748809814,2.7783117294311523
1783169933408818200,2.241818115234375,0.4273092448711395,-2.200172185897827,2.262712240219116
1783169933418797300,2.25179736328125,0.026492327451705933,-2.1238627433776855,1.4889661073684692
1783169933428746200,2.261746337890625,-0.2223699539899826,-2.0225675106048584,0.6899904012680054
1783169933438694100,2.271694091796875,-0.27976107597351074,-1.9478000402450562,0.057439059019088745
1783169933448643300,2.281643310546875,-0.2722530961036682,-1.810171127319336,-0.35308215022087097
1783169933458622200,2.291622314453125,-0.27887824177742004,-1.7911931276321411,-0.5821717977523804
1783169933468571100,2.301571044921875,-0.29783061146736145,-1.8383909463882446,-0.6949313879013062
1783169933478520000,2.31152001953125,-0.25153848528862,-1.7662099599838257,-0.7113217711448669
1783169933488469200,2.32146923828125,-0.0745309591293335,-1.3977108001708984,-0.6682992577552795
1783169933498448100,2.3314482421875,0.19582995772361755,-0.7772398591041565,-0.6352808475494385
1783169933508397000,2.34139697265625,0.4412354528903961,-0.0018761969404295087,-0.669011652469635
1783169933518345200,2.35134521484375,0.5888690948486328,0.7663584351539612,-0.8620955944061279
1783169933528325000,2.3613251953125,0.6211447715759277,1.4247344732284546,-1.240308165550232
1783169933538273000,2.37127294921875,0.6308472156524658,1.9943026304244995,-1.676945686340332
1783169933548222000,2.381221923828125,0.7325490713119507,2.479771852493286,-1.9624991416931152
1783169933558203100,2.391203125,0.853266179561615,2.757460117340088,-1.9320913553237915
1783169933568182300,2.401182373046875,0.8824413418769836,2.8347387313842773,-1.5287801027297974
1783169933578131200,2.411131103515625,0.8430063128471375,2.6383683681488037,-0.78050297498703
1783169933588079000,2.4210791015625,0.8931664228439331,2.09415602684021,0.1103811040520668
1783169933598059300,2.431059326171875,1.0856444835662842,1.630476474761963,1.007777214050293
1783169933608007200,2.441007080078125,1.0877934694290161,1.5182175636291504,1.8647738695144653
1783169933617956000,2.4509560546875,0.8114989995956421,1.3074970245361328,2.410443067550659
1783169933627905300,2.4609052734375,0.42296403646469116,1.0510565042495728,2.576791763305664
1783169933637884400,2.470884521484375,0.11574151366949081,0.9171314239501953,2.4453659057617188
1783169933647833300,2.480833251953125,-0.038901325315237045,0.8547801375389099,2.120220184326172
1783169933657782300,2.4907822265625,-0.037693850696086884,0.7854146957397461,1.6984295845031738
1783169933667761400,2.500761474609375,0.03916178271174431,0.7033288478851318,1.2779029607772827
1783169933677710300,2.51071044921875,0.13015960156917572,0.6341180801391602,0.9078311324119568
1783169933687658200,2.520658203125,0.17663255333900452,0.5204977989196777,0.5793437957763672
1783169933697607200,2.530607177734375,0.1357026994228363,0.42045801877975464,0.27776476740837097
1783169933707586300,2.54058642578125,0.00705737667158246,0.3131139576435089,-0.01836436055600643
1783169933717535200,2.55053515625,-0.21871264278888702,0.20928877592086792,-0.28688690066337585
1783169933727484200,2.560484130859375,-0.49398094415664673,0.18891319632530212,-0.5126529335975647
1783169933737432300,2.570432373046875,-0.7483037710189819,0.2403010129928589,-0.6767654418945312
1783169933747412200,2.580412109375,-0.9060090184211731,0.2984735071659088,-0.7530367374420166
1783169933757360000,2.590360107421875,-0.9136248230934143,0.4048606753349304,-0.727370023727417
1783169933767309300,2.600309326171875,-0.7847715020179749,0.46270984411239624,-0.6576234102249146
1783169933777288200,2.6102880859375,-0.5841148495674133,0.333909273147583,-0.618952214717865
1783169933787237000,2.620237060546875,-0.4046947658061981,0.0631994754076004,-0.6631721258163452
1783169933797186300,2.630186279296875,-0.3164759576320648,-0.23711347579956055,-0.7866942882537842
1783169933807135200,2.64013525390625,-0.30064478516578674,-0.4892711639404297,-0.9294275045394897
1783169933817114400,2.6501142578125,-0.30852481722831726,-0.7659634947776794,-1.0457229614257812
1783169933827063300,2.660063232421875,-0.3270478844642639,-1.1772035360336304,-1.15902578830719
1783169933837011500,2.670011474609375,-0.32084593176841736,-1.4629508256912231,-1.108063817024231
1783169933846991400,2.679991455078125,-0.17010115087032318,-1.2828172445297241,-0.9286714196205139
1783169933856939300,2.689939208984375,0.14729011058807373,-0.7981935739517212,-0.6780197620391846
1783169933866888200,2.69988818359375,0.6273890733718872,0.09106093645095825,-0.291171133518219
1783169933876837400,2.70983740234375,0.9801846742630005,0.8056213855743408,0.09094908088445663
1783169933886816300,2.719816162109375,0.7616379857063293,0.9504478573799133,0.22741904854774475
1783169933896765200,2.72976513671875,0.21592803299427032,0.833694577217102,0.2537694275379181
1783169933906713300,2.73971337890625,-0.0812663584947586,0.835343599319458,0.3291725814342499
1783169933916662300,2.749662353515625,-0.06563573330640793,0.8123493194580078,0.3298642039299011
1783169933926641200,2.75964111328125,0.0447581484913826,0.7051914930343628,0.20283113420009613
1783169933936590000,2.769590087890625,0.21550431847572327,0.4579526484012604,0.011303787119686604
1783169933946539300,2.779539306640625,0.5006217956542969,0.01968422159552574,-0.12267798185348511
1783169933956518100,2.78951806640625,0.8987683653831482,-0.6545392274856567,-0.07731796056032181
1783169933966467300,2.79946728515625,1.3284438848495483,-1.6317214965820312,0.0699433982372284
1783169933976416300,2.809416259765625,1.5049538612365723,-2.6398403644561768,0.2506875991821289
1783169933986364400,2.819364501953125,1.333417534828186,-3.231266498565674,0.47829413414001465
1783169933996344300,2.82934423828125,0.9226313829421997,-3.1840827465057373,0.6292967200279236
1783169934006292200,2.839292236328125,0.45453473925590515,-2.6997880935668945,0.4702913463115692
1783169934016241400,2.849241455078125,0.10128720849752426,-1.9679434299468994,-0.013944577425718307
1783169934026220300,2.85922021484375,-0.02636183239519596,-0.9620267152786255,-0.596463143825531
1783169934036169200,2.869169189453125,0.0796855092048645,0.1881438046693802,-1.0372495651245117
1783169934046118100,2.8791181640625,0.35749396681785583,1.2216193675994873,-1.1829942464828491
1783169934056066300,2.88906640625,0.698748767375946,1.9773308038711548,-1.0005395412445068
1783169934066046200,2.899046142578125,1.0466963052749634,2.509423017501831,-0.5078288912773132
1783169934075994400,2.908994384765625,1.3720730543136597,2.820035457611084,0.1879826933145523
1783169934085943300,2.918943359375,1.6081178188323975,2.934330701828003,0.9534785151481628
1783169934095922200,2.928922119140625,1.6948953866958618,2.9195799827575684,1.6724470853805542
1783169934105871000,2.93887109375,1.6386613845825195,2.7248213291168213,2.2893056869506836
1783169934115820300,2.9488203125,1.5018776655197144,2.3858444690704346,2.8175413608551025
1783169934125769500,2.95876953125,1.475055456161499,1.9513691663742065,3.2457268238067627
1783169934135748400,2.968748291015625,1.4628962278366089,1.4186246395111084,3.430842399597168
1783169934145697300,2.978697265625,1.3063396215438843,0.8533473610877991,3.2768092155456543
1783169934155645400,2.9886455078125,0.9345189332962036,0.24644653499126434,2.7551393508911133
1783169934165594400,2.998594482421875,0.4930112957954407,-0.4543725550174713,1.9551085233688354
1783169934175573200,3.0085732421875,0.06482400000095367,-1.0508079528808594,1.0746499300003052
1783169934185522400,3.0185224609375,-0.39126017689704895,-1.4203532934188843,0.22336117923259735
1783169934195471400,3.028471435546875,-0.8688374161720276,-1.572219729423523,-0.5587684512138367
1783169934205450200,3.0384501953125,-1.2878592014312744,-1.582955241203308,-1.2320054769515991
1783169934215399200,3.048399169921875,-1.5939264297485352,-1.485394835472107,-1.767448902130127
1783169934225347300,3.058347412109375,-1.8186687231063843,-1.2940694093704224,-2.172971725463867
1783169934235296300,3.068296142578125,-1.975750207901001,-1.0344250202178955,-2.419689178466797
1783169934245275100,3.078275146484375,-2.0404388904571533,-0.7577545642852783,-2.477720022201538
1783169934255224300,3.088224365234375,-2.0274128913879395,-0.5518314838409424,-2.383317708969116
1783169934265173200,3.09817333984375,-1.9203673601150513,-0.374636709690094,-2.169038772583008
1783169934275152100,3.108152099609375,-1.7038880586624146,-0.21153035759925842,-1.875253438949585
1783169934285101000,3.11810107421875,-1.3907426595687866,-0.08849577605724335,-1.5333024263381958
1783169934295050500,3.128050537109375,-0.9590040445327759,0.025064872577786446,-1.0600899457931519
1783169934304998100,3.137998046875,-0.6766807436943054,0.10864658653736115,-0.8122233748435974
1783169934314978300,3.147978271484375,-0.47342294454574585,-0.039140477776527405,-0.6952967643737793
1783169934324926500,3.157926513671875,-0.3266787827014923,-0.41156119108200073,-0.5872358083724976
1783169934334875400,3.16787548828125,-0.16549628973007202,-0.9906639456748962,-0.40543803572654724
1783169934344854300,3.177854248046875,-0.07846604287624359,-1.8538165092468262,-0.10001368075609207
1783169934354803200,3.18780322265625,-0.2436227798461914,-2.782384157180786,0.3872382640838623
1783169934364752400,3.19775244140625,-0.5909535884857178,-3.297966480255127,0.9962725639343262
1783169934374700300,3.2077001953125,-0.8391758799552917,-3.1183483600616455,1.4191887378692627
1783169934384680200,3.21768017578125,-0.8639398217201233,-2.3669562339782715,1.3799421787261963
1783169934394628400,3.22762841796875,-0.5392584204673767,-1.3259249925613403,0.9543325901031494
1783169934404577300,3.237577392578125,0.1559283435344696,-0.21696454286575317,0.7783887386322021
1783169934414526200,3.247526123046875,0.6042819023132324,-0.0020655477419495583,0.9706106185913086
1783169934424505300,3.25750537109375,0.5469499230384827,-0.7398144006729126,1.3629432916641235
1783169934434454300,3.267454345703125,0.28267163038253784,-1.6876169443130493,1.657168984413147
1783169934444403200,3.2774033203125,0.15969671308994293,-2.16621470451355,1.5589580535888672
1783169934454382000,3.287382080078125,0.310193806886673,-2.186054229736328,1.1588886976242065
1783169934464331300,3.297331298828125,0.5215595960617065,-2.1754508018493652,0.613580584526062
1783169934474279200,3.307279052734375,0.641152560710907,-2.28161883354187,-0.09201114624738693
1783169934484228400,3.317228271484375,0.5809789896011353,-2.0695583820343018,-0.8363673090934753
1783169934494207500,3.32720751953125,0.3408537209033966,-1.3266571760177612,-1.3395785093307495
1783169934504156400,3.337156494140625,-0.04652728885412216,-0.2688591480255127,-1.4910852909088135
1783169934514105300,3.347105224609375,-0.41195160150527954,0.7555638551712036,-1.413854956626892
1783169934524084200,3.357084228515625,-0.6382899284362793,1.47843337059021,-1.2855582237243652
1783169934534033400,3.367033447265625,-0.702422022819519,1.7771772146224976,-1.1716843843460083
1783169934543982300,3.376982421875,-0.520788848400116,1.6940218210220337,-1.0073550939559937
1783169934553960400,3.38696044921875,-0.17341838777065277,1.4126290082931519,-0.7777730226516724
1783169934563939600,3.396939697265625,0.0022040321491658688,1.2428946495056152,-0.5250640511512756
1783169934573888500,3.406888427734375,0.044142160564661026,1.189639687538147,-0.23916810750961304
1783169934583837400,3.41683740234375,0.0923357903957367,1.1732447147369385,0.10613362491130829
1783169934593786400,3.426786376953125,0.14611779153347015,1.120018720626831,0.48087209463119507
1783169934603765500,3.436765625,0.21147575974464417,1.011439323425293,0.8389061093330383
1783169934613714400,3.44671435546875,0.2851467728614807,0.8179036378860474,1.1504520177841187
1783169934623662600,3.45666259765625,0.3280886709690094,0.5719316601753235,1.4160046577453613
1783169934633642800,3.466642822265625,0.30448001623153687,0.30908992886543274,1.6331629753112793
1783169934643590400,3.47659033203125,0.2265244871377945,0.05023707076907158,1.7701834440231323
1783169934653539600,3.48653955078125,0.12344497442245483,-0.16571493446826935,1.8123455047607422
1783169934663488500,3.496488525390625,-0.00569996377453208,-0.3393053710460663,1.768504023551941
1783169934673467600,3.506467529296875,-0.10922688990831375,-0.4631247818470001,1.635553240776062
1783169934683416600,3.51641650390625,-0.12159301340579987,-0.5090752243995667,1.3928507566452026
1783169934693365500,3.526365478515625,-0.09275177121162415,-0.49485448002815247,1.0194202661514282
1783169934703344600,3.5363447265625,-0.05505286529660225,-0.42839235067367554,0.5781291127204895
1783169934713293600,3.54629345703125,-0.015262309461832047,-0.27074307203292847,0.1405555158853531
1783169934723241500,3.556241455078125,-0.0010362359462305903,-0.14394785463809967,-0.26811668276786804
1783169934733190700,3.566190673828125,-0.04077965393662453,-0.109835684299469,-0.6350283622741699
1783169934743169500,3.57616943359375,-0.141852468252182,-0.1098327562212944,-0.9120647311210632
1783169934753118500,3.586118408203125,-0.2935471832752228,-0.08840096741914749,-1.088773488998413
1783169934763067400,3.5960673828125,-0.44745978713035583,-0.05119793862104416,-1.1626650094985962
1783169934773046500,3.606046630859375,-0.5740283727645874,0.007027016952633858,-1.1542248725891113
1783169934782995500,3.615995361328125,-0.6755526065826416,0.07992226630449295,-1.1006226539611816
1783169934792943400,3.625943359375,-0.6732370257377625,0.16248612105846405,-1.0416264533996582
1783169934802892500,3.635892578125,-0.47765952348709106,0.21435250341892242,-0.8228185176849365
1783169934812871400,3.645871337890625,-0.3279632329940796,0.1987554430961609,-0.6930445432662964
1783169934822820600,3.655820556640625,-0.15225771069526672,0.1984422504901886,-0.5777746438980103
1783169934832769500,3.66576953125,0.10702525079250336,0.19469065964221954,-0.3980669379234314
1783169934842718700,3.67571875,0.5390677452087402,0.49779966473579407,0.018373148515820503
1783169934852697600,3.685697509765625,1.0501576662063599,0.9038728475570679,0.6444442272186279
1783169934862646500,3.695646484375,1.4719663858413696,0.7788534164428711,1.2754557132720947
1783169934872594700,3.7055947265625,1.632205843925476,-0.20875480771064758,1.72678804397583
1783169934882574600,3.71557470703125,1.3613901138305664,-1.484432339668274,1.936513066291809
1783169934892522500,3.7255224609375,0.8615136742591858,-2.1355369091033936,1.9586905241012573
1783169934902471400,3.735471435546875,0.48034238815307617,-1.748761773109436,1.8305450677871704
1783169934912420600,3.745420654296875,0.22368662059307098,-0.6997908353805542,1.503536343574524
1783169934922399500,3.7553994140625,0.035540685057640076,0.14910532534122467,0.902583658695221
1783169934932348400,3.765348388671875,-0.026991404592990875,0.6420484781265259,0.20449481904506683
1783169934942296600,3.775296630859375,-0.005584915168583393,0.922987699508667,-0.3960424065589905
1783169934952276500,3.7852763671875,-0.0005424859118647873,0.9528568983078003,-0.844830334186554
1783169934962224400,3.795224365234375,0.03473321348428726,0.8715724349021912,-1.1284958124160767
1783169934972173600,3.805173583984375,0.10518340766429901,0.7071648836135864,-1.3781509399414062
1783169934982122800,3.815122802734375,0.12654808163642883,0.6145776510238647,-1.6193183660507202
1783169934992101600,3.8251015625,0.08396653831005096,0.681269109249115,-1.8305174112319946
1783169935002050600,3.835050537109375,0.0007773766992613673,0.9064446687698364,-2.060415744781494
1783169935011999500,3.84499951171875,-0.07559569180011749,1.2522377967834473,-2.330000162124634
1783169935021947600,3.85494775390625,0.05844892933964729,1.5270639657974243,-2.5171046257019043
1783169935031927600,3.864927490234375,0.4978545308113098,1.530719518661499,-2.4460597038269043
1783169935041875700,3.874875732421875,0.9665522575378418,1.2712876796722412,-2.075744867324829
1783169935051824600,3.88482470703125,1.2001434564590454,0.832565426826477,-1.5202358961105347
1783169935061803500,3.894803466796875,1.1646935939788818,0.41981324553489685,-0.8031973838806152
1783169935071752400,3.90475244140625,0.9174917340278625,0.15936729311943054,0.06121781840920448
1783169935081701600,3.91470166015625,0.5710877180099487,0.04862692579627037,0.9434881806373596
1783169935091649500,3.9246494140625,0.293228417634964,0.01569800265133381,1.6742675304412842
1783169935101629400,3.93462939453125,0.1202547699213028,-0.036075979471206665,2.2013707160949707
1783169935111577600,3.94457763671875,0.06756333261728287,-0.18365664780139923,2.521496295928955
1783169935121526500,3.954526611328125,0.1287638396024704,-0.4356183111667633,2.620270013809204
1783169935131505400,3.96450537109375,0.22651702165603638,-0.6838172078132629,2.483367919921875
1783169935141454300,3.974454345703125,0.25951653718948364,-0.8546030521392822,2.1414637565612793
1783169935151403800,3.98440380859375,0.17302797734737396,-0.8860856294631958,1.6628447771072388
1783169935161352700,3.994352783203125,-0.03317313268780708,-0.8532482981681824,1.0860426425933838
1783169935171331600,4.00433154296875,-0.3817785084247589,-0.7667408585548401,0.4658215045928955
1783169935181280500,4.014280517578125,-0.8330298662185669,-0.5735660791397095,-0.15061932802200317
1783169935191228700,4.024228759765625,-1.25771963596344,-0.34269556403160095,-0.6801460385322571
1783169935201208600,4.03420849609375,-1.5344129800796509,-0.14714524149894714,-1.071061611175537
1783169935211156500,4.044156494140625,-1.6345266103744507,-0.02839568816125393,-1.2733968496322632
1783169935221105700,4.054105712890625,-1.6358706951141357,-0.0012098740553483367,-1.2454153299331665
1783169935231054600,4.0640546875,-1.6157283782958984,-0.06296884268522263,-1.0183027982711792
1783169935241033500,4.074033447265625,-1.611727237701416,-0.1875765472650528,-0.6662057042121887
1783169935250982400,4.083982421875,-1.629967212677002,-0.32092157006263733,-0.29320499300956726
1783169935260930600,4.0939306640625,-1.6724574565887451,-0.450064092874527,0.005403819959610701
1783169935270879500,4.10387939453125,-1.7295159101486206,-0.5279732942581177,0.17785042524337769
1783169935280858600,4.113858642578125,-1.7825791835784912,-0.5151312351226807,0.23110724985599518
1783169935290807600,4.1238076171875,-1.801440715789795,-0.356144517660141,0.18872171640396118
1783169935300756500,4.133756591796875,-1.684443473815918,-0.011492605321109295,0.11896819621324539
1783169935310735400,4.1437353515625,-1.408961296081543,0.39012059569358826,0.03357846662402153
1783169935320684500,4.1536845703125,-0.986793041229248,0.6185652017593384,-0.062378689646720886
1783169935330633700,4.1636337890625,-0.5723540782928467,0.7608283758163452,-0.12048327177762985
1783169935340581600,4.17358154296875,-0.21522070467472076,0.9567640423774719,-0.05126398801803589
1783169935350561500,4.1835615234375,0.11613326519727707,1.3188879489898682,0.20576834678649902
1783169935360509700,4.193509765625,0.3912718892097473,1.6737325191497803,0.518460214138031
1783169935370458600,4.203458740234375,0.573823869228363,1.5068678855895996,0.6885786652565002
1783169935380437500,4.2134375,0.6772986054420471,0.8424097895622253,0.7424474954605103
1783169935390386700,4.22338671875,0.6630941033363342,-0.0959201380610466,0.8343438506126404
1783169935400335600,4.233335693359375,0.5640450119972229,-0.9776714444160461,0.996657133102417
1783169935410283500,4.243283447265625,0.4545898735523224,-1.7533602714538574,1.0515978336334229
1783169935420263400,4.253263427734375,0.37011948227882385,-2.128577709197998,0.9586759209632874
1783169935430211600,4.263211669921875,0.2622992694377899,-2.1375205516815186,0.7313072085380554
1783169935440160500,4.273160400390625,0.15123799443244934,-1.733507752418518,0.40614351630210876
1783169935450139600,4.2831396484375,0.13215084373950958,-0.9619521498680115,0.023365244269371033
1783169935460088600,4.293088623046875,0.3291613757610321,-0.31822511553764343,-0.43346887826919556
1783169935470037500,4.30303759765625,0.6678105592727661,-0.18253199756145477,-1.0063380002975464
1783169935479986700,4.312986572265625,0.9169367551803589,-0.38410240411758423,-1.6653324365615845
1783169935489965600,4.322965576171875,0.9454136490821838,-0.4652571678161621,-2.228243112564087
1783169935499914800,4.332914794921875,0.8395825624465942,-0.1610778421163559,-2.536975860595703
1783169935509862700,4.342862548828125,0.6495077013969421,0.48358476161956787,-2.6380772590637207
1783169935519811600,4.3528115234375,0.39527222514152527,1.241585373878479,-2.6718406677246094
1783169935529790700,4.362790771484375,0.09647194296121597,1.8520487546920776,-2.6977529525756836
1783169935539739600,4.37273974609375,-0.15565617382526398,2.257720470428467,-2.558311939239502
1783169935549688600,4.3826884765625,-0.09616328775882721,2.513026475906372,-2.297724962234497
1783169935559685400,4.392685302734375,0.12280555069446564,2.3184542655944824,-2.0113725662231445
1783169935569634600,4.402634521484375,0.3389333188533783,2.0315961837768555,-1.6182564496994019
1783169935579582500,4.41258251953125,0.49789899587631226,1.8392003774642944,-1.1033023595809937
1783169935589531400,4.422531494140625,0.6373370289802551,1.663725733757019,-0.5444403886795044
1783169935599510500,4.432510498046875,0.7608779072761536,1.4795297384262085,0.04483218491077423
1783169935609459700,4.442459716796875,0.8726664781570435,1.3414411544799805,0.6854891180992126
1783169935619408600,4.45240869140625,1.0165022611618042,1.2078309059143066,1.323682427406311
1783169935629387500,4.462387451171875,1.173264980316162,1.04246985912323,1.8711776733398438
1783169935639336700,4.472336669921875,1.2745361328125,0.8241551518440247,2.264538526535034
1783169935649285600,4.48228564453125,1.2906030416488647,0.5182002782821655,2.4858078956604004
1783169935659233500,4.492233642578125,1.2204710245132446,0.18464574217796326,2.5456924438476562
1783169935669213400,4.50221337890625,1.1147353649139404,-0.16707155108451843,2.453749418258667
1783169935679161600,4.51216162109375,0.9811780452728271,-0.5152828097343445,2.243488073348999
1783169935689110500,4.522110595703125,0.8194386959075928,-0.8066704273223877,1.9640682935714722
1783169935699059500,4.5320595703125,0.6462818384170532,-1.0524407625198364,1.669943928718567
1783169935709038600,4.54203857421875,0.45035412907600403,-1.2100557088851929,1.377097725868225
1783169935718987500,4.551987548828125,0.17117653787136078,-1.2345468997955322,1.0813690423965454
1783169935728936400,4.5619365234375,-0.20100714266300201,-1.2204313278198242,0.7814326882362366
1783169935738915300,4.571915283203125,-0.6086071133613586,-1.108741283416748,0.5124683380126953
1783169935748863500,4.581863525390625,-0.9974675178527832,-0.8319182395935059,0.2927173674106598
1783169935758812400,4.5918125,-1.323184609413147,-0.4363778531551361,0.07192239165306091
1783169935768761600,4.60176171875,-1.5551459789276123,0.037952177226543427,-0.15218794345855713
1783169935778740500,4.611740478515625,-1.6383601427078247,0.48018792271614075,-0.35785001516342163
1783169935788689700,4.621689697265625,-1.5560293197631836,0.8256071209907532,-0.5217465162277222
1783169935798638600,4.631638671875,-1.3703649044036865,1.0651229619979858,-0.642346203327179
1783169935808617500,4.641617431640625,-1.115664005279541,1.1806738376617432,-0.7283340692520142
1783169935818566700,4.651566650390625,-0.8860912322998047,1.0688014030456543,-0.7898464202880859
1783169935828514600,4.6615146484375,-0.7112317681312561,0.6907361149787903,-0.792227029800415
1783169935838463500,4.67146337890625,-0.5606561303138733,0.2335459142923355,-0.714145839214325
1783169935848442600,4.681442626953125,-0.3639443814754486,-0.16294284164905548,-0.5503249168395996
1783169935858391600,4.6913916015625,-0.08101176470518112,-0.5457789301872253,-0.4195690453052521
1783169935868340500,4.701340576171875,0.20314033329486847,-1.1070395708084106,-0.44434604048728943
1783169935878319600,4.711319580078125,0.30714237689971924,-1.8199933767318726,-0.5471658706665039
1783169935888268500,4.7212685546875,0.19055131077766418,-2.147956371307373,-0.4076695144176483
1783169935898217500,4.731217529296875,0.04567347839474678,-1.6186403036117554,0.24132341146469116
1783169935908165400,4.741165283203125,0.11055340617895126,-0.4711110591888428,1.1739227771759033
1783169935918144500,4.75114453125,0.2936747670173645,0.3578694462776184,1.7409882545471191
1783169935928093400,4.761093505859375,0.29770439863204956,0.5495885610580444,1.6792186498641968
1783169935938042400,4.77104248046875,0.12934467196464539,0.5457610487937927,1.1997287273406982
1783169935947991600,4.780991455078125,-0.07953983545303345,0.6773797869682312,0.5276992321014404
1783169935957970700,4.790970703125,-0.2389574497938156,0.9032792448997498,-0.15727964043617249
1783169935967919600,4.800919677734375,-0.3082646131515503,1.1324183940887451,-0.7555190920829773
1783169935977867500,4.810867431640625,-0.3156229257583618,1.374057650566101,-1.216247320175171
1783169935987847700,4.82084765625,-0.32476475834846497,1.6841793060302734,-1.5151277780532837
1783169935997795600,4.830795654296875,-0.3412036597728729,2.1426570415496826,-1.6573935747146606
1783169936007744500,4.84074462890625,-0.30753305554389954,2.681060791015625,-1.6291656494140625
1783169936017693400,4.850693359375,0.0043774377554655075,3.055924415588379,-1.3418056964874268
1783169936027672600,4.860672607421875,0.7925522327423096,3.0387918949127197,-0.6946293711662292
1783169936037621500,4.87062158203125,1.86688232421875,2.559596061706543,0.29995104670524597
1783169936047570400,4.8805703125,2.542004108428955,1.878914713859558,1.4391640424728394
1783169936057549600,4.890549560546875,2.4690568447113037,1.2151072025299072,2.4625771045684814
1783169936067498500,4.90049853515625,2.0412185192108154,0.7700031995773315,3.2507824897766113
1783169936077446400,4.9104462890625,1.7135721445083618,0.615153968334198,3.736870288848877
1783169936087395300,4.920395263671875,1.5659469366073608,0.671929657459259,3.823915958404541
1783169936097374500,4.93037451171875,1.5168508291244507,0.795444130897522,3.5096030235290527
1783169936107323400,4.940323486328125,1.5926765203475952,0.8018538355827332,2.9907193183898926
1783169936117272600,4.9502724609375,1.5878671407699585,0.6313585042953491,2.364211320877075
1783169936127220700,4.960220703125,1.5847022533416748,0.38943377137184143,1.789109706878662
1783169936137200600,4.97020068359375,1.6190959215164185,0.15947088599205017,1.3182228803634644
1783169936147148500,4.9801484375,1.6531466245651245,-0.12778618931770325,0.8980589509010315
1783169936157097500,4.990097412109375,1.5966523885726929,-0.41737326979637146,0.5002963542938232
1783169936167076600,5.00007666015625,1.4104061126708984,-0.5837603807449341,0.1517743468284607
1783169936177025500,5.010025634765625,1.094521164894104,-0.7376993298530579,-0.2503110468387604
1783169936186974500,5.019974365234375,0.6944096684455872,-0.8314679265022278,-0.6341577768325806
1783169936196923400,5.02992333984375,0.2754499614238739,-0.9114735126495361,-0.9770805239677429
1783169936206902500,5.039902587890625,-0.08905317634344101,-0.9852705001831055,-1.2640433311462402
1783169936216851500,5.0498515625,-0.40328487753868103,-1.0294162034988403,-1.4594154357910156
1783169936226799600,5.059799560546875,-0.6468421220779419,-1.0757924318313599,-1.5579715967178345
1783169936236779500,5.069779541015625,-0.8301193118095398,-1.1126441955566406,-1.553212285041809
1783169936246727400,5.0797275390625,-0.9768962264060974,-1.104920506477356,-1.4668779373168945
1783169936256676400,5.08967626953125,-1.1041783094406128,-1.0534850358963013,-1.3331211805343628
1783169936266625300,5.099625244140625,-1.190492868423462,-0.9405765533447266,-1.197263240814209
1783169936276604400,5.1096044921875,-1.2465391159057617,-0.7852298617362976,-1.1092652082443237
1783169936286553600,5.1195537109375,-1.2879430055618286,-0.6500906944274902,-1.094018816947937
1783169936296501800,5.129501708984375,-1.3032796382904053,-0.5092198252677917,-1.1402848958969116
1783169936306481700,5.139481689453125,-1.2738234996795654,-0.33536016941070557,-1.2335506677627563
1783169936316429600,5.1494296875,-1.175512671470642,-0.15516428649425507,-1.3319216966629028
1783169936326378500,5.15937841796875,-0.9995501041412354,-0.09331263601779938,-1.4547741413116455
1783169936336327700,5.16932763671875,-0.8422456979751587,-0.5180711150169373,-1.6489065885543823
1783169936346306600,5.179306640625,-0.9662957787513733,-1.5903596878051758,-1.8785659074783325
1783169936356255500,5.18925537109375,-1.6797834634780884,-3.6881861686706543,-2.1308889389038086
1783169936366204400,5.199204345703125,-2.895719528198242,-6.382270812988281,-2.1211230754852295
1783169936376152600,5.209152587890625,-3.9306087493896484,-7.766162395477295,-1.539168119430542
1783169936386132500,5.219132568359375,-4.524852275848389,-6.951295852661133,-0.9667271971702576
1783169936396080400,5.229080322265625,-4.335840225219727,-4.385152339935303,-1.2875760793685913
1783169936406029600,5.239029541015625,-3.153101682662964,-1.6218712329864502,-2.7864830493927
1783169936416008400,5.249008544921875,-1.896414875984192,0.6470876932144165,-4.567566394805908
1783169936425957400,5.258957275390625,-1.0270062685012817,2.193962574005127,-5.927552700042725
1783169936435906300,5.26890625,-0.43430671095848083,2.634050130844116,-6.6889967918396
1783169936445854500,5.2788544921875,0.22438517212867737,2.033017158508301,-6.61875057220459
1783169936455834600,5.288834716796875,0.6973748207092285,0.9313092827796936,-5.908267498016357
1783169936465782500,5.298782470703125,0.56374192237854,0.08181922882795334,-4.933234214782715
1783169936475731700,5.308731689453125,0.14668957889080048,-0.3080395758152008,-3.9445934295654297
1783169936485710600,5.318710693359375,-0.1392790675163269,-0.4757193922996521,-3.022660493850708
1783169936495659500,5.328659423828125,-0.22535589337348938,-0.5170570015907288,-2.1231849193573
1783169936505608400,5.3386083984375,-0.19814877212047577,-0.4380479156970978,-1.1864116191864014
1783169936515557600,5.3485576171875,-0.03221173211932182,-0.3348323106765747,-0.18796990811824799
1783169936525536500,5.35853662109375,0.22378356754779816,-0.15914411842823029,0.8345609307289124
1783169936535485400,5.3684853515625,0.5592832565307617,0.06534278392791748,1.8122339248657227
1783169936545433600,5.37843359375,0.9136256575584412,0.36949363350868225,2.680105447769165
1783169936555394800,5.388394775390625,1.2309149503707886,0.7764022946357727,3.4051456451416016
1783169936565374000,5.3983740234375,1.5061925649642944,1.2569483518600464,3.996065139770508
1783169936575323000,5.408322998046875,1.7791825532913208,1.7040044069290161,4.472525596618652
1783169936585271800,5.418271728515625,2.0670933723449707,2.0603291988372803,4.836635589599609
1783169936595251000,5.4282509765625,2.309507369995117,2.2914023399353027,5.07550573348999
1783169936605200000,5.438199951171875,2.4373128414154053,2.3832342624664307,5.169643402099609
1783169936615147800,5.448147705078125,2.394397497177124,2.2389140129089355,5.114445209503174
1783169936625096700,5.4580966796875,2.2104692459106445,1.842071533203125,4.954726696014404
1783169936635075800,5.468075927734375,2.0040104389190674,1.3314404487609863,4.782238483428955
1783169936645024800,5.478024658203125,1.8278433084487915,0.7232088446617126,4.487171649932861
1783169936654973700,5.4879736328125,1.660759449005127,0.07815977931022644,4.030818462371826
1783169936664952800,5.497952880859375,1.4437779188156128,-0.5698453783988953,3.4321131706237793
1783169936674901800,5.50790185546875,1.1760849952697754,-1.0957832336425781,2.738405466079712
1783169936684850700,5.5178505859375,0.8827462792396545,-1.391402006149292,1.9978440999984741
1783169936694798600,5.527798583984375,0.5949848294258118,-1.4381352663040161,1.2337006330490112
1783169936704779000,5.537779052734375,0.33372417092323303,-1.3324511051177979,0.4791055917739868
1783169936714727000,5.547726806640625,0.09784267097711563,-1.1341170072555542,-0.20188918709754944
1783169936724675800,5.55767578125,-0.1250854730606079,-0.8757349848747253,-0.792534351348877
1783169936734655000,5.567655029296875,-0.3364621698856354,-0.5106400847434998,-1.2795807123184204
1783169936744604000,5.57760400390625,-0.5156193971633911,-0.10720022022724152,-1.6696398258209229
1783169936754552800,5.587552734375,-0.6714723706245422,0.3293728232383728,-1.9622645378112793
1783169936764500700,5.597500732421875,-0.7958753108978271,0.8295443058013916,-2.1577227115631104
1783169936774481000,5.60748095703125,-0.8547263741493225,1.3062597513198853,-2.2686328887939453
1783169936784428800,5.6174287109375,-0.8095863461494446,1.6393071413040161,-2.3365554809570312
1783169936794377700,5.627377685546875,-0.6549309492111206,1.887377142906189,-2.3500099182128906
1783169936804326700,5.63732666015625,-0.4742346704006195,1.7320952415466309,-2.4155514240264893
1783169936814305800,5.647305908203125,-0.37912601232528687,1.306657075881958,-2.5733940601348877
1783169936824254700,5.657254638671875,-0.2882709503173828,0.7557547688484192,-2.6534066200256348
1783169936834203600,5.66720361328125,-0.1997128427028656,-0.006964432541280985,-2.613809823989868
1783169936844182800,5.677182861328125,-0.2427319586277008,-0.8325302600860596,-2.407932758331299
1783169936854131700,5.687131591796875,-0.4417811334133148,-1.4780604839324951,-2.01539945602417
1783169936864079600,5.69707958984375,-0.7087305188179016,-1.9118220806121826,-1.5265021324157715
1783169936874028800,5.70702880859375,-0.963786244392395,-1.8720648288726807,-0.9348976612091064
1783169936884008000,5.717008056640625,-0.8913450837135315,-0.7923679351806641,-0.31205323338508606
1783169936893956900,5.726956787109375,-0.3380153179168701,0.9066833257675171,0.07458236068487167
1783169936903905800,5.73690576171875,0.545282244682312,1.9346650838851929,0.09887624531984329
1783169936913885000,5.746885009765625,0.9691067337989807,1.9220904111862183,-0.1831463873386383
1783169936923833900,5.756833740234375,0.7724685072898865,1.141694188117981,-0.8749877214431763
1783169936933781800,5.76678173828125,0.7996713519096375,0.12783679366111755,-1.4756474494934082
1783169936943731000,5.77673095703125,1.32594633102417,-0.8669435977935791,-1.5809032917022705
1783169936953709800,5.786709716796875,1.6816940307617188,-1.6199172735214233,-1.23531973361969
1783169936963658800,5.79665869140625,1.5150678157806396,-1.711337924003601,-0.577935516834259
1783169936973607700,5.806607666015625,1.3381630182266235,-1.1698715686798096,0.2283460944890976
1783169936983556900,5.816556884765625,1.4438931941986084,-0.3392624855041504,1.0040301084518433
1783169936993535700,5.82653564453125,1.6307733058929443,0.35000380873680115,1.6469616889953613
1783169937003484700,5.836484619140625,1.7238903045654297,0.7557284235954285,2.183962345123291
1783169937013432800,5.846432861328125,1.7656807899475098,1.059645414352417,2.6793689727783203
1783169937023412700,5.856412841796875,1.7984987497329712,1.4261925220489502,3.1711883544921875
1783169937033360600,5.866360595703125,1.832308292388916,1.723066806793213,3.6359100341796875
1783169937043309800,5.876309814453125,1.8680000305175781,1.9378515481948853,4.070710182189941
1783169937053259000,5.886259033203125,1.9274178743362427,2.037583827972412,4.48349666595459
1783169937063238000,5.89623779296875,1.9055540561676025,1.968492865562439,4.825872421264648
1783169937073186800,5.906186767578125,1.7771679162979126,1.7502204179763794,5.044078350067139
1783169937083135700,5.9161357421875,1.5457594394683838,1.4046827554702759,5.009950160980225
1783169937093115000,5.926114990234375,1.2081520557403564,0.9700292348861694,4.597627639770508
1783169937103062800,5.936062744140625,0.7442182302474976,0.5230051279067993,3.705806016921997
1783169937113011700,5.94601171875,0.26722317934036255,0.10068586468696594,2.571671962738037
1783169937122961000,5.9559609375,-0.17366233468055725,-0.2717689275741577,1.4641591310501099
1783169937132939800,5.965939697265625,-0.5895085334777832,-0.5336178541183472,0.5391769409179688
1783169937142888700,5.975888671875,-0.9462754726409912,-0.6852670311927795,-0.18971800804138184
1783169937152837600,5.985837646484375,-1.2474910020828247,-0.770632266998291,-0.7910254001617432
1783169937162816800,5.995816650390625,-1.4792778491973877,-0.8625965118408203,-1.3350833654403687
1783169937172765700,6.005765625,-1.6559638977050781,-0.9780986309051514,-1.809421181678772
1783169937182713900,6.0157138671875,-1.7683993577957153,-1.0459895133972168,-2.1851680278778076
1783169937192662800,6.025662841796875,-1.8237113952636719,-1.0491352081298828,-2.4586265087127686
1783169937202641700,6.0356416015625,-1.818097472190857,-1.002478003501892,-2.6200225353240967
1783169937212590600,6.045590576171875,-1.6785757541656494,-0.7385938763618469,-2.5651724338531494
1783169937222539800,6.055539794921875,-1.4350496530532837,-0.6166672110557556,-2.4333715438842773
1783169937232489000,6.065489013671875,-1.1295219659805298,-0.3974538743495941,-2.2481372356414795
1783169937242467800,6.0754677734375,-0.7354319095611572,-0.19994427263736725,-2.020991325378418
1783169937252416800,6.085416748046875,-0.30955758690834045,-0.1534002125263214,-1.8224871158599854
1783169937262365000,6.095364990234375,0.061466556042432785,-0.11375639587640762,-1.6549503803253174
1783169937272344800,6.1053447265625,0.3392185568809509,-0.0999191403388977,-1.5155900716781616
1783169937282292700,6.115292724609375,0.5349363684654236,-0.1636563092470169,-1.4112889766693115
1783169937292242000,6.125241943359375,0.6678031086921692,-0.28434625267982483,-1.3244028091430664
1783169937302190800,6.13519091796875,0.7709110975265503,-0.4099630117416382,-1.2501929998397827
1783169937312169700,6.145169677734375,0.8796000480651855,-0.6218734383583069,-1.2303484678268433
1783169937322118700,6.15511865234375,0.9644744396209717,-0.7932108044624329,-1.2921582460403442
1783169937332066800,6.16506689453125,1.0061784982681274,-0.9753811359405518,-1.4346792697906494
1783169937342046700,6.175046630859375,0.922383725643158,-1.1474093198776245,-1.6713283061981201
1783169937351995000,6.184994873046875,0.6796730756759644,-1.4018467664718628,-2.0098531246185303
1783169937361943800,6.19494384765625,0.418754905462265,-1.868757963180542,-2.2688825130462646
1783169937371893000,6.20489306640625,0.37439650297164917,-1.9495196342468262,-2.0439260005950928
1783169937381871600,6.21487158203125,0.47344425320625305,-1.809787631034851,-1.1298338174819946
1783169937391820800,6.22482080078125,0.4995642900466919,-1.8140451908111572,0.12095971405506134
1783169937401770000,6.23477001953125,0.4179639518260956,-2.1113059520721436,0.9137681126594543
1783169937411718000,6.2447177734375,0.10493147373199463,-2.635815382003784,0.7641522288322449
1783169937421697800,6.25469775390625,-0.4573635458946228,-2.9135823249816895,-0.1955636441707611
1783169937431646000,6.26464599609375,-0.8045942187309265,-2.7529094219207764,-1.378230333328247
1783169937441595000,6.274594970703125,-0.601093053817749,-2.0413079261779785,-2.008460760116577
1783169937451573800,6.28457373046875,-0.01919073797762394,-0.902133584022522,-1.7074060440063477
1783169937461523000,6.29452294921875,0.23544740676879883,0.3921342194080353,-0.6673431396484375
1783169937471471900,6.304471923828125,0.05741642042994499,1.4121856689453125,0.5579463839530945
1783169937481419800,6.314419677734375,0.000290018244413659,1.8642367124557495,1.5757911205291748
1783169937491399700,6.324399658203125,0.09032909572124481,1.900281548500061,2.279334545135498
1783169937501347800,6.334347900390625,0.20663706958293915,1.5644023418426514,2.6551265716552734
1783169937511296800,6.344296875,0.2538980543613434,1.2611993551254272,2.7968616485595703
1783169937521275600,6.354275634765625,0.23442421853542328,1.1435166597366333,2.834683656692505
1783169937531224800,6.364224853515625,0.17784003913402557,1.2883573770523071,2.8500237464904785
1783169937541173800,6.374173828125,0.09878277033567429,1.5575257539749146,2.876967668533325
1783169937551123000,6.384123046875,0.039865922182798386,1.817717432975769,2.91963791847229
1783169937561134000,6.394134033203125,0.024602549150586128,1.95319664478302,2.9276819229125977
1783169937571083000,6.4040830078125,0.1053629070520401,2.008317708969116,2.8307788372039795
1783169937581031200,6.41403125,0.21027041971683502,1.951996922492981,2.6855220794677734
1783169937591011000,6.424010986328125,0.28390470147132874,1.6823090314865112,2.4399123191833496
1783169937600959000,6.433958984375,0.32527637481689453,1.2144967317581177,2.072801113128662
1783169937610908000,6.443907958984375,0.35121315717697144,0.668194591999054,1.609124779701233
1783169937620857300,6.453857421875,0.35974591970443726,0.22354121506214142,1.113134741783142
1783169937630836200,6.463836181640625,0.3046741485595703,-0.06157814338803291,0.5683409571647644
1783169937640785200,6.47378515625,0.15915396809577942,-0.26012319326400757,-0.04114983230829239
1783169937650733300,6.4837333984375,-0.034928157925605774,-0.40166860818862915,-0.6436991095542908
1783169937660682200,6.49368212890625,-0.26379647850990295,-0.4680052697658539,-1.1762969493865967
1783169937670661000,6.5036611328125,-0.49094095826148987,-0.503295361995697,-1.6053329706192017
1783169937680610300,6.5136103515625,-0.6702643632888794,-0.4982670545578003,-1.92486572265625
1783169937690559200,6.523559326171875,-0.774438202381134,-0.4414919316768646,-2.1696763038635254
1783169937700538000,6.5335380859375,-0.7833169102668762,-0.310527503490448,-2.3238301277160645
1783169937710487000,6.543487060546875,-0.6526819467544556,-0.19992031157016754,-2.327082872390747
1783169937720436200,6.553436279296875,-0.555073618888855,-0.135724276304245,-2.3752808570861816
1783169937730384100,6.563384033203125,-0.47522005438804626,-0.043541617691516876,-2.3482825756073
1783169937740364000,6.573364013671875,-0.35945191979408264,-0.004375307355076075,-2.2499451637268066
1783169937750312200,6.583312255859375,-0.188643679022789,0.025684857740998268,-2.081846237182617
1783169937760261000,6.59326123046875,-0.010508833453059196,0.04691877216100693,-1.8184609413146973
1783169937770240000,6.603239990234375,0.16204430162906647,0.08468292653560638,-1.5045278072357178
1783169937780189000,6.61318896484375,0.3132926821708679,0.14790503680706024,-1.1659966707229614
1783169937790138400,6.623138427734375,0.41793331503868103,0.1901765912771225,-0.8276081681251526
1783169937800086300,6.633086181640625,0.47018003463745117,0.09735291451215744,-0.5327954888343811
1783169937810066200,6.643066162109375,0.4867888391017914,-0.1718713641166687,-0.29702529311180115
1783169937820014300,6.653014404296875,0.48236212134361267,-0.3748883903026581,-0.1362188309431076
1783169937829963300,6.66296337890625,0.48651185631752014,-0.5585650205612183,-0.10764922946691513
1783169937839912200,6.672912109375,0.4949578046798706,-0.5640082359313965,-0.22087512910366058
1783169937849891000,6.68289111328125,0.47553136944770813,-0.3680208921432495,-0.36694392561912537
1783169937859840300,6.69284033203125,0.3471347987651825,-0.4724210798740387,-0.5423751473426819
1783169937869789200,6.7027890625,0.033240776509046555,-1.5243134498596191,-0.7170185446739197
1783169937879768000,6.71276806640625,-0.3474051058292389,-3.0644569396972656,-0.5835140347480774
1783169937889717000,6.722717041015625,-0.6471518874168396,-4.3808207511901855,-0.0690203458070755
1783169937899665200,6.7326650390625,-0.8909477591514587,-4.922025680541992,0.665653645992279
1783169937909614000,6.742614013671875,-0.9287158846855164,-4.894272804260254,1.1149835586547852
1783169937919593200,6.75259326171875,-0.6519399881362915,-4.479304313659668,1.0905234813690186
1783169937929542100,6.762542236328125,-0.2358333021402359,-3.566028594970703,0.9634288549423218
1783169937939491000,6.772490966796875,0.15340393781661987,-2.2824015617370605,1.0370609760284424
1783169937949470000,6.782469970703125,0.41025835275650024,-1.0713303089141846,1.3167483806610107
1783169937959419100,6.792419189453125,0.4627804160118103,0.0883658155798912,1.7539876699447632
1783169937969367000,6.802366943359375,0.4917668104171753,1.1200968027114868,2.2793776988983154
1783169937979316200,6.812316162109375,0.6046155691146851,1.8720749616622925,2.827894687652588
1783169937989295400,6.82229541015625,0.677696704864502,2.1736531257629395,3.3711185455322266
1783169937999244300,6.832244384765625,0.6356584429740906,1.962073802947998,3.8245675563812256
1783169938009193200,6.842193115234375,0.360881507396698,1.4085149765014648,4.1618733406066895
1783169938019142100,6.85214208984375,-0.06226976588368416,0.6970608234405518,4.357192039489746
1783169938029121300,6.862121337890625,-0.51786869764328,0.21723005175590515,4.305301666259766
1783169938039070200,6.8720703125,-0.9208766222000122,0.2788928747177124,4.027151584625244
1783169938049018000,6.88201806640625,-1.1206920146942139,0.7438560128211975,3.6028647422790527
1783169938058998000,6.891998046875,-1.1267051696777344,1.2821216583251953,3.099025249481201
1783169938068946200,6.9019462890625,-1.0244519710540771,1.7088545560836792,2.548567533493042
1783169938078895000,6.91189501953125,-0.9044725894927979,1.9448351860046387,1.8835099935531616
1783169938088844000,6.921843994140625,-0.8361985087394714,1.888779640197754,1.09731125831604
1783169938098823200,6.9318232421875,-0.8789584636688232,1.60896635055542,0.25525838136672974
1783169938108772000,6.941772216796875,-1.0629013776779175,1.2790040969848633,-0.603712797164917
1783169938118720000,6.951719970703125,-1.3707537651062012,1.1746500730514526,-1.4309941530227661
1783169938128700200,6.9617001953125,-1.6917057037353516,1.2410311698913574,-2.2133569717407227
1783169938138648000,6.97164794921875,-1.958483338356018,1.3365907669067383,-2.93819522857666
1783169938148597200,6.98159716796875,-2.1036975383758545,1.448851466178894,-3.542558431625366
1783169938158546200,6.991546142578125,-2.116677761077881,1.4907128810882568,-3.974857807159424
1783169938168525300,7.001525390625,-1.9355816841125488,1.5246798992156982,-4.0723958015441895
1783169938178474200,7.01147412109375,-1.576825737953186,1.4006924629211426,-3.9948129653930664
1783169938188423200,7.021423095703125,-1.097383975982666,1.2292722463607788,-3.6950950622558594
1783169938198402000,7.031402099609375,-0.5795794725418091,0.9404867887496948,-3.2783780097961426
1783169938208351200,7.041351318359375,-0.11885128915309906,0.5428222417831421,-2.8139164447784424
1783169938218299100,7.051299072265625,0.1774892956018448,0.13729633390903473,-2.3360047340393066
1783169938228248000,7.061248046875,0.338580459356308,-0.24264992773532867,-1.8808681964874268
1783169938238227200,7.071227294921875,0.4024033844470978,-0.6214052438735962,-1.4836028814315796
1783169938248176000,7.081176025390625,0.3634202778339386,-0.9691368341445923,-1.2250785827636719
1783169938258125000,7.091125,0.30479133129119873,-1.2215144634246826,-1.1363966464996338
1783169938268074000,7.101073974609375,0.3149973452091217,-1.339384913444519,-1.199055552482605
1783169938278053000,7.11105322265625,0.36788108944892883,-1.2260674238204956,-1.3989808559417725
1783169938288002300,7.121002197265625,0.40776243805885315,-0.971851110458374,-1.6646138429641724
1783169938297950000,7.130949951171875,0.44139736890792847,-0.9233219623565674,-1.8880714178085327
1783169938307929000,7.14092919921875,0.5158279538154602,-1.15236234664917,-1.953189730644226
1783169938317878300,7.150878173828125,0.5405745506286621,-1.4204771518707275,-1.8460164070129395
1783169938327827200,7.1608271484375,0.37085315585136414,-1.741361379623413,-1.6575312614440918
1783169938337776000,7.170776123046875,0.013230584561824799,-1.9782400131225586,-1.4358654022216797
1783169938347755300,7.18075537109375,-0.49311596155166626,-1.8917828798294067,-1.16432785987854
1783169938357704200,7.1907041015625,-0.9150893092155457,-1.1528621912002563,-0.7261651754379272
1783169938367652000,7.200652099609375,-0.8199247121810913,0.12871617078781128,-0.07250988483428955
1783169938377632300,7.21063232421875,-0.3258497416973114,1.0392009019851685,0.5614824891090393
1783169938387580200,7.220580078125,0.05144694447517395,1.2330646514892578,1.0669052600860596
1783169938397529000,7.230529052734375,0.28429165482521057,0.8019297122955322,1.493666648864746
1783169938407478000,7.24047802734375,0.36739853024482727,-0.03563389554619789,1.8474737405776978
1783169938417457200,7.25045703125,0.3295845687389374,-0.8426739573478699,2.04667067527771
1783169938427406000,7.260406005859375,0.2841467559337616,-1.174116849899292,2.0152065753936768
1783169938437355000,7.27035498046875,0.32313570380210876,-0.7931910753250122,1.854785442352295
1783169938447303200,7.28030322265625,0.5073452591896057,0.20236454904079437,1.7036601305007935
1783169938457283300,7.290283447265625,0.7440925240516663,1.238974928855896,1.6074405908584595
1783169938467231000,7.30023095703125,0.907296895980835,1.7756307125091553,1.4467921257019043
1783169938477180200,7.31018017578125,0.960335910320282,1.6843063831329346,1.2913705110549927
1783169938487159300,7.3201591796875,0.8352570533752441,1.1795321702957153,1.2114304304122925
1783169938497108200,7.330108154296875,0.5592496991157532,0.5775077939033508,1.2412842512130737
1783169938507057200,7.34005712890625,0.291208952665329,0.2015877068042755,1.4130761623382568
1783169938517005300,7.35000537109375,-0.00771837355569005,0.10798745602369308,1.5914055109024048
1783169938526985200,7.359985107421875,-0.19915837049484253,0.42460986971855164,1.6752045154571533
1783169938536933000,7.36993310546875,-0.2131202667951584,0.7780451774597168,1.6553136110305786
1783169938546882000,7.379882080078125,-0.09857557713985443,0.9536510705947876,1.5510066747665405
1783169938556867600,7.38986767578125,0.05221952870488167,0.9750761985778809,1.4006171226501465
1783169938566816500,7.39981640625,0.16154761612415314,1.0048202276229858,1.2119441032409668
1783169938576765400,7.409765380859375,0.1271616816520691,0.9351932406425476,0.9704082012176514
1783169938586714600,7.419714599609375,-0.08349782228469849,0.7757159471511841,0.6834787130355835
1783169938596693500,7.429693603515625,-0.33384934067726135,0.6776453256607056,0.39384689927101135
1783169938606642400,7.439642333984375,-0.5246251821517944,0.6888883709907532,0.04525216668844223
1783169938616590600,7.449590576171875,-0.6480783820152283,0.7662619948387146,-0.3510357737541199
1783169938626570500,7.459570556640625,-0.680534839630127,0.8337172269821167,-0.6636144518852234
1783169938636518400,7.469518310546875,-0.5917242765426636,0.8048751950263977,-0.848120927810669
1783169938646467300,7.47946728515625,-0.4226498007774353,0.681947648525238,-0.8961433172225952
1783169938656416500,7.48941650390625,-0.21175219118595123,0.44699934124946594,-0.8426126837730408
1783169938666395400,7.4993955078125,-0.02846572920680046,0.21232743561267853,-0.7194185853004456
1783169938676344600,7.509344482421875,0.09357442706823349,0.036492232233285904,-0.5429530143737793
1783169938686292500,7.51929248046875,0.15364548563957214,-0.10470856726169586,-0.3449171781539917
1783169938696241700,7.52924169921875,0.18535654246807098,-0.202184796333313,-0.15427079796791077
1783169938706220500,7.539220458984375,0.21613788604736328,-0.3110676109790802,-0.01565486006438732
1783169938716169500,7.54916943359375,0.2428922802209854,-0.4276445508003235,0.04748043417930603
1783169938726118700,7.55911865234375,0.2514878809452057,-0.482371985912323,0.056293100118637085
1783169938736097500,7.56909765625,0.2700469195842743,-0.4879310429096222,-0.00119575927965343
1783169938746046500,7.57904638671875,0.2611248195171356,-0.4811461269855499,-0.14764857292175293
1783169938755995400,7.588995361328125,0.2324974238872528,-0.6037516593933105,-0.3560774326324463
1783169938765943600,7.598943603515625,0.20094642043113708,-0.9159252643585205,-0.5370535850524902
1783169938775923500,7.60892333984375,0.20945841073989868,-1.2673144340515137,-0.5884813666343689
1783169938785871600,7.61887158203125,0.2599615454673767,-1.5473679304122925,-0.48374563455581665
1783169938795820500,7.628820556640625,0.31432199478149414,-1.746985673904419,-0.2891862690448761
1783169938805799400,7.63879931640625,0.3838869333267212,-1.9023563861846924,-0.1735086739063263
1783169938815748400,7.648748291015625,0.40780824422836304,-2.216930627822876,-0.2873620092868805
1783169938825697500,7.658697509765625,0.3138040006160736,-2.4413435459136963,-0.5454753041267395
1783169938835645400,7.6686455078125,0.266737699508667,-2.504833698272705,-0.7797698378562927
1783169938845625600,7.67862548828125,-0.0014479606179520488,-2.4256110191345215,-0.9528675675392151
1783169938855573500,7.688573486328125,-0.47551727294921875,-2.2929794788360596,-1.1406196355819702
1783169938865522700,7.698522705078125,-0.9076561331748962,-2.1132583618164062,-1.347064733505249
1783169938875471600,7.7084716796875,-1.0397454500198364,-1.9203511476516724,-1.5588093996047974
1783169938885450500,7.718450439453125,-0.8757738471031189,-1.8495714664459229,-1.7504690885543823
1783169938895399700,7.728399658203125,-0.5956993103027344,-2.057847023010254,-1.9053421020507812
1783169938905348600,7.7383486328125,-0.36773887276649475,-2.429083824157715,-2.068621873855591
1783169938915327500,7.748327392578125,-0.3044467270374298,-2.5550613403320312,-2.206498384475708
1783169938925276400,7.7582763671875,-0.33055874705314636,-2.0533719062805176,-2.213367223739624
1783169938935224600,7.768224609375,-0.2910850942134857,-0.8737189769744873,-2.046886920928955
1783169938945173500,7.778173583984375,-0.10683856159448624,0.43559542298316956,-1.7733254432678223
1783169938955152400,7.78815234375,0.21753977239131927,1.2532724142074585,-1.4396734237670898
1783169938965101600,7.7981015625,0.530941367149353,1.5202114582061768,-1.0346276760101318
1783169938975050500,7.808050537109375,0.7684958577156067,1.4141720533370972,-0.5036357045173645
1783169938985029400,7.818029296875,0.9752935171127319,1.0792196989059448,0.1653926819562912
1783169938994978300,7.827978271484375,1.090492844581604,0.6393938064575195,0.9073932766914368
1783169939004926500,7.837926513671875,1.0965653657913208,0.16388054192066193,1.608742117881775
1783169939014875400,7.84787548828125,1.0745604038238525,-0.26249074935913086,2.159424066543579
1783169939024854500,7.8578544921875,1.0391905307769775,-0.632113516330719,2.50055193901062
1783169939034803700,7.8678037109375,0.9999338984489441,-0.9008813500404358,2.595911979675293
1783169939044752600,7.877752685546875,0.9750610589981079,-0.9933492541313171,2.471309185028076
1783169939054731500,7.8877314453125,0.933223307132721,-0.9364457130432129,2.1831064224243164
1783169939064680700,7.8976806640625,0.8612045049667358,-0.7903777360916138,1.7933892011642456
1783169939074629600,7.907629638671875,0.7536224126815796,-0.6660568714141846,1.341027021408081
1783169939084577500,7.91757763671875,0.6358954906463623,-0.5581256151199341,0.8391721844673157
1783169939094557400,7.927557373046875,0.5371670722961426,-0.6009332537651062,0.3087809979915619
1783169939104505600,7.937505615234375,0.40904635190963745,-0.778622567653656,-0.23247292637825012
1783169939114454500,7.94745458984375,0.21322518587112427,-0.9139324426651001,-0.7263928651809692
1783169939124403500,7.957403564453125,0.007602259516716003,-0.8238819241523743,-1.116073489189148
1783169939134382600,7.967382568359375,-0.16311408579349518,-0.4768863916397095,-1.3864496946334839
1783169939144331500,7.97733154296875,-0.28441309928894043,-0.02647341974079609,-1.5383353233337402
1783169939154279400,7.987279541015625,-0.36833247542381287,0.37774011492729187,-1.6117117404937744
1783169939164259300,7.99725927734375,-0.4106176197528839,0.657066285610199,-1.6150338649749756
1783169939174207500,8.00720751953125,-0.4279486835002899,0.8350024819374084,-1.5426241159439087
1783169939184156400,8.017156494140625,-0.4241073429584503,0.8528515100479126,-1.423448085784912
1783169939194105600,8.027105712890625,-0.3635244071483612,0.6823724508285522,-1.2922810316085815
1783169939204084700,8.037084716796874,-0.2334657460451126,0.36896073818206787,-1.1425185203552246
1783169939214033700,8.04703369140625,-0.022363629192113876,0.03003140166401863,-0.9627239108085632
1783169939223982600,8.056982666015625,0.2795512080192566,-0.2865723669528961,-0.7411630749702454
1783169939233961500,8.06696142578125,0.6357184052467346,-0.6415086388587952,-0.4851666986942291
1783169939243910700,8.07691064453125,0.9059040546417236,-0.9708883762359619,-0.1525229662656784
1783169939253858600,8.086858642578125,1.02984619140625,-1.0166758298873901,0.2703254818916321
1783169939263807500,8.096807373046875,1.1666253805160522,-0.7094666361808777,0.7437663078308105
1783169939273786600,8.10678662109375,1.3879340887069702,-0.23361808061599731,1.2102807760238647
1783169939283735600,8.116735595703124,1.6259071826934814,0.15851081907749176,1.5484782457351685
1783169939293684500,8.1266845703125,1.7727028131484985,0.42560669779777527,1.6737197637557983
1783169939303633400,8.13663330078125,1.748009204864502,0.787226676940918,1.5864477157592773
1783169939313612500,8.146612548828125,1.5846173763275146,1.2155383825302124,1.4009907245635986
1783169939323560400,8.156560546875,1.4635343551635742,1.3076903820037842,1.141807198524475
1783169939333509400,8.16650927734375,1.3171364068984985,0.8902752995491028,0.7843709588050842
1783169939343488500,8.176488525390624,1.0139522552490234,0.14784139394760132,0.4571355879306793
1783169939353437400,8.1864375,0.6067663431167603,-0.6899081468582153,0.3425626754760742
1783169939363386600,8.19638671875,0.25922250747680664,-1.4207998514175415,0.523240864276886
1783169939373335600,8.20633544921875,0.049363553524017334,-1.8833094835281372,0.8221809267997742
1783169939383314700,8.216314697265625,-0.1143963485956192,-2.1092212200164795,0.9559453725814819
1783169939393263600,8.226263671875,-0.2126813679933548,-2.264042377471924,0.7473421096801758
1783169939403211500,8.23621142578125,-0.2520327866077423,-2.5225605964660645,0.14425571262836456
1783169939413191700,8.246191650390625,-0.2707444131374359,-2.427867889404297,-0.5617983341217041
1783169939423139600,8.2561396484375,-0.14302000403404236,-1.7948213815689087,-0.9597683548927307
1783169939433088500,8.266088623046874,0.16932430863380432,-1.1534470319747925,-1.0391055345535278
1783169939443037400,8.276037353515624,0.5983521342277527,-0.7859944105148315,-0.936355471611023
1783169939453016600,8.2860166015625,0.9562582969665527,-0.8511481285095215,-0.7105793356895447
1783169939462965500,8.295965576171875,1.0779567956924438,-1.2563982009887695,-0.3155888617038727
1783169939472914400,8.30591455078125,0.9494864344596863,-1.7152466773986816,0.21128535270690918
1783169939482862600,8.315862548828125,0.778247594833374,-1.9166605472564697,0.7070937752723694
1783169939492841500,8.325841552734374,0.6526616811752319,-1.6148200035095215,1.0101382732391357
1783169939502790400,8.335790283203124,0.5210253596305847,-0.886531412601471,1.1193466186523438
1783169939512739300,8.3457392578125,0.21972410380840302,-0.029525667428970337,1.170447826385498
1783169939522718500,8.355718505859375,-0.19641238451004028,0.8750588297843933,1.20110023021698
1783169939532667600,8.365667724609375,-0.6188454031944275,1.743889570236206,1.1256990432739258
1783169939542616600,8.375616455078125,-0.929487407207489,2.270541191101074,0.9730879068374634
1783169939552564700,8.385564697265625,-1.015924334526062,2.223001003265381,0.7477767467498779
1783169939562578700,8.39557861328125,-0.8974679708480835,1.7129710912704468,0.5021339654922485
1783169939572526600,8.405526611328124,-0.7191296815872192,0.8698707222938538,0.24662868678569794
1783169939582475800,8.415475830078124,-0.6415296792984009,-0.02540123090147972,0.023249927908182144
1783169939592454700,8.42545458984375,-0.5629445910453796,-0.6614195108413696,-0.15113332867622375
1783169939602403600,8.435403564453125,-0.4700218439102173,-0.9197950959205627,-0.3166828751564026
1783169939612352500,8.4453525390625,-0.4137124717235565,-0.9339359402656555,-0.44113293290138245
1783169939622301700,8.4553017578125,-0.3884958028793335,-0.7404013872146606,-0.5679816603660583
1783169939632280600,8.465280517578124,-0.3683103919029236,-0.3501684069633484,-0.7118637561798096
1783169939642229500,8.4752294921875,-0.35495302081108093,0.14030331373214722,-0.8419698476791382
1783169939652177700,8.485177734375,-0.3487153649330139,0.6638083457946777,-0.9426857829093933
1783169939662156500,8.495156494140625,-0.3653910160064697,1.141082525253296,-1.0000654458999634
1783169939672105500,8.50510546875,-0.3458609879016876,1.4976688623428345,-1.0252631902694702
1783169939682054700,8.5150546875,-0.28815722465515137,1.7695224285125732,-1.0241281986236572
1783169939692003800,8.52500390625,-0.22080135345458984,1.9535915851593018,-1.0086296796798706
1783169939701982700,8.534982666015624,-0.16118861734867096,1.954459547996521,-0.9427531361579895
1783169939711931600,8.544931640625,-0.10274581611156464,1.82183837890625,-0.794032096862793
1783169939721879800,8.5548798828125,0.008962335996329784,1.7527037858963013,-0.6225272417068481
1783169939731828700,8.564828857421874,0.1541629433631897,1.7609891891479492,-0.48864132165908813
1783169939741807600,8.5748076171875,0.3481771647930145,1.696761965751648,-0.4195922017097473
1783169939751756500,8.584756591796875,0.5516210794448853,1.6000322103500366,-0.41388770937919617
1783169939761705700,8.594705810546875,0.6588125228881836,1.3703117370605469,-0.4813205599784851
1783169939771684600,8.6046845703125,0.6663244962692261,0.986946165561676,-0.554474413394928
1783169939781633500,8.614633544921874,0.6168174147605896,0.8414566516876221,-0.5996347069740295
1783169939791582500,8.62458251953125,0.6016008853912354,0.9468498826026917,-0.6679695248603821
1783169939801530600,8.634530517578124,0.6557602882385254,1.239803433418274,-0.6811370253562927
1783169939811510500,8.644510498046875,0.7378455400466919,1.501751184463501,-0.6101155281066895
1783169939821458700,8.654458740234375,0.647731363773346,1.0230282545089722,-0.4906211197376251
1783169939831407600,8.66440771484375,0.34316107630729675,0.1719352751970291,-0.27698180079460144
1783169939841386500,8.674386474609374,-0.01956038549542427,-0.40442922711372375,0.1284189522266388
1783169939851335700,8.684335693359374,-0.28398779034614563,-0.626428484916687,0.6719748973846436
1783169939861284600,8.69428466796875,-0.42153337597846985,-0.6721123456954956,1.229560136795044
1783169939871232800,8.704232666015624,-0.44771918654441833,-0.7496265769004822,1.6126068830490112
1783169939881212700,8.714212646484375,-0.42636728286743164,-0.9387320280075073,1.6354533433914185
1783169939891160800,8.724160888671875,-0.3252129852771759,-1.0651049613952637,1.4224092960357666
1783169939901109800,8.73410986328125,0.07569023221731186,-0.9405738711357117,1.2433955669403076
1783169939911058700,8.74405859375,0.4786584675312042,-0.9542228579521179,0.9668712615966797
1783169939921037600,8.75403759765625,0.549109697341919,-0.9604040384292603,0.4112522602081299
1783169939930986800,8.76398681640625,0.5402648448944092,-0.6573008894920349,-0.1762266904115677
1783169939940935700,8.773935791015624,0.5689273476600647,-0.09333287924528122,-0.4979115128517151
1783169939950914600,8.78391455078125,0.4983075261116028,0.6801226139068604,-0.5613277554512024
1783169939960863500,8.793863525390625,0.24944445490837097,1.4301486015319824,-0.4882253408432007
1783169939970811600,8.803811767578125,-0.09381011128425598,1.9636090993881226,-0.30947262048721313
1783169939980760600,8.813760498046875,-0.3956027328968048,2.258408784866333,-0.030961111187934875
1783169939990739500,8.823739501953124,-0.5263761878013611,2.2858355045318604,0.30896955728530884
1783169940000688600,8.833688720703124,-0.552679181098938,2.0717878341674805,0.6551453471183777
1783169940010637800,8.843637939453124,-0.5222509503364563,1.7825032472610474,1.0134696960449219
1783169940020616400,8.853616455078125,-0.3570111095905304,1.6258292198181152,1.3361294269561768
1783169940030565600,8.863565673828125,-0.16276894509792328,1.4924155473709106,1.5756006240844727
1783169940040513800,8.873513671875,-0.01967862993478775,1.2992968559265137,1.723950743675232
1783169940050462700,8.883462646484375,0.0520046129822731,1.0932507514953613,1.8081462383270264
1783169940060441900,8.89344189453125,0.044688109308481216,0.7995142340660095,1.8753056526184082
1783169940070390800,8.903390869140624,0.044191695749759674,0.440083384513855,1.9488885402679443
1783169940080339700,8.913339599609374,0.082767054438591,0.29707908630371094,1.9368797540664673
1783169940090288600,8.92328857421875,0.10689182579517365,0.1072460263967514,1.9807777404785156
1783169940100267800,8.933267822265625,0.09639764577150345,-0.13611336052417755,2.0181429386138916
1783169940110216700,8.943216796875,0.09484075754880905,-0.3244835436344147,1.9562965631484985
1783169940120164600,8.95316455078125,0.0579913966357708,-0.4054950475692749,1.7955316305160522
1783169940130144500,8.96314453125,-0.060023389756679535,-0.42047879099845886,1.5846567153930664
1783169940140092700,8.9730927734375,-0.21683964133262634,-0.37640267610549927,1.389357566833496
1783169940150041600,8.98304150390625,-0.3966522812843323,-0.36903104186058044,1.165223240852356
1783169940159990500,8.992990478515624,-0.5897053480148315,-0.42795559763908386,0.8581445217132568
1783169940169969700,9.0029697265625,-0.7781224250793457,-0.5004374980926514,0.4654475748538971
1783169940179918600,9.012918701171875,-0.9559888243675232,-0.4637386202812195,0.06808477640151978
1783169940189866500,9.022866455078125,-1.1165391206741333,-0.2905937433242798,-0.27026185393333435
1783169940199846700,9.0328466796875,-1.2428491115570068,0.27697914838790894,-0.6131747364997864
1783169940209794800,9.042794921875,-1.2617803812026978,1.1201865673065186,-0.9769481420516968
1783169940219743700,9.05274365234375,-1.1893419027328491,1.6592981815338135,-1.145110845565796
1783169940229692700,9.062692626953124,-1.02219820022583,1.8661481142044067,-1.268383502960205
1783169940239671800,9.072671875,-0.7692151665687561,1.7562860250473022,-1.2997690439224243
1783169940249620700,9.082620849609375,-0.534231960773468,1.2480847835540771,-1.2692370414733887
1783169940259569700,9.092569580078125,-0.3132292926311493,0.6670267581939697,-1.1370257139205933
1783169940269548500,9.102548583984374,-0.14012327790260315,0.1968904286623001,-0.9017082452774048
1783169940279497700,9.112497802734374,-0.15336692333221436,-0.10847747325897217,-0.7048149108886719
1783169940289445600,9.122445556640624,-0.22298194468021393,-0.2045922875404358,-0.6027598977088928
1783169940299394600,9.13239453125,-0.16146665811538696,-0.22829069197177887,-0.6090825200080872
1783169940309373700,9.142373779296875,-0.011245197616517544,-0.3608143925666809,-0.7650377750396729
1783169940319322600,9.152322509765625,0.008291752077639103,-0.26132509112358093,-0.99232017993927
1783169940329271600,9.162271484375,-0.15145502984523773,0.25446343421936035,-1.264280080795288
1783169940339219500,9.172219482421875,-0.30729442834854126,0.6923853754997253,-1.6383010149002075
1783169940349199600,9.18219970703125,-0.3418654501438141,0.791781485080719,-2.0191850662231445
1783169940359147500,9.1921474609375,-0.3278955817222595,0.6293909549713135,-2.263812780380249
1783169940369096700,9.2020966796875,-0.3038046360015869,0.16983696818351746,-2.3603010177612305
1783169940379075600,9.21207568359375,-0.25037896633148193,-0.5953419208526611,-2.44431209564209
1783169940389024800,9.222024658203125,-0.24901728332042694,-1.1494344472885132,-2.4658639430999756
1783169940398973700,9.2319736328125,-0.3063993453979492,-1.1805773973464966,-2.370485782623291
1783169940408922600,9.241922607421875,-0.38557058572769165,-0.7743257880210876,-2.2079544067382812
1783169940418901800,9.25190185546875,-0.35261398553848267,-0.14215634763240814,-2.0134201049804688
1783169940428850700,9.2618505859375,-0.22944064438343048,0.4996210038661957,-1.7819567918777466
1783169940438798600,9.271798583984374,-0.12239382416009903,1.0628387928009033,-1.5205177068710327
1783169940448778800,9.28177880859375,-0.06594625860452652,1.4294191598892212,-1.241646409034729
1783169940458726700,9.2917265625,0.016928117722272873,1.414457082748413,-0.9230250120162964
1783169940468675600,9.301675537109375,0.10325688123703003,1.057542324066162,-0.5466199517250061
1783169940478624500,9.31162451171875,0.08350075036287308,0.4112645089626312,-0.1902591586112976
1783169940488603600,9.321603759765624,-0.02340785413980484,-0.3428604304790497,0.0675116628408432
1783169940498552600,9.331552490234374,-0.10432826727628708,-1.0022598505020142,0.21296153962612152
1783169940508500500,9.34150048828125,-0.11385839432477951,-1.301662564277649,0.2822178304195404
1783169940518449700,9.35144970703125,-0.09207266569137573,-1.1104843616485596,0.3033739924430847
1783169940528428500,9.361428466796875,-0.05000484362244606,-0.5889151692390442,0.30927184224128723
1783169940538377700,9.371377685546875,0.03874420002102852,0.04610970616340637,0.31121060252189636
1783169940548326700,9.38132666015625,0.14110572636127472,0.4821290969848633,0.321551650762558
1783169940558334500,9.39133447265625,0.16720017790794373,0.5895868539810181,0.3715815544128418
1783169940568283600,9.40128369140625,0.11737935990095139,0.45108434557914734,0.4689733386039734
1783169940578232600,9.411232666015625,0.018307633697986603,0.1600610464811325,0.5611874461174011
1783169940588180500,9.421180419921875,-0.1694263070821762,-0.17291025817394257,0.5755413174629211
1783169940598160600,9.43116064453125,-0.4262242913246155,-0.3682757616043091,0.507484495639801
1783169940608108800,9.44110888671875,-0.6447233557701111,-0.3919089138507843,0.35466861724853516
1783169940618057700,9.4510576171875,-0.7954033613204956,-0.32547903060913086,0.14110758900642395
1783169940628036900,9.461036865234375,-0.8827976584434509,-0.22690504789352417,-0.07520953565835953
1783169940637985800,9.47098583984375,-0.8841974139213562,-0.17998814582824707,-0.2397870272397995
1783169940647934700,9.480934814453125,-0.7778366208076477,-0.1354675441980362,-0.29854223132133484
1783169940657883600,9.490883544921875,-0.6032139658927917,-0.07087763398885727,-0.23384392261505127
1783169940667862500,9.500862548828126,-0.39312225580215454,-0.048953693360090256,-0.09935721009969711
1783169940677810700,9.510810791015626,-0.12094586342573166,-0.017593907192349434,0.023127956315875053
1783169940687759600,9.520759521484376,0.1937100738286972,-0.027656128630042076,0.13288214802742004
1783169940697708500,9.53070849609375,0.48568788170814514,0.005058674607425928,0.28296777606010437
1783169940707687700,9.540687744140625,0.7354018092155457,0.16334791481494904,0.46335673332214355
1783169940717636600,9.55063671875,0.9717859029769897,0.3602162301540375,0.5833395719528198
1783169940727585500,9.56058544921875,1.181516170501709,0.5020790696144104,0.6127195954322815
1783169940737564700,9.570564697265626,1.2997195720672607,0.5149171352386475,0.48627322912216187
1783169940747513600,9.580513671875,1.3015140295028687,0.267826646566391,0.14614441990852356
1783169940757461500,9.59046142578125,1.1586010456085205,-0.0450657457113266,-0.21785776317119598
1783169940767410700,9.60041064453125,0.9177165031433105,-0.1051730215549469,-0.30008044838905334
1783169940777389600,9.6103896484375,0.6908308863639832,0.104212686419487,-0.0953797847032547
1783169940787338800,9.6203388671875,0.6246140599250793,0.6236872673034668,0.2366543561220169
1783169940797287700,9.63028759765625,0.7028119564056396,1.0711287260055542,0.43054500222206116
1783169940807266800,9.640266845703126,0.6253565549850464,0.98985356092453,0.18049520254135132
1783169940817215700,9.6502158203125,0.45501038432121277,0.7938569188117981,-0.1447710394859314
1783169940827164700,9.66016455078125,0.2599029541015625,0.47462883591651917,-0.38862738013267517
1783169940837112600,9.670112548828126,0.03767440840601921,-0.07624923437833786,-0.6272729635238647
1783169940847091700,9.680091796875,-0.12644794583320618,-0.6922215819358826,-0.8006554245948792
1783169940857040600,9.69004052734375,-0.21998882293701172,-1.2187479734420776,-0.9008360505104065
1783169940866989600,9.699989501953125,-0.2771399915218353,-1.4463331699371338,-0.9688950181007385
1783169940876968700,9.70996875,-0.3036738634109497,-1.368158221244812,-1.0790138244628906
1783169940886917600,9.719917724609376,-0.28504958748817444,-0.9828404188156128,-1.228212833404541
1783169940896866600,9.729866455078126,-0.2265724241733551,-0.32950493693351746,-1.3168891668319702
1783169940906814500,9.739814453125,-0.17378084361553192,0.5091497898101807,-1.2819730043411255
1783169940916794600,9.749794677734375,-0.14487943053245544,1.2859070301055908,-1.1163041591644287
1783169940926742500,9.759742431640625,-0.14692740142345428,1.7946685552597046,-0.8317030668258667
1783169940936691700,9.769691650390625,-0.10687771439552307,1.9683479070663452,-0.4731057584285736
1783169940946640600,9.779640625,-0.015439676120877266,1.8092440366744995,-0.09100127965211868
1783169940956619800,9.789619873046876,0.08624514192342758,1.4184448719024658,0.22661636769771576
1783169940966568700,9.799568603515626,0.21563348174095154,0.9018001556396484,0.49177587032318115
1783169940976517600,9.809517578125,0.40902531147003174,0.4081787168979645,0.7727177739143372
1783169940986496800,9.819496826171875,0.6925939321517944,-0.06282316893339157,1.106032371520996
1783169940996445700,9.82944580078125,1.0337650775909424,-0.5232272744178772,1.5085393190383911
1783169941006393600,9.8393935546875,1.3941746950149536,-0.8572217226028442,1.965287446975708
1783169941016342500,9.849342529296875,1.72671377658844,-0.8956269025802612,2.358680248260498
1783169941026321700,9.85932177734375,2.0006093978881836,-0.7572280168533325,2.5910329818725586
1783169941036270600,9.8692705078125,2.156126022338867,-0.5358498692512512,2.703261375427246
1783169941046219500,9.879219482421876,2.1282241344451904,-0.3246036469936371,2.758286476135254
1783169941056198700,9.88919873046875,1.9454751014709473,-0.16293218731880188,2.784655809402466
1783169941066147600,9.899147705078125,1.6768481731414795,-0.010130664333701134,2.7454495429992676
1783169941076095500,9.909095458984375,1.3729822635650635,0.1294512003660202,2.6060543060302734
1783169941086044700,9.919044677734375,1.077335238456726,0.25714337825775146,2.3416450023651123
1783169941096023600,9.9290234375,0.7925998568534851,0.35180702805519104,1.9597076177597046
1783169941105972500,9.938972412109376,0.4952443540096283,0.35011646151542664,1.4738681316375732
1783169941115921700,9.948921630859376,0.22562673687934875,0.26586735248565674,0.8970658183097839
1783169941125870600,9.95887060546875,0.009502691216766834,0.12128221988677979,0.29344677925109863
1783169941135849700,9.968849609375,-0.15301111340522766,-0.058586880564689636,-0.2876938283443451
1783169941145798700,9.978798583984375,-0.34532755613327026,-0.2161267101764679,-0.8217500448226929
1783169941155746800,9.988746826171875,-0.5612151026725769,-0.21753711998462677,-1.2226213216781616
1783169941165726700,9.998726806640626,-0.7323905825614929,-0.07500074058771133,-1.472373604774475
1783169941175674600,10.008674560546876,-0.8149826526641846,0.10945884883403778,-1.6097115278244019
1783169941185623600,10.01862353515625,-0.8164075016975403,0.31982752680778503,-1.6507710218429565
1783169941195572700,10.02857275390625,-0.7341168522834778,0.5131996870040894,-1.6373872756958008
1783169941205551600,10.038551513671875,-0.6123238205909729,0.4700559079647064,-1.6258084774017334
1783169941215500500,10.04850048828125,-0.42827942967414856,0.1013663038611412,-1.5914973020553589
1783169941225448700,10.05844873046875,-0.11287062615156174,-0.33873438835144043,-1.348340392112732
1783169941235428600,10.0684287109375,0.12646792829036713,-0.6179109215736389,-0.8803358674049377
1783169941245376500,10.07837646484375,0.18249790370464325,-0.6007710695266724,-0.19935065507888794
1783169941255325400,10.088325439453126,0.16811257600784302,-0.3434721529483795,0.5483155846595764
1783169941265275000,10.09827490234375,0.10733790695667267,-0.24060648679733276,0.9893118739128113
1783169941275253500,10.10825341796875,-0.07978431135416031,-0.5983195900917053,0.8538680076599121
1783169941285202700,10.11820263671875,-0.311979740858078,-1.158506989479065,0.3787987232208252
1783169941295151600,10.128151611328125,-0.48973560333251953,-1.1509239673614502,-0.12807035446166992
1783169941305099800,10.138099853515625,-0.5600433349609375,-0.7240176200866699,-0.8308327794075012
1783169941315079700,10.14807958984375,-0.741873025894165,-0.9711328744888306,-1.5460915565490723
1783169941325027600,10.158027587890626,-0.9747536778450012,-0.5661664605140686,-1.3586299419403076
1783169941334976800,10.167976806640626,-1.1918524503707886,0.14116936922073364,-0.9713003635406494
1783169941344955600,10.17795556640625,-1.524621844291687,0.6640048623085022,-0.6490104794502258
1783169941354904600,10.187904541015625,-1.8122243881225586,0.8015363812446594,-0.352254718542099
1783169941364853500,10.197853515625,-2.126624822616577,0.22874769568443298,-0.359469473361969
1783169941374801700,10.2078017578125,-2.5366334915161133,-0.6828198432922363,-0.6268298029899597
1783169941384781600,10.217781494140626,-2.9530556201934814,-1.4980294704437256,-1.0122143030166626
1783169941394729700,10.227729736328126,-3.28133487701416,-1.9203215837478638,-1.4036147594451904
1783169941404678700,10.2376787109375,-3.320509910583496,-1.593875765800476,-1.651628017425537
1783169941414657500,10.247657470703125,-2.7142128944396973,-0.23367373645305634,-1.6811734437942505
1783169941424606500,10.2576064453125,-1.6740223169326782,1.6169909238815308,-1.5798691511154175
1783169941434555600,10.2675556640625,-1.011741042137146,2.6024460792541504,-1.3006995916366577
1783169941444504800,10.2775048828125,-0.5642407536506653,2.1935184001922607,-0.6645697355270386
1783169941454483700,10.287483642578126,-0.06931116431951523,1.0465370416641235,0.335030734539032
1783169941464432600,10.2974326171875,0.28130730986595154,-0.3209780156612396,1.348724126815796
1783169941474380800,10.307380859375,0.4084274470806122,-1.2989027500152588,2.0741400718688965
1783169941484360700,10.317360595703125,0.4373389780521393,-1.6748631000518799,2.459092140197754
1783169941494308600,10.32730859375,0.5214245915412903,-1.5642046928405762,2.523205041885376
1783169941504257800,10.3372578125,0.782880425453186,-1.213252067565918,2.444908618927002
1783169941514206700,10.347206787109375,1.0188508033752441,-1.1836307048797607,2.2237231731414795
1783169941524185600,10.357185546875,0.962364137172699,-1.0607783794403076,1.9592190980911255
1783169941534134500,10.367134521484376,0.7930198311805725,-0.8672826290130615,1.7111268043518066
1783169941544082700,10.377082763671876,0.6136053800582886,-0.8347172141075134,1.4934583902359009
1783169941554031600,10.387031494140626,0.44334253668785095,-0.8184460997581482,1.2704039812088013
1783169941564021000,10.39702099609375,0.2613399922847748,-0.6724947690963745,0.9683442711830139
1783169941573970000,10.406969970703125,0.0469195730984211,-0.4242258369922638,0.536630392074585
1783169941583918800,10.4169189453125,-0.15953239798545837,-0.10179134458303452,-0.009733054786920547
1783169941593897700,10.426897705078124,-0.3605145215988159,0.22662408649921417,-0.5693806409835815
1783169941603847000,10.436846923828124,-0.4640046954154968,0.46441054344177246,-1.0641850233078003
1783169941613796000,10.446796142578124,-0.4419667720794678,0.6464629173278809,-1.4409890174865723
1783169941623744000,10.456743896484374,-0.34012216329574585,0.7363944053649902,-1.6303589344024658
1783169941633724000,10.466723876953125,-0.18714751303195953,0.7129444479942322,-1.5952107906341553
1783169941643672000,10.476672119140625,-0.017968347296118736,0.6192315816879272,-1.3605588674545288
1783169941653621000,10.48662109375,0.15901361405849457,0.4467751085758209,-1.000673770904541
1783169941663599900,10.496599853515624,0.28774788975715637,0.28606611490249634,-0.5959776043891907
1783169941673549000,10.506549072265624,0.32479459047317505,0.22298434376716614,-0.18605029582977295
1783169941683498000,10.516498046875,0.2832958996295929,0.16049566864967346,0.15740853548049927
1783169941693446000,10.52644580078125,0.20701682567596436,0.050579287111759186,0.4265931248664856
1783169941703425800,10.53642578125,0.14911304414272308,-0.03429326042532921,0.6232436299324036
1783169941713374000,10.5463740234375,0.19979380071163177,0.014613830484449863,0.7921591401100159
1783169941723323000,10.556322998046875,0.3459049463272095,0.23251420259475708,0.8584412336349487
1783169941733271800,10.566271728515625,0.4568146765232086,0.5406059622764587,0.6832584738731384
1783169941743251000,10.5762509765625,0.46368297934532166,0.6535785794258118,0.2904912233352661
1783169941753199900,10.586199951171874,0.4106501042842865,0.5484505891799927,-0.1497812420129776
1783169941763148800,10.596148681640624,0.24431626498699188,0.5414153337478638,-0.47062450647354126
1783169941773127700,10.606127685546875,-0.14841130375862122,0.5400571227073669,-0.7256634831428528
1783169941783077000,10.6160771484375,-0.6309049725532532,0.7209182381629944,-0.9044790267944336
1783169941793024800,10.626024658203125,-0.8967065811157227,1.019529104232788,-0.8995103240013123
1783169941802974000,10.635973876953125,-0.8926223516464233,1.1117054224014282,-0.7543515563011169
1783169941812953000,10.645953125,-0.7268147468566895,0.7920526266098022,-0.747473418712616
1783169941822902000,10.655902099609374,-0.5159187316894531,0.41488081216812134,-0.9653775095939636
1783169941832851000,10.665850830078124,-0.32721248269081116,0.32934221625328064,-1.2834047079086304
1783169941842829800,10.675829833984375,-0.2984503507614136,0.3300953507423401,-1.7234034538269043
1783169941852779000,10.685779052734375,-0.44831573963165283,0.2629413604736328,-2.194096326828003
1783169941862727000,10.695726806640625,-0.5729197263717651,0.3347835838794708,-2.3545732498168945
1783169941872675800,10.70567578125,-0.6338056921958923,0.4504404067993164,-2.243840456008911
1783169941882655000,10.715655029296874,-0.6427502036094666,0.4489101469516754,-2.0119173526763916
1783169941892604000,10.72560400390625,-0.5867037177085876,0.21158760786056519,-1.6832163333892822
1783169941902552800,10.735552734375,-0.4546295702457428,-0.2100786715745926,-1.2818974256515503
1783169941912501800,10.745501708984374,-0.22166475653648376,-0.5813443660736084,-0.8717879056930542
1783169941922481000,10.75548095703125,0.03178775683045387,-0.7165016531944275,-0.4547469913959503
1783169941932429800,10.765429931640625,0.2589535415172577,-0.5959046483039856,-0.06716146320104599
1783169941942377700,10.775377685546875,0.37758004665374756,-0.2708442807197571,0.18656694889068604
1783169941952358000,10.78535791015625,0.31987306475639343,0.1316768079996109,0.2734845280647278
1783169941962305800,10.795305908203124,0.08948833495378494,0.4251704812049866,0.157710000872612
1783169941972255000,10.8052548828125,-0.22053317725658417,0.637640118598938,-0.11889202892780304
1783169941982204000,10.815203857421874,-0.41561663150787354,0.8621701598167419,-0.390774667263031
1783169941992183000,10.82518310546875,-0.4262557029724121,0.9356659650802612,-0.5935738682746887
1783169942002132000,10.835132080078125,-0.2751396894454956,0.8012410402297974,-0.6674954891204834
1783169942012081000,10.845080810546875,0.025250760838389397,0.5644524693489075,-0.5551638603210449
1783169942022060000,10.85506005859375,0.3764175772666931,0.27117663621902466,-0.3258982002735138
1783169942032009000,10.865009033203124,0.6498781442642212,-0.17050303518772125,-0.0964953824877739
1783169942041956900,10.874956787109374,0.7952715754508972,-0.7398314476013184,0.12760722637176514
1783169942051905800,10.88490576171875,0.7854987978935242,-1.2906743288040161,0.27547764778137207
1783169942061885000,10.894885009765625,0.6467097997665405,-1.6956067085266113,0.3179774284362793
1783169942071833900,10.904833740234375,0.3925398290157318,-1.8286774158477783,0.25482377409935
1783169942081782800,10.91478271484375,0.05323738977313042,-1.6527873277664185,0.062240470200777054
1783169942091762000,10.924761962890624,-0.28530046343803406,-1.226864218711853,-0.1714700162410736
1783169942101710800,10.9347109375,-0.5450372099876404,-0.5556938648223877,-0.3249344229698181
1783169942111658800,10.94465869140625,-0.6399927735328674,0.08744968473911285,-0.3772958815097809
1783169942121607700,10.954607666015624,-0.5596398711204529,0.38960421085357666,-0.38415777683258057
1783169942131586800,10.9645869140625,-0.39263755083084106,0.3617587387561798,-0.3392781913280487
1783169942141536000,10.974535888671875,-0.2084038108587265,0.15002384781837463,-0.25432202219963074
1783169942151485000,10.98448486328125,-0.06337258219718933,-0.09901846200227737,-0.16754718124866486
1783169942161433900,10.994433837890625,0.0156567245721817,-0.2116754949092865,-0.07032875716686249
1783169942171413000,11.0044130859375,0.01446815486997366,-0.04060814529657364,0.11903291195631027
1783169942181362000,11.01436181640625,-0.0007866977830417454,0.19961804151535034,0.35911262035369873
1783169942191309800,11.024309814453124,-0.03982863947749138,0.4386433959007263,0.6356752514839172
1783169942201290000,11.0342900390625,-0.08473566174507141,0.5436976552009583,0.9142234921455383
1783169942211238000,11.04423779296875,-0.10543454438447952,0.46827852725982666,1.0713167190551758
1783169942221186800,11.054186767578125,-0.11923105269670486,0.41729602217674255,1.080198049545288
1783169942231135700,11.0641357421875,-0.07709744572639465,0.48685887455940247,0.9663059115409851
1783169942241115000,11.074114990234374,0.01528681069612503,0.5770832896232605,0.8098635673522949
1783169942251063800,11.084063720703124,0.10348058491945267,0.4443652033805847,0.5563444495201111
1783169942261011700,11.09401171875,0.053942061960697174,0.14941318333148956,0.13218040764331818
1783169942270992000,11.103991943359375,-0.1524800807237625,0.10560338944196701,-0.311679869890213
1783169942280939800,11.113939697265625,-0.33358728885650635,0.08493433147668839,-0.7898828983306885
1783169942290888700,11.123888671875,-0.3506978452205658,-0.06639420241117477,-1.2733174562454224
1783169942300838000,11.133837890625,-0.2697784900665283,0.15407878160476685,-1.4749877452850342
1783169942310817000,11.143817138671874,-0.17463065683841705,0.7749276757240295,-1.336905837059021
1783169942320766000,11.153765869140624,-0.1386108696460724,1.0639618635177612,-0.9954025149345398
1783169942330715000,11.16371484375,-0.3043351173400879,0.6595917344093323,-0.6985700726509094
1783169942340663000,11.1736630859375,-0.5918853878974915,-0.26203933358192444,-0.5576488971710205
1783169942350643000,11.183642822265625,-0.7416141629219055,-1.2149388790130615,-0.5369023084640503
1783169942360590800,11.1935908203125,-0.6698065996170044,-1.8419815301895142,-0.6630027294158936
1783169942370539800,11.203539794921875,-0.47094035148620605,-1.9044909477233887,-0.9061692953109741
1783169942380519000,11.213518798828124,-0.24377910792827606,-1.2568559646606445,-1.1375186443328857
1783169942390467800,11.2234677734375,-0.06768184155225754,-0.19634367525577545,-1.1671903133392334
1783169942400416800,11.233416748046874,-0.07292640209197998,0.6153470873832703,-0.9565613865852356
1783169942410365000,11.243364990234374,-0.39271479845046997,0.9986861944198608,-0.6555581092834473
1783169942420344800,11.2533447265625,-0.8066821694374084,0.8519630432128906,-0.23234589397907257
1783169942430292700,11.263292724609375,-1.1523630619049072,0.14324185252189636,0.47602567076683044
1783169942440242000,11.273241943359375,-1.1117136478424072,-1.087069034576416,0.9033053517341614
1783169942450220800,11.283220703125,-0.8937488794326782,-1.6249810457229614,0.9645386338233948
1783169942460169700,11.293169677734374,-0.7432981133460999,-1.384887456893921,0.7997427582740784
1783169942470119000,11.303118896484374,-0.648025393486023,-0.6556801199913025,0.6429520845413208
1783169942480068000,11.313068115234374,-0.5457890033721924,-0.11544643342494965,0.4323878884315491
1783169942490047000,11.323046875,-0.3903951644897461,0.08578654378652573,0.22748242318630219
1783169942499996000,11.332995849609375,-0.11231935024261475,-0.022882945835590363,0.05445818230509758
1783169942509944000,11.342944091796875,0.14679476618766785,-0.13033297657966614,-0.14082209765911102
1783169942519893000,11.35289306640625,0.30517828464508057,-0.3102201819419861,-0.3035106062889099
