time,seconds_elapsed,z,y,x
1783152187618575000,0.1435751953125,0.0015935897827148438,-0.0012660026550292969,0.00876721739768982
1783152187628254000,0.15325390625,0.002991199493408203,-0.0023627281188964844,0.016439586877822876
1783152187637954800,0.162954833984375,-0.396665096282959,0.08186578750610352,-0.12191158533096313
1783152187647689700,0.172689697265625,-0.22307157516479492,0.13135337829589844,-0.13732275366783142
1783152187657425000,0.1824248046875,-0.04811239242553711,0.17592287063598633,-0.11408790946006775
1783152187667129600,0.192129638671875,0.08900213241577148,0.14133501052856445,-0.04637646675109863
1783152187676834000,0.201833984375,0.334043025970459,0.06970024108886719,0.05105680227279663
1783152187686569200,0.2115693359375,0.5304498672485352,-0.02587890625,0.046902745962142944
1783152187696274000,0.22127392578125,0.7481727600097656,-0.12066984176635742,-0.014056041836738586
1783152187705978400,0.230978271484375,0.9189438819885254,-0.12079238891601562,-0.08934319019317627
1783152187715713500,0.240713623046875,0.9783873558044434,-0.052425384521484375,-0.13962450623512268
1783152187725448700,0.25044873046875,0.9555320739746094,0.010161399841308594,-0.05427825450897217
1783152187735153200,0.260153076171875,0.9094700813293457,-0.0357813835144043,0.13426627218723297
1783152187744857900,0.26985791015625,0.8834900856018066,-0.06980276107788086,0.2929528057575226
1783152187754562300,0.279562255859375,0.8757514953613281,-0.0861663818359375,0.3840976655483246
1783152187764297500,0.28929736328125,0.8668360710144043,-0.14480257034301758,0.4308168292045593
1783152187774002200,0.299002197265625,0.7976894378662109,-0.2349405288696289,0.46578049659729004
1783152187783706600,0.30870654296875,0.5732879638671875,-0.2785220146179199,0.45320597290992737
1783152187793411300,0.318411376953125,0.28806543350219727,-0.21588850021362305,0.3636206090450287
1783152187803146500,0.328146484375,-0.02143716812133789,-0.11856794357299805,0.24670207500457764
1783152187812851000,0.337850830078125,-0.3918924331665039,-0.0563349723815918,0.1785944104194641
1783152187822555600,0.3475556640625,-0.6659750938415527,-0.020674705505371094,0.11724644899368286
1783152187832260000,0.357260009765625,-0.7909789085388184,0.07240581512451172,0.0646161139011383
1783152187841995300,0.366995361328125,-0.8873262405395508,0.18811941146850586,0.09838375449180603
1783152187851699700,0.37669970703125,-0.9897441864013672,0.15641307830810547,0.2165665328502655
1783152187861404400,0.386404296875,-0.8811120986938477,0.1319575309753418,0.31021246314048767
1783152187871109000,0.396109130859375,-0.6856236457824707,0.1760554313659668,0.33635565638542175
1783152187880844000,0.405843994140625,-0.5109233856201172,0.21826791763305664,0.35469329357147217
1783152187890548700,0.415548828125,-0.44008922576904297,0.21557044982910156,0.4215407967567444
1783152187900253200,0.425253173828125,-0.4060792922973633,0.19136285781860352,0.4999845623970032
1783152187909958000,0.4349580078125,-0.4095115661621094,0.18975067138671875,0.5467489957809448
1783152187919662600,0.44466259765625,-0.4630413055419922,0.2028660774230957,0.5750797986984253
1783152187929397500,0.4543974609375,-0.530606746673584,0.23501157760620117,0.5559722185134888
1783152187939102200,0.464102294921875,-0.5094480514526367,0.28101158142089844,0.47210371494293213
1783152187948806700,0.473806640625,-0.43845367431640625,0.2654404640197754,0.36162883043289185
1783152187958511400,0.483511474609375,-0.5041394233703613,0.22170162200927734,0.23972108960151672
1783152187968246500,0.49324658203125,-0.6186752319335938,0.2551145553588867,-0.023829102516174316
1783152187977951000,0.502950927734375,-0.6690115928649902,0.34780454635620117,-0.2778395116329193
1783152187987655700,0.51265576171875,-0.7738089561462402,0.40790224075317383,-0.4479387700557709
1783152187997360000,0.522360107421875,-0.9585094451904297,0.4348921775817871,-0.5669463872909546
1783152188007095300,0.53209521484375,-1.019536018371582,0.4633798599243164,-0.5297162532806396
1783152188016830500,0.54183056640625,-1.0668072700500488,0.4340057373046875,-0.36899334192276
1783152188026535200,0.55153515625,-1.1114330291748047,0.3138608932495117,-0.16394668817520142
1783152188036239600,0.561239501953125,-1.043982982635498,0.2455425262451172,-0.044370800256729126
1783152188045974800,0.570974853515625,-0.9298582077026367,0.2534770965576172,-0.028301924467086792
1783152188055679200,0.58067919921875,-0.7646551132202148,0.267794132232666,-0.0540236234664917
1783152188065384000,0.590384033203125,-0.5438647270202637,0.27855396270751953,-0.06948345899581909
1783152188075088400,0.60008837890625,-0.6217994689941406,0.257230281829834,-0.062161266803741455
1783152188084823600,0.609823486328125,-0.7507472038269043,0.13146257400512695,-0.041607677936553955
1783152188094528300,0.6195283203125,-0.5138702392578125,0.13268470764160156,-0.08086343109607697
1783152188104232700,0.629232666015625,-0.43132543563842773,0.2369542121887207,-0.15777555108070374
1783152188113937400,0.6389375,-0.31371498107910156,0.23034381866455078,-0.2775646150112152
1783152188123672600,0.648672607421875,-0.36299896240234375,0.09323501586914062,-0.5173938274383545
1783152188133377000,0.658376953125,-0.5255870819091797,0.12265253067016602,-0.4640522599220276
1783152188143081700,0.668081787109375,-0.13824892044067383,0.09174680709838867,-0.3869559168815613
1783152188152786200,0.6777861328125,0.02605295181274414,0.031701087951660156,-0.2834937572479248
1783152188162521300,0.687521240234375,0.0167083740234375,0.13490009307861328,-0.26185840368270874
1783152188172226000,0.69722607421875,-0.04255104064941406,0.12243318557739258,-0.22892922163009644
1783152188181930500,0.706930419921875,-0.09422636032104492,0.08049392700195312,-0.25022411346435547
1783152188191635200,0.71663525390625,-0.1854696273803711,0.06349420547485352,-0.3789084851741791
1783152188201370400,0.726370361328125,0.03652620315551758,0.1825423240661621,-0.5371034145355225
1783152188211074800,0.73607470703125,-0.013999462127685547,0.22243022918701172,-0.5869858860969543
1783152188220779500,0.745779541015625,-0.0865941047668457,0.1949462890625,-0.4905409514904022
1783152188230484000,0.75548388671875,-0.06374073028564453,0.19149112701416016,-0.3400980830192566
1783152188240219100,0.76521923828125,0.004967689514160156,0.23418951034545898,-0.2540940046310425
1783152188249923800,0.774923828125,0.1772608757019043,0.2476959228515625,-0.2018500566482544
1783152188259628300,0.784628173828125,0.28166961669921875,0.27523088455200195,-0.2084406614303589
1783152188269333000,0.7943330078125,0.17548894882202148,0.25296688079833984,-0.23196440935134888
1783152188279068000,0.80406787109375,0.24837160110473633,0.2646794319152832,-0.3668028712272644
1783152188288803000,0.813802978515625,0.5143365859985352,0.380587100982666,-0.5553082227706909
1783152188298507800,0.8235078125,0.8679370880126953,0.49158668518066406,-0.6797854900360107
1783152188308212200,0.833212158203125,1.007162094116211,0.5135459899902344,-0.6206369400024414
1783152188317947400,0.842947509765625,0.9799737930297852,0.39571237564086914,-0.3550557494163513
1783152188327652000,0.852652099609375,1.109847068786621,0.3360309600830078,-0.1783420443534851
1783152188337356500,0.8623564453125,1.2938923835754395,0.42034292221069336,-0.18821579217910767
1783152188347061200,0.872061279296875,1.2689552307128906,0.47435426712036133,-0.2784898281097412
1783152188356765700,0.881765625,1.1503276824951172,0.4660220146179199,-0.35013651847839355
1783152188366500900,0.8915009765625,1.0207242965698242,0.4798603057861328,-0.47306203842163086
1783152188376205600,0.90120556640625,0.9260492324829102,0.5451216697692871,-0.6374387741088867
1783152188385910000,0.910909912109375,0.9943361282348633,0.6294012069702148,-0.8091460466384888
1783152188395614700,0.92061474609375,0.915924072265625,0.7068276405334473,-0.8746310472488403
1783152188405349600,0.930349609375,0.7485523223876953,0.7271060943603516,-0.8746578693389893
1783152188415054300,0.940054443359375,0.9347658157348633,0.8151688575744629,-0.8698947429656982
1783152188424759000,0.949759033203125,1.2524142265319824,0.915499210357666,-0.8201993703842163
1783152188434463500,0.95946337890625,1.4329776763916016,0.9527864456176758,-0.6965196132659912
1783152188444198700,0.96919873046875,1.5594797134399414,0.9542555809020996,-0.5129697322845459
1783152188453903000,0.978903076171875,1.6791434288024902,0.8191237449645996,-0.20924103260040283
1783152188463607800,0.98860791015625,1.6265220642089844,0.5754356384277344,0.14092254638671875
1783152188473312500,0.9983125,1.65492582321167,0.2653474807739258,0.43880558013916016
1783152188483047400,1.00804736328125,1.6383004188537598,0.05591249465942383,0.5806536674499512
1783152188492752100,1.017752197265625,1.5159826278686523,-0.04873847961425781,0.6005401611328125
1783152188502456600,1.02745654296875,1.4529480934143066,-0.17272138595581055,0.6047284603118896
1783152188512161300,1.037161376953125,1.5141754150390625,-0.27971839904785156,0.5763123035430908
1783152188521896400,1.046896484375,1.5550270080566406,-0.6154384613037109,0.6594381332397461
1783152188531601000,1.056600830078125,1.8453469276428223,-1.4010868072509766,0.6313735246658325
1783152188541305600,1.0663056640625,0.694450855255127,0.38550472259521484,-0.6100430488586426
1783152188551010000,1.076010009765625,0.8503327369689941,0.20581388473510742,-0.5738283395767212
1783152188560745200,1.0857451171875,1.5540704727172852,-1.3043317794799805,0.1509772539138794
1783152188570450000,1.095449951171875,0.8602175712585449,-0.4547905921936035,-0.2280482053756714
1783152188580184800,1.105184814453125,0.9847297668457031,-0.7859787940979004,-0.09880542755126953
1783152188589889500,1.1148896484375,1.1705126762390137,-1.1008706092834473,0.07188987731933594
1783152188599624700,1.124624755859375,0.969383716583252,-1.0968728065490723,0.08376526832580566
1783152188619033900,1.144033935546875,0.5571179389953613,-1.2631630897521973,0.0800102949142456
1783152188628738300,1.15373828125,0.5641269683837891,-1.1816864013671875,-0.009846806526184082
1783152188638473500,1.163473388671875,0.8187189102172852,-1.1423611640930176,-0.09162962436676025
1783152188648178200,1.17317822265625,0.9141502380371094,-1.1845922470092773,-0.16024649143218994
1783152188657882600,1.182882568359375,0.5812616348266602,-1.2529029846191406,-0.31594228744506836
1783152188667587300,1.19258740234375,0.46143198013305664,-1.1870522499084473,-0.466900110244751
1783152188677322500,1.202322509765625,1.232347011566162,-1.1801934242248535,-0.510940670967102
1783152188687027000,1.21202685546875,0.7689619064331055,-1.0717506408691406,-0.6794376373291016
1783152188696731600,1.221731689453125,0.34256839752197266,-0.8727946281433105,-0.7011382579803467
1783152188706436000,1.23143603515625,0.451235294342041,-1.3088955879211426,-0.2631920576095581
1783152188716171300,1.241171142578125,0.3250279426574707,-1.2004075050354004,-0.34719324111938477
1783152188725876000,1.2508759765625,-0.24310016632080078,-1.0129032135009766,-0.5508228540420532
1783152188735580400,1.260580322265625,-0.7557234764099121,-0.7341575622558594,-0.9257473945617676
1783152188745285000,1.27028515625,-1.0022611618041992,-1.5641794204711914,-0.6058731079101562
1783152188755020000,1.28002001953125,0.09824943542480469,-3.9810123443603516,-0.07649719715118408
1783152188764724700,1.289724853515625,-0.5387940406799316,-2.290477752685547,-0.387532114982605
1783152188774429400,1.299429443359375,-1.3759756088256836,-3.0974459648132324,0.7388194799423218
1783152188784134000,1.3091337890625,-0.9492592811584473,-1.915146827697754,1.0321011543273926
1783152188793869000,1.318869140625,-1.7637710571289062,-1.4858994483947754,0.5975602865219116
1783152188803573500,1.328573486328125,-1.119107723236084,-1.4166417121887207,0.22545552253723145
1783152188813278200,1.3382783203125,-0.5347352027893066,-1.5447988510131836,0.07746362686157227
1783152188822983000,1.34798291015625,0.14216279983520508,-1.285952091217041,-0.04516160488128662
1783152188832687400,1.357687255859375,0.6209621429443359,-0.40404462814331055,-0.4587596654891968
1783152188842422500,1.367422607421875,0.2559471130371094,0.858551025390625,-1.7487162351608276
1783152188852127000,1.377126953125,0.22781658172607422,2.6844348907470703,-3.457606315612793
1783152188871566800,1.39656689453125,-1.736680030822754,-1.3764729499816895,-0.7441519498825073
1783152188881302000,1.406302001953125,-1.4276361465454102,-1.9762063026428223,-0.46455061435699463
1783152188891006500,1.41600634765625,-0.32236385345458984,-0.6731882095336914,-1.024976372718811
1783152188900711200,1.425711181640625,-0.36800289154052734,-0.5533814430236816,-0.3563419580459595
1783152188910415600,1.43541552734375,-1.0849637985229492,-0.6628232002258301,0.3716244697570801
1783152188920150800,1.44515087890625,-1.5366754531860352,-0.4291248321533203,0.7215194702148438
1783152188929855200,1.454855224609375,-0.43128299713134766,-0.8175225257873535,1.2250926494598389
1783152188939560000,1.464559814453125,1.671492576599121,-1.614499568939209,0.8144490718841553
1783152188949264600,1.4742646484375,-0.5954532623291016,-0.7505531311035156,0.3683309555053711
1783152188968704300,1.493704345703125,-2.6263322830200195,0.599388599395752,-0.31145381927490234
1783152188978408700,1.50340869140625,-0.5039405822753906,0.1762542724609375,-0.4956834316253662
1783152188988113400,1.513113525390625,0.33724498748779297,-0.6803956031799316,-0.07900214195251465
1783152188997818000,1.522818115234375,-3.5130014419555664,-1.7961759567260742,0.19612669944763184
1783152189007553000,1.532552978515625,-1.0128116607666016,-3.0606257915496826,0.18797850608825684
1783152189017257700,1.5422578125,-0.25865745544433594,-2.5854692459106445,-0.41347289085388184
1783152189026962200,1.551962158203125,0.492462158203125,-2.054258346557617,-0.5846927165985107
1783152189036697300,1.561697265625,0.9041204452514648,-1.6822595596313477,0.006385326385498047
1783152189046402000,1.571402099609375,1.5669031143188477,-1.7306041717529297,0.7674112319946289
1783152189056106500,1.5811064453125,2.2984161376953125,-2.314208984375,1.6645023822784424
1783152189065811200,1.590811279296875,2.311857223510742,-2.749166250228882,2.030153512954712
1783152189075546400,1.60054638671875,1.4948930740356445,-2.878021001815796,1.8172128200531006
1783152189085250800,1.610250732421875,-0.3771629333496094,-2.9880659580230713,1.3309001922607422
1783152189094955500,1.61995556640625,-2.96889591217041,-2.7177646160125732,0.533301591873169
1783152189104660000,1.629659912109375,-5.084342956542969,-2.077984571456909,-0.08912384510040283
1783152189114395100,1.63939501953125,-6.427589416503906,-0.8714041709899902,-0.03587222099304199
1783152189124099800,1.649099853515625,-5.433359146118164,0.9118504524230957,-0.09011650085449219
1783152189133804300,1.65880419921875,-3.824101448059082,1.7399425506591797,0.49870890378952026
1783152189143509000,1.668509033203125,-2.017162322998047,1.6857354640960693,0.6319789290428162
1783152189162979000,1.68797900390625,-2.588223457336426,1.2258713245391846,1.131954550743103
1783152189172683800,1.697683837890625,-2.0671939849853516,1.8203308582305908,1.0792421102523804
1783152189182388200,1.70738818359375,-2.9803380966186523,4.579156875610352,-2.792948007583618
1783152189192123400,1.717123291015625,-3.4754505157470703,8.719246864318848,-7.20415735244751
1783152189201828000,1.726828125,-0.7350330352783203,9.253961563110352,-6.7783355712890625
1783152189211532500,1.736532470703125,-0.44915771484375,2.1666905879974365,-0.46637341380119324
1783152189221237200,1.7462373046875,-1.3459110260009766,-2.6140878200531006,3.350501775741577
1783152189230941700,1.755941650390625,-1.849686622619629,-2.205935001373291,2.502354621887207
1783152189240676900,1.7656767578125,-1.4376516342163086,-0.9488184452056885,0.9815371036529541
1783152189250381600,1.775381591796875,-1.0466947555541992,-0.6900076866149902,1.070900321006775
1783152189260086000,1.7850859375,-1.6605186462402344,-0.8897593021392822,1.7470784187316895
1783152189269790700,1.794790771484375,-1.8674983978271484,-1.2644362449645996,2.0596730709075928
1783152189279526000,1.80452587890625,-1.645456314086914,-1.4833118915557861,1.9616955518722534
1783152189289230300,1.814230224609375,-1.27978515625,-1.9661474227905273,1.605729579925537
1783152189298935000,1.82393505859375,-1.2491693496704102,-2.729912281036377,1.231369972229004
1783152189308639500,1.833639404296875,-1.3742189407348633,-3.5597105026245117,0.833287239074707
1783152189318374700,1.843374755859375,-2.00864315032959,-4.464854717254639,0.16626286506652832
1783152189328079400,1.853079345703125,-3.2720117568969727,-5.510366916656494,-0.5404660701751709
1783152189337783800,1.86278369140625,-4.952216148376465,-7.080046653747559,-0.7072904109954834
1783152189347488500,1.872488525390625,-6.285987377166748,-8.328670501708984,-0.7733025550842285
1783152189357223400,1.882223388671875,-7.233926773071289,-9.017438888549805,-0.7161874771118164
1783152189366928100,1.89192822265625,-7.686188220977783,-9.341994285583496,-0.9814743995666504
1783152189376632600,1.901632568359375,-7.869324207305908,-9.609936714172363,-0.6868777275085449
1783152189386337300,1.911337158203125,-8.92143440246582,-9.80195140838623,0.13136577606201172
1783152189396072400,1.921072509765625,-8.618782043457031,-10.013564109802246,0.9322381019592285
1783152189405777000,1.93077685546875,-7.4753618240356445,-11.03797435760498,2.606961727142334
1783152189415481600,1.940481689453125,-5.985965251922607,-12.53198528289795,4.530575275421143
1783152189425186000,1.95018603515625,-3.33130145072937,-13.92686939239502,6.00838565826416
1783152189434921200,1.959921142578125,0.39186549186706543,-15.054303169250488,7.090608596801758
1783152189444656400,1.969656494140625,4.254786491394043,-15.062255859375,6.987953186035156
1783152189454361000,1.979361083984375,7.377381324768066,-13.638439178466797,5.531765937805176
1783152189464065500,1.9890654296875,8.818826675415039,-12.462615966796875,3.9373035430908203
1783152189473800700,1.99880078125,8.90228271484375,-12.049431800842285,2.8446054458618164
1783152189483505200,2.008505126953125,8.593660354614258,-11.747390747070312,2.303858757019043
1783152189493209900,2.0182099609375,8.63830280303955,-11.168145179748535,2.0790205001831055
1783152189502914600,2.02791455078125,9.066548347473145,-10.614212989807129,2.3154802322387695
1783152189512649500,2.0376494140625,9.956851959228516,-10.20004940032959,2.9042043685913086
1783152189532058600,2.05705859375,12.196877479553223,-9.050680160522461,3.930811882019043
1783152189541763300,2.066763427734375,12.66889762878418,-8.267297744750977,4.230318546295166
1783152189551498500,2.07649853515625,12.39550495147705,-7.443238735198975,4.486809730529785
1783152189561203000,2.086202880859375,11.450020790100098,-6.799686431884766,4.9866719245910645
1783152189570907600,2.09590771484375,10.523821830749512,-6.020812511444092,5.700278282165527
1783152189580612000,2.105612060546875,9.553910255432129,-4.9540510177612305,6.286877155303955
1783152189590347300,2.11534716796875,8.727812767028809,-3.851047992706299,7.092631816864014
1783152189600052000,2.125052001953125,7.843997955322266,-2.9133353233337402,7.933863639831543
1783152189609756400,2.13475634765625,6.9915361404418945,-2.033590793609619,8.633191108703613
1783152189629196300,2.1541962890625,5.284970283508301,-0.4936990737915039,9.686599731445312
1783152189648605400,2.17360546875,3.85062313079834,0.4877748489379883,10.137989044189453
1783152189658310000,2.183309814453125,3.2026402950286865,0.6541452407836914,10.297622680664062
1783152189668045000,2.193045166015625,2.7187740802764893,0.583561897277832,10.385095596313477
1783152189677749800,2.202749755859375,2.164537191390991,0.6019525527954102,10.504695892333984
1783152189687454200,2.2124541015625,1.2085554599761963,0.5124645233154297,10.636064529418945
1783152189697159000,2.222158935546875,0.2319483757019043,0.338165283203125,10.586236953735352
1783152189706863400,2.23186328125,-0.8027439117431641,0.0648202896118164,10.46904182434082
1783152189716598500,2.2415986328125,-1.8204326629638672,-0.24812030792236328,10.249401092529297
1783152189726333700,2.251333740234375,-3.0951313972473145,-0.5489659309387207,9.774230003356934
1783152189736038100,2.2610380859375,-4.804479122161865,-1.099980354309082,9.238370895385742
1783152189745742800,2.270742919921875,-6.4309868812561035,-1.9828786849975586,8.647353172302246
1783152189755478000,2.28047802734375,-7.871316432952881,-2.8033032417297363,7.747570991516113
1783152189765182500,2.290182373046875,-9.332383155822754,-3.3119053840637207,6.65690279006958
1783152189774887200,2.29988720703125,-11.145894050598145,-3.7309794425964355,5.337660789489746
1783152189784591600,2.309591552734375,-13.118009567260742,-4.14382266998291,4.037252426147461
1783152189794326800,2.319326904296875,-15.42314624786377,-4.711334228515625,3.0474319458007812
1783152189804031500,2.329031494140625,-17.831871032714844,-5.0774688720703125,1.9752378463745117
1783152189813736000,2.33873583984375,-19.541250228881836,-5.064015865325928,0.8256006240844727
1783152189823440600,2.348440673828125,-20.249448776245117,-5.168712139129639,0.025374412536621094
1783152189833175600,2.358175537109375,-19.81010627746582,-5.32388162612915,-0.49873781204223633
1783152189842880300,2.36788037109375,-18.134904861450195,-5.600249767303467,-0.5625829696655273
1783152189852585000,2.3775849609375,-15.584091186523438,-6.829698085784912,-0.04265642166137695
1783152189862289400,2.387289306640625,-15.416008949279785,-14.703468322753906,0.6658658981323242
1783152189872024600,2.397024658203125,-10.857982635498047,-11.04629135131836,-7.84248685836792
1783152189881729000,2.40672900390625,-4.541294097900391,-10.893972396850586,-10.344559669494629
1783152189891433700,2.416433837890625,-5.181545734405518,-18.22841453552246,-8.231361389160156
1783152189901138400,2.426138427734375,-0.676602840423584,-17.850704193115234,-8.885509490966797
1783152189920578000,2.445578125,11.44564437866211,-6.012084484100342,-13.696776390075684
1783152189930282500,2.455282470703125,15.70693588256836,-1.0723633766174316,-13.047133445739746
1783152189939987200,2.4649873046875,13.202579498291016,-3.682551383972168,-7.68813943862915
1783152189949722400,2.474722412109375,10.584623336791992,-4.739379405975342,-3.390141487121582
1783152189959426800,2.4844267578125,8.480497360229492,-3.8226447105407715,-2.4850564002990723
1783152189969131500,2.494131591796875,5.645374774932861,-3.0053744316101074,-0.5567364692687988
1783152189978836000,2.5038359375,2.1727027893066406,-2.8000106811523438,0.6325950622558594
1783152189988571100,2.513571044921875,-0.3639092445373535,-1.8243188858032227,1.0627069473266602
1783152189998275800,2.52327587890625,-1.8686740398406982,-0.8389678001403809,1.3299598693847656
1783152190008010800,2.5330107421875,-2.8853793144226074,-0.32779407501220703,1.4648985862731934
1783152190017715500,2.542715576171875,-3.34391188621521,0.057622432708740234,1.7726383209228516
1783152190027450600,2.55245068359375,-3.3422229290008545,0.45566606521606445,1.997103214263916
1783152190037155000,2.562155029296875,-3.154416084289551,0.7253851890563965,2.3520474433898926
1783152190046859800,2.57185986328125,-2.8882460594177246,0.89300537109375,2.6919074058532715
1783152190056564200,2.581564208984375,-2.6397910118103027,0.887092113494873,3.1273183822631836
1783152190066269000,2.59126904296875,-2.6271095275878906,0.5756230354309082,3.7546510696411133
1783152190076004000,2.601004150390625,-2.880764961242676,0.1411595344543457,4.1728034019470215
1783152190085708500,2.61070849609375,-3.1783080101013184,-0.18534278869628906,4.260842323303223
1783152190095413200,2.620413330078125,-3.4963154792785645,-0.3858976364135742,4.107121467590332
1783152190105148400,2.6301484375,-3.8861608505249023,-0.5449080467224121,3.854893684387207
1783152190114852900,2.639852783203125,-4.400827884674072,-0.8820037841796875,3.605297565460205
1783152190124557600,2.6495576171875,-4.799638271331787,-1.101090908050537,3.237370014190674
1783152190134262000,2.659261962890625,-5.046138763427734,-1.6173934936523438,3.0445499420166016
1783152190143997200,2.6689970703125,-4.761490345001221,-2.209527015686035,2.827083110809326
1783152190153702000,2.678701904296875,-4.000520706176758,-2.4322285652160645,2.390441417694092
1783152190163406300,2.68840625,-3.046212673187256,-2.548252582550049,1.9761991500854492
1783152190173111000,2.698111083984375,-2.0009450912475586,-2.6775565147399902,1.5685925483703613
1783152190182846000,2.707845947265625,-0.86029052734375,-2.4233016967773438,1.1341900825500488
1783152190192550700,2.717550537109375,0.34050798416137695,-2.0448544025421143,1.1035070419311523
1783152190202255400,2.72725537109375,1.2227458953857422,-1.6687262058258057,1.133397102355957
1783152190211959800,2.736959716796875,1.4145395755767822,-1.4361615180969238,1.2186775207519531
1783152190221664500,2.74666455078125,1.3997979164123535,-1.239211082458496,1.4413909912109375
1783152190231399400,2.7563994140625,1.6087632179260254,-0.965205192565918,1.6364593505859375
1783152190241104100,2.766104248046875,1.9570457935333252,-0.6590390205383301,1.5972461700439453
1783152190250808800,2.775808837890625,2.196554183959961,-0.5101356506347656,1.6105070114135742
1783152190260513300,2.78551318359375,2.4292469024658203,-0.5993373394012451,1.627573013305664
1783152190270248400,2.79524853515625,2.735452175140381,-0.6996874809265137,1.4480838775634766
1783152190279953000,2.804952880859375,3.22597599029541,-0.7829413414001465,1.0056724548339844
1783152190289688000,2.81468798828125,3.8206498622894287,-0.9918868541717529,0.4208106994628906
1783152190299392800,2.824392822265625,4.515674114227295,-1.2757573127746582,-0.22480010986328125
1783152190309128000,2.8341279296875,5.266347408294678,-1.5680747032165527,-0.9254446029663086
1783152190318832400,2.843832275390625,6.041399002075195,-1.7706902027130127,-1.5853586196899414
1783152190328537000,2.853537109375,6.632322311401367,-1.9637463092803955,-2.2704954147338867
1783152190338241500,2.863241455078125,7.051248550415039,-2.1491878032684326,-2.876288414001465
1783152190347976700,2.872976806640625,7.270728588104248,-2.19694447517395,-3.3888778686523438
1783152190357681400,2.882681396484375,7.4203667640686035,-2.005044937133789,-3.856245994567871
1783152190367385900,2.8923857421875,7.412036895751953,-1.6828994750976562,-4.248116493225098
1783152190377090600,2.902090576171875,7.215282440185547,-1.4059607982635498,-4.337087631225586
1783152190386825500,2.911825439453125,6.806931495666504,-1.1231491565704346,-4.188200950622559
1783152190396530200,2.9215302734375,6.307499885559082,-0.821500301361084,-3.7473669052124023
1783152190406234600,2.931234619140625,5.65484619140625,-0.6277873516082764,-3.1187944412231445
1783152190415939300,2.940939208984375,4.900516986846924,-0.5097787380218506,-2.3972463607788086
1783152190425674500,2.950674560546875,4.082602500915527,-0.41938018798828125,-1.5697822570800781
1783152190435379000,2.96037890625,3.309252977371216,-0.30883169174194336,-0.7261857986450195
1783152190445083600,2.970083740234375,2.4637513160705566,-0.18683457374572754,0.18731689453125
1783152190454788000,2.9797880859375,1.6951273679733276,-0.032244205474853516,0.9805269241333008
1783152190464523300,2.989523193359375,1.0915764570236206,0.1124567985534668,1.5995798110961914
1783152190474228000,2.99922802734375,0.6150994300842285,0.16330671310424805,2.1117000579833984
1783152190483932400,3.008932373046875,0.13736379146575928,0.17584013938903809,2.4128799438476562
1783152190493637000,3.01863720703125,-0.3275611400604248,0.1854097843170166,2.519179344177246
1783152190503372300,3.028372314453125,-0.9076404571533203,0.10611200332641602,2.5994720458984375
1783152190513076700,3.03807666015625,-1.665694236755371,-0.03339552879333496,2.7120437622070312
1783152190522781400,3.047781494140625,-2.3767974376678467,0.0652780532836914,2.81343936920166
1783152190532486000,3.05748583984375,-2.882232666015625,0.26955342292785645,2.5689964294433594
1783152190542221000,3.067220947265625,-3.3593602180480957,0.41698169708251953,2.1802597045898438
1783152190551925800,3.07692578125,-3.838887929916382,0.5235300064086914,1.7870349884033203
1783152190561630200,3.086630126953125,-4.172596454620361,0.6369447708129883,1.3888483047485352
1783152190571335000,3.0963349609375,-4.342128276824951,0.7132699489593506,0.9470224380493164
1783152190581070000,3.106070068359375,-4.276989459991455,0.76275634765625,0.4825267791748047
1783152190590805000,3.115804931640625,-4.013008117675781,0.8357222080230713,0.020532608032226562
1783152190600509700,3.125509765625,-3.5545828342437744,0.8428695201873779,-0.39292144775390625
1783152190610214100,3.135214111328125,-2.9419867992401123,0.8484737873077393,-0.7457399368286133
1783152190619949300,3.14494921875,-2.302626609802246,0.8582150936126709,-1.0219049453735352
1783152190629654000,3.154654052734375,-1.707568883895874,0.8485443592071533,-1.251246452331543
1783152190639358500,3.1643583984375,-1.1488776206970215,0.908637523651123,-1.4895849227905273
1783152190649063200,3.174063232421875,-0.6681728363037109,1.0066437721252441,-1.6278772354125977
1783152190658767600,3.183767578125,-0.2545957565307617,1.1130683422088623,-1.7220277786254883
1783152190668502800,3.193502685546875,0.07091641426086426,1.1913683414459229,-1.6985969543457031
1783152190678207500,3.20320751953125,0.1985797882080078,1.3217110633850098,-1.6130971908569336
1783152190687912000,3.212911865234375,0.1521587371826172,1.3833024501800537,-1.4459342956542969
1783152190697616600,3.22261669921875,0.12796926498413086,1.4194724559783936,-1.2632627487182617
1783152190707351800,3.232351806640625,0.01392054557800293,1.3884196281433105,-1.0624237060546875
1783152190717056300,3.24205615234375,-0.16891860961914062,1.3277182579040527,-0.8983993530273438
1783152190726761000,3.251760986328125,-0.4129302501678467,1.2376112937927246,-0.7162752151489258
1783152190736465400,3.26146533203125,-0.6721172332763672,1.0997114181518555,-0.5566425323486328
1783152190746200600,3.27120068359375,-0.9505736827850342,0.9481308460235596,-0.4170551300048828
1783152190755905300,3.2809052734375,-1.1546320915222168,0.7409932613372803,-0.28057384490966797
1783152190765609700,3.290609619140625,-1.295743465423584,0.4985983371734619,-0.12558555603027344
1783152190775314400,3.300314453125,-1.3467624187469482,0.24283647537231445,-0.0024862289428710938
1783152190785049300,3.31004931640625,-1.2490909099578857,-0.020979881286621094,0.13849449157714844
1783152190794754000,3.319754150390625,-1.0511925220489502,-0.31400060653686523,0.2633037567138672
1783152190804458800,3.329458740234375,-0.7648918628692627,-0.5904521942138672,0.39258575439453125
1783152190814163200,3.3391630859375,-0.5192155838012695,-0.8074626922607422,0.5494098663330078
1783152190823898400,3.3488984375,-0.2704300880432129,-0.8998744487762451,0.6480684280395508
1783152190833602800,3.358602783203125,-0.11176609992980957,-0.9880294799804688,0.7740020751953125
1783152190843307500,3.3683076171875,-0.07835769653320312,-0.9868857860565186,0.8937253952026367
1783152190853012000,3.378011962890625,-0.07828450202941895,-0.9066112041473389,1.0413436889648438
1783152190862747100,3.3877470703125,0.02579474449157715,-0.6830687522888184,1.0565500259399414
1783152190872482300,3.397482421875,0.10910534858703613,-0.3761751651763916,1.0287246704101562
1783152190882187000,3.40718701171875,0.18018388748168945,-0.044889211654663086,0.9955873489379883
1783152190891891500,3.416891357421875,0.24635052680969238,0.2885568141937256,0.9318294525146484
1783152190901626600,3.426626708984375,0.18220853805541992,0.6679542064666748,0.8214397430419922
1783152190911331000,3.4363310546875,-0.04656386375427246,1.03712797164917,0.7129764556884766
1783152190921035800,3.446035888671875,-0.327986478805542,1.3025438785552979,0.7201576232910156
1783152190930740500,3.455740478515625,-0.5811569690704346,1.287184715270996,1.0158109664916992
1783152190950180000,3.47518017578125,-0.6213650703430176,0.934502363204956,1.6785011291503906
1783152190959884500,3.484884521484375,-0.6049838066101074,0.745959997177124,2.1064929962158203
1783152190969589200,3.49458935546875,-0.5360107421875,0.4439232349395752,2.574862480163574
1783152190979324400,3.504324462890625,-0.4113144874572754,0.09019827842712402,3.082174301147461
1783152190989028900,3.51402880859375,-0.3334965705871582,-0.30170297622680664,3.5351476669311523
1783152190998733600,3.523733642578125,-0.43012332916259766,-0.6443419456481934,3.8256025314331055
1783152191008438000,3.53343798828125,-0.6410150527954102,-0.9043033123016357,3.861734390258789
1783152191018173200,3.543173095703125,-0.7877101898193359,-0.9872984886169434,3.6146669387817383
1783152191027878000,3.5528779296875,-0.7404401302337646,-0.9159626960754395,3.0509700775146484
1783152191037582300,3.562582275390625,-0.46935343742370605,-0.8030736446380615,2.259657859802246
1783152191047287000,3.572287109375,-0.12372064590454102,-0.6474428176879883,1.397134780883789
1783152191066726700,3.5917265625,1.0021543502807617,-0.27196598052978516,-0.38062286376953125
1783152191076431400,3.601431396484375,1.685899019241333,-0.11105108261108398,-1.2301578521728516
1783152191086135800,3.6111357421875,2.4158623218536377,0.028267860412597656,-2.0376882553100586
1783152191095871000,3.62087109375,3.2020485401153564,0.11231017112731934,-2.6949615478515625
1783152191105575700,3.63057568359375,3.921511173248291,0.2156069278717041,-3.2566394805908203
1783152191115280100,3.640280029296875,4.352094650268555,0.024156808853149414,-3.6297264099121094
1783152191124984800,3.64998486328125,4.862010478973389,-0.3346900939941406,-3.879749298095703
1783152191134689300,3.659689208984375,5.110365867614746,-0.6021289825439453,-4.008909225463867
1783152191144424400,3.669424560546875,5.157203674316406,-0.9590775966644287,-3.855992317199707
1783152191163864000,3.688864013671875,4.442010879516602,-1.85988450050354,-2.8971757888793945
1783152191173568800,3.69856884765625,3.7337541580200195,-2.2869627475738525,-2.1924219131469727
1783152191183304000,3.708303955078125,3.068580389022827,-2.738058567047119,-1.433577537536621
1783152191193008400,3.71800830078125,2.366983652114868,-3.027710199356079,-0.7699794769287109
1783152191202713000,3.727713134765625,1.6253242492675781,-3.11238694190979,-0.1718883514404297
1783152191212417500,3.73741748046875,0.9240093231201172,-3.0009992122650146,0.2393360137939453
1783152191222152700,3.747152587890625,0.4112687110900879,-2.8498587608337402,0.5639209747314453
1783152191231857400,3.756857421875,0.07204818725585938,-2.6383132934570312,0.797337532043457
1783152191241561900,3.766561767578125,-0.19405531883239746,-2.3244433403015137,0.9370794296264648
1783152191251266600,3.7762666015625,-0.4304804801940918,-1.956038236618042,0.9545507431030273
1783152191261001500,3.78600146484375,-0.6415760517120361,-1.56553316116333,0.773951530456543
1783152191270706200,3.7957060546875,-0.7907769680023193,-1.2017273902893066,0.4841156005859375
1783152191280411000,3.805410888671875,-0.8341548442840576,-0.861069917678833,0.1144876480102539
1783152191290115300,3.815115234375,-0.8600313663482666,-0.5456316471099854,-0.3079795837402344
1783152191299850500,3.8248505859375,-0.8986301422119141,-0.31847572326660156,-0.722081184387207
1783152191309555000,3.834554931640625,-1.0015811920166016,-0.14420413970947266,-1.1063404083251953
1783152191319259600,3.844259765625,-1.032715082168579,-0.006336688995361328,-1.4523897171020508
1783152191328964400,3.85396435546875,-0.9826672077178955,0.10196948051452637,-1.706376075744629
1783152191338699300,3.86369921875,-0.9085874557495117,0.18773674964904785,-1.8885326385498047
1783152191348404000,3.873404052734375,-0.7551553249359131,0.2215101718902588,-1.9882802963256836
1783152191358108400,3.8831083984375,-0.5623910427093506,0.17507004737854004,-1.9550294876098633
1783152191367813000,3.892813232421875,-0.3724069595336914,0.06652045249938965,-1.8512029647827148
1783152191377548300,3.90254833984375,-0.14295601844787598,-0.08400297164916992,-1.706009864807129
1783152191387252700,3.912252685546875,0.09040141105651855,-0.23462653160095215,-1.5034751892089844
1783152191396957400,3.92195751953125,0.2660243511199951,-0.3789803981781006,-1.334930419921875
1783152191406662000,3.931661865234375,0.3631758689880371,-0.5504693984985352,-1.1145610809326172
1783152191416397000,3.94139697265625,0.3552262783050537,-0.7229769229888916,-0.9020414352416992
1783152191426101800,3.951101806640625,0.25783419609069824,-0.8698287010192871,-0.7062244415283203
1783152191435837000,3.9608369140625,0.0981602668762207,-0.9756288528442383,-0.5283193588256836
1783152191445541400,3.970541259765625,-0.11832284927368164,-1.033975601196289,-0.42894554138183594
1783152191455276500,3.980276611328125,-0.3336367607116699,-1.020064353942871,-0.3638143539428711
1783152191464981000,3.98998095703125,-0.5009803771972656,-0.9758813381195068,-0.34398841857910156
1783152191474685700,3.999685791015625,-0.59423828125,-0.8603384494781494,-0.34041690826416016
1783152191484390100,4.00939013671875,-0.7300324440002441,-0.7235662937164307,-0.3412485122680664
1783152191494094800,4.0190947265625,-0.8969566822052002,-0.6376566886901855,-0.35830211639404297
1783152191503830000,4.028830078125,-1.0243134498596191,-0.5532636642456055,-0.35566234588623047
1783152191513534500,4.038534423828125,-1.0953011512756348,-0.409060001373291,-0.37665462493896484
1783152191523239200,4.0482392578125,-1.1742007732391357,-0.2916584014892578,-0.45006752014160156
1783152191532974300,4.057974365234375,-1.2779290676116943,-0.18697357177734375,-0.49454212188720703
1783152191542678800,4.0676787109375,-1.3776769638061523,-0.25528645515441895,-0.4601163864135742
1783152191552383500,4.077383544921875,-1.453526258468628,0.06804490089416504,-0.6151065826416016
1783152191562088000,4.087087890625,-1.6152896881103516,0.18151259422302246,-0.6015176773071289
1783152191571792600,4.096792724609375,-1.6702852249145508,0.2214508056640625,-0.5230932235717773
1783152191581527800,4.10652783203125,-1.8102819919586182,0.22818541526794434,-0.38678550720214844
1783152191591232300,4.116232177734375,-1.9634873867034912,0.23358702659606934,-0.2662649154663086
1783152191600937000,4.12593701171875,-2.074160099029541,0.25505709648132324,-0.0984182357788086
1783152191610641400,4.135641357421875,-2.220801591873169,0.22897028923034668,0.08449363708496094
1783152191620376600,4.14537646484375,-2.3487226963043213,0.19239068031311035,0.3246746063232422
1783152191630081300,4.155081298828125,-2.420923948287964,0.16339874267578125,0.5669622421264648
1783152191639785700,4.16478564453125,-2.4376487731933594,0.1620931625366211,0.821345329284668
1783152191649490400,4.174490478515625,-2.364091396331787,0.16951727867126465,1.0860376358032227
1783152191659225600,4.1842255859375,-2.2423267364501953,0.1403827667236328,1.3355731964111328
1783152191668930000,4.193929931640625,-2.115973472595215,0.08673763275146484,1.5262603759765625
1783152191678634800,4.203634765625,-2.0322461128234863,0.04407477378845215,1.710343360900879
1783152191688339200,4.213339111328125,-1.8691768646240234,-0.05294060707092285,1.8562049865722656
1783152191698074400,4.223074462890625,-1.3448803424835205,-0.2851741313934326,1.994070053100586
1783152191707778800,4.23277880859375,-0.6144704818725586,-0.5827820301055908,2.003171920776367
1783152191717483500,4.2424833984375,-0.11989426612854004,-0.7776219844818115,2.0784473419189453
1783152191727218700,4.25221875,0.4769151210784912,-0.7850897312164307,1.9954814910888672
1783152191736953900,4.261953857421875,1.1502766609191895,-0.7380361557006836,1.8628997802734375
1783152191746658300,4.271658203125,1.433060646057129,-0.6866195201873779,1.7818517684936523
1783152191756363000,4.281363037109375,1.3019626140594482,-0.6903588771820068,1.7824821472167969
1783152191766067500,4.2910673828125,1.277008056640625,-0.3589205741882324,1.8192825317382812
1783152191775802600,4.300802734375,1.0989296436309814,0.03968477249145508,1.7662696838378906
1783152191785507300,4.31050732421875,1.088585376739502,0.16184401512145996,1.7775754928588867
1783152191795211800,4.320211669921875,1.0314216613769531,0.29186034202575684,1.8550901412963867
1783152191804916500,4.32991650390625,1.08585786819458,0.4649465084075928,1.9330835342407227
1783152191814651400,4.3396513671875,1.2190818786621094,0.5605218410491943,1.875777244567871
1783152191824356000,4.349356201171875,1.2986023426055908,0.6116650104522705,1.7075138092041016
1783152191834060800,4.359060791015625,1.313464879989624,0.5604681968688965,1.3719100952148438
1783152191843765200,4.36876513671875,1.406414270401001,0.4118633270263672,0.8601837158203125
1783152191853500400,4.37850048828125,1.5514252185821533,0.23784923553466797,0.20885181427001953
1783152191863204900,4.388204833984375,1.6832854747772217,0.028055429458618164,-0.5246734619140625
1783152191872909600,4.39790966796875,1.8854281902313232,-0.2216184139251709,-1.2388191223144531
1783152191882614300,4.4076142578125,2.1146817207336426,-0.5061080455780029,-1.8616151809692383
1783152191892349200,4.41734912109375,2.359004497528076,-0.7608299255371094,-2.3791399002075195
1783152191902054000,4.427053955078125,2.5563197135925293,-0.7259035110473633,-2.8389577865600586
1783152191911758300,4.43675830078125,2.804769515991211,-1.1808931827545166,-3.0154056549072266
1783152191921463000,4.446463134765625,3.182497978210449,-1.3477015495300293,-3.152886390686035
1783152191931198200,4.4561982421875,3.3923394680023193,-1.3344264030456543,-3.1587791442871094
1783152191940902700,4.465902587890625,3.6946120262145996,-1.3168187141418457,-3.10638427734375
1783152191950607400,4.475607421875,3.8668692111968994,-1.2713756561279297,-2.8897266387939453
1783152191960311800,4.485311767578125,3.922316312789917,-1.1553122997283936,-2.5490522384643555
1783152191970047000,4.495046875,3.886016607284546,-1.0137710571289062,-2.098668098449707
1783152191979751700,4.504751708984375,3.7358596324920654,-0.861732006072998,-1.6468963623046875
1783152191989456100,4.5144560546875,3.396721363067627,-0.6755542755126953,-1.2304620742797852
1783152191999160800,4.524160888671875,2.838669776916504,-0.5440566539764404,-0.7523412704467773
1783152192008896000,4.53389599609375,2.2043616771698,-0.38910770416259766,-0.2777376174926758
1783152192018631000,4.543630859375,1.5369398593902588,-0.21730923652648926,0.1600475311279297
1783152192028335600,4.553335693359375,0.8864345550537109,-0.058399200439453125,0.5472049713134766
1783152192038040000,4.5630400390625,0.3336312770843506,0.08028888702392578,0.8130626678466797
1783152192047775200,4.572775146484375,-0.033806800842285156,0.22696971893310547,0.9223508834838867
1783152192057480000,4.58247998046875,-0.305757999420166,0.31065869331359863,0.9934968948364258
1783152192067184400,4.592184326171875,-0.5290498733520508,0.3684074878692627,1.010324478149414
1783152192076889000,4.60188916015625,-0.7654783725738525,0.4257521629333496,0.9783868789672852
1783152192086624300,4.611624267578125,-1.0650482177734375,0.501659631729126,0.9446334838867188
1783152192096328700,4.62132861328125,-1.3909075260162354,0.6275103092193604,0.8729839324951172
1783152192106033400,4.631033447265625,-1.5284266471862793,0.8377768993377686,0.7281017303466797
1783152192115737900,4.64073779296875,-1.590749740600586,1.000413179397583,0.5267667770385742
1783152192125442600,4.650442626953125,-1.6484193801879883,1.1529185771942139,0.33595752716064453
1783152192135177700,4.660177734375,-1.6428887844085693,1.2772212028503418,0.11089229583740234
1783152192144882200,4.669882080078125,-1.5691542625427246,1.388381004333496,-0.09736347198486328
1783152192154587000,4.6795869140625,-1.398634910583496,1.4563329219818115,-0.2566995620727539
1783152192164291300,4.689291259765625,-1.3751723766326904,1.559690237045288,-0.4523277282714844
1783152192174026500,4.699026611328125,-1.3077421188354492,1.5374057292938232,-0.46780967712402344
1783152192183731200,4.708731201171875,-1.1430277824401855,1.636251449584961,-0.5288820266723633
1783152192193435600,4.718435546875,-1.0121231079101562,1.6657657623291016,-0.5072383880615234
1783152192203140400,4.728140380859375,-0.9318687915802002,1.7044613361358643,-0.4541492462158203
1783152192212875300,4.737875244140625,-0.9985816478729248,1.7329800128936768,-0.3847084045410156
1783152192222580000,4.747580078125,-1.1634929180145264,1.739886999130249,-0.2785205841064453
1783152192232284700,4.75728466796875,-1.3204820156097412,1.7662990093231201,-0.1988992691040039
1783152192241989000,4.766989013671875,-1.4938924312591553,1.8303377628326416,-0.1446981430053711
1783152192251724300,4.776724365234375,-1.7504231929779053,1.8321337699890137,-0.05476665496826172
1783152192261428700,4.7864287109375,-2.058784008026123,1.7728593349456787,0.046120643615722656
1783152192271133400,4.796133544921875,-2.403191089630127,1.6920480728149414,0.10046195983886719
1783152192280838100,4.805838134765625,-2.706779718399048,1.588890790939331,0.09680938720703125
1783152192290573000,4.815572998046875,-2.9822263717651367,1.469700574874878,0.050464630126953125
1783152192300308200,4.82530810546875,-3.1327104568481445,1.3094511032104492,-0.027947425842285156
1783152192310013000,4.835012939453125,-3.1020941734313965,1.1286921501159668,-0.1039743423461914
1783152192319717400,4.84471728515625,-2.948582172393799,0.9313549995422363,-0.1409292221069336
1783152192329452500,4.85445263671875,-2.6997861862182617,0.7066304683685303,-0.19040966033935547
1783152192339157000,4.864156982421875,-2.2833638191223145,0.4843292236328125,-0.19395828247070312
1783152192348861700,4.87386181640625,-1.7335093021392822,0.22765207290649414,-0.16753768920898438
1783152192358566400,4.88356640625,-0.9743096828460693,-0.04514789581298828,-0.03400707244873047
1783152192368301300,4.89330126953125,-0.06129789352416992,-0.22083711624145508,0.18547534942626953
1783152192378006000,4.903006103515625,0.8018448352813721,-0.12127447128295898,0.34743499755859375
1783152192387710500,4.91271044921875,1.5229263305664062,0.028444528579711914,0.5202579498291016
1783152192397415200,4.922415283203125,2.1687612533569336,0.2376565933227539,0.7167978286743164
1783152192407150300,4.932150390625,2.4011850357055664,0.4482901096343994,1.022317886352539
1783152192416854800,4.941854736328125,2.298969268798828,0.6677942276000977,1.3046903610229492
1783152192426559500,4.9515595703125,1.92885422706604,0.7919957637786865,1.5754823684692383
1783152192436264000,4.961263916015625,1.427485704421997,0.8927915096282959,1.8551387786865234
1783152192445999000,4.9709990234375,0.9128983020782471,0.8731255531311035,2.2490482330322266
1783152192455703800,4.980703857421875,0.4921596050262451,0.7101242542266846,2.593669891357422
1783152192465408300,4.990408203125,0.05874776840209961,0.6162450313568115,2.922471046447754
1783152192475113000,5.000113037109375,-0.21513938903808594,0.4294009208679199,3.3133792877197266
1783152192484848000,5.00984814453125,-0.34612178802490234,0.1282045841217041,3.6155920028686523
1783152192494552600,5.019552490234375,-0.41722822189331055,-0.1557326316833496,3.83231258392334
1783152192504257300,5.02925732421875,-0.5318005084991455,-0.3664894104003906,3.931992530822754
1783152192513961700,5.038961669921875,-0.7161316871643066,-0.5049188137054443,3.8912248611450195
1783152192523697000,5.04869677734375,-0.928713321685791,-0.6099398136138916,3.586170196533203
1783152192533401600,5.058401611328125,-1.0829737186431885,-0.6278400421142578,2.927927017211914
1783152192543106000,5.06810595703125,-1.0272915363311768,-0.42604565620422363,2.0644655227661133
1783152192552810800,5.077810791015625,-0.7020223140716553,-0.10645222663879395,1.1872711181640625
1783152192562545700,5.087545654296875,-0.24056220054626465,0.20363545417785645,0.2966632843017578
1783152192572250400,5.09725048828125,0.2506992816925049,0.5087058544158936,-0.49169158935546875
1783152192581985500,5.106985595703125,0.8086316585540771,0.716289758682251,-1.2554292678833008
1783152192591690000,5.11668994140625,1.335524320602417,0.9807338714599609,-1.9536466598510742
1783152192601425200,5.126425048828125,1.725440263748169,1.1723568439483643,-2.556488037109375
1783152192611129900,5.1361298828125,2.140225410461426,1.1383254528045654,-3.0572690963745117
1783152192620834300,5.145834228515625,2.4844536781311035,1.161104440689087,-3.4635114669799805
1783152192630539000,5.1555390625,2.883028984069824,1.07454514503479,-3.771261215209961
1783152192640243500,5.165243408203125,3.249877691268921,0.9342894554138184,-3.9189748764038086
1783152192649978600,5.174978515625,3.4725704193115234,0.6571986675262451,-3.8847761154174805
1783152192659683300,5.184683349609375,3.668761730194092,0.273301362991333,-3.717130661010742
1783152192669387800,5.1943876953125,3.6736669540405273,-0.2990236282348633,-3.2001304626464844
1783152192679092500,5.204092529296875,3.5181996822357178,-1.0005521774291992,-2.5308895111083984
1783152192688827600,5.21382763671875,3.2530336380004883,-1.7475576400756836,-1.7408866882324219
1783152192698532000,5.223531982421875,2.8617286682128906,-2.422407865524292,-0.9187984466552734
1783152192708236800,5.23323681640625,2.4017281532287598,-3.1406116485595703,-0.037174224853515625
1783152192717941200,5.242941162109375,1.837794303894043,-3.719228744506836,0.6490144729614258
1783152192727676400,5.252676513671875,1.2613420486450195,-3.9940106868743896,1.1026382446289062
1783152192737380900,5.262380859375,0.8580749034881592,-3.9332940578460693,1.331040382385254
1783152192747085600,5.27208544921875,0.4551265239715576,-3.645562171936035,1.3548870086669922
1783152192756790300,5.281790283203125,0.08439278602600098,-3.217949151992798,1.2561206817626953
1783152192766525200,5.291525146484375,-0.07704019546508789,-2.717588424682617,1.0441503524780273
1783152192776230000,5.30122998046875,-0.11030006408691406,-2.16637921333313,0.7871246337890625
1783152192785934300,5.310934326171875,-0.1618211269378662,-1.6446101665496826,0.5057687759399414
1783152192795639000,5.32063916015625,-0.1931016445159912,-1.191028356552124,0.16458892822265625
1783152192805374200,5.330374267578125,-0.12416553497314453,-0.7802810668945312,-0.18643474578857422
1783152192815078700,5.34007861328125,0.024852991104125977,-0.49088025093078613,-0.5369348526000977
1783152192824783400,5.349783447265625,0.2346196174621582,-0.30667805671691895,-0.7967758178710938
1783152192834487800,5.35948779296875,0.5282549858093262,-0.1590120792388916,-1.057199478149414
1783152192844223000,5.369222900390625,0.7757256031036377,-0.029772520065307617,-1.3161964416503906
1783152192853927700,5.378927734375,1.0074059963226318,0.02936697006225586,-1.5337562561035156
1783152192863632100,5.388632080078125,1.2077176570892334,0.12167072296142578,-1.6610708236694336
1783152192873367300,5.3983671875,1.112851858139038,0.09824037551879883,-1.7712230682373047
1783152192883102500,5.4081025390625,1.0812177658081055,0.019683361053466797,-1.7899799346923828
1783152192892807000,5.417806884765625,0.933525562286377,-0.06423807144165039,-1.7261857986450195
1783152192902511600,5.42751171875,0.8077602386474609,-0.20019221305847168,-1.621993064880371
1783152192912216300,5.43721630859375,0.6072490215301514,-0.3574821949005127,-1.491145133972168
1783152192921951200,5.446951171875,0.32747673988342285,-0.5636944770812988,-1.2736616134643555
1783152192931656000,5.456656005859375,-0.0658426284790039,-0.839637041091919,-1.0146961212158203
1783152192941360400,5.4663603515625,-0.42856359481811523,-1.0838139057159424,-0.7772455215454102
1783152192951065000,5.476065185546875,-0.7880077362060547,-1.260087490081787,-0.5759639739990234
1783152192960800300,5.48580029296875,-1.2450010776519775,-1.4336223602294922,-0.39403820037841797
1783152192970504700,5.495504638671875,-1.6997928619384766,-1.5966951847076416,-0.2882366180419922
1783152192980209400,5.50520947265625,-2.0701637268066406,-1.6816961765289307,-0.28146839141845703
1783152192989913900,5.514913818359375,-2.387404441833496,-1.7239139080047607,-0.2420644760131836
1783152192999649000,5.52464892578125,-2.677919387817383,-1.7206976413726807,-0.18684768676757812
1783152193009353700,5.534353759765625,-2.8802242279052734,-1.621272087097168,-0.15041160583496094
1783152193019058200,5.54405810546875,-2.9861207008361816,-1.4371588230133057,-0.1542072296142578
1783152193028763000,5.553762939453125,-2.9411158561706543,-1.2024812698364258,-0.11917400360107422
1783152193038498000,5.563498046875,-2.690661668777466,-0.953596830368042,-0.06293392181396484
1783152193048202500,5.573202392578125,-2.3018839359283447,-0.6305646896362305,-0.06419944763183594
1783152193057907200,5.5829072265625,-1.8974831104278564,-0.31299853324890137,-0.08793354034423828
1783152193067611600,5.592611572265625,-1.5460214614868164,-0.025430917739868164,-0.10680007934570312
1783152193077316400,5.60231640625,-1.248927116394043,0.2388451099395752,-0.107940673828125
1783152193087051500,5.612051513671875,-1.1055400371551514,0.4420430660247803,-0.12350845336914062
1783152193096756000,5.621755859375,-1.0257573127746582,0.6073236465454102,-0.12097644805908203
1783152193106460700,5.631460693359375,-1.0572659969329834,0.8199443817138672,-0.15657806396484375
1783152193116165000,5.6411650390625,-1.0796868801116943,0.9525105953216553,-0.17832088470458984
1783152193125900300,5.650900390625,-1.1961028575897217,1.041818618774414,-0.21061229705810547
1783152193135605000,5.66060498046875,-1.3451294898986816,1.108607292175293,-0.20560646057128906
1783152193145309400,5.670309326171875,-1.5757899284362793,1.1208217144012451,-0.10121440887451172
1783152193155044600,5.680044677734375,-1.7335829734802246,1.0818719863891602,0.042420387268066406
1783152193164779800,5.68977978515625,-1.890988826751709,1.0150249004364014,0.2037944793701172
1783152193174484200,5.699484130859375,-1.9874002933502197,0.9583358764648438,0.4024991989135742
1783152193184189000,5.70918896484375,-2.0665283203125,0.8538196086883545,0.6895742416381836
1783152193193893400,5.718893310546875,-2.1715805530548096,0.6781530380249023,0.9681158065795898
1783152193203628500,5.728628662109375,-2.265119791030884,0.5217568874359131,1.1747636795043945
1783152193213333200,5.738333251953125,-2.234281063079834,0.4203352928161621,1.3078832626342773
1783152193223037700,5.74803759765625,-2.1809656620025635,0.30440211296081543,1.4221572875976562
1783152193232742400,5.757742431640625,-1.9454948902130127,0.11855459213256836,1.5309762954711914
1783152193242477300,5.767477294921875,-1.4316539764404297,-0.13825368881225586,1.5865535736083984
1783152193252182000,5.77718212890625,-0.7589006423950195,-0.3760983943939209,1.6005773544311523
1783152193261886700,5.78688671875,-0.09972000122070312,-0.5612320899963379,1.6336021423339844
1783152193271591200,5.796591064453125,0.5619411468505859,-0.7024760246276855,1.6193580627441406
1783152193281326300,5.806326416015625,1.1699986457824707,-0.6519076824188232,1.587214469909668
1783152193291030800,5.81603076171875,1.6388227939605713,-0.24193191528320312,1.4713659286499023
1783152193300735500,5.825735595703125,2.1080236434936523,0.15595221519470215,1.6066560745239258
1783152193310440200,5.835440185546875,2.259938955307007,0.5259768962860107,2.0070362091064453
1783152193320175000,5.845175048828125,2.2419281005859375,0.6688969135284424,2.610283851623535
1783152193329879800,5.8548798828125,2.218229293823242,0.8908295631408691,3.1536035537719727
1783152193339584300,5.864584228515625,2.286763906478882,1.1187872886657715,3.6670408248901367
1783152193349289000,5.8742890625,2.4297680854797363,1.257216453552246,3.9723024368286133
1783152193359024000,5.884024169921875,2.5487794876098633,1.323430061340332,3.984889030456543
1783152193368728600,5.893728515625,2.635483503341675,1.2676701545715332,3.834095001220703
1783152193378433300,5.903433349609375,2.613819122314453,1.101304054260254,3.3733911514282227
1783152193388137700,5.9131376953125,2.6587929725646973,0.8943161964416504,2.6656484603881836
1783152193397873000,5.922872802734375,2.6344165802001953,0.588219165802002,1.8557443618774414
1783152193407577600,5.93257763671875,2.5144429206848145,0.26168394088745117,1.072178840637207
1783152193417282000,5.942281982421875,2.4914181232452393,-0.046507835388183594,0.22559547424316406
1783152193426986800,5.95198681640625,2.51912784576416,-0.299060583114624,-0.5341024398803711
1783152193436722000,5.961721923828125,2.5631792545318604,-0.5370104312896729,-1.2004451751708984
1783152193446456800,5.971456787109375,2.620016574859619,-0.7488501071929932,-1.7838191986083984
1783152193456161500,5.98116162109375,2.8010149002075195,-0.691378116607666,-2.4403562545776367
1783152193465866000,5.990865966796875,2.8664164543151855,-0.9078118801116943,-2.8122596740722656
1783152193475601200,6.00060107421875,3.1283984184265137,-1.2651965618133545,-3.125835418701172
1783152193485305900,6.010305908203125,3.1991100311279297,-1.2724299430847168,-3.4722843170166016
1783152193495010300,6.02001025390625,3.2581117153167725,-1.176349401473999,-3.74643611907959
1783152193504715000,6.029715087890625,3.28690767288208,-1.1525092124938965,-3.891007423400879
1783152193514450200,6.0394501953125,3.0564422607421875,-1.096179723739624,-3.882697105407715
1783152193524154600,6.049154541015625,2.7442328929901123,-1.015197515487671,-3.6623716354370117
1783152193533859300,6.058859375,2.2901806831359863,-0.8867478370666504,-3.2353620529174805
1783152193543563800,6.068563720703125,1.6773803234100342,-0.7768211364746094,-2.6953210830688477
1783152193553268500,6.0782685546875,1.0468804836273193,-0.6955854892730713,-2.014385223388672
1783152193563003600,6.088003662109375,0.4742445945739746,-0.6777124404907227,-1.2968378067016602
1783152193572708000,6.0977080078125,-0.11963081359863281,-0.6675360202789307,-0.6335439682006836
1783152193582412800,6.107412841796875,-0.8028273582458496,-0.6013748645782471,0.05219745635986328
1783152193592117200,6.1171171875,-1.4153077602386475,-0.4821007251739502,0.6653509140014648
1783152193601852400,6.126852294921875,-1.953667402267456,-0.40247440338134766,1.1235008239746094
1783152193611557000,6.13655712890625,-2.4352829456329346,-0.3393747806549072,1.3850669860839844
1783152193621261600,6.146261474609375,-2.8923416137695312,-0.35493969917297363,1.5665168762207031
1783152193630966300,6.15596630859375,-3.30570650100708,-0.4105358123779297,1.666712760925293
1783152193640701200,6.165701171875,-3.7541353702545166,-0.4165914058685303,1.6442718505859375
1783152193650406000,6.175406005859375,-4.140600204467773,-0.3178691864013672,1.6069049835205078
1783152193660110600,6.185110595703125,-4.382678985595703,-0.16583585739135742,1.5226268768310547
1783152193669815000,6.19481494140625,-4.511664390563965,-0.021391868591308594,1.4174613952636719
1783152193689254700,6.214254638671875,-4.381591320037842,0.28037023544311523,1.2531547546386719
1783152193698959400,6.22395947265625,-3.8977694511413574,0.4728662967681885,1.1345329284667969
1783152193708664000,6.2336640625,-3.274880886077881,0.6283152103424072,0.9989051818847656
1783152193718399000,6.24339892578125,-2.626028537750244,0.6953473091125488,0.8509540557861328
1783152193728134100,6.253134033203125,-1.8678185939788818,0.7867221832275391,0.7044744491577148
1783152193737838800,6.2628388671875,-1.1732511520385742,0.8991982936859131,0.5530424118041992
1783152193747543300,6.272543212890625,-0.6783814430236816,1.0230317115783691,0.39735984802246094
1783152193757278500,6.282278564453125,-0.271465539932251,1.139648199081421,0.27195262908935547
1783152193766983200,6.291983154296875,0.0032896995544433594,1.2234408855438232,0.22343826293945312
1783152193776687600,6.3016875,0.12958455085754395,1.2731339931488037,0.20807838439941406
1783152193786392300,6.311392333984375,0.09378743171691895,1.43611478805542,0.11792278289794922
1783152193796127200,6.321127197265625,0.019780874252319336,1.5718958377838135,0.1135091781616211
1783152193805832000,6.33083203125,-0.14281034469604492,1.6542627811431885,0.12785911560058594
1783152193815536400,6.340536376953125,-0.4419713020324707,1.6276617050170898,0.22853660583496094
1783152193825241000,6.350240966796875,-0.8279714584350586,1.6371924877166748,0.3040475845336914
1783152193834976300,6.359976318359375,-1.2305488586425781,1.6361334323883057,0.3912820816040039
1783152193844680700,6.3696806640625,-1.6469027996063232,1.5849604606628418,0.4603567123413086
1783152193854385400,6.379385498046875,-1.9708783626556396,1.575688362121582,0.5122604370117188
1783152193864089900,6.38908984375,-2.241074562072754,1.5378170013427734,0.5213174819946289
1783152193873825000,6.398824951171875,-2.3949666023254395,1.5033249855041504,0.5450248718261719
1783152193883529700,6.40852978515625,-2.4815514087677,1.4391450881958008,0.5423679351806641
1783152193893234200,6.418234130859375,-2.490020751953125,1.3978855609893799,0.5248861312866211
1783152193902939000,6.42793896484375,-2.3736231327056885,1.3936362266540527,0.48712825775146484
1783152193912674000,6.437674072265625,-2.202476978302002,1.3547875881195068,0.42858314514160156
1783152193922378500,6.44737841796875,-2.02017879486084,1.333456039428711,0.4247426986694336
1783152193932083200,6.457083251953125,-1.8277029991149902,1.326476812362671,0.4675254821777344
1783152193941787600,6.46678759765625,-1.5911040306091309,1.3377599716186523,0.5037918090820312
1783152193951522800,6.476522705078125,-1.364975929260254,1.367363691329956,0.5501909255981445
1783152193961227500,6.4862275390625,-1.2079453468322754,1.4035255908966064,0.6288747787475586
1783152193970932000,6.495931884765625,-1.0376160144805908,1.4277760982513428,0.7668876647949219
1783152193980636700,6.50563671875,-0.7871894836425781,1.3926124572753906,1.0286865234375
1783152193990371800,6.515371826171875,-0.4629852771759033,1.3460159301757812,1.3316802978515625
1783152194000076300,6.525076171875,-0.0563206672668457,1.364438772201538,1.6434497833251953
1783152194009811500,6.5348115234375,0.2577524185180664,1.4344696998596191,1.9999198913574219
1783152194019516000,6.544515869140625,0.3012270927429199,1.4859371185302734,2.357008934020996
1783152194029251000,6.5542509765625,0.2203378677368164,1.550269603729248,2.7045440673828125
1783152194038955800,6.563955810546875,0.12347650527954102,1.662247657775879,2.9365053176879883
1783152194048660200,6.57366015625,-0.004973173141479492,1.8461332321166992,3.032501220703125
1783152194058365000,6.583364990234375,-0.12436199188232422,1.9620070457458496,3.0761537551879883
1783152194068100000,6.59310009765625,-0.20020318031311035,2.0181875228881836,3.0375967025756836
1783152194077804500,6.602804443359375,-0.27322864532470703,2.075479507446289,2.853327751159668
1783152194087509200,6.61250927734375,-0.29038238525390625,2.1646199226379395,2.527231216430664
1783152194097213700,6.622213623046875,-0.09971451759338379,2.1351919174194336,2.1967687606811523
1783152194106918400,6.63191845703125,0.15023374557495117,2.034470558166504,1.8600530624389648
1783152194116653600,6.641653564453125,0.4135568141937256,1.9124407768249512,1.4948701858520508
1783152194126358000,6.65135791015625,0.5637998580932617,1.8238482475280762,1.1114425659179688
1783152194136062700,6.661062744140625,0.5999753475189209,1.6859683990478516,0.7257318496704102
1783152194145767200,6.67076708984375,0.5294477939605713,1.4908218383789062,0.3894014358520508
1783152194155502300,6.68050244140625,0.3542811870574951,1.2827634811401367,0.06740093231201172
1783152194165207000,6.69020703125,0.1194303035736084,1.0636491775512695,-0.24702167510986328
1783152194174911500,6.699911376953125,-0.10915398597717285,0.821556568145752,-0.4654827117919922
1783152194184616200,6.7096162109375,-0.28605103492736816,0.4896430969238281,-0.5957508087158203
1783152194194351000,6.71935107421875,-0.3639862537384033,0.1843721866607666,-0.6696805953979492
1783152194204055800,6.729055908203125,-0.31156253814697266,-0.09577441215515137,-0.7141485214233398
1783152194213760500,6.738760498046875,-0.1081380844116211,-0.34850168228149414,-0.7179069519042969
1783152194223465000,6.74846484375,0.1772770881652832,-0.6714792251586914,-0.6905984878540039
1783152194242904600,6.767904541015625,0.8720190525054932,-1.2211227416992188,-0.5942916870117188
1783152194252609300,6.777609375,1.1527414321899414,-1.4133167266845703,-0.5767850875854492
1783152194262313700,6.787313720703125,1.6173021793365479,-1.688847303390503,-0.502446174621582
1783152194272049000,6.797048828125,1.929865837097168,-1.7950706481933594,-0.5479011535644531
1783152194281753600,6.806753662109375,2.1719048023223877,-1.9262137413024902,-0.5657472610473633
1783152194291458000,6.8164580078125,2.2757983207702637,-1.991898775100708,-0.5769538879394531
1783152194301193200,6.826193115234375,2.4049341678619385,-2.074408769607544,-0.5882453918457031
1783152194310928400,6.835928466796875,2.4781782627105713,-2.182904005050659,-0.6635351181030273
1783152194320632800,6.8456328125,2.4191532135009766,-2.2545292377471924,-0.7422952651977539
1783152194330337500,6.855337646484375,2.299579381942749,-2.281609058380127,-0.8858432769775391
1783152194340042200,6.865042236328125,2.081875801086426,-2.279982566833496,-1.0455617904663086
1783152194349777200,6.874777099609375,1.7917275428771973,-2.2700448036193848,-1.1467370986938477
1783152194359481900,6.88448193359375,1.365720272064209,-2.210132598876953,-1.2058467864990234
1783152194369186300,6.894186279296875,0.9064044952392578,-2.092613935470581,-1.2349357604980469
1783152194378891000,6.90389111328125,0.4748833179473877,-1.9315416812896729,-1.2225971221923828
1783152194388626200,6.913626220703125,0.09425902366638184,-1.7893993854522705,-1.1579017639160156
1783152194398330600,6.92333056640625,-0.23614096641540527,-1.6651439666748047,-1.085439682006836
1783152194408035300,6.933035400390625,-0.4411051273345947,-1.5098509788513184,-1.0329265594482422
1783152194417739800,6.94273974609375,-0.5765764713287354,-1.3698959350585938,-0.9636526107788086
1783152194427475000,6.952474853515625,-0.6394009590148926,-1.276944875717163,-0.9029092788696289
1783152194437179600,6.9621796875,-0.6819069385528564,-1.183854341506958,-0.8591156005859375
1783152194446884000,6.971884033203125,-0.6741688251495361,-1.0576884746551514,-0.8330583572387695
1783152194456588800,6.9815888671875,-0.680504560470581,-0.9964900016784668,-0.7653131484985352
1783152194466324000,6.991323974609375,-0.6623959541320801,-0.9669475555419922,-0.6699075698852539
1783152194476028400,7.0010283203125,-0.6420910358428955,-0.8735144138336182,-0.6367244720458984
1783152194485733000,7.010733154296875,-0.6107177734375,-0.8181140422821045,-0.5425682067871094
1783152194495437600,7.0204375,-0.6140992641448975,-0.7692427635192871,-0.4294776916503906
1783152194505172700,7.0301728515625,-0.6142957210540771,-0.700537919998169,-0.36108970642089844
1783152194514877400,7.03987744140625,-0.6376171112060547,-0.6287522315979004,-0.26249217987060547
1783152194524582000,7.049581787109375,-0.6525850296020508,-0.49450063705444336,-0.15952301025390625
1783152194534286600,7.05928662109375,-0.6095151901245117,-0.38442230224609375,-0.11194515228271484
1783152194544021500,7.069021484375,-0.5524964332580566,-0.2891964912414551,-0.04613018035888672
1783152194553726200,7.078726318359375,-0.544058084487915,-0.1616683006286621,-0.03704547882080078
1783152194563431000,7.088430908203125,-0.5253901481628418,-0.030382156372070312,-0.029954910278320312
1783152194573135400,7.09813525390625,-0.5817527770996094,0.10489034652709961,-0.003482818603515625
1783152194582870500,7.10787060546875,-0.6918387413024902,0.25368452072143555,0.0615234375
1783152194592605700,7.117605712890625,-0.8032705783843994,0.44188404083251953,0.0766286849975586
1783152194602310100,7.12731005859375,-0.9108011722564697,0.6745510101318359,0.08255386352539062
1783152194612014800,7.137014892578125,-1.0712242126464844,0.8542523384094238,0.13909339904785156
1783152194621719300,7.14671923828125,-1.2960915565490723,0.9930901527404785,0.23413372039794922
1783152194631454500,7.156454345703125,-1.4157066345214844,1.0832633972167969,0.30991268157958984
1783152194641159200,7.1661591796875,-1.6187329292297363,1.4774398803710938,0.3293581008911133
1783152194650863600,7.175863525390625,-1.8401503562927246,1.4961271286010742,0.5223627090454102
1783152194670303200,7.19530322265625,-2.032517433166504,1.7888102531433105,0.7971506118774414
1783152194680008000,7.205008056640625,-2.11112642288208,1.8562798500061035,0.9086885452270508
1783152194689712600,7.214712646484375,-2.2113759517669678,1.8975310325622559,1.0482301712036133
1783152194699417000,7.2244169921875,-2.2766449451446533,1.9094429016113281,1.1176633834838867
1783152194709152300,7.23415234375,-2.281102180480957,1.9560022354125977,1.138493537902832
1783152194718856700,7.243856689453125,-2.2960329055786133,1.8793339729309082,1.1821012496948242
1783152194728561400,7.2535615234375,-2.252000093460083,1.795989990234375,1.1883459091186523
1783152194738266000,7.26326611328125,-2.196340560913086,1.6767911911010742,1.1258258819580078
1783152194757705700,7.282705810546875,-1.9679949283599854,1.3884096145629883,0.8649930953979492
1783152194767410200,7.29241015625,-1.8111779689788818,1.2132301330566406,0.7445030212402344
1783152194777115000,7.302114990234375,-1.668562650680542,0.9730563163757324,0.6646852493286133
1783152194786850000,7.31185009765625,-1.5307390689849854,0.7614316940307617,0.5780153274536133
1783152194796554500,7.321554443359375,-1.360198974609375,0.5860366821289062,0.45885467529296875
1783152194806259200,7.33125927734375,-1.219271183013916,0.3684816360473633,0.36013221740722656
1783152194815963600,7.340963623046875,-1.0917317867279053,0.29909777641296387,0.26741981506347656
1783152194825698800,7.35069873046875,-1.076812982559204,0.23868489265441895,0.14313507080078125
1783152194835403500,7.360403564453125,-0.9720404148101807,0.14937138557434082,0.050919532775878906
1783152194845108000,7.37010791015625,-0.9914724826812744,0.08949923515319824,0.024207115173339844
1783152194854812700,7.379812744140625,-0.9486992359161377,0.013670682907104492,-0.0015888214111328125
1783152194864547800,7.3895478515625,-0.9081828594207764,-0.04220128059387207,0.00214385986328125
1783152194874282800,7.39928271484375,-0.9230713844299316,-0.05137228965759277,0.02382373809814453
1783152194883987500,7.408987548828125,-0.9715225696563721,-0.04973721504211426,0.06887531280517578
1783152194893692000,7.41869189453125,-0.9884581565856934,-0.06628227233886719,0.09705257415771484
1783152194903427000,7.428427001953125,-1.0039606094360352,-0.10126280784606934,0.11340808868408203
1783152194913131800,7.4381318359375,-1.0214147567749023,-0.15948009490966797,0.1181488037109375
1783152194922836200,7.447836181640625,-1.0407445430755615,-0.21312260627746582,0.1228017807006836
1783152194932541000,7.457541015625,-1.0541927814483643,-0.34221863746643066,0.21728515625
1783152194942276000,7.467276123046875,-0.8691377639770508,-0.6222352981567383,0.3875150680541992
1783152194951980500,7.47698046875,-0.4693758487701416,-0.8199846744537354,0.4660768508911133
1783152194961685200,7.486685302734375,-0.20810151100158691,-0.962986946105957,0.6170015335083008
1783152194971389700,7.4963896484375,-0.028241872787475586,-1.1072206497192383,0.8100185394287109
1783152194981124900,7.506124755859375,0.30173301696777344,-1.1634631156921387,0.9795255661010742
1783152194990829600,7.51582958984375,0.7942960262298584,-1.0586483478546143,1.0910511016845703
1783152195000534000,7.525533935546875,1.094275951385498,-0.7588870525360107,1.1913642883300781
1783152195010238700,7.53523876953125,1.094066858291626,-0.4185056686401367,1.2704763412475586
1783152195019943200,7.544943115234375,0.9516890048980713,-0.0017037391662597656,1.4210147857666016
1783152195029678300,7.55467822265625,0.7615576982498169,0.4941728115081787,1.6244783401489258
1783152195039383000,7.564383056640625,0.6364743709564209,1.0261311531066895,1.8346290588378906
1783152195049087500,7.57408740234375,0.5989960432052612,1.5501370429992676,2.0281639099121094
1783152195058792200,7.583792236328125,0.7220207452774048,2.0192599296569824,2.1721181869506836
1783152195068527000,7.593527099609375,0.7818126678466797,2.2580549716949463,2.343168258666992
1783152195087936500,7.6129365234375,1.161765694618225,2.339402437210083,2.1901464462280273
1783152195107376000,7.632376220703125,2.5691475868225098,1.6440134048461914,1.3597774505615234
1783152195126785300,7.651785400390625,4.450889587402344,0.36921024322509766,0.19113731384277344
1783152195136490000,7.661489990234375,5.410932540893555,-0.25222086906433105,-0.4694080352783203
1783152195146225000,7.671224853515625,6.074639320373535,-0.8216469287872314,-1.1182899475097656
1783152195155960000,7.6809599609375,6.411630153656006,-1.2400600910186768,-1.753972053527832
1783152195165664800,7.690664794921875,6.252564907073975,-1.7728619575500488,-2.068300247192383
1783152195175369200,7.700369140625,5.761053085327148,-2.6779980659484863,-2.4245738983154297
1783152195185104400,7.7101044921875,4.79564094543457,-3.3672924041748047,-2.8112926483154297
1783152195194809000,7.71980908203125,3.7906904220581055,-3.922865152359009,-3.445075035095215
1783152195204513500,7.729513427734375,2.8677818775177,-4.233224391937256,-4.215585708618164
1783152195214218200,7.73921826171875,1.980835199356079,-4.735788345336914,-4.609198570251465
1783152195223953200,7.748953125,1.3635101318359375,-5.263943195343018,-4.33746337890625
1783152195233657900,7.758657958984375,0.4203321933746338,-5.490028381347656,-3.5954666137695312
1783152195243362600,7.768362548828125,-1.3079283237457275,-5.571153163909912,-2.245798110961914
1783152195253067000,7.77806689453125,-2.7668726444244385,-5.53013277053833,-0.9937648773193359
1783152195262802200,7.78780224609375,-3.684424877166748,-4.43602991104126,0.3562784194946289
1783152195272506600,7.797506591796875,-4.252507209777832,-4.4050092697143555,1.8008623123168945
1783152195282211300,7.80721142578125,-5.083942413330078,-3.128845691680908,2.179842948913574
1783152195291915800,7.816915771484375,-5.227870941162109,-2.531386375427246,2.173887252807617
1783152195301651000,7.82665087890625,-6.520963668823242,-2.6487183570861816,1.6885557174682617
1783152195311355600,7.836355712890625,-8.048566818237305,-3.6043877601623535,0.6905255317687988
1783152195321060000,7.84606005859375,-8.004011154174805,-2.669414520263672,-1.332165241241455
1783152195330764800,7.855764892578125,-6.739923477172852,-1.6537785530090332,-3.5656375885009766
1783152195340500000,7.8655,-3.6720621585845947,-1.568361759185791,-2.8533411026000977
1783152195350204400,7.875204345703125,-4.611209869384766,-3.361722946166992,-1.7654433250427246
1783152195359909000,7.8849091796875,-5.545537948608398,-2.789060592651367,-3.2656073570251465
1783152195369613600,7.894613525390625,-3.728614330291748,-2.647280693054199,-3.721372604370117
1783152195379348700,7.9043486328125,-2.924347400665283,-2.7750039100646973,-4.634830474853516
1783152195389053400,7.914053466796875,-3.6930408477783203,-2.6634674072265625,-5.484837532043457
1783152195398758000,7.9237578125,-3.561655282974243,-2.491753101348877,-5.837710380554199
1783152195408462600,7.933462646484375,-4.323974132537842,-2.510554790496826,-5.572105884552002
1783152195418197800,7.94319775390625,-5.086625099182129,-2.722001075744629,-4.619324207305908
1783152195427902200,7.952902099609375,-5.794130325317383,-2.630622386932373,-3.4364829063415527
1783152195437607000,7.96260693359375,-5.429861068725586,-2.3283090591430664,-1.868152141571045
1783152195447341800,7.972341796875,-5.163122177124023,-1.9390029907226562,-0.029835224151611328
1783152195457077000,7.982076904296875,-5.143937110900879,-1.766298770904541,2.086629867553711
1783152195466781700,7.99178173828125,-4.845490455627441,-1.4517412185668945,4.0041728019714355
1783152195476486100,8.001486083984375,-4.653992176055908,-0.9675836563110352,5.727348327636719
1783152195486190800,8.01119091796875,-4.694045066833496,-0.5805578231811523,7.225762844085693
1783152195495926000,8.020926025390626,-4.573975563049316,-0.40831661224365234,8.60525131225586
1783152195505630500,8.03063037109375,-4.092926025390625,-0.30037689208984375,9.77326488494873
1783152195515335200,8.040335205078126,-3.0491042137145996,-0.24733352661132812,11.084188461303711
1783152195525039600,8.05003955078125,-1.9999470710754395,-0.1022939682006836,12.525100708007812
1783152195534744300,8.059744384765626,-1.135711669921875,-0.02791309356689453,13.698230743408203
1783152195544479500,8.0694794921875,-0.3148425221443176,-0.08019256591796875,14.346673011779785
1783152195554184000,8.079183837890625,0.43503856658935547,-0.053086280822753906,14.41533088684082
1783152195563888600,8.088888671875,1.4037158489227295,0.081756591796875,13.98192024230957
1783152195573593000,8.098593017578125,2.2316112518310547,0.1693553924560547,13.315924644470215
1783152195583328300,8.108328369140626,2.928879976272583,0.2691936492919922,12.47589111328125
1783152195593033000,8.118032958984376,3.5749714374542236,0.38956546783447266,11.295440673828125
1783152195612442000,8.137442138671876,4.8528337478637695,0.059398651123046875,9.830487251281738
1783152195622177000,8.147177001953125,4.916470527648926,-0.2571125030517578,9.189380645751953
1783152195641586400,8.16658642578125,5.254087924957275,-0.9486832618713379,7.0080952644348145
1783152195651291000,8.176290771484375,5.688051700592041,-0.9743013381958008,5.025142192840576
1783152195670730500,8.19573046875,4.711518287658691,-3.1015090942382812,4.957367420196533
1783152195680435200,8.205435302734376,4.262154579162598,-3.3707571029663086,4.687936782836914
1783152195690140000,8.215139892578126,3.740283489227295,-3.922628402709961,4.972098350524902
1783152195699874800,8.224874755859375,2.711223602294922,-4.5686936378479,4.913074493408203
1783152195709579500,8.23457958984375,1.4440033435821533,-4.949395656585693,3.932485580444336
1783152195719284000,8.244283935546875,-0.02222263813018799,-5.349501609802246,2.581437110900879
1783152195729019100,8.25401904296875,-1.9577436447143555,-5.655762195587158,0.937129020690918
1783152195738754300,8.26375439453125,-3.2532334327697754,-5.869208335876465,-0.4799013137817383
1783152195758163500,8.28316357421875,-3.4642090797424316,-6.412503242492676,-1.6667461395263672
1783152195767868200,8.2928681640625,-2.777190685272217,-6.799434661865234,-1.7226762771606445
1783152195777603000,8.30260302734375,-2.289724349975586,-6.713010311126709,-2.210695266723633
1783152195787307800,8.312307861328126,-1.848066806793213,-6.338375568389893,-2.97802734375
1783152195797012200,8.32201220703125,-0.8278036117553711,-4.97918176651001,-4.068947792053223
1783152195806717000,8.331717041015626,-0.02851104736328125,-3.5006625652313232,-1.6697473526000977
1783152195816452000,8.3414521484375,-2.2340097427368164,-4.692449569702148,-0.9542136192321777
1783152195826156500,8.351156494140625,-1.967641830444336,-4.304783344268799,-0.7017426490783691
1783152195835861200,8.360861328125,-1.3163156509399414,-4.231860637664795,0.6333508491516113
1783152195845565700,8.370565673828125,-0.739192008972168,-3.853924036026001,0.7449436187744141
1783152195865005600,8.390005615234376,-0.7428989410400391,-2.7867891788482666,1.4996147155761719
1783152195874710000,8.3997099609375,-0.996027946472168,-2.9726133346557617,2.1001973152160645
1783152195884414700,8.409414794921876,-1.8583393096923828,-3.237448215484619,2.536170482635498
1783152195894150000,8.41914990234375,-2.845211982727051,-3.352708578109741,2.7516777515411377
1783152195903854300,8.428854248046875,-3.709369659423828,-3.2681493759155273,2.59364914894104
1783152195913559000,8.43855908203125,-4.5857086181640625,-3.076906442642212,2.4294040203094482
1783152195923263500,8.448263427734375,-5.429156303405762,-2.578038215637207,2.3890702724456787
1783152195932998700,8.45799853515625,-6.046167373657227,-2.497905969619751,2.3116626739501953
1783152195942703400,8.467703369140626,-6.487679481506348,-2.609302043914795,2.6128716468811035
1783152195952407800,8.47740771484375,-6.529531478881836,-2.390997886657715,3.2037508487701416
1783152195962112500,8.487112548828126,-5.951704025268555,-2.107506513595581,3.4714410305023193
1783152195971847400,8.496847412109375,-5.344241142272949,-1.7818970680236816,3.1752805709838867
1783152195981552000,8.50655224609375,-7.604159355163574,0.22321608662605286,1.4653147459030151
1783152196000961300,8.525961181640625,-0.5911006927490234,-0.036046311259269714,2.4674675464630127
1783152196010696400,8.535696533203126,2.2347660064697266,-0.8082619309425354,3.0859861373901367
1783152196020431600,8.545431640625,0.349456787109375,-0.42108646035194397,1.9378949403762817
1783152196030136000,8.555135986328125,-0.7723121643066406,-0.007378071546554565,1.1330029964447021
1783152196039840800,8.5648408203125,-0.30579662322998047,-0.37477803230285645,1.1808760166168213
1783152196049545200,8.574545166015625,0.30495166778564453,-0.7942982316017151,1.30416738986969
1783152196059280400,8.5842802734375,0.11180877685546875,-0.8538417816162109,1.4725677967071533
1783152196068985000,8.593985107421876,-0.6082181930541992,-1.1431512832641602,1.9226983785629272
1783152196078689500,8.603689453125,-1.047567367553711,-1.8716564178466797,2.4945292472839355
1783152196088394200,8.613394287109376,-1.2193899154663086,-2.9309990406036377,3.0448684692382812
1783152196098129400,8.62312939453125,-1.117264747619629,-4.046596050262451,3.57342267036438
1783152196107833900,8.632833740234375,-0.5214672088623047,-5.367196559906006,4.117887496948242
1783152196117538600,8.64253857421875,0.4072990417480469,-6.901641845703125,4.727194309234619
1783152196127243000,8.652242919921875,0.39594554901123047,-7.395162105560303,4.900827884674072
1783152196136978200,8.661978271484376,-0.2596616744995117,-7.424844264984131,4.518495082855225
1783152196146682600,8.6716826171875,-0.7752494812011719,-4.7985053062438965,2.1455259323120117
1783152196156387300,8.68138720703125,-0.7861299514770508,-0.7150567770004272,-0.7270022630691528
1783152196166092000,8.691092041015626,0.13738441467285156,0.7123367786407471,-1.9512410163879395
1783152196175827000,8.700826904296875,1.5731124877929688,0.18252456188201904,-1.8506391048431396
1783152196185531600,8.71053173828125,1.7918243408203125,-0.5078464150428772,-1.5607150793075562
1783152196195236000,8.720236083984375,1.4145536422729492,-0.35074687004089355,-1.459756851196289
1783152196204940800,8.72994091796875,0.7394924163818359,0.24192237854003906,-1.7555137872695923
1783152196214676000,8.739676025390626,-0.08824729919433594,0.7187072038650513,-1.9671343564987183
1783152196224380400,8.74938037109375,-0.4737834930419922,1.0363415479660034,-2.0365753173828125
1783152196234085000,8.759085205078126,-0.9811725616455078,1.4428776502609253,-1.8491723537445068
1783152196243789600,8.76878955078125,-1.121755599975586,1.120910406112671,-1.1885489225387573
1783152196253524700,8.778524658203125,-0.9355325698852539,0.6666447520256042,-0.5018883943557739
1783152196263229400,8.7882294921875,-1.2698822021484375,0.598142147064209,-0.07223713397979736
1783152196282638600,8.807638671875,-1.836176872253418,0.9295827746391296,0.08592450618743896
1783152196292373800,8.817373779296876,-1.3480167388916016,1.045559287071228,0.4309878349304199
1783152196302108700,8.827108642578125,-1.2747268676757812,1.0219590663909912,0.5525467395782471
1783152196311813400,8.8368134765625,-1.0826950073242188,1.1465067863464355,0.5355485677719116
1783152196321518000,8.84651806640625,-0.7120523452758789,1.4663076400756836,0.46826231479644775
1783152196331253000,8.8562529296875,-0.7099857330322266,1.6765093803405762,0.09844279289245605
1783152196340957700,8.865957763671876,-0.9824361801147461,1.9909107685089111,-0.19083881378173828
1783152196350662100,8.875662109375,-1.359419822692871,1.9542077779769897,0.3554852604866028
1783152196360366800,8.885366943359376,-1.3431119918823242,1.3092511892318726,0.811988115310669
1783152196379806500,8.904806396484375,-1.357919692993164,0.7973213195800781,0.9365601539611816
1783152196389511200,8.91451123046875,-1.358637809753418,1.059110403060913,0.6664639711380005
1783152196399215600,8.924215576171875,-1.5111656188964844,1.4390127658843994,0.5037875771522522
1783152196408950800,8.93395068359375,-1.691864013671875,1.5255231857299805,0.4349551200866699
1783152196418655500,8.943655517578126,-2.0407724380493164,1.4858677387237549,0.4835529923439026
1783152196428360000,8.95335986328125,-2.3182764053344727,1.354008674621582,0.5427595376968384
1783152196438064600,8.963064697265626,-2.786479949951172,1.2146861553192139,0.5170658826828003
1783152196447799800,8.9727998046875,-2.9448719024658203,0.35252857208251953,0.8755124807357788
1783152196457504300,8.982504150390625,-2.5738677978515625,-0.8128092288970947,1.2416961193084717
1783152196467209000,8.992208984375,-1.965815544128418,-0.5982041358947754,0.6994147300720215
1783152196476913400,9.001913330078125,-0.946040153503418,0.05961322784423828,-0.10868856310844421
1783152196486648600,9.011648681640626,0.15067100524902344,0.6099457740783691,-0.6095211505889893
1783152196496353300,9.021353271484376,-0.008279800415039062,0.6712380647659302,-0.5824446678161621
1783152196506057700,9.0310576171875,-0.6194124221801758,0.5840352773666382,-0.40296193957328796
1783152196515762400,9.040762451171876,-1.593775749206543,0.7226340770721436,-0.5987645983695984
1783152196525467000,9.050466796875,-1.0774288177490234,0.32125937938690186,-0.5289922952651978
1783152196535202000,9.0602021484375,-0.5829582214355469,-0.2661771774291992,-0.3023761510848999
1783152196544906800,9.06990673828125,-0.5255756378173828,-0.6800224781036377,0.28942039608955383
1783152196554611200,9.079611083984375,0.6522502899169922,-1.0400378704071045,1.1486361026763916
1783152196564316000,9.08931591796875,2.186772346496582,-1.2364991903305054,1.544048547744751
1783152196574050800,9.09905078125,3.0895462036132812,-1.543264627456665,1.3683661222457886
1783152196583786000,9.108785888671875,3.6756839752197266,-1.597944736480713,1.044788122177124
1783152196593490700,9.11849072265625,3.2798852920532227,-0.024849727749824524,-0.01781824231147766
1783152196603195100,9.128195068359375,4.597064971923828,-0.16771942377090454,0.18512006103992462
1783152196612930300,9.137930419921876,3.481553077697754,0.6332653164863586,-2.341627836227417
1783152196622635000,9.147635009765626,3.4066057205200195,0.9595865607261658,-1.8848469257354736
1783152196632339500,9.15733935546875,3.57473087310791,0.8365509510040283,-1.3422365188598633
1783152196642044200,9.167044189453126,3.2974796295166016,0.83651202917099,-0.946992039680481
1783152196651779000,9.176779052734375,2.8226871490478516,0.7898845672607422,-0.37720802426338196
1783152196661483800,9.18648388671875,3.153744697570801,0.05796125531196594,0.5140136480331421
1783152196671188500,9.1961884765625,4.096055030822754,-1.4519838094711304,1.2849605083465576
1783152196680878300,9.20587841796875,2.5341625213623047,-3.2606801986694336,1.5671097040176392
1783152196690613200,9.21561328125,1.5982208251953125,-4.350236892700195,1.7244266271591187
1783152196700318000,9.22531787109375,0.9861431121826172,-4.8274431228637695,1.4318017959594727
1783152196710022700,9.235022705078125,0.8534631729125977,-4.4603376388549805,0.8593758940696716
1783152196729462300,9.254462158203125,-0.123199462890625,-1.4406507015228271,-1.6670160293579102
1783152196739166700,9.264166748046875,-0.8644094467163086,-1.2897546291351318,-1.8353443145751953
1783152196748871400,9.273871337890625,-1.4641790390014648,-1.453885793685913,-1.5108991861343384
1783152196758576000,9.283576171875,-1.742659568786621,-1.5303428173065186,-0.9914340972900391
1783152196768311000,9.29331103515625,-1.4562129974365234,-1.5031683444976807,-0.4745802581310272
1783152196778015700,9.303015625,-0.6488714218139648,-1.387371301651001,0.18950241804122925
1783152196787720200,9.31272021484375,0.04969501495361328,-1.4437367916107178,0.8397409915924072
1783152196797425000,9.3224248046875,0.36066150665283203,-1.7183985710144043,0.9867379665374756
1783152196807160000,9.33216015625,-0.06633472442626953,-1.9493401050567627,0.5499305725097656
1783152196816864500,9.341864501953125,-0.18110942840576172,-1.4102897644042969,0.3875443637371063
1783152196826569200,9.3515693359375,0.09983634948730469,-1.393322467803955,0.6666548252105713
1783152196836273700,9.361273681640625,0.0539703369140625,-1.2958290576934814,0.4665655493736267
1783152196846008800,9.3710087890625,-0.5517301559448242,-0.87646484375,-0.01782628893852234
1783152196855713500,9.380713623046875,-1.410369873046875,-0.5016908645629883,-0.260017454624176
1783152196865418000,9.39041796875,-2.0143203735351562,-0.5342764854431152,-0.7850753664970398
1783152196875153200,9.400153076171875,-2.0686235427856445,-0.3045973777770996,-1.3716182708740234
1783152196884888300,9.409888427734375,-1.617990493774414,0.14053034782409668,-1.7015092372894287
1783152196904297500,9.42929736328125,-1.170454978942871,0.055440425872802734,-1.1375960111618042
1783152196914002000,9.439001953125,-0.98382568359375,0.06398582458496094,-0.7878994345664978
1783152196923737000,9.448737060546875,-0.7596702575683594,0.1258387565612793,-0.5897336602210999
1783152196933441800,9.45844189453125,-0.5455436706542969,0.1892242431640625,-0.40506863594055176
1783152196943146200,9.468146240234375,-0.4559478759765625,0.2460789680480957,-0.333190381526947
1783152196952851000,9.477850830078125,-0.4595613479614258,0.458920955657959,-0.5322556495666504
1783152196962586000,9.487586181640625,-0.5984182357788086,0.43587779998779297,-0.5175893306732178
1783152196972290600,9.49729052734375,-0.5661430358886719,-0.009806156158447266,-0.263698935508728
1783152196981995300,9.506995361328125,-0.6335134506225586,0.10906362533569336,-0.38969558477401733
1783152196991699700,9.51669970703125,-0.5238704681396484,0.25824594497680664,-0.6041587591171265
1783152197001404400,9.526404296875,-0.3506593704223633,0.20783615112304688,-0.7827332019805908
1783152197011139600,9.5361396484375,-0.05491447448730469,0.1878671646118164,-0.9365975260734558
1783152197020844000,9.545843994140625,0.11494827270507812,0.16170310974121094,-0.8846072554588318
1783152197030548700,9.555548828125,0.2415618896484375,0.12445831298828125,-0.6902533769607544
1783152197040253200,9.565253173828125,0.2808876037597656,0.23376083374023438,-0.5450738668441772
1783152197049988400,9.57498828125,0.40799617767333984,0.29469776153564453,-0.28315138816833496
1783152197059693000,9.584693115234375,0.4596881866455078,-0.18110322952270508,0.15766549110412598
1783152197069397500,9.5943974609375,0.15890979766845703,-0.06510400772094727,0.09545916318893433
1783152197079102200,9.604102294921875,-0.07105255126953125,0.04044961929321289,-0.22961464524269104
1783152197088837000,9.613837158203125,-0.3103361129760742,0.14501619338989258,-0.628277063369751
1783152197098541800,9.623541748046875,-0.5791788101196289,0.2052936553955078,-1.051221251487732
1783152197108246500,9.63324658203125,-0.7685413360595703,0.30608558654785156,-1.2462184429168701
1783152197117951000,9.642950927734375,-0.855687141418457,0.3960433006286621,-1.1873921155929565
1783152197127686100,9.65268603515625,-0.9176778793334961,0.5686068534851074,-0.9638237953186035
1783152197137390600,9.662390625,-0.5395374298095703,0.2841649055480957,-0.49570295214653015
1783152197147095300,9.67209521484375,-0.6516752243041992,0.28375768661499023,-0.6401714086532593
1783152197156830500,9.68183056640625,0.1718120574951172,0.4749011993408203,-0.2382223904132843
1783152197166565600,9.691565673828125,1.0530385971069336,0.2822074890136719,-0.308413565158844
1783152197176270000,9.70127001953125,0.4542875289916992,0.36710023880004883,-0.4932277500629425
1783152197185974800,9.710974853515625,0.20943450927734375,0.4621310234069824,-0.7584810256958008
1783152197195679200,9.72067919921875,0.20787429809570312,0.4219064712524414,-1.0066293478012085
1783152197205414400,9.730414306640625,-0.11631298065185547,0.48346948623657227,-1.2153656482696533
1783152197215118800,9.740118896484375,-0.3224449157714844,0.28419971466064453,-1.0283710956573486
1783152197224823600,9.749823486328125,-0.37402820587158203,0.35936641693115234,-0.9701683521270752
1783152197244263200,9.76926318359375,-0.2968101501464844,0.6756792068481445,-0.6857761144638062
1783152197253968000,9.7789677734375,-0.4163379669189453,0.6993179321289062,-0.5009980201721191
1783152197263672300,9.78867236328125,-0.49655818939208984,0.8830842971801758,-0.46610894799232483
1783152197273377000,9.798376953125,-0.6686553955078125,1.1024260520935059,-0.5069090127944946
1783152197292816600,9.817816650390625,-1.3114900588989258,1.3123445510864258,-0.896331787109375
1783152197302521300,9.827521240234375,-1.385636329650879,1.4737343788146973,-0.9713290929794312
1783152197312225800,9.837225830078125,-1.6751861572265625,1.4028244018554688,-0.8120432496070862
1783152197321961000,9.8469609375,-1.9102287292480469,1.0712370872497559,-0.48466360569000244
1783152197331665700,9.856665771484375,-1.6672706604003906,0.7074737548828125,-0.1347382366657257
1783152197351074800,9.87607470703125,0.6296567916870117,0.22922706604003906,0.281410813331604
1783152197370514400,9.895514404296875,2.3166933059692383,-0.41469764709472656,0.7140227556228638
1783152197380219100,9.90521923828125,1.7130193710327148,1.7237849235534668,-0.6457666158676147
1783152197389923600,9.914923583984375,2.334484100341797,1.4970297813415527,-1.4375821352005005
1783152197399658800,9.92465869140625,2.9722652435302734,-0.12012577056884766,-0.276212215423584
1783152197409363500,9.934363525390625,3.37404727935791,-2.4138965606689453,0.7465733289718628
1783152197419068000,9.94406787109375,2.1026077270507812,-2.9498648643493652,1.1037261486053467
1783152197428772600,9.953772705078125,1.6731691360473633,-2.8691935539245605,1.274581789970398
1783152197438507500,9.963507568359375,1.0279884338378906,-2.313261032104492,1.2990714311599731
1783152197448242700,9.97324267578125,1.2496919631958008,-1.8686227798461914,1.4981868267059326
1783152197457947400,9.982947509765625,1.240072250366211,-1.4808392524719238,1.440801978111267
1783152197467651800,9.99265185546875,0.9897747039794922,-1.0342931747436523,1.2124146223068237
1783152197477356500,10.0023564453125,0.5385894775390625,-0.7589263916015625,0.9464455842971802
1783152197487091700,10.012091796875,0.23386096954345703,-0.6756138801574707,0.8818503618240356
1783152197496796200,10.021796142578125,-0.07304000854492188,-0.742156982421875,0.9469583034515381
1783152197506500900,10.0315009765625,-0.13814544677734375,-0.7866916656494141,0.9600776433944702
1783152197516205300,10.041205322265625,-0.06792068481445312,-0.7761635780334473,0.9546142816543579
1783152197525940500,10.0509404296875,-0.031441688537597656,-0.8738198280334473,0.993574857711792
1783152197545349600,10.070349609375,-0.6174211502075195,-0.9933338165283203,0.9876580834388733
1783152197555054300,10.080054443359375,-0.9503064155578613,-0.8893952369689941,0.7752669453620911
1783152197564789500,10.08978955078125,-1.134371280670166,-0.7842063903808594,0.5020514130592346
1783152197574494000,10.099493896484375,-1.095468521118164,-0.6853432655334473,0.2126525640487671
1783152197584198700,10.10919873046875,-0.8688836097717285,-0.6563296318054199,0.08882886171340942
1783152197593903000,10.118903076171875,-0.6416501998901367,-0.8000116348266602,0.13903379440307617
1783152197603638300,10.12863818359375,-0.4629364013671875,-0.9175558090209961,0.2270735502243042
1783152197613343000,10.138343017578125,-0.3643665313720703,-0.9357390403747559,0.26829081773757935
1783152197623047400,10.14804736328125,-0.31607818603515625,-0.8954997062683105,0.2961925268173218
1783152197632752000,10.157752197265625,-0.184478759765625,-0.7960586547851562,0.2810838222503662
1783152197642487000,10.167487060546875,-0.016603469848632812,-0.5996747016906738,0.223405122756958
1783152197652191700,10.177191650390625,-0.10069465637207031,-0.4593043327331543,0.17191660404205322
1783152197671601000,10.196600830078125,-0.4842948913574219,-0.24112415313720703,-0.033722758293151855
1783152197691040500,10.21604052734375,-0.7623977661132812,0.14496135711669922,-0.41435277462005615
1783152197710449700,10.23544970703125,-1.1992597579956055,0.30286455154418945,-0.43829524517059326
1783152197720184800,10.245184814453125,-1.424489974975586,0.35629940032958984,-0.3328436017036438
1783152197729920000,10.254919921875,-1.5338687896728516,0.40437936782836914,-0.24945968389511108
1783152197739624700,10.264624755859375,-1.4137935638427734,0.46044254302978516,-0.2165156602859497
1783152197749329200,10.2743291015625,-1.2226552963256836,0.4841437339782715,-0.17063379287719727
1783152197759064300,10.284064208984375,-1.0534210205078125,0.46059274673461914,-0.1084592342376709
1783152197768768800,10.293768798828125,-0.8595428466796875,0.3978238105773926,-0.029784440994262695
1783152197778473500,10.303473388671875,-0.6827621459960938,0.3560762405395508,0.01042640209197998
1783152197788178200,10.31317822265625,-0.5126972198486328,0.34125614166259766,-0.038239121437072754
1783152197797913000,10.3229130859375,-0.40808963775634766,0.2947254180908203,-0.07219547033309937
1783152197807617800,10.33261767578125,-0.3675804138183594,0.26276636123657227,-0.17296433448791504
1783152197817322200,10.342322265625,-0.2678966522216797,0.2887139320373535,-0.2977070212364197
1783152197827027000,10.35202685546875,-0.10979843139648438,0.3671293258666992,-0.3748583197593689
1783152197836762000,10.36176220703125,-0.035582542419433594,0.381072998046875,-0.335208535194397
1783152197846466600,10.371466552734375,0.012454986572265625,0.4253072738647461,-0.2846527695655823
1783152197856171300,10.381171142578125,0.007495880126953125,0.4977889060974121,-0.32399553060531616
1783152197865875700,10.390875732421875,-0.010408401489257812,0.5491228103637695,-0.3566938638687134
1783152197875611000,10.40061083984375,-0.03239250183105469,0.5446071624755859,-0.40475016832351685
1783152197885315600,10.410315673828125,-0.13297271728515625,0.5426492691040039,-0.5343643426895142
1783152197895020000,10.42002001953125,-0.22185420989990234,0.5851454734802246,-0.6888701915740967
1783152197904724700,10.429724853515625,-0.29056262969970703,0.6429595947265625,-0.8164982795715332
1783152197914460000,10.4394599609375,-0.2780494689941406,0.6771812438964844,-0.8662025928497314
1783152197924164400,10.449164306640625,-0.1948232650756836,0.6987390518188477,-0.8284963965415955
1783152197933869000,10.458869140625,-0.02935028076171875,0.7007265090942383,-0.7517749071121216
1783152197943573500,10.468573486328125,0.17766475677490234,0.6923408508300781,-0.6685485243797302
1783152197953278200,10.4782783203125,0.4502105712890625,0.7135043144226074,-0.5902177691459656
1783152197963013400,10.488013427734375,0.6428031921386719,0.6871442794799805,-0.4793199896812439
1783152197972717800,10.4977177734375,0.6988296508789062,0.5984864234924316,-0.37076228857040405
1783152197982422500,10.507422607421875,0.7692470550537109,0.555030345916748,-0.39880210161209106
1783152197992127000,10.517126953125,0.9087696075439453,0.533118724822998,-0.5292025208473206
1783152198001862100,10.526862060546875,1.083822250366211,0.5373644828796387,-0.6596536040306091
1783152198011566800,10.53656689453125,1.116006851196289,0.4689483642578125,-0.7244656085968018
1783152198021301800,10.5463017578125,0.9788274765014648,0.5409607887268066,-0.8333648443222046
1783152198031006500,10.55600634765625,0.8726978302001953,0.7274317741394043,-0.9874789118766785
1783152198040741600,10.56574169921875,0.835658073425293,0.8324170112609863,-1.12122642993927
1783152198050446000,10.575446044921875,0.6145000457763672,0.9852275848388672,-1.270269513130188
1783152198060150800,10.58515087890625,0.2745504379272461,1.1212353706359863,-1.3981895446777344
1783152198069855200,10.594855224609375,0.11661434173583984,1.234107494354248,-1.4465135335922241
1783152198079590400,10.60459033203125,0.23485374450683594,1.4069418907165527,-1.459682583808899
1783152198089295000,10.614295166015625,0.44017601013183594,1.5071940422058105,-1.4445713758468628
1783152198098999600,10.62399951171875,0.5962352752685547,1.1164655685424805,-1.1627705097198486
1783152198108704300,10.633704345703125,0.7187967300415039,0.49149131774902344,-0.7457717657089233
1783152198118439200,10.643439208984375,1.0343303680419922,-0.13242864608764648,-0.40174055099487305
1783152198128144000,10.653143798828125,1.556391716003418,-0.6253323554992676,-0.12749481201171875
1783152198157288200,10.6822880859375,2.4597034454345703,-1.357694149017334,0.41544783115386963
1783152198166992600,10.69199267578125,2.5625686645507812,-1.3191499710083008,0.3141629695892334
1783152198176697300,10.701697265625,2.41115665435791,-1.2334709167480469,-0.016891956329345703
1783152198186402000,10.711402099609375,1.9853124618530273,-1.2103571891784668,-0.3445061445236206
1783152198196137000,10.721136962890625,1.4156837463378906,-1.2916288375854492,-0.5463253259658813
1783152198205841700,10.730841552734375,0.8068866729736328,-1.2910442352294922,-0.7195699214935303
1783152198215546000,10.740546142578125,0.19258499145507812,-1.1518125534057617,-0.9410364627838135
1783152198225250800,10.750250732421875,-0.31599903106689453,-0.982734203338623,-1.161991000175476
1783152198234986000,10.759986083984375,-0.7156667709350586,-0.8470940589904785,-1.2937678098678589
1783152198244690400,10.7696904296875,-1.0781469345092773,-0.7280163764953613,-1.3664138317108154
1783152198254395100,10.77939501953125,-1.348297119140625,-0.6665101051330566,-1.3935365676879883
1783152198264099600,10.789099609375,-1.4846067428588867,-0.6449518203735352,-1.3481805324554443
1783152198273834800,10.798834716796875,-1.473052978515625,-0.6906585693359375,-1.2760009765625
1783152198283539500,10.80853955078125,-1.3136711120605469,-0.7741184234619141,-1.1483440399169922
1783152198293244000,10.818243896484375,-1.0338973999023438,-0.855919361114502,-1.0075565576553345
1783152198302979000,10.82797900390625,-0.509650707244873,-0.8836469650268555,-0.8529995679855347
1783152198312714200,10.83771435546875,0.19150161743164062,-1.0057835578918457,-0.7153987884521484
1783152198322418700,10.847418701171875,1.0207347869873047,-1.1798124313354492,-0.4837837219238281
1783152198332123400,10.857123291015625,1.7630081176757812,-1.3526887893676758,-0.2397385835647583
1783152198341827800,10.866827880859375,2.280959129333496,-1.477806568145752,-0.049619317054748535
1783152198351563000,10.87656298828125,2.5413637161254883,-1.502530574798584,-0.03343939781188965
1783152198361267700,10.886267822265625,2.54024600982666,-1.49867582321167,-0.15355557203292847
1783152198370972200,10.89597216796875,2.288384437561035,-1.3918848037719727,-0.3710997700691223
1783152198380676900,10.9056767578125,1.8335132598876953,-1.3039007186889648,-0.6106829047203064
1783152198390412000,10.915412109375,1.3061914443969727,-1.2331137657165527,-0.7879405617713928
1783152198400116500,10.925116455078125,0.8696250915527344,-1.1770806312561035,-0.7917028069496155
1783152198409821200,10.9348212890625,0.42606163024902344,-1.1064014434814453,-0.7364258766174316
1783152198419525600,10.944525634765625,-0.047904014587402344,-1.044355869293213,-0.6920809149742126
1783152198429260800,10.9542607421875,-0.4395599365234375,-0.9089193344116211,-0.6763010621070862
1783152198438965500,10.963965576171875,-0.6474246978759766,-0.7461237907409668,-0.6598334312438965
1783152198458374700,10.983374755859375,-0.5084991455078125,-0.43549633026123047,-0.5594912767410278
1783152198468079000,10.9930791015625,-0.3018789291381836,-0.31052398681640625,-0.47621774673461914
1783152198477814300,11.002814208984375,-0.22655105590820312,-0.23584890365600586,-0.3853105306625366
1783152198487519000,11.01251904296875,-0.24813175201416016,-0.17158126831054688,-0.3526345491409302
1783152198497223400,11.022223388671875,-0.2560920715332031,-0.14434480667114258,-0.33438485860824585
1783152198506928000,11.03192822265625,-0.23357295989990234,-0.13509750366210938,-0.3881489634513855
1783152198516663000,11.0416630859375,-0.22582149505615234,-0.10584020614624023,-0.4491293728351593
1783152198526367700,11.05136767578125,-0.2562723159790039,-0.14085102081298828,-0.4765665829181671
1783152198536072400,11.061072509765625,-0.2555360794067383,-0.1350417137145996,-0.4826680123806
1783152198545777000,11.07077685546875,-0.23090076446533203,-0.048007965087890625,-0.44703739881515503
1783152198555512000,11.080511962890625,-0.1468801498413086,0.234832763671875,-0.5824601650238037
1783152198565216500,11.090216552734375,-0.2711610794067383,0.07579851150512695,-0.6146417260169983
1783152198574921200,11.099921142578125,-0.3428621292114258,0.9270038604736328,-1.2024743556976318
1783152198584626000,11.1096259765625,-0.2807197570800781,0.24110889434814453,-1.1100811958312988
1783152198594360800,11.11936083984375,-0.3059673309326172,-0.5392904281616211,-0.7257242202758789
1783152198604096000,11.129095947265625,-0.5092649459838867,-0.5875263214111328,-0.691210925579071
1783152198613800700,11.13880078125,-0.6376314163208008,-0.38516855239868164,-0.6926720142364502
1783152198623505200,11.148505126953125,-0.69384765625,-0.22957515716552734,-0.6877720952033997
1783152198633240300,11.158240234375,-0.6175222396850586,-0.19132089614868164,-0.5751795172691345
1783152198642945000,11.167945068359375,-0.3303184509277344,-0.12210893630981445,-0.39860421419143677
1783152198652649500,11.1776494140625,-0.15076923370361328,-0.011765003204345703,-0.32732272148132324
1783152198662354200,11.187354248046875,0.06435489654541016,0.08751440048217773,-0.29207929968833923
1783152198672089000,11.197089111328125,0.23584938049316406,0.14297962188720703,-0.19826170802116394
1783152198681793800,11.206793701171875,0.2985391616821289,0.14418363571166992,-0.14672215282917023
1783152198691498500,11.21649853515625,0.15262794494628906,0.10062170028686523,-0.027563154697418213
1783152198730347300,11.25534716796875,-0.2784252166748047,-0.008297920227050781,0.022662043571472168
1783152198740051700,11.2650517578125,-0.057186126708984375,0.1309981346130371,-0.0784338116645813
1783152198749787000,11.274786865234375,0.2878694534301758,0.3072013854980469,-0.2031339406967163
1783152198759491600,11.28449169921875,0.7492437362670898,0.4777107238769531,-0.317351371049881
1783152198769196000,11.294196044921875,1.0741424560546875,0.5229835510253906,-0.38731464743614197
1783152198778900700,11.303900634765625,1.1464099884033203,0.5552663803100586,-0.4626066982746124
1783152198788636000,11.313635986328125,0.9842743873596191,0.6691994667053223,-0.5393010377883911
1783152198798340400,11.32334033203125,0.9019379615783691,0.7225675582885742,-0.4624379575252533
1783152198808045000,11.333045166015625,0.7189764976501465,0.625791072845459,-0.272409051656723
1783152198817749500,11.34274951171875,0.2362995147705078,0.4858531951904297,-0.17223110795021057
1783152198827484700,11.352484619140625,-0.17361783981323242,0.48777294158935547,-0.18034887313842773
1783152198837189400,11.362189453125,-0.3720526695251465,0.5956878662109375,-0.15939652919769287
1783152198846893800,11.371893798828125,-0.4501338005065918,0.7623739242553711,-0.17594224214553833
1783152198856598500,11.3815986328125,-0.4687061309814453,0.913081169128418,-0.22132736444473267
1783152198866303000,11.391302978515625,-0.40244245529174805,0.9608440399169922,-0.15637850761413574
1783152198876038100,11.4010380859375,-0.28123950958251953,0.7351465225219727,0.10663223266601562
1783152198885773300,11.410773193359375,-0.1308746337890625,0.20676755905151367,0.23091506958007812
1783152198895477800,11.420477783203125,0.25301218032836914,-0.1104574203491211,0.18439429998397827
1783152198905182500,11.430182373046875,0.768653392791748,-0.16677379608154297,0.07477903366088867
1783152198914917600,11.439917724609375,1.2311820983886719,-0.3256993293762207,0.2890486717224121
1783152198924622000,11.4496220703125,1.4477801322937012,-0.5116915702819824,0.6698628664016724
1783152198934326800,11.459326904296875,1.4872732162475586,-0.5741443634033203,1.1464412212371826
1783152198944031200,11.46903125,1.3082947731018066,-0.653956413269043,1.5822041034698486
1783152198953766400,11.478766357421875,0.9871625900268555,-0.7011280059814453,1.7123236656188965
1783152198963471000,11.48847119140625,0.5856471061706543,-0.8462119102478027,1.6330103874206543
1783152198973175600,11.498175537109375,0.1558370590209961,-0.9848809242248535,1.443568468093872
1783152198982880300,11.50788037109375,-0.1458277702331543,-0.9455451965332031,0.9097341299057007
1783152198992615400,11.517615478515625,-0.4246654510498047,-0.9403343200683594,0.3790549039840698
1783152199002320000,11.52731982421875,-0.6997585296630859,-0.9875521659851074,0.255764365196228
1783152199012024600,11.537024658203125,-0.6778464317321777,-0.8425135612487793,0.30873239040374756
1783152199021729000,11.54672900390625,-0.5277643203735352,-0.6569252014160156,0.4849395751953125
1783152199031464200,11.556464111328125,-0.4874553680419922,-0.7401490211486816,0.8085460066795349
1783152199041169000,11.5661689453125,-0.5218172073364258,-1.0076584815979004,1.1613562107086182
1783152199050873300,11.575873291015625,-0.481961727142334,-1.2287092208862305,1.3998405933380127
1783152199060578000,11.585578125,-0.6182928085327148,-1.4447784423828125,1.4859485626220703
1783152199070313000,11.59531298828125,0.03212785720825195,-1.220301628112793,1.6108273267745972
1783152199080017700,11.605017578125,0.7345895767211914,-0.5187468528747559,2.1184442043304443
1783152199089722400,11.614722412109375,0.8043270111083984,-0.26795339584350586,2.0764973163604736
1783152199099426800,11.6244267578125,0.6934490203857422,-1.3541855812072754,2.0420236587524414
1783152199109162000,11.634161865234375,0.004197597503662109,-1.9048538208007812,1.9700855016708374
1783152199118866400,11.643866455078125,-0.3625211715698242,-0.285799503326416,1.2513253688812256
1783152199128571100,11.653571044921875,-0.8322453498840332,0.1836690902709961,0.40332573652267456
1783152199138275800,11.66327587890625,-0.8514041900634766,-0.6957168579101562,0.32938727736473083
1783152199148010800,11.6730107421875,-0.9152059555053711,-0.8687729835510254,0.3587283194065094
1783152199157715500,11.682715576171875,-1.1055126190185547,-0.6173853874206543,-0.08096630871295929
1783152199167450600,11.69245068359375,-1.222546100616455,-0.48886537551879883,-0.28191685676574707
1783152199177155000,11.702155029296875,-1.0466437339782715,-0.14902162551879883,-0.2242891639471054
1783152199186890200,11.71189013671875,-0.9300446510314941,0.1806473731994629,-0.16973057389259338
1783152199196594700,11.7215947265625,-1.0037946701049805,0.33056163787841797,-0.016697809100151062
1783152199206299400,11.73129931640625,-0.9377717971801758,0.28394269943237305,0.27719902992248535
1783152199216004000,11.741004150390625,-0.8151159286499023,0.23586702346801758,0.5527196526527405
1783152199225739000,11.750739013671875,-0.6420259475708008,0.29698610305786133,0.708584725856781
1783152199235443700,11.760443603515625,-0.615786075592041,0.4059572219848633,0.7330433130264282
1783152199245148200,11.770148193359375,-0.7027082443237305,0.39808225631713867,0.650804877281189
1783152199254852900,11.779852783203125,-0.7574319839477539,0.3053555488586426,0.4110867977142334
1783152199264588000,11.789588134765625,-0.7998189926147461,0.24834823608398438,0.025398269295692444
1783152199274292500,11.79929248046875,-0.8495054244995117,0.3135986328125,-0.48090189695358276
1783152199283997200,11.8089970703125,-0.8667478561401367,0.5307855606079102,-0.8898283243179321
1783152199293701600,11.81870166015625,-0.6946334838867188,0.5805115699768066,-1.0196274518966675
1783152199303406300,11.82840625,-0.48345279693603516,0.5150599479675293,-0.9081811904907227
1783152199313141500,11.8381416015625,-0.34669971466064453,0.504786491394043,-0.6711218357086182
1783152199322846000,11.847845947265625,-0.27562904357910156,0.5426301956176758,-0.4414750337600708
1783152199342255000,11.867255126953125,-0.3121376037597656,0.5540118217468262,-0.20001055300235748
1783152199351990300,11.876990234375,-0.3903999328613281,0.519752025604248,-0.12706394493579865
1783152199361695000,11.886695068359375,-0.4350900650024414,0.4844703674316406,-0.1802341639995575
1783152199371399400,11.8963994140625,-0.7026071548461914,0.5522127151489258,-0.2764306664466858
1783152199381104000,11.906104248046875,-0.8927888870239258,0.6196966171264648,-0.32629528641700745
1783152199390839300,11.91583935546875,-0.6491050720214844,0.569798469543457,-0.31519752740859985
1783152199400543700,11.925543701171875,-0.0029544830322265625,0.5380487442016602,-0.21089231967926025
1783152199410248400,11.93524853515625,0.9765768051147461,0.4119577407836914,-0.07425647974014282
1783152199419953000,11.944952880859375,1.8261165618896484,0.25089216232299805,0.17090332508087158
1783152199429688000,11.95468798828125,2.5508251190185547,0.6697521209716797,0.535277783870697
1783152199439392800,11.964392822265625,1.5746374130249023,0.7063531875610352,0.5935801267623901
1783152199449127700,11.974127685546875,0.7488665580749512,0.7412891387939453,0.44660046696662903
1783152199458832400,11.983832275390625,-0.27356481552124023,0.9585537910461426,0.40144699811935425
1783152199468567600,11.993567626953125,-1.0087385177612305,0.9372420310974121,0.5687830448150635
1783152199478272000,12.00327197265625,-1.2905511856079102,0.9481124877929688,0.7587980628013611
1783152199487976700,12.012976806640625,-1.1952061653137207,1.0908241271972656,0.7931597828865051
1783152199497681200,12.02268115234375,-0.2796306610107422,1.151308536529541,0.8918166160583496
