time,seconds_elapsed,z,y,x
1783152187628254000,0.15325390625,6.697509765625,6.446258544921875,-0.2799530029296875
1783152187637954800,0.162954833984375,6.1782684326171875,6.573089599609375,-0.4259185791015625
1783152187647689700,0.172689697265625,6.2907257080078125,6.6663970947265625,-0.4498443603515625
1783152187657425000,0.1824248046875,6.446258544921875,6.7525482177734375,-0.4259185791015625
1783152187667129600,0.192129638671875,6.5898284912109375,6.745361328125,-0.3421783447265625
1783152187676834000,0.201833984375,6.87457275390625,6.685546875,-0.2129669189453125
1783152187686569200,0.2115693359375,7.130615234375,6.5874481201171875,-0.1842498779296875
1783152187696274000,0.22127392578125,7.4249267578125,6.479766845703125,-0.217742919921875
1783152187705978400,0.230978271484375,7.6809539794921875,6.467803955078125,-0.2703857421875
1783152187715713500,0.240713623046875,7.8221435546875,6.53240966796875,-0.299102783203125
1783152187725448700,0.25044873046875,7.8699951171875,6.5994110107421875,-0.1842498779296875
1783152187735153200,0.260153076171875,7.8819580078125,6.5587310791015625,0.04547119140625
1783152187744857900,0.26985791015625,7.9034881591796875,6.53240966796875,0.253631591796875
1783152187754562300,0.279562255859375,7.934600830078125,6.527618408203125,0.39959716796875
1783152187764297500,0.28929736328125,7.9561309814453125,6.4821624755859375,0.5048828125
1783152187774002200,0.299002197265625,7.9058837890625,6.40557861328125,0.6006011962890625
1783152187783706600,0.30870654296875,7.6809539794921875,6.3792724609375,0.64605712890625
1783152187793411300,0.318411376953125,7.3746795654296875,6.467803955078125,0.605377197265625
1783152187803146500,0.328146484375,7.02532958984375,6.5994110107421875,0.52642822265625
1783152187812851000,0.337850830078125,6.597015380859375,6.6999053955078125,0.488128662109375
1783152187822555600,0.3475556640625,6.2548370361328125,6.774078369140625,0.4498443603515625
1783152187832260000,0.357260009765625,6.0610198974609375,6.9056854248046875,0.416351318359375
1783152187841995300,0.366995361328125,5.8983154296875,7.0588226318359375,0.4713897705078125
1783152187851699700,0.37669970703125,5.7332000732421875,7.056427001953125,0.614959716796875
1783152187861404400,0.386404296875,5.7906341552734375,7.054046630859375,0.7346038818359375
1783152187871109000,0.396109130859375,5.9485626220703125,7.1162567138671875,0.78485107421875
1783152187880844000,0.405843994140625,6.0969085693359375,7.173675537109375,0.825531005859375
1783152187890548700,0.415548828125,6.14715576171875,7.183258056640625,0.9140625
1783152187900253200,0.425253173828125,6.163909912109375,7.1688995361328125,1.0121612548828125
1783152187909958000,0.4349580078125,6.144775390625,7.1760711669921875,1.074371337890625
1783152187919662600,0.44466259765625,6.07537841796875,7.1976165771484375,1.1126556396484375
1783152187929397500,0.4543974609375,5.9916229248046875,7.23828125,1.095916748046875
1783152187939102200,0.464102294921875,5.998809814453125,7.2933197021484375,1.0049896240234375
1783152187948806700,0.473806640625,6.058624267578125,7.2861480712890625,0.8781585693359375
1783152187958511400,0.483511474609375,5.9796600341796875,7.2502593994140625,0.732208251953125
1783152187968246500,0.49324658203125,5.848052978515625,7.2933197021484375,0.4355010986328125
1783152187977951000,0.502950927734375,5.7786712646484375,7.3986053466796875,0.1435699462890625
1783152187987655700,0.51265576171875,5.6518402099609375,7.4727783203125,-0.0622100830078125
1783152187997360000,0.522360107421875,5.4412841796875,7.513458251953125,-0.2105712890625
1783152188007095300,0.53209521484375,5.355133056640625,7.55413818359375,-0.193817138671875
1783152188016830500,0.54183056640625,5.2857513427734375,7.5326080322265625,-0.04547119140625
1783152188026535200,0.55153515625,5.2235260009765625,7.4129638671875,0.1507415771484375
1783152188036239600,0.561239501953125,5.2809600830078125,7.3387908935546875,0.2584228515625
1783152188045974800,0.570974853515625,5.3934173583984375,7.336395263671875,0.2560272216796875
1783152188055679200,0.58067919921875,5.565704345703125,7.336395263671875,0.205780029296875
1783152188065384000,0.590384033203125,5.8025970458984375,7.3292083740234375,0.1627044677734375
1783152188075088400,0.60008837890625,5.742767333984375,7.2861480712890625,0.14117431640625
1783152188084823600,0.609823486328125,5.6327056884765625,7.1330108642578125,0.12921142578125
1783152188094528300,0.6195283203125,5.8959197998046875,7.1042938232421875,0.0502471923828125
1783152188104232700,0.629232666015625,6.0083770751953125,7.178466796875,-0.07177734375
1783152188113937400,0.6389375,6.15911865234375,7.1401824951171875,-0.241668701171875
1783152188123672600,0.648672607421875,6.1423797607421875,6.9678955078125,-0.533599853515625
1783152188133377000,0.658376953125,6.010772705078125,6.960723876953125,-0.5312042236328125
1783152188143081700,0.668081787109375,6.4366912841796875,6.891326904296875,-0.509674072265625
1783152188152786200,0.6777861328125,6.64007568359375,6.7932281494140625,-0.4594268798828125
1783152188162521300,0.687521240234375,6.6663970947265625,6.86260986328125,-0.488128662109375
1783152188172226000,0.69722607421875,6.6376953125,6.819549560546875,-0.5024871826171875
1783152188181930500,0.706930419921875,6.6113739013671875,6.750152587890625,-0.569488525390625
1783152188191635200,0.71663525390625,6.539581298828125,6.70947265625,-0.744171142578125
1783152188201370400,0.726370361328125,6.7812652587890625,6.809967041015625,-0.9475555419921875
1783152188211074800,0.73607470703125,6.7477569580078125,6.8339080810546875,-1.0360870361328125
1783152188220779500,0.745779541015625,6.690338134765625,6.79083251953125,-0.9714813232421875
1783152188230484000,0.75548388671875,6.7286224365234375,6.7716827392578125,-0.849456787109375
1783152188240219100,0.76521923828125,6.81475830078125,6.798004150390625,-0.792022705078125
1783152188259628300,0.784628173828125,7.137786865234375,6.8003997802734375,-0.8111724853515625
1783152188269333000,0.7943330078125,7.056427001953125,6.75494384765625,-0.873382568359375
1783152188279068000,0.80406787109375,7.1569366455078125,6.7405853271484375,-1.05523681640625
1783152188288803000,0.813802978515625,7.4560394287109375,6.8291168212890625,-1.296905517578125
1783152188298507800,0.8235078125,7.8484649658203125,6.912872314453125,-1.4739837646484375
1783152188308212200,0.833212158203125,8.027923583984375,6.9080810546875,-1.4620208740234375
1783152188317947400,0.842947509765625,8.037490844726562,6.7645111083984375,-1.2394866943359375
1783152188327652000,0.852652099609375,8.200210571289062,6.6831512451171875,-1.107879638671875
1783152188337356500,0.8623564453125,8.413162231445312,6.7525482177734375,-1.167694091796875
1783152188347061200,0.872061279296875,8.4107666015625,6.798004150390625,-1.3112640380859375
1783152188356765700,0.881765625,8.307876586914062,6.786041259765625,-1.438079833984375
1783152188366500900,0.8915009765625,8.188232421875,6.8003997802734375,-1.6175537109375
1783152188376205600,0.90120556640625,8.099700927734375,6.8697967529296875,-1.8376922607421875
1783152188385910000,0.910909912109375,8.17388916015625,6.960723876953125,-2.0626068115234375
1783152188395614700,0.92061474609375,8.099700927734375,7.0468597412109375,-2.1774749755859375
1783152188405349600,0.930349609375,7.9322052001953125,7.077972412109375,-2.22772216796875
1783152188415054300,0.940054443359375,8.116455078125,7.1808624267578125,-2.2779693603515625
1783152188424759000,0.949759033203125,8.43231201171875,7.300506591796875,-2.282745361328125
1783152188434463500,0.95946337890625,8.611770629882812,7.360321044921875,-2.20379638671875
1783152188444198700,0.96919873046875,8.73858642578125,7.3866424560546875,-2.0506439208984375
1783152188453903000,0.978903076171875,8.860626220703125,7.276580810546875,-1.7611236572265625
1783152188463607800,0.98860791015625,8.810379028320312,7.056427001953125,-1.4117584228515625
1783152188473312500,0.9983125,8.841476440429688,6.76690673828125,-1.107879638671875
1783152188483047400,1.00804736328125,8.827117919921875,6.575469970703125,-0.9595184326171875
1783152188492752100,1.017752197265625,8.705093383789062,6.4869384765625,-0.93798828125
1783152188502456600,1.02745654296875,8.640487670898438,6.3768768310546875,-0.9403839111328125
1783152188512161300,1.037161376953125,8.700302124023438,6.281158447265625,-0.9834442138671875
1783152188521896400,1.046896484375,8.740982055664062,5.9509429931640625,-0.9188385009765625
1783152188531601000,1.056600830078125,9.037689208984375,5.1589202880859375,-0.9643096923828125
1783152188541305600,1.0663056640625,7.886749267578125,6.9535369873046875,-2.22772216796875
1783152188551010000,1.076010009765625,8.042282104492188,6.7812652587890625,-2.21575927734375
1783152188560745200,1.0857451171875,8.752944946289062,5.2642059326171875,-1.502685546875
1783152188570450000,1.095449951171875,8.063812255859375,6.1136627197265625,-1.883148193359375
1783152188580184800,1.105184814453125,8.193023681640625,5.78106689453125,-1.7515411376953125
1783152188589889500,1.1148896484375,8.382064819335938,5.4652099609375,-1.576873779296875
1783152188599624700,1.124624755859375,8.178665161132812,5.472381591796875,-1.56011962890625
1783152188619033900,1.144033935546875,7.7431793212890625,5.3216400146484375,-1.56011962890625
1783152188628738300,1.15373828125,7.7335968017578125,5.4149627685546875,-1.6534423828125
1783152188638473500,1.163473388671875,7.9728851318359375,5.4676055908203125,-1.7395782470703125
1783152188648178200,1.17317822265625,8.054244995117188,5.4388885498046875,-1.8089752197265625
1783152188657882600,1.182882568359375,7.70489501953125,5.38385009765625,-1.9621124267578125
1783152188667587300,1.19258740234375,7.5684967041015625,5.4628143310546875,-2.1104736328125
1783152188677322500,1.202322509765625,8.334197998046875,5.4795684814453125,-2.1463623046875
1783152188687027000,1.21202685546875,7.874786376953125,5.589630126953125,-2.28753662109375
1783152188696731600,1.221731689453125,7.45843505859375,5.783447265625,-2.2731781005859375
1783152188706436000,1.23143603515625,7.5804595947265625,5.3336029052734375,-1.8041839599609375
1783152188716171300,1.241171142578125,7.4680023193359375,5.424530029296875,-1.871185302734375
1783152188725876000,1.2508759765625,6.9080810546875,5.59442138671875,-2.069793701171875
1783152188735580400,1.260580322265625,6.3960113525390625,5.857635498046875,-2.4598236083984375
1783152188745285000,1.27028515625,6.1423797607421875,5.0057830810546875,-2.175079345703125
1783152188755020000,1.28002001953125,7.24786376953125,2.538787841796875,-1.6965179443359375
1783152188764724700,1.289724853515625,6.6352996826171875,4.170684814453125,-2.04107666015625
1783152188774429400,1.299429443359375,5.848052978515625,3.2686004638671875,-0.9116668701171875
1783152188784134000,1.3091337890625,6.3601226806640625,4.3310089111328125,-0.59820556640625
1783152188793869000,1.318869140625,5.6518402099609375,4.6109619140625,-1.002593994140625
1783152188803573500,1.328573486328125,6.431915283203125,4.4937286376953125,-1.354339599609375
1783152188813278200,1.3382783203125,7.1760711669921875,4.1443634033203125,-1.4763641357421875
1783152188822983000,1.34798291015625,8.032699584960938,4.1563262939453125,-1.5505523681640625
1783152188832687400,1.357687255859375,8.700302124023438,4.780853271484375,-1.887939453125
1783152188842422500,1.367422607421875,8.511276245117188,5.7978057861328125,-3.0867462158203125
1783152188852127000,1.377126953125,8.630905151367188,7.417755126953125,-4.72821044921875
1783152188861862100,1.386862060546875,8.08056640625,6.8602294921875,-4.6229400634765625
1783152188871566800,1.39656689453125,6.82672119140625,3.05084228515625,-1.99322509765625
1783152188881302000,1.406302001953125,7.161712646484375,2.344970703125,-1.78265380859375
1783152188891006500,1.41600634765625,8.271987915039062,3.5916290283203125,-2.4646148681640625
1783152188900711200,1.425711181640625,8.202590942382812,3.699310302734375,-1.940582275390625
1783152188910415600,1.43541552734375,7.4321136474609375,3.6131591796875,-1.37109375
1783152188920150800,1.44515087890625,6.903289794921875,3.8955078125,-1.1988067626953125
1783152188929855200,1.454855224609375,7.9250335693359375,3.5629119873046875,-0.8877410888671875
1783152188939560000,1.464559814453125,9.968505859375,2.7996063232421875,-1.471588134765625
1783152188949264600,1.4742646484375,7.676177978515625,3.6514434814453125,-2.0027923583984375
1783152188958999600,1.48399951171875,5.2977142333984375,4.83111572265625,-2.292327880859375
1783152188968704300,1.493704345703125,5.6685943603515625,4.8694000244140625,-2.7182464599609375
1783152188978408700,1.50340869140625,7.8269195556640625,4.3525390625,-2.9359893798828125
1783152188988113400,1.513113525390625,8.709869384765625,3.3930206298828125,-2.550750732421875
1783152188997818000,1.522818115234375,4.8717803955078125,2.1655120849609375,-2.31146240234375
1783152189007553000,1.532552978515625,7.396209716796875,0.756134033203125,-2.40478515625
1783152189017257700,1.5422578125,8.17388916015625,1.0887298583984375,-3.1058807373046875
1783152189026962200,1.551962158203125,8.944366455078125,1.50030517578125,-3.371490478515625
1783152189036697300,1.561697265625,9.367904663085938,1.787445068359375,-2.854644775390625
1783152189046402000,1.571402099609375,10.040283203125,1.6893310546875,-2.1367950439453125
1783152189056106500,1.5811064453125,10.789230346679688,1.083953857421875,-1.2299041748046875
1783152189065811200,1.590811279296875,10.834701538085938,0.6484527587890625,-0.780059814453125
1783152189075546400,1.60054638671875,10.066604614257812,0.5312042236328125,-0.82073974609375
1783152189085250800,1.610250732421875,8.255233764648438,0.428314208984375,-1.0456695556640625
1783152189094955500,1.61995556640625,5.7236328125,0.6915283203125,-1.51226806640625
1783152189104660000,1.629659912109375,3.6562347412109375,1.306488037109375,-1.777862548828125
1783152189114395100,1.63939501953125,2.3425750732421875,2.47418212890625,-1.390228271484375
1783152189124099800,1.649099853515625,3.3571319580078125,4.2089691162109375,-1.1988067626953125
1783152189143509000,1.668509033203125,6.8243255615234375,4.8358917236328125,-0.2344970703125
1783152189153244000,1.678243896484375,6.9990081787109375,4.45782470703125,-0.10528564453125
1783152189162979000,1.68797900390625,6.3194427490234375,4.1563262939453125,0.4259185791015625
1783152189172683800,1.697683837890625,6.8697967529296875,4.6420745849609375,0.4259185791015625
1783152189182388200,1.70738818359375,5.977264404296875,7.312469482421875,-3.4217376708984375
1783152189192123400,1.717123291015625,5.5010986328125,11.382659912109375,-7.82452392578125
1783152189201828000,1.726828125,8.279159545898438,11.844467163085938,-7.3651123046875
1783152189211532500,1.736532470703125,8.602203369140625,4.651641845703125,-0.942779541015625
1783152189221237200,1.7462373046875,7.7312164306640625,-0.2464599609375,3.0412750244140625
1783152189230941700,1.755941650390625,7.2406768798828125,0.06939697265625,2.364105224609375
1783152189240676900,1.7656767578125,7.659423828125,1.2634124755859375,1.009765625
1783152189250381600,1.775381591796875,8.051849365234375,1.4763641357421875,1.28973388671875
1783152189260086000,1.7850859375,7.4273223876953125,1.24188232421875,2.1966094970703125
1783152189269790700,1.794790771484375,7.1976165771484375,0.8422698974609375,2.773284912109375
1783152189279526000,1.80452587890625,7.384246826171875,0.61016845703125,2.971893310546875
1783152189289230300,1.814230224609375,7.6977081298828125,0.1268157958984375,2.950347900390625
1783152189298935000,1.82393505859375,7.6498565673828125,-0.62213134765625,2.9575347900390625
1783152189308639500,1.833639404296875,7.4105682373046875,-1.4189453125,2.99102783203125
1783152189318374700,1.843374755859375,6.61376953125,-2.2731781005859375,2.80438232421875
1783152189337783800,1.86278369140625,3.16571044921875,-4.7832489013671875,3.007781982421875
1783152189347488500,1.872488525390625,1.4859466552734375,-6.0251312255859375,3.524627685546875
1783152189357223400,1.882223388671875,0.1316070556640625,-6.7645111083984375,4.182647705078125
1783152189366928100,1.89192822265625,-0.7824554443359375,-7.207183837890625,4.5176544189453125
1783152189376632600,1.901632568359375,-1.4763641357421875,-7.664215087890625,5.39581298828125
1783152189386337300,1.911337158203125,-3.091522216796875,-8.118850708007812,6.7716827392578125
1783152189396072400,1.921072509765625,-3.390625,-8.66680908203125,8.087738037109375
1783152189405777000,1.93077685546875,-2.8642120361328125,-10.092926025390625,10.21734619140625
1783152189415481600,1.940481689453125,-1.9908294677734375,-12.043075561523438,12.52642822265625
1783152189425186000,1.95018603515625,0.0741729736328125,-13.938186645507812,14.311477661132812
1783152189434921200,1.959921142578125,3.266204833984375,-15.594024658203125,15.617950439453125
1783152189444656400,1.969656494140625,6.692718505859375,-16.12762451171875,15.653839111328125
1783152189454361000,1.979361083984375,9.494720458984375,-15.206390380859375,14.256439208984375
1783152189464065500,1.9890654296875,10.722244262695312,-14.517257690429688,12.6556396484375
1783152189473800700,1.99880078125,10.664810180664062,-14.586654663085938,11.507080078125
1783152189483505200,2.008505126953125,10.243667602539062,-14.763717651367188,10.875381469726562
1783152189493209900,2.0182099609375,10.164718627929688,-14.66082763671875,10.533203125
1783152189502914600,2.02791455078125,10.435104370117188,-14.5794677734375,10.631317138671875
1783152189512649500,2.0376494140625,11.126632690429688,-14.632110595703125,11.062026977539062
1783152189522354200,2.047354248046875,12.052642822265625,-14.600997924804688,11.40179443359375
1783152189532058600,2.05705859375,12.909271240234375,-14.366500854492188,11.710479736328125
1783152189541763300,2.066763427734375,13.177276611328125,-13.995620727539062,11.784652709960938
1783152189551498500,2.07649853515625,12.74896240234375,-13.567306518554688,11.789443969726562
1783152189561203000,2.086202880859375,11.712860107421875,-13.30169677734375,12.016754150390625
1783152189570907600,2.09590771484375,10.762908935546875,-12.880569458007812,12.442672729492188
1783152189580612000,2.105612060546875,9.8297119140625,-12.145965576171875,12.732208251953125
1783152189590347300,2.11534716796875,9.097518920898438,-11.346771240234375,13.237091064453125
1783152189600052000,2.125052001953125,8.360519409179688,-10.679168701171875,13.78265380859375
1783152189609756400,2.13475634765625,7.7024993896484375,-10.033111572265625,14.196624755859375
1783152189619461000,2.144461181640625,7.08514404296875,-9.403793334960938,14.598617553710938
1783152189629196300,2.1541962890625,6.4989013671875,-8.8438720703125,14.730209350585938
1783152189648605400,2.17360546875,5.6685943603515625,-8.05902099609375,14.749359130859375
1783152189658310000,2.183309814453125,5.34796142578125,-7.93939208984375,14.725433349609375
1783152189668045000,2.193045166015625,5.206787109375,-8.025527954101562,14.64886474609375
1783152189677749800,2.202749755859375,5.0081787109375,-7.9896392822265625,14.6273193359375
1783152189687454200,2.2124541015625,4.42193603515625,-8.025527954101562,14.644073486328125
1783152189697159000,2.222158935546875,3.828521728515625,-8.106887817382812,14.51007080078125
1783152189706863400,2.23186328125,3.184844970703125,-8.24566650390625,14.344970703125
1783152189716598500,2.2415986328125,2.5603179931640625,-8.379669189453125,14.120040893554688
1783152189726333700,2.251333740234375,1.672576904296875,-8.45623779296875,13.684555053710938
1783152189736038100,2.2610380859375,0.334991455078125,-8.740982055664062,13.22991943359375
1783152189745742800,2.270742919921875,-0.9403839111328125,-9.320037841796875,12.756134033203125
1783152189755478000,2.28047802734375,-2.057830810546875,-9.803390502929688,12.004791259765625
1783152189765182500,2.290182373046875,-3.2350921630859375,-9.949356079101562,11.088333129882812
1783152189774887200,2.29988720703125,-4.8095703125,-9.985244750976562,9.963714599609375
1783152189784591600,2.309591552734375,-6.59222412109375,-10.00439453125,8.870193481445312
1783152189794326800,2.319326904296875,-8.76251220703125,-10.18145751953125,8.092529296875
1783152189804031500,2.329031494140625,-11.090728759765625,-10.179061889648438,7.2215423583984375
1783152189813736000,2.33873583984375,-12.76092529296875,-9.836898803710938,6.240478515625
1783152189823440600,2.348440673828125,-13.459625244140625,-9.674179077148438,5.5633087158203125
1783152189833175600,2.358175537109375,-13.03131103515625,-9.635894775390625,5.1158599853515625
1783152189842880300,2.36788037109375,-11.380264282226562,-9.796218872070312,5.08953857421875
1783152189852585000,2.3775849609375,-8.863021850585938,-10.978271484375,5.625518798828125
1783152189862289400,2.387289306640625,-8.769699096679688,-18.867401123046875,6.38165283203125
1783152189872024600,2.397024658203125,-4.364501953125,-15.151351928710938,-1.964508056640625
1783152189881729000,2.40672900390625,1.7252197265625,-14.897720336914062,-4.192230224609375
1783152189891433700,2.416433837890625,0.815948486328125,-22.2030029296875,-1.80657958984375
1783152189901138400,2.426138427734375,5.0919342041015625,-21.848861694335938,-2.26361083984375
1783152189910873300,2.435873291015625,11.337188720703125,-16.094131469726562,-4.5487518310546875
1783152189920578000,2.445578125,16.83111572265625,-10.061813354492188,-6.7932281494140625
1783152189930282500,2.455282470703125,20.815170288085938,-5.1685028076171875,-5.9676971435546875
1783152189939987200,2.4649873046875,17.941390991210938,-7.889129638671875,-0.4067840576171875
1783152189949722400,2.474722412109375,14.97906494140625,-9.06640625,4.0582275390625
1783152189959426800,2.4844267578125,12.61016845703125,-8.238494873046875,5.0799560546875
1783152189969131500,2.494131591796875,9.564117431640625,-7.4847564697265625,7.0995025634765625
1783152189978836000,2.5038359375,5.9270172119140625,-7.324432373046875,8.358123779296875
1783152189988571100,2.513571044921875,3.29730224609375,-6.3720855712890625,8.827117919921875
1783152189998275800,2.52327587890625,1.78265380859375,-5.39581298828125,9.097518920898438
1783152190008010800,2.5330107421875,0.827911376953125,-4.89093017578125,9.200408935546875
1783152190017715500,2.542715576171875,0.488128662109375,-4.5152587890625,9.444473266601562
1783152190027450600,2.55245068359375,0.650848388671875,-4.1300048828125,9.578475952148438
1783152190037155000,2.562155029296875,1.0241241455078125,-3.8739776611328125,9.824935913085938
1783152190046859800,2.57185986328125,1.483551025390625,-3.71844482421875,10.047470092773438
1783152190056564200,2.581564208984375,1.916656494140625,-3.7328033447265625,10.36810302734375
1783152190066269000,2.59126904296875,2.093719482421875,-4.0462646484375,10.894515991210938
1783152190076004000,2.601004150390625,1.9788665771484375,-4.46978759765625,11.234298706054688
1783152190085708500,2.61070849609375,1.7922210693359375,-4.766510009765625,11.2725830078125
1783152190095413200,2.620413330078125,1.555328369140625,-4.9172515869140625,11.100311279296875
1783152190105148400,2.6301484375,1.213165283203125,-5.0105743408203125,10.86102294921875
1783152190114852900,2.639852783203125,0.710662841796875,-5.2737884521484375,10.652847290039062
1783152190124557600,2.6495576171875,0.29193115234375,-5.4149627685546875,10.348953247070312
1783152190134262000,2.659261962890625,-0.004791259765625,-5.8552398681640625,10.2388916015625
1783152190143997200,2.6689970703125,0.1986083984375,-6.3768768310546875,10.12164306640625
1783152190153702000,2.678701904296875,0.84466552734375,-6.5371856689453125,9.800994873046875
1783152190163406300,2.68840625,1.648651123046875,-6.6017913818359375,9.516250610351562
1783152190173111000,2.698111083984375,2.51007080078125,-6.690338134765625,9.248260498046875
1783152190182846000,2.707845947265625,3.43609619140625,-6.4008026123046875,8.96112060546875
1783152190192550700,2.717550537109375,4.3956146240234375,-5.9892425537109375,9.083160400390625
1783152190202255400,2.72725537109375,5.0081787109375,-5.5800628662109375,9.269790649414062
1783152190211959800,2.736959716796875,4.9004974365234375,-5.3168487548828125,9.511474609375
1783152190221664500,2.74666455078125,4.5631103515625,-5.0919342041015625,9.884750366210938
1783152190231399400,2.7563994140625,4.43389892578125,-4.792816162109375,10.219741821289062
1783152190241104100,2.766104248046875,4.438690185546875,-4.4674072265625,10.303497314453125
1783152190250808800,2.775808837890625,4.3358001708984375,-4.3070831298828125,10.420745849609375
1783152190260513300,2.78551318359375,4.2376861572265625,-4.3884429931640625,10.523635864257812
1783152190270248400,2.79524853515625,4.2376861572265625,-4.4721832275390625,10.41595458984375
1783152190279953000,2.804952880859375,4.4602203369140625,-4.5200347900390625,10.035491943359375
1783152190289688000,2.81468798828125,4.83111572265625,-4.6707916259765625,9.506683349609375
1783152190299392800,2.824392822265625,5.3527374267578125,-4.874176025390625,8.91326904296875
1783152190309128000,2.8341279296875,5.9796600341796875,-5.06561279296875,8.262420654296875
1783152190318832400,2.843832275390625,6.6759796142578125,-5.1517486572265625,7.6498565673828125
1783152190328537000,2.853537109375,7.22393798828125,-5.21875,7.008575439453125
1783152190338241500,2.863241455078125,7.6283111572265625,-5.2761688232421875,6.4414825439453125
1783152190347976700,2.872976806640625,7.8556365966796875,-5.201995849609375,5.9605255126953125
1783152190357681400,2.882681396484375,8.032699584960938,-4.90289306640625,5.5154571533203125
1783152190367385900,2.8923857421875,8.068603515625,-4.4961090087890625,5.1349945068359375
1783152190377090600,2.902090576171875,7.9298095703125,-4.16351318359375,5.0464630126953125
1783152190386825500,2.911825439453125,7.59002685546875,-3.8572235107421875,5.18524169921875
1783152190396530200,2.9215302734375,7.16650390625,-3.5653076171875,5.60638427734375
1783152190406234600,2.931234619140625,6.5946197509765625,-3.41217041015625,6.2069854736328125
1783152190415939300,2.940939208984375,5.9270172119140625,-3.359527587890625,6.8937225341796875
1783152190425674500,2.950674560546875,5.2043914794921875,-3.3523406982421875,7.6809539794921875
1783152190435379000,2.96037890625,4.5367889404296875,-3.335601806640625,8.48016357421875
1783152190445083600,2.970083740234375,3.8093719482421875,-3.3116607666015625,9.346359252929688
1783152190454788000,2.9797880859375,3.172882080078125,-3.2518463134765625,10.090530395507812
1783152190464523300,2.989523193359375,2.715850830078125,-3.1920318603515625,10.660018920898438
1783152190474228000,2.99922802734375,2.3952178955078125,-3.2111663818359375,11.124237060546875
1783152190483932400,3.008932373046875,2.07696533203125,-3.2518463134765625,11.380264282226562
1783152190493637000,3.01863720703125,1.77069091796875,-3.278167724609375,11.444869995117188
1783152190503372300,3.028372314453125,1.3447723388671875,-3.3762664794921875,11.487945556640625
1783152190513076700,3.03807666015625,0.732208251953125,-3.5174560546875,11.569290161132812
1783152190522781400,3.047781494140625,0.157928466796875,-3.402587890625,11.6458740234375
1783152190532486000,3.05748583984375,-0.2225341796875,-3.16571044921875,11.382659912109375
1783152190542221000,3.067220947265625,-0.591033935546875,-2.974273681640625,10.980667114257812
1783152190551925800,3.07692578125,-0.9810638427734375,-2.8187408447265625,10.57867431640625
1783152190561630200,3.086630126953125,-1.24188232421875,-2.656036376953125,10.174285888671875
1783152190571335000,3.0963349609375,-1.3519439697265625,-2.53399658203125,9.726821899414062
1783152190581070000,3.106070068359375,-1.237091064453125,-2.445465087890625,9.25543212890625
1783152190590805000,3.115804931640625,-0.9308013916015625,-2.3425750732421875,8.7840576171875
1783152190600509700,3.125509765625,-0.4355010986328125,-2.316253662109375,8.358123779296875
1783152190610214100,3.135214111328125,0.2105712890625,-2.3018951416015625,7.9896392822265625
1783152190619949300,3.14494921875,0.88055419921875,-2.292327880859375,7.6953125
1783152190629654000,3.154654052734375,1.502685546875,-2.3090667724609375,7.4464569091796875
1783152190639358500,3.1643583984375,2.0841522216796875,-2.2612152099609375,7.1880340576171875
1783152190649063200,3.174063232421875,2.5818634033203125,-2.1798553466796875,7.030120849609375
1783152190658767600,3.183767578125,3.0053863525390625,-2.093719482421875,6.9176483154296875
1783152190668502800,3.193502685546875,3.3332061767578125,-2.0386810302734375,6.924835205078125
1783152190678207500,3.20320751953125,3.455230712890625,-1.9333953857421875,6.996612548828125
1783152190687912000,3.212911865234375,3.3978118896484375,-1.8975067138671875,7.1521453857421875
1783152190697616600,3.22261669921875,3.3619232177734375,-1.8855438232421875,7.324432373046875
1783152190707351800,3.232351806640625,3.23748779296875,-1.9381866455078125,7.5158538818359375
1783152190717056300,3.24205615234375,3.0460662841796875,-2.01715087890625,7.67138671875
1783152190726761000,3.251760986328125,2.7948150634765625,-2.1224365234375,7.8460693359375
1783152190736465400,3.26146533203125,2.5292205810546875,-2.2731781005859375,7.99920654296875
1783152190746200600,3.27120068359375,2.2444610595703125,-2.4358978271484375,8.133209228515625
1783152190755905300,3.2809052734375,2.033905029296875,-2.6536407470703125,8.264816284179688
1783152190765609700,3.290609619140625,1.8855438232421875,-2.9072723388671875,8.415557861328125
1783152190775314400,3.300314453125,1.8257293701171875,-3.1752777099609375,8.535202026367188
1783152190785049300,3.31004931640625,1.911865234375,-3.452850341796875,8.673980712890625
1783152190794754000,3.319754150390625,2.093719482421875,-3.7615203857421875,8.798416137695312
1783152190804458800,3.329458740234375,2.35693359375,-4.0558319091796875,8.930007934570312
1783152190814163200,3.3391630859375,2.56988525390625,-4.292724609375,9.092727661132812
1783152190833602800,3.358602783203125,2.8833465576171875,-4.522430419921875,9.3367919921875
1783152190843307500,3.3683076171875,2.86181640625,-4.5535430908203125,9.46600341796875
1783152190853012000,3.378011962890625,2.809173583984375,-4.5128631591796875,9.619140625
1783152190862747100,3.3877470703125,2.868988037109375,-4.3358001708984375,9.633499145507812
1783152190872482300,3.397482421875,2.921630859375,-4.0797576904296875,9.597610473632812
1783152190882187000,3.40718701171875,2.97906494140625,-3.7998046875,9.549758911132812
1783152190891891500,3.416891357421875,3.0484619140625,-3.5150604248046875,9.46600341796875
1783152190901626600,3.426626708984375,3.0005950927734375,-3.1800689697265625,9.332015991210938
1783152190911331000,3.4363310546875,2.797210693359375,-2.849853515625,9.198013305664062
1783152190921035800,3.446035888671875,2.5483551025390625,-2.6177520751953125,9.178863525390625
1783152190930740500,3.455740478515625,2.3330078125,-2.6608123779296875,9.449264526367188
1783152190940475400,3.465475341796875,2.2899322509765625,-2.890533447265625,9.810577392578125
1783152190950180000,3.47518017578125,2.3617095947265625,-3.0484619140625,10.076171875
1783152190959884500,3.484884521484375,2.392822265625,-3.2446746826171875,10.499710083007812
1783152190969589200,3.49458935546875,2.4550323486328125,-3.548553466796875,10.975875854492188
1783152190979324400,3.504324462890625,2.5483551025390625,-3.8979034423828125,11.504684448242188
1783152190989028900,3.51402880859375,2.56988525390625,-4.2783660888671875,11.992828369140625
1783152190998733600,3.523733642578125,2.3952178955078125,-4.6013946533203125,12.330215454101562
1783152191008438000,3.53343798828125,2.0913238525390625,-4.83349609375,12.421142578125
1783152191018173200,3.543173095703125,1.8448638916015625,-4.8813629150390625,12.23211669921875
1783152191027878000,3.5528779296875,1.7922210693359375,-4.7712860107421875,11.724838256835938
1783152191037582300,3.562582275390625,1.964508056640625,-4.62054443359375,10.985443115234375
1783152191047287000,3.572287109375,2.2133636474609375,-4.429107666015625,10.16949462890625
1783152191057022200,3.582022216796875,2.6129608154296875,-4.19940185546875,9.320037841796875
1783152191066726700,3.5917265625,3.160919189453125,-3.9744720458984375,8.472991943359375
1783152191076431400,3.601431396484375,3.771087646484375,-3.763916015625,7.659423828125
1783152191086135800,3.6111357421875,4.4434661865234375,-3.5677032470703125,6.8841552734375
1783152191095871000,3.62087109375,5.190032958984375,-3.4217376708984375,6.2548370361328125
1783152191105575700,3.63057568359375,5.8863372802734375,-3.254241943359375,5.716461181640625
1783152191115280100,3.640280029296875,6.305084228515625,-3.383453369140625,5.3623199462890625
1783152191124984800,3.64998486328125,6.8123626708984375,-3.68255615234375,5.1278228759765625
1783152191134689300,3.659689208984375,7.06121826171875,-3.8907318115234375,5.012969970703125
1783152191144424400,3.669424560546875,7.106689453125,-4.1898345947265625,5.1804656982421875
1783152191154159600,3.67915966796875,6.8889312744140625,-4.579864501953125,5.58245849609375
1783152191163864000,3.688864013671875,6.3792724609375,-4.9962158203125,6.1663055419921875
1783152191173568800,3.69856884765625,5.6685943603515625,-5.39581298828125,6.879364013671875
1783152191183304000,3.708303955078125,5.012969970703125,-5.836090087890625,7.640289306640625
1783152191193008400,3.71800830078125,4.3358001708984375,-6.1327972412109375,8.298309326171875
1783152191202713000,3.727713134765625,3.63470458984375,-6.2428741455078125,8.882156372070312
1783152191212417500,3.73741748046875,2.99102783203125,-6.1734771728515625,9.269790649414062
1783152191222152700,3.747152587890625,2.5531463623046875,-6.0777740478515625,9.561721801757812
1783152191231857400,3.756857421875,2.3018951416015625,-5.929412841796875,9.755538940429688
1783152191241561900,3.766561767578125,2.1320037841796875,-5.6805572509765625,9.85125732421875
1783152191251266600,3.7762666015625,1.9956207275390625,-5.3742828369140625,9.822540283203125
1783152191261001500,3.78600146484375,1.8855438232421875,-5.0392913818359375,9.59521484375
1783152191270706200,3.7957060546875,1.835296630859375,-4.721038818359375,9.260223388671875
1783152191280411000,3.805410888671875,1.8855438232421875,-4.414764404296875,8.848663330078125
1783152191290115300,3.815115234375,1.9429779052734375,-4.122833251953125,8.389236450195312
1783152191299850500,3.8248505859375,1.9740753173828125,-3.9098663330078125,7.9441680908203125
1783152191309555000,3.834554931640625,1.9262237548828125,-3.74237060546875,7.535003662109375
1783152191319259600,3.844259765625,1.9381866455078125,-3.605987548828125,7.1688995361328125
1783152191328964400,3.85396435546875,2.021942138671875,-3.49591064453125,6.8985137939453125
1783152191338699300,3.86369921875,2.1224365234375,-3.407379150390625,6.702301025390625
1783152191348404000,3.873404052734375,2.2971038818359375,-3.371490478515625,6.5898284912109375
1783152191358108400,3.8831083984375,2.5076751708984375,-3.4169464111328125,6.6113739013671875
1783152191367813000,3.892813232421875,2.7134552001953125,-3.524627685546875,6.7046966552734375
1783152191377548300,3.90254833984375,2.9575347900390625,-3.6729888916015625,6.8410797119140625
1783152191387252700,3.912252685546875,3.2039947509765625,-3.818939208984375,7.03729248046875
1783152191396957400,3.92195751953125,3.390625,-3.9553375244140625,7.202392578125
1783152191406662000,3.931661865234375,3.49591064453125,-4.11566162109375,7.4225311279296875
1783152191416397000,3.94139697265625,3.4935150146484375,-4.2735748291015625,7.6378936767578125
1783152191426101800,3.951101806640625,3.40020751953125,-4.4027862548828125,7.8388824462890625
1783152191435837000,3.9608369140625,3.2446746826171875,-4.4889373779296875,8.02313232421875
1783152191445541400,3.970541259765625,3.0341033935546875,-4.5272216796875,8.12841796875
1783152191455276500,3.980276611328125,2.8283233642578125,-4.4937286376953125,8.19781494140625
1783152191464981000,3.98998095703125,2.6751708984375,-4.4315032958984375,8.219345092773438
1783152191474685700,3.999685791015625,2.6009979248046875,-4.299896240234375,8.22174072265625
1783152191484390100,4.00939013671875,2.4885406494140625,-4.1491546630859375,8.216949462890625
1783152191494094800,4.0190947265625,2.3497467041015625,-4.051055908203125,8.193023681640625
1783152191503830000,4.028830078125,2.256439208984375,-3.9553375244140625,8.18585205078125
1783152191513534500,4.038534423828125,2.2253265380859375,-3.7998046875,8.15234375
1783152191523239200,4.0482392578125,2.1918182373046875,-3.67059326171875,8.063812255859375
1783152191532974300,4.057974365234375,2.139190673828125,-3.5533447265625,8.001602172851562
1783152191542678800,4.0676787109375,2.0961151123046875,-3.6083831787109375,8.015960693359375
1783152191552383500,4.077383544921875,2.081756591796875,-3.2686004638671875,7.8388824462890625
1783152191562088000,4.087087890625,1.983642578125,-3.136993408203125,7.829315185546875
1783152191571792600,4.096792724609375,1.99322509765625,-3.0771636962890625,7.8843536376953125
1783152191581527800,4.10652783203125,1.9142608642578125,-3.0484619140625,7.99920654296875
1783152191591232300,4.116232177734375,1.8137664794921875,-3.019744873046875,8.102096557617188
1783152191600937000,4.12593701171875,1.7443695068359375,-2.974273681640625,8.25762939453125
1783152191610641400,4.135641357421875,1.624725341796875,-2.9766693115234375,8.434707641601562
1783152191620376600,4.14537646484375,1.507476806640625,-2.99102783203125,8.676376342773438
1783152191630081300,4.155081298828125,1.4285125732421875,-3.0005950927734375,8.927627563476562
1783152191639785700,4.16478564453125,1.3878326416015625,-2.986236572265625,9.198013305664062
1783152191649490400,4.174490478515625,1.4213409423828125,-2.96710205078125,9.485153198242188
1783152191659225600,4.1842255859375,1.48834228515625,-2.9886322021484375,9.762710571289062
1783152191668930000,4.193929931640625,1.54815673828125,-3.03887939453125,9.985244750976562
1783152191678634800,4.203634765625,1.5577239990234375,-3.0819549560546875,10.2030029296875
1783152191688339200,4.213339111328125,1.6438751220703125,-3.1824493408203125,10.382461547851562
1783152191698074400,4.223074462890625,2.08892822265625,-3.419342041015625,10.55474853515625
1783152191707778800,4.23277880859375,2.7302093505859375,-3.7208404541015625,10.60260009765625
1783152191717483500,4.2424833984375,3.1202392578125,-3.9194488525390625,10.722244262695312
1783152191727218700,4.25221875,3.6011962890625,-3.9314117431640625,10.68634033203125
1783152191736953900,4.261953857421875,4.1539459228515625,-3.8907318115234375,10.600204467773438
1783152191746658300,4.271658203125,4.316650390625,-3.8500518798828125,10.561920166015625
1783152191756363000,4.281363037109375,4.074981689453125,-3.87158203125,10.597808837890625
1783152191766067500,4.2910673828125,3.9601287841796875,-3.5629119873046875,10.660018920898438
1783152191775802600,4.300802734375,3.713653564453125,-3.1944122314453125,10.621734619140625
1783152191785507300,4.31050732421875,3.653839111328125,-3.1106719970703125,10.63848876953125
1783152191795211800,4.320211669921875,3.5557403564453125,-3.0221405029296875,10.717453002929688
1783152191804916500,4.32991650390625,3.5677032470703125,-2.8857421875,10.798812866210938
1783152191814651400,4.3396513671875,3.6490478515625,-2.81634521484375,10.750946044921875
1783152191824356000,4.349356201171875,3.665802001953125,-2.7756805419921875,10.600204467773438
1783152191834060800,4.359060791015625,3.6131591796875,-2.8187408447265625,10.289138793945312
1783152191843765200,4.36876513671875,3.6442718505859375,-2.9407806396484375,9.8057861328125
1783152191853500400,4.37850048828125,3.7399749755859375,-3.0723876953125,9.18365478515625
1783152191863204900,4.388204833984375,3.8380889892578125,-3.2279205322265625,8.477767944335938
1783152191872909600,4.39790966796875,4.0223388671875,-3.41455078125,7.78863525390625
1783152191882614300,4.4076142578125,4.24725341796875,-3.629913330078125,7.1880340576171875
1783152191892349200,4.41734912109375,4.4961090087890625,-3.811767578125,6.690338134765625
1783152191902054000,4.427053955078125,4.701904296875,-3.7040863037109375,6.2476654052734375
1783152191911758300,4.43675830078125,4.9603271484375,-4.0941162109375,6.0849456787109375
1783152191921463000,4.446463134765625,5.34796142578125,-4.204193115234375,5.9581298828125
1783152191931198200,4.4561982421875,5.5633087158203125,-4.1443634033203125,5.9605255126953125
1783152191940902700,4.465902587890625,5.8672027587890625,-4.0941162109375,6.0179443359375
1783152191950607400,4.475607421875,6.03948974609375,-4.0319061279296875,6.2357025146484375
1783152191960311800,4.485311767578125,6.0969085693359375,-3.9146575927734375,6.573089599609375
1783152191970047000,4.495046875,6.0681915283203125,-3.7854461669921875,7.0157623291015625
1783152191979751700,4.504751708984375,5.9318084716796875,-3.6562347412109375,7.4560394287109375
1783152191989456100,4.5144560546875,5.611175537109375,-3.500701904296875,7.8580322265625
1783152191999160800,4.524160888671875,5.0751800537109375,-3.4049835205078125,8.319839477539062
1783152192008896000,4.53389599609375,4.4674072265625,-3.2877349853515625,8.776870727539062
1783152192018631000,4.543630859375,3.8332977294921875,-3.15374755859375,9.19561767578125
1783152192028335600,4.553335693359375,3.22552490234375,-3.031707763671875,9.561721801757812
1783152192038040000,4.5630400390625,2.727813720703125,-2.9288177490234375,9.803390502929688
1783152192047775200,4.572775146484375,2.4287109375,-2.81634521484375,9.884750366210938
1783152192057480000,4.58247998046875,2.234893798828125,-2.7637176513671875,9.925430297851562
1783152192067184400,4.592184326171875,2.093719482421875,-2.73260498046875,9.91107177734375
1783152192076889000,4.60188916015625,1.9381866455078125,-2.69671630859375,9.848861694335938
1783152192086624300,4.611624267578125,1.7156524658203125,-2.6368865966796875,9.786651611328125
1783152192096328700,4.62132861328125,1.4620208740234375,-2.52203369140625,9.68853759765625
1783152192106033400,4.631033447265625,1.3926239013671875,-2.3186492919921875,9.518646240234375
1783152192115737900,4.64073779296875,1.3926239013671875,-2.1607208251953125,9.293716430664062
1783152192125442600,4.650442626953125,1.390228271484375,-2.012359619140625,9.080764770507812
1783152192135177700,4.660177734375,1.4452667236328125,-1.8927154541015625,8.834304809570312
1783152192144882200,4.669882080078125,1.564910888671875,-1.787445068359375,8.604583740234375
1783152192154587000,4.6795869140625,1.7802581787109375,-1.7276153564453125,8.4227294921875
1783152192164291300,4.689291259765625,1.847259521484375,-1.636688232421875,8.202590942382812
1783152192174026500,4.699026611328125,1.959716796875,-1.6773681640625,8.159530639648438
1783152192183731200,4.708731201171875,2.1726837158203125,-1.5984039306640625,8.068603515625
1783152192193435600,4.718435546875,2.3545379638671875,-1.588836669921875,8.05902099609375
1783152192203140400,4.728140380859375,2.48614501953125,-1.5696868896484375,8.08056640625
1783152192212875300,4.737875244140625,2.469390869140625,-1.56011962890625,8.118850708007812
1783152192222580000,4.747580078125,2.352142333984375,-1.5696868896484375,8.195419311523438
1783152192232284700,4.75728466796875,2.23968505859375,-1.555328369140625,8.248062133789062
1783152192241989000,4.766989013671875,2.105682373046875,-1.4979095458984375,8.279159545898438
1783152192251724300,4.776724365234375,1.8807525634765625,-1.4979095458984375,8.3509521484375
1783152192261428700,4.7864287109375,1.5936126708984375,-1.555328369140625,8.439483642578125
1783152192271133400,4.796133544921875,1.2586212158203125,-1.6319122314453125,8.487335205078125
1783152192280838100,4.805838134765625,0.9523468017578125,-1.730010986328125,8.482559204101562
1783152192290573000,4.815572998046875,0.662811279296875,-1.8448638916015625,8.439483642578125
1783152192300308200,4.82530810546875,0.488128662109375,-2.0027923583984375,8.367706298828125
1783152192310013000,4.835012939453125,0.485748291015625,-2.1846466064453125,8.300704956054688
1783152192319717400,4.84471728515625,0.59820556640625,-2.388031005859375,8.274383544921875
1783152192329452500,4.85445263671875,0.7992095947265625,-2.6249237060546875,8.236099243164062
1783152192339157000,4.864156982421875,1.1629180908203125,-2.866607666015625,8.243270874023438
1783152192348861700,4.87386181640625,1.6558380126953125,-3.1513519287109375,8.279159545898438
1783152192358566400,4.88356640625,2.3545379638671875,-3.4624176025390625,8.42034912109375
1783152192368301300,4.89330126953125,3.2063751220703125,-3.6849517822265625,8.645263671875
1783152192378006000,4.903006103515625,4.01275634765625,-3.63470458984375,8.810379028320312
1783152192387710500,4.91271044921875,4.685150146484375,-3.536590576171875,8.982650756835938
1783152192397415200,4.922415283203125,5.2929229736328125,-3.3810577392578125,9.174087524414062
1783152192407150300,4.932150390625,5.496307373046875,-3.22552490234375,9.470794677734375
1783152192416854800,4.941854736328125,5.3742828369140625,-3.0604248046875,9.741180419921875
1783152192426559500,4.9515595703125,4.9938201904296875,-2.9886322021484375,9.997207641601562
1783152192436264000,4.961263916015625,4.4913330078125,-2.9359893798828125,10.260421752929688
1783152192445999000,4.9709990234375,3.981658935546875,-2.998199462890625,10.63848876953125
1783152192455703800,4.980703857421875,3.5653076171875,-3.196807861328125,10.971099853515625
1783152192465408300,4.990408203125,3.1298065185546875,-3.31884765625,11.29412841796875
1783152192475113000,5.000113037109375,2.845062255859375,-3.5270233154296875,11.686553955078125
1783152192484848000,5.00984814453125,2.6943206787109375,-3.8428802490234375,11.99761962890625
1783152192494552600,5.019552490234375,2.5962066650390625,-4.134796142578125,12.229721069335938
1783152192504257300,5.02925732421875,2.45025634765625,-4.3477630615234375,12.349365234375
1783152192513961700,5.038961669921875,2.234893798828125,-4.4841461181640625,12.330215454101562
1783152192523697000,5.04869677734375,1.9956207275390625,-4.58465576171875,12.04547119140625
1783152192533401600,5.058401611328125,1.8209381103515625,-4.59661865234375,11.404190063476562
1783152192543106000,5.06810595703125,1.8616180419921875,-4.38604736328125,10.55474853515625
1783152192552810800,5.077810791015625,2.1726837158203125,-4.053436279296875,9.690933227539062
1783152192562545700,5.087545654296875,2.6153564453125,-3.7256317138671875,8.815155029296875
1783152192572250400,5.09725048828125,3.079559326171875,-3.3978118896484375,8.044662475585938
1783152192581985500,5.106985595703125,3.6011962890625,-3.160919189453125,7.3029022216796875
1783152192591690000,5.11668994140625,4.0845489501953125,-2.8594207763671875,6.6305084228515625
1783152192601425200,5.126425048828125,4.4243316650390625,-2.6249237060546875,6.0562286376953125
1783152192611129900,5.1361298828125,4.78564453125,-2.6129608154296875,5.5848541259765625
1783152192620834300,5.145834228515625,5.0751800537109375,-2.538787841796875,5.2091827392578125
1783152192630539000,5.1555390625,5.4173431396484375,-2.5675048828125,4.9340057373046875
1783152192640243500,5.165243408203125,5.7236328125,-2.644073486328125,4.821533203125
1783152192649978600,5.174978515625,5.8791656494140625,-2.854644775390625,4.8933258056640625
1783152192659683300,5.184683349609375,6.0035858154296875,-3.172882080078125,5.0991058349609375
1783152192669387800,5.1943876953125,5.9342041015625,-3.68255615234375,5.65423583984375
1783152192679092500,5.204092529296875,5.706878662109375,-4.3262176513671875,6.3601226806640625
1783152192688827600,5.21382763671875,5.379058837890625,-5.0225372314453125,7.183258056640625
1783152192698532000,5.223531982421875,4.9411773681640625,-5.6566314697265625,8.032699584960938
1783152192708236800,5.23323681640625,4.4554290771484375,-6.34576416015625,8.934799194335938
1783152192717941200,5.242941162109375,3.888336181640625,-6.9080810546875,9.633499145507812
1783152192727676400,5.252676513671875,3.330810546875,-7.1808624267578125,10.090530395507812
1783152192737380900,5.262380859375,2.9647064208984375,-7.1330108642578125,10.313064575195312
1783152192747085600,5.27208544921875,2.610565185546875,-6.8721923828125,10.3226318359375
1783152192756790300,5.281790283203125,2.2947235107421875,-6.4821624755859375,10.2030029296875
1783152192766525200,5.291525146484375,2.1894378662109375,-6.0251312255859375,9.966110229492188
1783152192776230000,5.30122998046875,2.2061767578125,-5.517852783203125,9.683746337890625
1783152192785934300,5.310934326171875,2.1918182373046875,-5.036895751953125,9.379867553710938
1783152192795639000,5.32063916015625,2.1822509765625,-4.6181488037109375,9.02093505859375
1783152192805374200,5.330374267578125,2.258819580078125,-4.23529052734375,8.6572265625
1783152192815078700,5.34007861328125,2.40478515625,-3.9673004150390625,8.298309326171875
1783152192824783400,5.349783447265625,2.6057891845703125,-3.7998046875,8.032699584960938
1783152192834487800,5.35948779296875,2.890533447265625,-3.665802001953125,7.7671051025390625
1783152192844223000,5.369222900390625,3.1345977783203125,-3.548553466796875,7.501495361328125
1783152192853927700,5.378927734375,3.3738861083984375,-3.500701904296875,7.2741851806640625
1783152192863632100,5.388632080078125,3.596405029296875,-3.419342041015625,7.1330108642578125
1783152192873367300,5.3983671875,3.5389862060546875,-3.455230712890625,7.0037994384765625
1783152192883102500,5.4081025390625,3.5629119873046875,-3.5461578369140625,6.960723876953125
1783152192892807000,5.417806884765625,3.4863433837890625,-3.6394805908203125,6.996612548828125
1783152192902511600,5.42751171875,3.443267822265625,-3.7806549072265625,7.0707855224609375
1783152192912216300,5.43721630859375,3.330810546875,-3.9385833740234375,7.171295166015625
1783152192921951200,5.446951171875,3.1393890380859375,-4.13958740234375,7.360321044921875
1783152192931656000,5.456656005859375,2.8307037353515625,-4.4027862548828125,7.594818115234375
1783152192941360400,5.4663603515625,2.5483551025390625,-4.6253204345703125,7.81256103515625
1783152192951065000,5.476065185546875,2.26361083984375,-4.7712860107421875,7.99920654296875
1783152192960800300,5.48580029296875,1.8735809326171875,-4.907684326171875,8.171493530273438
1783152192970504700,5.495504638671875,1.4763641357421875,-5.0297088623046875,8.271987915039062
1783152192980209400,5.50520947265625,1.1533355712890625,-5.072784423828125,8.276779174804688
1783152192989913900,5.514913818359375,0.8709869384765625,-5.0751800537109375,8.317459106445312
1783152192999649000,5.52464892578125,0.6006011962890625,-5.036895751953125,8.377273559570312
1783152193009353700,5.534353759765625,0.404388427734375,-4.910064697265625,8.42034912109375
1783152193019058200,5.54405810546875,0.2943115234375,-4.709075927734375,8.4227294921875
1783152193028763000,5.553762939453125,0.3302154541015625,-4.46978759765625,8.461029052734375
1783152193038498000,5.563498046875,0.5718841552734375,-4.228118896484375,8.51605224609375
1783152193048202500,5.573202392578125,0.954742431640625,-3.9218292236328125,8.508880615234375
1783152193057907200,5.5829072265625,1.3567352294921875,-3.6275177001953125,8.475372314453125
1783152193067611600,5.592611572265625,1.7084808349609375,-3.36669921875,8.44427490234375
1783152193077316400,5.60231640625,2.0075836181640625,-3.1298065185546875,8.429916381835938
1783152193087051500,5.612051513671875,2.153533935546875,-2.9527435302734375,8.401199340820312
1783152193096756000,5.621755859375,2.2372894287109375,-2.809173583984375,8.391632080078125
1783152193106460700,5.631460693359375,2.210968017578125,-2.610565185546875,8.346160888671875
1783152193116165000,5.6411650390625,2.1942138671875,-2.4837493896484375,8.317459106445312
1783152193125900300,5.650900390625,2.081756591796875,-2.392822265625,8.28155517578125
1783152193135605000,5.66060498046875,1.9333953857421875,-2.3186492919921875,8.286346435546875
1783152193145309400,5.670309326171875,1.6988983154296875,-2.2947235107421875,8.394027709960938
1783152193155044600,5.680044677734375,1.531402587890625,-2.3186492919921875,8.544769287109375
1783152193164779800,5.68977978515625,1.3567352294921875,-2.368896484375,8.717056274414062
1783152193174484200,5.699484130859375,1.2346954345703125,-2.409576416015625,8.930007934570312
1783152193184189000,5.70918896484375,1.1222381591796875,-2.5005035400390625,9.233901977539062
1783152193193893400,5.718893310546875,0.978668212890625,-2.6656036376953125,9.530609130859375
1783152193203628500,5.728628662109375,0.84466552734375,-2.81396484375,9.755538940429688
1783152193213333200,5.738333251953125,0.8350982666015625,-2.90966796875,9.906280517578125
1783152193223037700,5.74803759765625,0.8470611572265625,-3.0221405029296875,10.037887573242188
1783152193232742400,5.757742431640625,1.038482666015625,-3.2063751220703125,10.164718627929688
1783152193242477300,5.767477294921875,1.50030517578125,-3.4624176025390625,10.241287231445312
1783152193252182000,5.77718212890625,2.105682373046875,-3.699310302734375,10.281951904296875
1783152193261886700,5.78688671875,2.6751708984375,-3.883544921875,10.348953247070312
1783152193271591200,5.796591064453125,3.2231292724609375,-4.0247344970703125,10.375274658203125
1783152193281326300,5.806326416015625,3.6969146728515625,-3.97686767578125,10.387237548828125
1783152193291030800,5.81603076171875,4.0199432373046875,-3.5772705078125,10.313064575195312
1783152193300735500,5.825735595703125,4.340576171875,-3.2039947509765625,10.482955932617188
1783152193310440200,5.835440185546875,4.345367431640625,-2.8761749267578125,10.90887451171875
1783152193320175000,5.845175048828125,4.1850433349609375,-2.79241943359375,11.52862548828125
1783152193329879800,5.8548798828125,4.0271148681640625,-2.6392822265625,12.08135986328125
1783152193339584300,5.864584228515625,3.969696044921875,-2.481353759765625,12.600601196289062
1783152193349289000,5.8742890625,3.9960174560546875,-2.40478515625,12.911666870117188
1783152193359024000,5.884024169921875,4.0103759765625,-2.3832550048828125,12.933212280273438
1783152193368728600,5.893728515625,4.0103759765625,-2.4598236083984375,12.79681396484375
1783152193378433300,5.903433349609375,3.924224853515625,-2.620147705078125,12.356536865234375
1783152193388137700,5.9131376953125,3.92901611328125,-2.7948150634765625,11.674575805664062
1783152193397873000,5.922872802734375,3.8859405517578125,-3.0460662841796875,10.894515991210938
1783152193407577600,5.93257763671875,3.76629638671875,-3.2996978759765625,10.143173217773438
1783152193417282000,5.942281982421875,3.7615203857421875,-3.51983642578125,9.329620361328125
1783152193426986800,5.95198681640625,3.82373046875,-3.6729888916015625,8.602203369140625
1783152193436722000,5.961721923828125,3.91705322265625,-3.8045806884765625,7.9657135009765625
1783152193446456800,5.971456787109375,4.0366973876953125,-3.9074859619140625,7.408172607421875
1783152193456161500,5.98116162109375,4.292724609375,-3.74237060546875,6.7716827392578125
1783152193465866000,5.990865966796875,4.4434661865234375,-3.859619140625,6.4127655029296875
1783152193475601200,6.00060107421875,4.802398681640625,-4.1300048828125,6.104095458984375
1783152193485305900,6.010305908203125,4.9770660400390625,-4.063018798828125,5.7547454833984375
1783152193495010300,6.02001025390625,5.144561767578125,-3.9074859619140625,5.4699859619140625
1783152193504715000,6.029715087890625,5.2857513427734375,-3.840484619140625,5.307281494140625
1783152193514450200,6.0394501953125,5.1708831787109375,-3.7567291259765625,5.29052734375
1783152193524154600,6.049154541015625,4.9770660400390625,-3.6634063720703125,5.4795684814453125
1783152193533859300,6.058859375,4.64447021484375,-3.536590576171875,5.869598388671875
1783152193543563800,6.068563720703125,4.1563262939453125,-3.4408721923828125,6.3672943115234375
1783152193553268500,6.0782685546875,3.653839111328125,-3.383453369140625,7.00140380859375
1783152193563003600,6.088003662109375,3.2111663818359375,-3.395416259765625,7.6689910888671875
1783152193572708000,6.0977080078125,2.74456787109375,-3.4169464111328125,8.28155517578125
1783152193582412800,6.107412841796875,2.1822509765625,-3.3810577392578125,8.918045043945312
1783152193592117200,6.1171171875,1.682159423828125,-3.2877349853515625,9.485153198242188
1783152193601852400,6.126852294921875,1.2466583251953125,-3.2279205322265625,9.901504516601562
1783152193611557000,6.13655712890625,0.85662841796875,-3.17767333984375,10.126419067382812
1783152193621261600,6.146261474609375,0.4785614013671875,-3.1992034912109375,10.277175903320312
1783152193630966300,6.15596630859375,0.12921142578125,-3.254241943359375,10.353744506835938
1783152193640701200,6.165701171875,-0.2727813720703125,-3.254241943359375,10.315460205078125
1783152193650406000,6.175406005859375,-0.6316986083984375,-3.1465606689453125,10.269989013671875
1783152193660110600,6.185110595703125,-0.8638153076171875,-2.986236572265625,10.183853149414062
1783152193669815000,6.19481494140625,-0.997802734375,-2.837890625,10.080963134765625
1783152193679550200,6.20455029296875,-1.0576324462890625,-2.6823577880859375,9.997207641601562
1783152193698959400,6.22395947265625,-0.440277099609375,-2.3832550048828125,9.803390502929688
1783152193708664000,6.2336640625,0.1674957275390625,-2.258819580078125,9.662216186523438
1783152193718399000,6.24339892578125,0.8063812255859375,-2.2301177978515625,9.504287719726562
1783152193728134100,6.253134033203125,1.56011962890625,-2.1822509765625,9.343978881835938
1783152193737838800,6.2628388671875,2.2540435791015625,-2.1152496337890625,9.176467895507812
1783152193747543300,6.272543212890625,2.749359130859375,-2.036285400390625,9.004196166992188
1783152193757278500,6.282278564453125,3.1561279296875,-1.9621124267578125,8.863021850585938
1783152193766983200,6.291983154296875,3.4289093017578125,-1.916656494140625,8.800796508789062
1783152193776687600,6.3016875,3.5509490966796875,-1.89990234375,8.77447509765625
1783152193786392300,6.311392333984375,3.50787353515625,-1.7635040283203125,8.676376342773438
1783152193796127200,6.321127197265625,3.42413330078125,-1.648651123046875,8.66680908203125
1783152193805832000,6.33083203125,3.24945068359375,-1.5816497802734375,8.67877197265625
1783152193815536400,6.340536376953125,2.9359893798828125,-1.61993408203125,8.779266357421875
1783152193825241000,6.350240966796875,2.53399658203125,-1.61993408203125,8.8558349609375
1783152193834976300,6.359976318359375,2.1152496337890625,-1.6295166015625,8.944366455078125
1783152193844680700,6.3696806640625,1.684539794921875,-1.6893310546875,9.013763427734375
1783152193854385400,6.379385498046875,1.34954833984375,-1.7084808349609375,9.064010620117188
1783152193864089900,6.38908984375,1.071990966796875,-1.75872802734375,9.068801879882812
1783152193873825000,6.398824951171875,0.9140625,-1.8089752197265625,9.085556030273438
1783152193883529700,6.40852978515625,0.825531005859375,-1.8927154541015625,9.073577880859375
1783152193893234200,6.418234130859375,0.815948486328125,-1.95733642578125,9.044876098632812
1783152193902939000,6.42793896484375,0.9308013916015625,-1.988433837890625,8.994613647460938
1783152193912674000,6.437674072265625,1.0983123779296875,-2.057830810546875,8.922836303710938
1783152193922378500,6.44737841796875,1.272979736328125,-2.1128692626953125,8.906082153320312
1783152193932083200,6.457083251953125,1.4524383544921875,-2.1559295654296875,8.93719482421875
1783152193941787600,6.46678759765625,1.670196533203125,-2.1822509765625,8.963516235351562
1783152193951522800,6.476522705078125,1.871185302734375,-2.1918182373046875,9.001800537109375
1783152193961227500,6.4862275390625,1.9980010986328125,-2.1966094970703125,9.073577880859375
1783152193970932000,6.495931884765625,2.1343994140625,-2.21575927734375,9.205184936523438
1783152193980636700,6.50563671875,2.3473663330078125,-2.2971038818359375,9.461227416992188
1783152193990371800,6.515371826171875,2.6273193359375,-2.392822265625,9.760330200195312
1783152194000076300,6.525076171875,2.97906494140625,-2.4263153076171875,10.071395874023438
1783152194009811500,6.5348115234375,3.22552490234375,-2.4119720458984375,10.430313110351562
1783152194019516000,6.544515869140625,3.1920318603515625,-2.4191436767578125,10.7916259765625
1783152194029251000,6.5542509765625,3.031707763671875,-2.4143524169921875,11.14337158203125
1783152194038955800,6.563955810546875,2.86181640625,-2.3593292236328125,11.37786865234375
1783152194048660200,6.57366015625,2.67279052734375,-2.22772216796875,11.473587036132812
1783152194058365000,6.583364990234375,2.5076751708984375,-2.1583251953125,11.514266967773438
1783152194068100000,6.59310009765625,2.399993896484375,-2.141571044921875,11.47119140625
1783152194077804500,6.602804443359375,2.3066864013671875,-2.1152496337890625,11.28216552734375
1783152194087509200,6.61250927734375,2.2779693603515625,-2.0482635498046875,10.951950073242188
1783152194097213700,6.622213623046875,2.46221923828125,-2.0913238525390625,10.619354248046875
1783152194106918400,6.63191845703125,2.7062835693359375,-2.1966094970703125,10.284347534179688
1783152194116653600,6.641653564453125,2.962310791015625,-2.3138580322265625,9.925430297851562
1783152194126358000,6.65135791015625,3.1058807373046875,-2.388031005859375,9.552154541015625
1783152194136062700,6.661062744140625,3.1393890380859375,-2.502899169921875,9.178863525390625
1783152194145767200,6.67076708984375,3.0723876953125,-2.667999267578125,8.8558349609375
1783152194155502300,6.68050244140625,2.9072723388671875,-2.8402862548828125,8.547164916992188
1783152194165207000,6.69020703125,2.6871337890625,-3.019744873046875,8.24566650390625
1783152194174911500,6.699911376953125,2.47418212890625,-3.220733642578125,8.039886474609375
1783152194184616200,6.7096162109375,2.3090667724609375,-3.512664794921875,7.922637939453125
1783152194194351000,6.71935107421875,2.234893798828125,-3.7806549072265625,7.8628082275390625
1783152194204055800,6.729055908203125,2.280364990234375,-4.0271148681640625,7.8341064453125
1783152194213760500,6.738760498046875,2.4646148681640625,-4.2496490478515625,7.8484649658203125
1783152194223465000,6.74846484375,2.7182464599609375,-4.546356201171875,7.8963165283203125
1783152194233200000,6.7582001953125,3.031707763671875,-4.8287200927734375,7.9657135009765625
1783152194242904600,6.767904541015625,3.3164520263671875,-5.0536346435546875,8.039886474609375
1783152194252609300,6.777609375,3.536590576171875,-5.2283172607421875,8.082962036132812
1783152194262313700,6.787313720703125,3.9385833740234375,-5.4867401123046875,8.183456420898438
1783152194272049000,6.797048828125,4.18743896484375,-5.5752716064453125,8.164306640625
1783152194281753600,6.806753662109375,4.3668975830078125,-5.6901397705078125,8.171493530273438
1783152194291458000,6.8164580078125,4.4123687744140625,-5.740386962890625,8.183456420898438
1783152194301193200,6.826193115234375,4.4913330078125,-5.8073883056640625,8.193023681640625
1783152194310928400,6.835928466796875,4.5248260498046875,-5.90069580078125,8.135604858398438
1783152194320632800,6.8456328125,4.438690185546875,-5.9581298828125,8.07098388671875
1783152194330337500,6.855337646484375,4.3070831298828125,-5.9724884033203125,7.9369964599609375
1783152194340042200,6.865042236328125,4.0941162109375,-5.9605255126953125,7.781463623046875
1783152194349777200,6.874777099609375,3.8261260986328125,-5.9437713623046875,7.6785736083984375
1783152194359481900,6.88448193359375,3.4384918212890625,-5.881561279296875,7.611572265625
1783152194369186300,6.894186279296875,3.031707763671875,-5.7667083740234375,7.5684967041015625
1783152194378891000,6.90389111328125,2.6632080078125,-5.613555908203125,7.5613250732421875
1783152194388626200,6.913626220703125,2.352142333984375,-5.484344482421875,7.6020050048828125
1783152194398330600,6.92333056640625,2.093719482421875,-5.376678466796875,7.6474609375
1783152194408035300,6.933035400390625,1.959716796875,-5.2402801513671875,7.67138671875
1783152194417739800,6.94273974609375,1.8903350830078125,-5.120635986328125,7.712066650390625
1783152194427475000,6.952474853515625,1.8855438232421875,-5.048858642578125,7.7455596923828125
1783152194437179600,6.9621796875,1.8903350830078125,-4.9770660400390625,7.76470947265625
1783152194446884000,6.971884033203125,1.9333953857421875,-4.8717803955078125,7.769500732421875
1783152194456588800,6.9815888671875,1.9501495361328125,-4.83111572265625,7.8197479248046875
1783152194466324000,6.991323974609375,1.98126220703125,-4.821533203125,7.9011077880859375
1783152194476028400,7.0010283203125,2.0075836181640625,-4.7473602294921875,7.922637939453125
1783152194485733000,7.010733154296875,2.04107666015625,-4.7114715576171875,8.006378173828125
1783152194495437600,7.0204375,2.0386810302734375,-4.6827545166015625,8.109283447265625
1783152194505172700,7.0301728515625,2.04107666015625,-4.6349029541015625,8.166702270507812
1783152194514877400,7.03987744140625,2.024322509765625,-4.58465576171875,8.252853393554688
1783152194524582000,7.049581787109375,2.021942138671875,-4.4721832275390625,8.341384887695312
1783152194534286600,7.05928662109375,2.0841522216796875,-4.3836517333984375,8.372482299804688
1783152194544021500,7.069021484375,2.1655120849609375,-4.309478759765625,8.42034912109375
1783152194553726200,7.078726318359375,2.2014007568359375,-4.2017974853515625,8.4107666015625
1783152194563431000,7.088430908203125,2.2492523193359375,-4.0893402099609375,8.3988037109375
1783152194573135400,7.09813525390625,2.222930908203125,-3.9720916748046875,8.405990600585938
1783152194582870500,7.10787060546875,2.1439666748046875,-3.840484619140625,8.451446533203125
1783152194592605700,7.117605712890625,2.06500244140625,-3.6681976318359375,8.446670532226562
1783152194602310100,7.12731005859375,1.9908294677734375,-3.4504547119140625,8.43231201171875
1783152194612014800,7.137014892578125,1.864013671875,-3.28533935546875,8.46820068359375
1783152194621719300,7.14671923828125,1.672576904296875,-3.160919189453125,8.542373657226562
1783152194631454500,7.156454345703125,1.5864410400390625,-3.0843505859375,8.597412109375
1783152194641159200,7.1661591796875,1.414154052734375,-2.7014923095703125,8.597412109375
1783152194650863600,7.175863525390625,1.2203369140625,-2.6943206787109375,8.7720947265625
1783152194670303200,7.19530322265625,1.074371337890625,-2.4191436767578125,9.016159057617188
1783152194680008000,7.205008056640625,1.0121612548828125,-2.35693359375,9.116653442382812
1783152194689712600,7.214712646484375,0.9236297607421875,-2.3186492919921875,9.248260498046875
1783152194699417000,7.2244169921875,0.8661956787109375,-2.3066864013671875,9.3128662109375
1783152194709152300,7.23415234375,0.8661956787109375,-2.256439208984375,9.332015991210938
1783152194718856700,7.243856689453125,0.8518524169921875,-2.3258209228515625,9.377471923828125
1783152194728561400,7.2535615234375,0.89251708984375,-2.397613525390625,9.389434814453125
1783152194738266000,7.26326611328125,0.9403839111328125,-2.5005035400390625,9.3367919921875
1783152194748001000,7.2730009765625,1.0241241455078125,-2.6153564453125,9.24346923828125
1783152194757705700,7.282705810546875,1.1413726806640625,-2.7421722412109375,9.107086181640625
1783152194767410200,7.29241015625,1.2801666259765625,-2.8881378173828125,9.006591796875
1783152194777115000,7.302114990234375,1.402191162109375,-3.0963134765625,8.94915771484375
1783152194786850000,7.31185009765625,1.5170440673828125,-3.27337646484375,8.886947631835938
1783152194796554500,7.321554443359375,1.6630096435546875,-3.41217041015625,8.793624877929688
1783152194806259200,7.33125927734375,1.777862548828125,-3.5916290283203125,8.721832275390625
1783152194815963600,7.340963623046875,1.8783721923828125,-3.6203460693359375,8.6572265625
1783152194825698800,7.35069873046875,1.864013671875,-3.6394805908203125,8.5615234375
1783152194835403500,7.360403564453125,1.9381866455078125,-3.689727783203125,8.496917724609375
1783152194845108000,7.37010791015625,1.8855438232421875,-3.713653564453125,8.496917724609375
1783152194854812700,7.379812744140625,1.8927154541015625,-3.7567291259765625,8.496917724609375
1783152194864547800,7.3895478515625,1.895111083984375,-3.783050537109375,8.525634765625
1783152194874282800,7.39928271484375,1.840087890625,-3.76629638671875,8.571090698242188
1783152194883987500,7.408987548828125,1.7515411376953125,-3.74237060546875,8.638092041015625
1783152194893692000,7.41869189453125,1.6965179443359375,-3.7399749755859375,8.685943603515625
1783152194903427000,7.428427001953125,1.6462554931640625,-3.759124755859375,8.719451904296875
1783152194913131800,7.4381318359375,1.5984039306640625,-3.8045806884765625,8.73858642578125
1783152194922836200,7.447836181640625,1.552947998046875,-3.84765625,8.755340576171875
1783152194932541000,7.457541015625,1.5170440673828125,-3.9673004150390625,8.860626220703125
1783152194942276000,7.467276123046875,1.6797637939453125,-4.2376861572265625,9.04248046875
1783152194951980500,7.47698046875,2.0506439208984375,-4.4243316650390625,9.13580322265625
1783152194961685200,7.486685302734375,2.270782470703125,-4.555938720703125,9.305694580078125
1783152194971389700,7.4963896484375,2.397613525390625,-4.6899261474609375,9.521041870117188
1783152194981124900,7.506124755859375,2.6656036376953125,-4.73779296875,9.714859008789062
1783152194990829600,7.51582958984375,3.0891265869140625,-4.627716064453125,9.85125732421875
1783152195000534000,7.525533935546875,3.3116607666015625,-4.32861328125,9.975677490234375
1783152195010238700,7.53523876953125,3.22552490234375,-3.9984130859375,10.076171875
1783152195019943200,7.544943115234375,2.99102783203125,-3.6035919189453125,10.243667602539062
1783152195029678300,7.55467822265625,2.703887939453125,-3.1417694091796875,10.459030151367188
1783152195039383000,7.564383056640625,2.4765777587890625,-2.6536407470703125,10.676773071289062
1783152195049087500,7.57408740234375,2.328216552734375,-2.1798553466796875,10.875381469726562
1783152195058792200,7.583792236328125,2.328216552734375,-1.7635040283203125,11.023727416992188
1783152195068527000,7.593527099609375,2.25164794921875,-1.5744781494140625,11.2008056640625
1783152195078231800,7.603231689453125,2.2133636474609375,-1.5146636962890625,11.2247314453125
1783152195087936500,7.6129365234375,2.3425750732421875,-1.54815673828125,11.073989868164062
1783152195097641000,7.622640869140625,2.773284912109375,-1.78265380859375,10.786849975585938
1783152195107376000,7.632376220703125,3.4911346435546875,-2.199005126953125,10.2987060546875
1783152195117080600,7.64208056640625,4.28076171875,-2.7469635009765625,9.784255981445312
1783152195126785300,7.651785400390625,5.2115631103515625,-3.326019287109375,9.209976196289062
1783152195136490000,7.661489990234375,6.1495513916015625,-3.8452606201171875,8.592620849609375
1783152195146225000,7.671224853515625,6.8362884521484375,-4.3022918701171875,7.9848480224609375
1783152195155960000,7.6809599609375,7.243072509765625,-4.6061859130859375,7.384246826171875
1783152195165664800,7.690664794921875,7.1976165771484375,-5.0345001220703125,7.0947265625
1783152195175369200,7.700369140625,6.86260986328125,-5.857635498046875,6.7477569580078125
1783152195185104400,7.7101044921875,6.0969085693359375,-6.4941253662109375,6.350555419921875
1783152195194809000,7.71980908203125,5.3336029052734375,-7.0348968505859375,5.6805572509765625
1783152195204513500,7.729513427734375,4.69232177734375,-7.3794708251953125,4.8406829833984375
1783152195214218200,7.73921826171875,4.11566162109375,-7.9728851318359375,4.340576171875
1783152195223953200,7.748953125,3.8141632080078125,-8.645263671875,4.4721832275390625
1783152195233657900,7.758657958984375,3.1561279296875,-9.054443359375,5.0536346435546875
1783152195243362600,7.768362548828125,1.660614013671875,-9.339187622070312,6.2380828857421875
1783152195253067000,7.77806689453125,0.380462646484375,-9.504287719726562,7.33160400390625
1783152195262802200,7.78780224609375,-0.4091796875,-8.606979370117188,8.53759765625
1783152195272506600,7.797506591796875,-0.902099609375,-8.7601318359375,9.860824584960938
1783152195282211300,7.80721142578125,-1.7012939453125,-7.6378936767578125,10.14556884765625
1783152195291915800,7.816915771484375,-1.8496551513671875,-7.1641082763671875,10.073776245117188
1783152195301651000,7.82665087890625,-3.1800689697265625,-7.3794708251953125,9.54736328125
1783152195311355600,7.836355712890625,-4.749755859375,-8.413162231445312,8.518447875976562
1783152195321060000,7.84606005859375,-4.7353973388671875,-7.546966552734375,6.458221435546875
1783152195330764800,7.855764892578125,-3.4983062744140625,-6.620941162109375,4.1659088134765625
1783152195340500000,7.8655,-0.473785400390625,-6.673583984375,4.797607421875
1783152195350204400,7.875204345703125,-1.495513916015625,-8.647659301757812,5.79302978515625
1783152195359909000,7.8849091796875,-2.5076751708984375,-8.248062133789062,4.192230224609375
1783152195369613600,7.894613525390625,-0.7489471435546875,-8.26959228515625,3.629913330078125
1783152195379348700,7.9043486328125,-0.004791259765625,-8.5615234375,2.6033935546875
1783152195389053400,7.914053466796875,-0.837493896484375,-8.621337890625,1.6271209716796875
1783152195398758000,7.9237578125,-0.7633056640625,-8.635696411132812,1.1246337890625
1783152195408462600,7.933462646484375,-1.5816497802734375,-8.860626220703125,1.213165283203125
1783152195418197800,7.94319775390625,-2.399993896484375,-9.298507690429688,1.959716796875
1783152195427902200,7.952902099609375,-3.1633148193359375,-9.446868896484375,2.90966796875
1783152195437607000,7.96260693359375,-2.8594207763671875,-9.39422607421875,4.2209320068359375
1783152195447341800,7.972341796875,-2.67279052734375,-9.257827758789062,5.788238525390625
1783152195457077000,7.982076904296875,-2.761322021484375,-9.332015991210938,7.6331024169921875
1783152195466781700,7.99178173828125,-2.598602294921875,-9.248260498046875,9.291336059570312
1783152195476486100,8.001486083984375,-2.5722808837890625,-8.97308349609375,10.777267456054688
1783152195486190800,8.01119091796875,-2.8067779541015625,-8.7720947265625,12.064605712890625
1783152195495926000,8.020926025390626,-2.90966796875,-8.764907836914062,13.258636474609375
1783152195505630500,8.03063037109375,-2.679962158203125,-8.800796508789062,14.268402099609375
1783152195515335200,8.040335205078126,-1.919036865234375,-8.870193481445312,15.450454711914062
1783152195525039600,8.05003955078125,-1.1844482421875,-8.822341918945312,16.797607421875
1783152195534744300,8.059744384765626,-0.65802001953125,-8.815155029296875,17.917449951171875
1783152195544479500,8.0694794921875,-0.1842498779296875,-8.90130615234375,18.55633544921875
1783152195554184000,8.079183837890625,0.227325439453125,-8.872589111328125,18.66162109375
1783152195563888600,8.088888671875,0.8781585693359375,-8.700302124023438,18.312271118164062
1783152195573593000,8.098593017578125,1.4165496826171875,-8.53997802734375,17.778671264648438
1783152195583328300,8.108328369140626,1.859222412109375,-8.331802368164062,17.120651245117188
1783152195593033000,8.118032958984376,2.292327880859375,-8.068603515625,16.168304443359375
1783152195602737400,8.1277373046875,2.921630859375,-7.982452392578125,15.558135986328125
1783152195612442000,8.137442138671876,3.266204833984375,-8.01116943359375,15.282958984375
1783152195622177000,8.147177001953125,3.230316162109375,-8.078170776367188,14.986251831054688
1783152195631881700,8.1568818359375,3.347564697265625,-8.147567749023438,14.517257690429688
1783152195651291000,8.176290771484375,3.9792633056640625,-7.8149566650390625,11.990432739257812
1783152195670730500,8.19573046875,3.3044891357421875,-9.152542114257812,12.710678100585938
1783152195680435200,8.205435302734376,3.103485107421875,-8.992233276367188,12.813568115234375
1783152195690140000,8.215139892578126,2.897705078125,-9.087936401367188,13.450057983398438
1783152195699874800,8.224874755859375,2.2612152099609375,-9.24346923828125,13.718048095703125
1783152195709579500,8.23457958984375,1.466796875,-9.097518920898438,13.024139404296875
1783152195719284000,8.244283935546875,0.545562744140625,-8.939590454101562,11.901901245117188
1783152195729019100,8.25401904296875,-0.79681396484375,-8.671585083007812,10.411178588867188
1783152195738754300,8.26375439453125,-1.471588134765625,-8.319839477539062,9.061614990234375
1783152195748458800,8.273458740234375,-1.2705841064453125,-7.92742919921875,8.135604858398438
1783152195758163500,8.28316357421875,-0.370880126953125,-7.8460693359375,7.7383880615234375
1783152195767868200,8.2928681640625,1.01934814453125,-7.805389404296875,7.4727783203125
1783152195777603000,8.30260302734375,2.23968505859375,-7.3507537841796875,6.673583984375
1783152195787307800,8.312307861328126,3.4169464111328125,-6.673583984375,5.4987030029296875
1783152195797012200,8.32201220703125,5.142181396484375,-5.072784423828125,3.9218292236328125
1783152195806717000,8.331717041015626,6.5874481201171875,-3.407379150390625,5.7906341552734375
1783152195816452000,8.3414521484375,4.943572998046875,-4.462615966796875,5.9557342529296875
1783152195826156500,8.351156494140625,5.7021026611328125,-3.9720916748046875,5.6446685791015625
1783152195835861200,8.360861328125,6.7812652587890625,-3.8213348388671875,6.4151611328125
1783152195845565700,8.370565673828125,7.712066650390625,-3.383453369140625,5.9892425537109375
1783152195855300900,8.38030078125,8.044662475585938,-2.344970703125,5.6494598388671875
1783152195865005600,8.390005615234376,8.219345092773438,-2.21575927734375,5.7978057861328125
1783152195874710000,8.3997099609375,8.145172119140625,-2.352142333984375,5.9940185546875
1783152195884414700,8.409414794921876,7.4249267578125,-2.5651092529296875,6.0610198974609375
1783152195894150000,8.41914990234375,6.5539398193359375,-2.6273193359375,5.9270172119140625
1783152195903854300,8.428854248046875,5.7858428955078125,-2.493316650390625,5.4293212890625
1783152195913559000,8.43855908203125,4.9890289306640625,-2.26361083984375,4.931610107421875
1783152195923263500,8.448263427734375,4.21136474609375,-1.7443695068359375,4.5607147216796875
1783152195932998700,8.45799853515625,3.6490478515625,-1.670196533203125,4.15155029296875
1783152195942703400,8.467703369140626,3.2518463134765625,-1.8209381103515625,4.122833251953125
1783152195952407800,8.47740771484375,3.2446746826171875,-1.6797637939453125,4.3908233642578125
1783152195962112500,8.487112548828126,3.84765625,-1.51226806640625,4.357330322265625
1783152195971847400,8.496847412109375,4.46978759765625,-1.3399810791015625,3.806976318359375
1783152195981552000,8.50655224609375,2.2085723876953125,0.488128662109375,1.887939453125
1783152195991256800,8.5162568359375,4.7138671875,0.65802001953125,1.7515411376953125
1783152196000961300,8.525961181640625,9.21954345703125,-0.134002685546875,2.4287109375
1783152196010696400,8.535696533203126,12.04547119140625,-1.06719970703125,2.86181640625
1783152196020431600,8.545431640625,10.152740478515625,-0.8111724853515625,1.58404541015625
1783152196030136000,8.555135986328125,9.0185546875,-0.4905242919921875,0.6364898681640625
1783152196039840800,8.5648408203125,9.470794677734375,-0.9140625,0.509674072265625
1783152196049545200,8.574545166015625,10.066604614257812,-1.366302490234375,0.45703125
1783152196059280400,8.5842802734375,9.858428955078125,-1.4500579833984375,0.48095703125
1783152196068985000,8.593985107421876,9.12384033203125,-1.7611236572265625,0.825531005859375
1783152196078689500,8.603689453125,8.671585083007812,-2.5124664306640625,1.32562255859375
1783152196088394200,8.613394287109376,8.489730834960938,-3.6035919189453125,1.840087890625
1783152196098129400,8.62312939453125,8.58544921875,-4.768890380859375,2.3712921142578125
1783152196107833900,8.632833740234375,9.178863525390625,-6.15911865234375,2.9527435302734375
1783152196117538600,8.64253857421875,10.10968017578125,-7.7790679931640625,3.6323089599609375
1783152196127243000,8.652242919921875,10.102493286132812,-8.367706298828125,3.9146575927734375
1783152196136978200,8.661978271484376,9.449264526367188,-8.494522094726562,3.6610260009765625
1783152196146682600,8.6716826171875,8.932403564453125,-5.9485626220703125,1.39501953125
1783152196156387300,8.68138720703125,8.918045043945312,-1.9022979736328125,-1.44287109375
1783152196166092000,8.691092041015626,9.83929443359375,-0.4546356201171875,-2.7350006103515625
1783152196175827000,8.700826904296875,11.274978637695312,-0.909271240234375,-2.7828521728515625
1783152196185531600,8.71053173828125,11.492721557617188,-1.483551025390625,-2.667999267578125
1783152196195236000,8.720236083984375,11.112274169921875,-1.1868438720703125,-2.73260498046875
1783152196204940800,8.72994091796875,10.432708740234375,-0.440277099609375,-3.16571044921875
1783152196214676000,8.739676025390626,9.600006103515625,0.2033843994140625,-3.4815521240234375
1783152196224380400,8.74938037109375,9.209976196289062,0.698699951171875,-3.6251220703125
1783152196234085000,8.759085205078126,8.697906494140625,1.2945098876953125,-3.48394775390625
1783152196243789600,8.76878955078125,8.55194091796875,1.1700897216796875,-2.8474578857421875
1783152196253524700,8.778524658203125,8.733810424804688,0.9164581298828125,-2.1559295654296875
1783152196263229400,8.7882294921875,8.396408081054688,1.04327392578125,-1.684539794921875
1783152196272934000,8.797933837890625,8.133209228515625,1.4811553955078125,-1.3447723388671875
1783152196282638600,8.807638671875,7.8221435546875,1.7395782470703125,-1.3758697509765625
1783152196292373800,8.817373779296876,8.3031005859375,2.0195465087890625,-0.954742431640625
1783152196302108700,8.827108642578125,8.367706298828125,2.1463623046875,-0.756134033203125
1783152196311813400,8.8368134765625,8.549560546875,2.4119720458984375,-0.698699951171875
1783152196321518000,8.84651806640625,8.908477783203125,2.868988037109375,-0.6963043212890625
1783152196331253000,8.8562529296875,8.896514892578125,3.2159576416015625,-0.997802734375
1783152196340957700,8.865957763671876,8.606979370117188,3.665802001953125,-1.2227325439453125
1783152196350662100,8.875662109375,8.20977783203125,3.7615203857421875,-0.614959716796875
1783152196360366800,8.885366943359376,8.204986572265625,3.242279052734375,-0.09332275390625
1783152196370102000,8.89510205078125,8.137985229492188,2.9455718994140625,0.0957183837890625
1783152196379806500,8.904806396484375,8.149948120117188,2.9479522705078125,0.17706298828125
1783152196389511200,8.91451123046875,8.130813598632812,3.2996978759765625,-0.02392578125
1783152196399215600,8.924215576171875,7.9609222412109375,3.7567291259765625,-0.1268157958984375
1783152196408950800,8.93395068359375,7.76470947265625,3.90509033203125,-0.145965576171875
1783152196418655500,8.943655517578126,7.4033966064453125,3.9074859619140625,-0.0550384521484375
1783152196428360000,8.95335986328125,7.11865234375,3.7926177978515625,0.0430755615234375
1783152196438064600,8.963064697265626,6.649658203125,3.6394805908203125,0.0550384521484375
1783152196447799800,8.9727998046875,6.4989013671875,2.7254180908203125,0.4498443603515625
1783152196457504300,8.982504150390625,6.8865509033203125,1.4691925048828125,0.8470611572265625
1783152196467209000,8.992208984375,7.51824951171875,1.5625152587890625,0.3182525634765625
1783152196476913400,9.001913330078125,8.566299438476562,2.0793609619140625,-0.5001068115234375
1783152196486648600,9.011648681640626,9.693328857421875,2.4789581298828125,-1.0289154052734375
1783152196496353300,9.021353271484376,9.561721801757812,2.388031005859375,-1.0360870361328125
1783152196506057700,9.0310576171875,8.97308349609375,2.151153564453125,-0.8949127197265625
1783152196515762400,9.040762451171876,8.015960693359375,2.1439666748046875,-1.1246337890625
1783152196525467000,9.050466796875,8.549560546875,1.5936126708984375,-1.074371337890625
1783152196535202000,9.0602021484375,9.064010620117188,0.8422698974609375,-0.825531005859375
1783152196544906800,9.06990673828125,9.142974853515625,0.2440643310546875,-0.1603240966796875
1783152196554611200,9.079611083984375,10.34417724609375,-0.323028564453125,0.80877685546875
1783152196564316000,9.08931591796875,11.901901245117188,-0.744171142578125,1.3471527099609375
1783152196583786000,9.108785888671875,13.421340942382812,-1.5505523681640625,1.1581268310546875
1783152196593490700,9.11849072265625,13.03131103515625,-0.1555328369140625,0.1962127685546875
1783152196603195100,9.128195068359375,14.35693359375,-0.421142578125,0.428314208984375
1783152196612930300,9.137930419921876,13.249053955078125,0.323028564453125,-2.129608154296875
1783152196622635000,9.147635009765626,13.1844482421875,0.65802001953125,-1.7730865478515625
1783152196632339500,9.15733935546875,13.363906860351562,0.6006011962890625,-1.3639068603515625
1783152196642044200,9.167044189453126,13.095916748046875,0.7154541015625,-1.095916748046875
1783152196651779000,9.176779052734375,12.626922607421875,0.825531005859375,-0.6245269775390625
1783152196661483800,9.18648388671875,12.9619140625,0.2823486328125,0.2153472900390625
1783152196671188500,9.1961884765625,13.907089233398438,-1.0049896240234375,1.002593994140625
1783152196680878300,9.20587841796875,12.337387084960938,-2.5483551025390625,1.3758697509765625
1783152196690613200,9.21561328125,11.380264282226562,-3.3451690673828125,1.658233642578125
1783152196700318000,9.22531787109375,10.734207153320312,-3.5270233154296875,1.495513916015625
1783152196710022700,9.235022705078125,10.55712890625,-2.868988037109375,1.0408782958984375
1783152196729462300,9.254462158203125,9.46600341796875,0.7130584716796875,-1.3160552978515625
1783152196739166700,9.264166748046875,8.659622192382812,1.1174468994140625,-1.4452667236328125
1783152196748871400,9.273871337890625,7.994415283203125,1.1820526123046875,-1.1246337890625
1783152196758576000,9.283576171875,7.652252197265625,1.3112640380859375,-0.6484527587890625
1783152196768311000,9.29331103515625,7.8795623779296875,1.519439697265625,-0.205780029296875
1783152196778015700,9.303015625,8.635696411132812,1.787445068359375,0.36370849609375
1783152196787720200,9.31272021484375,9.291336059570312,1.85443115234375,0.9164581298828125
1783152196797425000,9.3224248046875,9.566513061523438,1.6773681640625,0.9762725830078125
1783152196807160000,9.33216015625,9.107086181640625,1.5266265869140625,0.4618072509765625
1783152196816864500,9.341864501953125,8.96112060546875,2.139190673828125,0.217742919921875
1783152196826569200,9.3515693359375,9.20758056640625,2.234893798828125,0.39959716796875
1783152196836273700,9.361273681640625,9.12384033203125,2.4143524169921875,0.0980987548828125
1783152196846008800,9.3710087890625,8.48016357421875,2.90966796875,-0.4785614013671875
1783152196855713500,9.380713623046875,7.5852508544921875,3.349945068359375,-0.8015899658203125
1783152196865418000,9.39041796875,6.948760986328125,3.3690948486328125,-1.3997955322265625
1783152196875153200,9.400153076171875,6.867401123046875,3.6370849609375,-2.0554351806640625
1783152196884888300,9.409888427734375,7.29571533203125,4.1132659912109375,-2.4478607177734375
1783152196894592800,9.4195927734375,7.4632110595703125,4.2017974853515625,-2.3593292236328125
1783152196904297500,9.42929736328125,7.700103759765625,4.0917205810546875,-1.983642578125
1783152196914002000,9.439001953125,7.865203857421875,4.134796142578125,-1.670196533203125
1783152196923737000,9.448737060546875,8.068603515625,4.23291015625,-1.495513916015625
1783152196933441800,9.45844189453125,8.262420654296875,4.3358001708984375,-1.318450927734375
1783152196943146200,9.468146240234375,8.331802368164062,4.4362945556640625,-1.2346954345703125
1783152196952851000,9.477850830078125,8.307876586914062,4.697113037109375,-1.402191162109375
1783152196962586000,9.487586181640625,8.147567749023438,4.725830078125,-1.3399810791015625
1783152196972290600,9.49729052734375,8.157135009765625,4.333404541015625,-1.03131103515625
1783152196981995300,9.506995361328125,8.066207885742188,4.5056915283203125,-1.10308837890625
1783152196991699700,9.51669970703125,8.15234375,4.7066802978515625,-1.2705841064453125
1783152197001404400,9.526404296875,8.3031005859375,4.70428466796875,-1.4117584228515625
1783152197011139600,9.5361396484375,8.578262329101562,4.72821044921875,-1.53619384765625
1783152197020844000,9.545843994140625,8.729019165039062,4.7425689697265625,-1.459625244140625
1783152197030548700,9.555548828125,8.836700439453125,4.744964599609375,-1.2442626953125
1783152197040253200,9.565253173828125,8.8558349609375,4.895721435546875,-1.0815582275390625
1783152197049988400,9.57498828125,8.96112060546875,5.001007080078125,-0.803985595703125
1783152197059693000,9.584693115234375,8.989837646484375,4.5702972412109375,-0.344573974609375
1783152197069397500,9.5943974609375,8.664413452148438,4.733001708984375,-0.3852386474609375
1783152197079102200,9.604102294921875,8.40838623046875,4.886138916015625,-0.6915283203125
1783152197088837000,9.613837158203125,8.142776489257812,5.036895751953125,-1.0767669677734375
1783152197098541800,9.623541748046875,7.8484649658203125,5.1397857666015625,-1.4931182861328125
1783152197108246500,9.63324658203125,7.635498046875,5.278564453125,-1.6869354248046875
1783152197117951000,9.642950927734375,7.5278167724609375,5.400604248046875,-1.6295166015625
1783152197127686100,9.65268603515625,7.4488525390625,5.599212646484375,-1.406982421875
1783152197137390600,9.662390625,7.8149566650390625,5.3336029052734375,-0.9355926513671875
1783152197147095300,9.67209521484375,7.69293212890625,5.34796142578125,-1.0767669677734375
1783152197156830500,9.68183056640625,8.506484985351562,5.5561370849609375,-0.6891326904296875
1783152197166565600,9.691565673828125,9.377471923828125,5.38385009765625,-0.7752685546875
1783152197176270000,9.70127001953125,8.764907836914062,5.493927001953125,-0.9619140625
1783152197185974800,9.710974853515625,8.501693725585938,5.6207427978515625,-1.2275238037109375
1783152197195679200,9.72067919921875,8.477767944335938,5.61834716796875,-1.4763641357421875
1783152197205414400,9.730414306640625,8.12841796875,5.7212371826171875,-1.6797637939453125
1783152197215118800,9.740118896484375,7.8963165283203125,5.5633087158203125,-1.4811553955078125
1783152197224823600,9.749823486328125,7.8197479248046875,5.67816162109375,-1.406982421875
1783152197234528300,9.7595283203125,7.7671051025390625,6.0442657470703125,-1.37347412109375
1783152197244263200,9.76926318359375,7.853240966796875,6.0658111572265625,-1.0767669677734375
1783152197253968000,9.7789677734375,7.7144622802734375,6.1208343505859375,-0.861419677734375
1783152197263672300,9.78867236328125,7.6163482666015625,6.33380126953125,-0.7944183349609375
1783152197273377000,9.798376953125,7.4273223876953125,6.58026123046875,-0.8063812255859375
1783152197283112200,9.8081123046875,7.030120849609375,6.714263916015625,-0.9714813232421875
1783152197292816600,9.817816650390625,6.7525482177734375,6.8362884521484375,-1.1700897216796875
1783152197302521300,9.827521240234375,6.6663970947265625,7.01336669921875,-1.2562255859375
1783152197312225800,9.837225830078125,6.36968994140625,6.948760986328125,-1.12701416015625
1783152197321961000,9.8469609375,6.13519287109375,6.608978271484375,-0.8518524169921875
1783152197331665700,9.856665771484375,6.3912353515625,6.216552734375,-0.57427978515625
1783152197341370000,9.8663701171875,7.0468597412109375,6.233306884765625,-0.3780670166015625
1783152197351074800,9.87607470703125,8.767303466796875,5.6039886474609375,-0.3373870849609375
1783152197360810000,9.88581005859375,9.884750366210938,4.7880401611328125,0.0191497802734375
1783152197370514400,9.895514404296875,10.59063720703125,4.7425689697265625,-0.0430755615234375
1783152197380219100,9.90521923828125,10.054641723632812,6.774078369140625,-1.4572296142578125
1783152197389923600,9.914923583984375,10.729415893554688,6.4606170654296875,-2.3186492919921875
1783152197399658800,9.92465869140625,11.404190063476562,4.778472900390625,-1.2346954345703125
1783152197409363500,9.934363525390625,11.830108642578125,2.43829345703125,-0.275177001953125
1783152197419068000,9.94406787109375,10.573883056640625,1.871185302734375,0.0550384521484375
1783152197428772600,9.953772705078125,10.15753173828125,1.928619384765625,0.227325439453125
1783152197438507500,9.963507568359375,9.513870239257812,2.481353759765625,0.2584228515625
1783152197448242700,9.97324267578125,9.72442626953125,2.9455718994140625,0.45703125
1783152197457947400,9.982947509765625,9.68853759765625,3.378662109375,0.392425537109375
1783152197467651800,9.99265185546875,9.396621704101562,3.8955078125,0.15313720703125
1783152197477356500,10.0023564453125,8.8917236328125,4.2592315673828125,-0.122039794921875
1783152197487091700,10.012091796875,8.525634765625,4.4410858154296875,-0.1914215087890625
1783152197496796200,10.021796142578125,8.154739379882812,4.474578857421875,-0.124420166015625
1783152197506500900,10.0315009765625,8.027923583984375,4.5248260498046875,-0.1028900146484375
1783152197516205300,10.041205322265625,8.042282104492188,4.62054443359375,-0.09332275390625
1783152197525940500,10.0509404296875,8.030319213867188,4.59661865234375,-0.0311126708984375
1783152197535645200,10.060645263671875,7.7671051025390625,4.5056915283203125,0.007171630859375
1783152197545349600,10.070349609375,7.3746795654296875,4.5822601318359375,0.035888671875
1783152197555054300,10.080054443359375,7.0229339599609375,4.7138671875,-0.1363983154296875
1783152197564789500,10.08978955078125,6.831512451171875,4.8287200927734375,-0.37567138671875
1783152197574494000,10.099493896484375,6.87457275390625,4.919647216796875,-0.6412811279296875
1783152197584198700,10.10919873046875,7.1162567138671875,4.9244232177734375,-0.7513427734375
1783152197593903000,10.118903076171875,7.3675079345703125,4.7425689697265625,-0.6963043212890625
1783152197603638300,10.12863818359375,7.57568359375,4.5774688720703125,-0.6125640869140625
1783152197613343000,10.138343017578125,7.70489501953125,4.5080718994140625,-0.58624267578125
1783152197623047400,10.14804736328125,7.781463623046875,4.498504638671875,-0.5838470458984375
1783152197632752000,10.157752197265625,7.9369964599609375,4.5535430908203125,-0.6316986083984375
1783152197642487000,10.167487060546875,8.123626708984375,4.7138671875,-0.722625732421875
1783152197652191700,10.177191650390625,8.051849365234375,4.8287200927734375,-0.8015899658203125
1783152197661896200,10.186896240234375,7.83648681640625,4.8885345458984375,-0.88055419921875
1783152197671601000,10.196600830078125,7.6737823486328125,5.027313232421875,-1.0408782958984375
1783152197681336000,10.206336181640625,7.5613250732421875,5.249847412109375,-1.2466583251953125
1783152197691040500,10.21604052734375,7.384246826171875,5.4269256591796875,-1.4189453125
1783152197710449700,10.23544970703125,6.9296112060546875,5.613555908203125,-1.3997955322265625
1783152197720184800,10.245184814453125,6.697509765625,5.67816162109375,-1.26580810546875
1783152197729920000,10.254919921875,6.585052490234375,5.730804443359375,-1.155731201171875
1783152197739624700,10.264624755859375,6.7070770263671875,5.783447265625,-1.1006927490234375
1783152197749329200,10.2743291015625,6.9056854248046875,5.79541015625,-1.0360870361328125
1783152197759064300,10.284064208984375,7.0875396728515625,5.752349853515625,-0.957122802734375
1783152197768768800,10.293768798828125,7.2981109619140625,5.663818359375,-0.8638153076171875
1783152197778473500,10.303473388671875,7.49432373046875,5.5920257568359375,-0.8111724853515625
1783152197788178200,10.31317822265625,7.6857452392578125,5.5441741943359375,-0.849456787109375
1783152197797913000,10.3229130859375,7.81256103515625,5.4628143310546875,-0.8757781982421875
1783152197807617800,10.33261767578125,7.874786376953125,5.39581298828125,-0.973876953125
1783152197817322200,10.342322265625,7.994415283203125,5.388641357421875,-1.10308837890625
1783152197827027000,10.35202685546875,8.169097900390625,5.4388885498046875,-1.191619873046875
1783152197836762000,10.36176220703125,8.255233764648438,5.43170166015625,-1.167694091796875
1783152197846466600,10.371466552734375,8.310272216796875,5.4628143310546875,-1.1342010498046875
1783152197856171300,10.381171142578125,8.307876586914062,5.529815673828125,-1.189239501953125
1783152197865875700,10.390875732421875,8.288742065429688,5.58245849609375,-1.2346954345703125
1783152197875611000,10.40061083984375,8.262420654296875,5.5848541259765625,-1.2921295166015625
1783152197885315600,10.410315673828125,8.154739379882812,5.59442138671875,-1.4285125732421875
1783152197895020000,10.42002001953125,8.056640625,5.6518402099609375,-1.588836669921875
1783152197904724700,10.429724853515625,7.9776763916015625,5.7260284423828125,-1.72283935546875
1783152197914460000,10.4394599609375,7.9800567626953125,5.776275634765625,-1.7802581787109375
1783152197924164400,10.449164306640625,8.054244995117188,5.812164306640625,-1.7515411376953125
1783152197933869000,10.458869140625,8.212173461914062,5.8265228271484375,-1.684539794921875
1783152197943573500,10.468573486328125,8.413162231445312,5.82891845703125,-1.6103668212890625
1783152197953278200,10.4782783203125,8.681167602539062,5.860015869140625,-1.5385894775390625
1783152197963013400,10.488013427734375,8.870193481445312,5.8432769775390625,-1.430908203125
1783152197972717800,10.4977177734375,8.922836303710938,5.764312744140625,-1.3232269287109375
1783152197982422500,10.507422607421875,8.989837646484375,5.730804443359375,-1.3519439697265625
1783152198001862100,10.526862060546875,9.298507690429688,5.7332000732421875,-1.6151580810546875
1783152198011566800,10.53656689453125,9.327224731445312,5.67578125,-1.682159423828125
1783152198021301800,10.5463017578125,9.18365478515625,5.7619171142578125,-1.799407958984375
1783152198031006500,10.55600634765625,9.06640625,5.9676971435546875,-1.9740753173828125
1783152198040741600,10.56574169921875,9.013763427734375,6.0969085693359375,-2.139190673828125
1783152198050446000,10.575446044921875,8.77447509765625,6.2763671875,-2.32342529296875
1783152198060150800,10.58515087890625,8.415557861328125,6.4390869140625,-2.48614501953125
1783152198069855200,10.594855224609375,8.240875244140625,6.575469970703125,-2.5651092529296875
1783152198079590400,10.60459033203125,8.3509521484375,6.762115478515625,-2.5962066650390625
1783152198089295000,10.614295166015625,8.563919067382812,6.8578338623046875,-2.5770721435546875
1783152198098999600,10.62399951171875,8.745773315429688,6.4390869140625,-2.268402099609375
1783152198108704300,10.633704345703125,8.908477783203125,5.764312744140625,-1.8137664794921875
1783152198118439200,10.643439208984375,9.272186279296875,5.0751800537109375,-1.438079833984375
1783152198128144000,10.653143798828125,9.844070434570312,4.510467529296875,-1.1485595703125
1783152198157288200,10.6822880859375,10.856231689453125,3.605987548828125,-0.65802001953125
1783152198166992600,10.69199267578125,10.973480224609375,3.6203460693359375,-0.792022705078125
1783152198176697300,10.701697265625,10.82513427734375,3.701690673828125,-1.1509552001953125
1783152198186402000,10.711402099609375,10.389633178710938,3.74237060546875,-1.4979095458984375
1783152198196137000,10.721136962890625,9.796218872070312,3.701690673828125,-1.7108612060546875
1783152198205841700,10.730841552734375,9.150161743164062,3.763916015625,-1.887939453125
1783152198215546000,10.740546142578125,8.487335205078125,3.981658935546875,-2.105682373046875
1783152198225250800,10.750250732421875,7.922637939453125,4.240081787109375,-2.3138580322265625
1783152198234986000,10.759986083984375,7.4632110595703125,4.46978759765625,-2.421539306640625
1783152198244690400,10.7696904296875,7.042083740234375,4.68035888671875,-2.457427978515625
1783152198254395100,10.77939501953125,6.7190399169921875,4.8239288330078125,-2.4358978271484375
1783152198264099600,10.789099609375,6.539581298828125,4.9124603271484375,-2.3330078125
1783152198273834800,10.798834716796875,6.52044677734375,4.91485595703125,-2.199005126953125
1783152198283539500,10.80853955078125,6.6640167236328125,4.8574371337890625,-2.0099639892578125
1783152198293244000,10.818243896484375,6.9439697265625,4.778472900390625,-1.811370849609375
1783152198302979000,10.82797900390625,7.4847564697265625,4.7306060791015625,-1.6055908203125
1783152198312714200,10.83771435546875,8.216949462890625,4.567901611328125,-1.426116943359375
1783152198322418700,10.847418701171875,9.087936401367188,4.3381805419921875,-1.1629180908203125
1783152198332123400,10.857123291015625,9.877578735351562,4.1013031005859375,-0.897308349609375
1783152198341827800,10.866827880859375,10.442276000976562,3.912261962890625,-0.6963043212890625
1783152198351563000,10.87656298828125,10.7437744140625,3.830902099609375,-0.6795654296875
1783152198361267700,10.886267822265625,10.774887084960938,3.7902374267578125,-0.8063812255859375
1783152198370972200,10.89597216796875,10.545166015625,3.8668060302734375,-1.0337066650390625
1783152198380676900,10.9056767578125,10.102493286132812,3.9385833740234375,-1.2825469970703125
1783152198390412000,10.915412109375,9.578475952148438,4.005584716796875,-1.466796875
1783152198400116500,10.925116455078125,9.13818359375,4.0677947998046875,-1.4739837646484375
1783152198419525600,10.944525634765625,8.200210571289062,4.2305145263671875,-1.3639068603515625
1783152198429260800,10.9542607421875,7.7958221435546875,4.3836517333984375,-1.3351898193359375
1783152198438965500,10.963965576171875,7.57568359375,4.5631103515625,-1.3040924072265625
1783152198448670000,10.973669921875,7.56610107421875,4.72821044921875,-1.237091064453125
1783152198458374700,10.983374755859375,7.6953125,4.9004974365234375,-1.1724853515625
1783152198468079000,10.9930791015625,7.8963165283203125,5.0345001220703125,-1.0695953369140625
1783152198477814300,11.002814208984375,7.9680938720703125,5.1158599853515625,-0.954742431640625
1783152198487519000,11.01251904296875,7.9441680908203125,5.18524169921875,-0.8949127197265625
1783152198497223400,11.022223388671875,7.934600830078125,5.2163543701171875,-0.849456787109375
1783152198506928000,11.03192822265625,7.9561309814453125,5.2283172607421875,-0.8781585693359375
1783152198516663000,11.0416630859375,7.96331787109375,5.259429931640625,-0.9164581298828125
1783152198526367700,11.05136767578125,7.9322052001953125,5.225921630859375,-0.9236297607421875
1783152198536072400,11.061072509765625,7.9322052001953125,5.2331085205078125,-0.9116668701171875
1783152198545777000,11.07077685546875,7.9561309814453125,5.3216400146484375,-0.8590240478515625
1783152198555512000,11.080511962890625,8.039886474609375,5.60638427734375,-0.9762725830078125
1783152198565216500,11.090216552734375,7.9154510498046875,5.448455810546875,-0.98583984375
1783152198574921200,11.099921142578125,7.8436737060546875,6.3026885986328125,-1.54815673828125
1783152198584626000,11.1096259765625,7.9058837890625,5.61834716796875,-1.423736572265625
1783152198594360800,11.11936083984375,7.8819580078125,4.8358917236328125,-0.9954071044921875
1783152198604096000,11.129095947265625,7.6809539794921875,4.7832489013671875,-0.9068756103515625
1783152198613800700,11.13880078125,7.55413818359375,4.9818572998046875,-0.8518524169921875
1783152198623505200,11.148505126953125,7.4967193603515625,5.13739013671875,-0.7944183349609375
1783152198633240300,11.158240234375,7.5684967041015625,5.1804656982421875,-0.6364898681640625
1783152198642945000,11.167945068359375,7.8484649658203125,5.259429931640625,-0.421142578125
1783152198652649500,11.1776494140625,8.018356323242188,5.38385009765625,-0.3134613037109375
1783152198662354200,11.187354248046875,8.22174072265625,5.5010986328125,-0.241668701171875
1783152198672089000,11.197089111328125,8.379669189453125,5.577667236328125,-0.1076812744140625
1783152198681793800,11.206793701171875,8.427520751953125,5.601593017578125,-0.011962890625
1783152198691498500,11.21649853515625,8.264816284179688,5.58245849609375,0.15313720703125
1783152198730347300,11.25534716796875,7.7383880615234375,5.6039886474609375,0.3014984130859375
1783152198740051700,11.2650517578125,7.9298095703125,5.7858428955078125,0.1986083984375
1783152198749787000,11.274786865234375,8.243270874023438,6.0083770751953125,0.06939697265625
1783152198759491600,11.28449169921875,8.671585083007812,6.228515625,-0.04547119140625
1783152198769196000,11.294196044921875,8.96112060546875,6.326629638671875,-0.10528564453125
1783152198778900700,11.303900634765625,8.994613647460938,6.4151611328125,-0.1555328369140625
1783152198788636000,11.313635986328125,8.788833618164062,6.5898284912109375,-0.193817138671875
1783152198798340400,11.32334033203125,8.6572265625,6.70947265625,-0.07177734375
1783152198808045000,11.333045166015625,8.417953491210938,6.685546875,0.16510009765625
1783152198817749500,11.34274951171875,7.8723907470703125,6.6233367919921875,0.3086700439453125
1783152198827484700,11.352484619140625,7.396209716796875,6.7046966552734375,0.334991455078125
1783152198837189400,11.362189453125,7.1330108642578125,6.8889312744140625,0.380462646484375
1783152198846893800,11.371893798828125,6.996612548828125,7.1234283447265625,0.3828582763671875
1783152198856598500,11.3815986328125,6.9320068359375,7.3268280029296875,0.356536865234375
1783152198866303000,11.391302978515625,6.9702911376953125,7.405792236328125,0.445068359375
1783152198876038100,11.4010380859375,7.08514404296875,7.1856536865234375,0.7369842529296875
1783152198885773300,11.410773193359375,7.2502593994140625,6.6376953125,0.89013671875
1783152198895477800,11.420477783203125,7.6666107177734375,6.281158447265625,0.8661956787109375
1783152198905182500,11.430182373046875,8.226531982421875,6.1734771728515625,0.7704925537109375
1783152198914917600,11.439917724609375,8.73858642578125,5.9581298828125,0.990631103515625
1783152198924622000,11.4496220703125,9.004196166992188,5.716461181640625,1.37109375
1783152198934326800,11.459326904296875,9.087936401367188,5.6039886474609375,1.84246826171875
1783152198944031200,11.46903125,8.944366455078125,5.484344482421875,2.268402099609375
1783152198953766400,11.478766357421875,8.647659301757812,5.4101715087890625,2.3832550048828125
1783152198963471000,11.48847119140625,8.260025024414062,5.249847412109375,2.2851409912109375
1783152198973175600,11.498175537109375,7.83648681640625,5.1038970947265625,2.0745849609375
1783152198982880300,11.50788037109375,7.5373992919921875,5.1397857666015625,1.5170440673828125
1783152198992615400,11.517615478515625,7.25982666015625,5.142181396484375,0.9619140625
1783152199002320000,11.52731982421875,6.9870452880859375,5.08953857421875,0.815948486328125
1783152199012024600,11.537024658203125,7.0157623291015625,5.2235260009765625,0.849456787109375
1783152199021729000,11.54672900390625,7.178466796875,5.3910369873046875,1.0121612548828125
1783152199031464200,11.556464111328125,7.23590087890625,5.283355712890625,1.3280181884765625
1783152199041169000,11.5661689453125,7.2215423583984375,4.9866485595703125,1.6749725341796875
1783152199050873300,11.575873291015625,7.28375244140625,4.733001708984375,1.904693603515625
1783152199060578000,11.585578125,7.171295166015625,4.48175048828125,1.9740753173828125
1783152199070313000,11.59531298828125,7.8484649658203125,4.6707916259765625,2.0673980712890625
1783152199080017700,11.605017578125,8.575881958007812,5.343170166015625,2.5411834716796875
1783152199089722400,11.614722412109375,8.664413452148438,5.5728912353515625,2.47418212890625
1783152199099426800,11.6244267578125,8.566299438476562,4.46978759765625,2.4239349365234375
1783152199109162000,11.634161865234375,7.8843536376953125,3.90509033203125,2.3473663330078125
1783152199118866400,11.643866455078125,7.523040771484375,5.5154571533203125,1.6223297119140625
1783152199128571100,11.653571044921875,7.056427001953125,5.9796600341796875,0.7537384033203125
1783152199138275800,11.66327587890625,7.0396881103515625,5.0943145751953125,0.64605712890625
1783152199148010800,11.6730107421875,6.9798583984375,4.9124603271484375,0.638885498046875
1783152199157715500,11.682715576171875,6.795623779296875,5.1517486572265625,0.16510009765625
1783152199167450600,11.69245068359375,6.685546875,5.2666015625,-0.06939697265625
1783152199177155000,11.702155029296875,6.8697967529296875,5.5920257568359375,-0.0430755615234375
1783152199186890200,11.71189013671875,6.996612548828125,5.905487060546875,-0.011962890625
1783152199196594700,11.7215947265625,6.9344024658203125,6.0370941162109375,0.1268157958984375
1783152199206299400,11.73129931640625,7.01336669921875,5.9700927734375,0.41156005859375
1783152199216004000,11.741004150390625,7.149749755859375,5.90069580078125,0.6795654296875
1783152199225739000,11.750739013671875,7.336395263671875,5.941375732421875,0.827911376953125
1783152199235443700,11.760443603515625,7.3746795654296875,6.0323028564453125,0.84466552734375
1783152199245148200,11.770148193359375,7.2981109619140625,6.0083770751953125,0.7537384033203125
1783152199254852900,11.779852783203125,7.2526397705078125,5.90069580078125,0.5024871826171875
1783152199264588000,11.789588134765625,7.219146728515625,5.82891845703125,0.100494384765625
1783152199274292500,11.79929248046875,7.178466796875,5.8791656494140625,-0.428314208984375
1783152199283997200,11.8089970703125,7.171295166015625,6.080169677734375,-0.8661956787109375
1783152199293701600,11.81870166015625,7.35552978515625,6.11126708984375,-1.0289154052734375
1783152199303406300,11.82840625,7.5804595947265625,6.0251312255859375,-0.949951171875
1783152199322846000,11.847845947265625,7.8149566650390625,6.0131683349609375,-0.5359954833984375
1783152199332550700,11.857550537109375,7.8436737060546875,6.0035858154296875,-0.4091796875
1783152199342255000,11.867255126953125,7.7958221435546875,5.998809814453125,-0.3254241943359375
1783152199351990300,11.876990234375,7.7216339111328125,5.9581298828125,-0.2608184814453125
1783152199361695000,11.886695068359375,7.6785736083984375,5.9198455810546875,-0.3206329345703125
1783152199371399400,11.8963994140625,7.4105682373046875,5.986846923828125,-0.4259185791015625
1783152199381104000,11.906104248046875,7.219146728515625,6.0538482666015625,-0.4953155517578125
1783152199390839300,11.91583935546875,7.4632110595703125,6.0012054443359375,-0.5192413330078125
1783152199400543700,11.925543701171875,8.111663818359375,5.965301513671875,-0.464202880859375
1783152199410248400,11.93524853515625,9.092727661132812,5.8384857177734375,-0.38763427734375
1783152199419953000,11.944952880859375,9.932601928710938,5.694915771484375,-0.2105712890625
1783152199439392800,11.964392822265625,9.59521484375,6.28594970703125,0.10528564453125
1783152199449127700,11.974127685546875,8.707489013671875,6.4127655029296875,-0.0478515625
1783152199458832400,11.983832275390625,7.6211395263671875,6.721435546875,-0.076568603515625
1783152199468567600,11.993567626953125,6.8243255615234375,6.7836456298828125,0.10528564453125
1783152199478272000,12.00327197265625,6.4893341064453125,6.86260986328125,0.2895355224609375
1783152199487976700,12.012976806640625,6.54437255859375,7.054046630859375,0.29193115234375
1783152199497681200,12.02268115234375,7.4321136474609375,7.1473541259765625,0.334991455078125
