time,seconds_elapsed,z,y,x
1783153274786248400,0.20724853515625,-1.1209046840667725,-0.005497625097632408,-1.3427186012268066
1783153274795960000,0.2169599609375,-1.389753818511963,-0.37383851408958435,-1.2100883722305298
1783153274805671400,0.22667138671875,-1.385477900505066,-0.9132166504859924,-1.0805888175964355
1783153274815382800,0.2363828125,-0.8222004175186157,-1.6011070013046265,-1.0292776823043823
1783153274825094400,0.246094482421875,-0.2620534598827362,-1.621264934539795,-1.1807677745819092
1783153274834805800,0.2558056640625,-0.0781884491443634,-1.2607887983322144,-1.262621283531189
1783153274844517400,0.265517333984375,-0.10384403169155121,-0.9040539264678955,-1.1673290729522705
1783153274854228700,0.275228759765625,-0.09773556143045425,-0.5821374654769897,-0.8790091872215271
1783153274863940400,0.2849404296875,0.053143709897994995,-0.23090025782585144,-0.6077930331230164
1783153274873651700,0.294651611328125,0.01588202826678753,-0.6896465420722961,-0.2229592502117157
1783153274883363300,0.30436328125,-0.11972606182098389,-0.6676560640335083,0.011606098152697086
1783153274893074700,0.31407470703125,-0.2376195788383484,-0.3927747905254364,0.1429382562637329
1783153274902786300,0.323786376953125,-0.2644968628883362,-0.24128466844558716,0.3402419090270996
1783153274912497700,0.33349755859375,-0.024433890357613564,-0.06719319522380829,0.42514967918395996
1783153274922209300,0.343209228515625,0.43736663460731506,0.06963659077882767,0.3414636254310608
1783153274931920600,0.352920654296875,0.7794411182403564,-0.04581354558467865,0.26694026589393616
1783153274941632300,0.36263232421875,0.8441908955574036,-0.18814095854759216,0.29503923654556274
1783153274951343600,0.372343505859375,0.5448757410049438,-0.4068242609500885,0.33718767762184143
1783153274961055000,0.382054931640625,0.1441599577665329,-0.4477510452270508,0.24006296694278717
1783153274970766600,0.3917666015625,0.08918370306491852,-0.3830012381076813,0.06047387793660164
1783153274980478000,0.40147802734375,0.051922015845775604,-0.48073679208755493,-0.021379653364419937
1783153274990189600,0.411189453125,0.02076880633831024,-0.47646087408065796,-0.0787992998957634
1783153274999901000,0.42090087890625,0.023823043331503868,-0.33291175961494446,-0.1582094430923462
1783153275009612500,0.430612548828125,0.13621893525123596,-0.13560809195041656,-0.182643324136734
1783153275019324000,0.440323974609375,0.30847787857055664,0.11483928561210632,-0.08490777015686035
1783153275029035500,0.450035400390625,0.3830012381076813,0.390942245721817,0.1435490995645523
1783153275038747000,0.459746826171875,0.34940463304519653,0.8729007244110107,0.2901524603366852
1783153275048458500,0.46945849609375,0.45508119463920593,0.9584193229675293,0.3939964771270752
1783153275058169900,0.479169921875,0.5161659121513367,1.0805888175964355,0.4294256269931793
1783153275067881500,0.488881591796875,0.5674771070480347,1.0103414058685303,0.4324798583984375
1783153275077592800,0.4985927734375,0.624285876750946,0.790436327457428,0.46607646346092224
1783153275087304200,0.50830419921875,0.5833591222763062,0.7470661997795105,0.4587462842464447
1783153275097015800,0.518015869140625,0.5082249045372009,0.6933116316795349,0.3799470067024231
1783153275106727200,0.52772705078125,0.41232189536094666,0.3298575282096863,0.18081079423427582
1783153275116438800,0.537438720703125,0.26694026589393616,0.1575985997915268,-0.04153761267662048
1783153275126150100,0.547150146484375,0.12522368133068085,0.16737215220928192,-0.11483928561210632
1783153275135861800,0.55686181640625,0.029320668429136276,0.18936264514923096,-0.01038440316915512
1783153275145573000,0.566572998046875,0.01954711228609085,0.17470231652259827,0.1050657257437706
1783153275155284700,0.57628466796875,0.038483377546072006,0.18814095854759216,0.11483928561210632
1783153275164996000,0.58599609375,0.04214845970273018,0.21990501880645752,0.06291726976633072
1783153275174707700,0.595707763671875,0.036039989441633224,0.26755109429359436,0.05497625470161438
1783153275184419000,0.605419189453125,0.054365407675504684,0.3035911023616791,0.12888877093791962
1783153275194130700,0.615130615234375,0.0794101431965828,0.3695625960826874,0.24006296694278717
1783153275203842000,0.624842041015625,0.10934165865182877,0.46607646346092224,0.3408527672290802
1783153275213553700,0.6345537109375,0.1325538605451584,0.5766398310661316,0.4062134325504303
1783153275223265000,0.64426513671875,0.15332266688346863,0.6267293095588684,0.43858832120895386
1783153275232976600,0.6539765625,0.16615045070648193,0.6255075931549072,0.4337015450000763
1783153275242688000,0.66368798828125,0.15271180868148804,0.578472375869751,0.4049917459487915
1783153275252399600,0.673399658203125,0.12278030067682266,0.527161180973053,0.3432961702346802
1783153275262111000,0.683111083984375,0.09345962852239609,0.46241137385368347,0.27854636311531067
1783153275271822600,0.692822509765625,0.05986303091049194,0.3958290219306946,0.21746163070201874
1783153275281534000,0.702533935546875,0.03298575058579445,0.3133646547794342,0.15271180868148804
1783153275291245600,0.71224560546875,0.012216945178806782,0.2101314514875412,0.08063183724880219
1783153275300957000,0.72195703125,0.0030542362947016954,0.12216944992542267,0.013438640162348747
1783153275310668500,0.73166845703125,-0.01038440316915512,0.011606098152697086,-0.04153761267662048
1783153275320380000,0.7413798828125,-0.02504473738372326,-0.07269082218408585,-0.08490777015686035
1783153275330091500,0.751091552734375,-0.03237490355968475,-0.12278030067682266,-0.11911521852016449
1783153275339803000,0.760802978515625,-0.037261683493852615,-0.17714570462703705,-0.15515519678592682
1783153275349514500,0.770514404296875,-0.04337015375494957,-0.21562908589839935,-0.18691925704479218
1783153275359225900,0.780225830078125,-0.04153761267662048,-0.258999228477478,-0.2095206081867218
1783153275368937200,0.789937255859375,-0.0390942245721817,-0.26632940769195557,-0.22662433981895447
1783153275378648800,0.79964892578125,-0.02993151545524597,-0.26938363909721375,-0.22906772792339325
1783153275388360200,0.809360107421875,-0.015271181240677834,-0.26877278089523315,-0.21929416060447693
1783153275398071800,0.81907177734375,-0.0018325417768210173,-0.2724378705024719,-0.20341213047504425
1783153275407783200,0.828783203125,0.014660334214568138,-0.2651077210903168,-0.18691925704479218
1783153275417494800,0.838494873046875,0.02748812735080719,-0.24678228795528412,-0.1692046970129013
1783153275427206100,0.8482060546875,0.036039989441633224,-0.20768806338310242,-0.1716480851173401
1783153275436917800,0.857917724609375,0.04337015375494957,-0.15271180868148804,-0.1850867122411728
1783153275446629000,0.867629150390625,0.051922015845775604,-0.09773556143045425,-0.19241689145565033
1783153275456340700,0.8773408203125,0.05497625470161438,-0.07146912813186646,-0.18569757044315338
1783153275466052400,0.88705224609375,0.05864133685827255,-0.04886778071522713,-0.17653486132621765
1783153275475763700,0.896763671875,0.07085828483104706,-0.05008947476744652,-0.16492876410484314
1783153275485475300,0.906475341796875,0.07574506103992462,-0.062306419014930725,-0.13805148005485535
1783153275495186700,0.916186767578125,0.06963659077882767,-0.08185353130102158,-0.11056335270404816
1783153275504898000,0.92589794921875,0.053143709897994995,-0.12705622613430023,-0.08612946420907974
1783153275514609700,0.935609619140625,0.03542914241552353,-0.14721418917179108,-0.07635590434074402
1783153275524321000,0.945321044921875,0.033596597611904144,-0.1429382562637329,-0.051922015845775604
1783153275534032600,0.95503271484375,0.04153761267662048,-0.1429382562637329,-0.0006108472589403391
1783153275543744000,0.964743896484375,0.04947862774133682,-0.13805148005485535,0.051922015845775604
1783153275553455600,0.97445556640625,0.0647498071193695,-0.13499724864959717,0.08979454636573792
1783153275563167000,0.9841669921875,0.07269082218408585,-0.13682979345321655,0.11300674080848694
1783153275572878600,0.993878662109375,0.07085828483104706,-0.14721418917179108,0.12339114397764206
1783153275582590000,1.00358984375,0.05741964280605316,-0.15454435348510742,0.11056335270404816
1783153275592301600,1.013301513671875,0.04703523963689804,-0.16676130890846252,0.08979454636573792
1783153275602013000,1.023012939453125,0.04703523963689804,-0.19913621246814728,0.07269082218408585
1783153275611724500,1.032724609375,0.05497625470161438,-0.21685077250003815,0.07207997888326645
1783153275621436000,1.042435791015625,0.05741964280605316,-0.21562908589839935,0.07513421028852463
1783153275631147500,1.0521474609375,0.0647498071193695,-0.19119518995285034,0.07207997888326645
1783153275640859000,1.06185888671875,0.07635590434074402,-0.17286977171897888,0.0653606578707695
1783153275650570500,1.071570556640625,0.09284878522157669,-0.16309621930122375,0.06413896381855011
1783153275660281900,1.08128173828125,0.10628741979598999,-0.16004198789596558,0.06658235192298889
1783153275669993500,1.090993408203125,0.11117420345544815,-0.15515519678592682,0.06719319522380829
1783153275679704800,1.100704833984375,0.11361759155988693,-0.16859383881092072,0.051922015845775604
1783153275689416400,1.11041650390625,0.1044548824429512,-0.16553960740566254,0.029320668429136276
1783153275699127800,1.1201279296875,0.08490777015686035,-0.14904673397541046,0.014049487188458443
1783153275708839400,1.12983935546875,0.06780404597520828,-0.12888877093791962,0.004275931045413017
1783153275718550800,1.13955078125,0.06658235192298889,-0.11545012891292572,-0.0036650835536420345
1783153275728262400,1.149262451171875,0.06841489672660828,-0.09895725548267365,-0.012216945178806782
1783153275737973800,1.158973876953125,0.06719319522380829,-0.0787992998957634,-0.02748812735080719
1783153275747685400,1.168685302734375,0.056808795779943466,-0.04337015375494957,-0.054365407675504684
1783153275757396700,1.178396728515625,0.04153761267662048,-0.021990500390529633,-0.07391251623630524
1783153275767108400,1.1881083984375,0.023823043331503868,-0.007941014133393764,-0.08551861345767975
1783153275776819700,1.19781982421875,-0.005497625097632408,0.012216945178806782,-0.08735115826129913
1783153275786531300,1.20753125,-0.03298575058579445,0.055587101727724075,-0.07574506103992462
1783153275796242700,1.21724267578125,-0.05131116881966591,0.08368607610464096,-0.05497625470161438
1783153275805954300,1.226954345703125,-0.062306419014930725,0.08857285231351852,-0.04031591862440109
1783153275815665700,1.236665771484375,-0.05986303091049194,0.07330167293548584,-0.033596597611904144
1783153275825377300,1.246377197265625,-0.055587101727724075,0.05497625470161438,-0.03298575058579445
1783153275835088600,1.256088623046875,-0.06047387793660164,0.04703523963689804,-0.034818295389413834
1783153275844800300,1.26580029296875,-0.06902574002742767,0.056808795779943466,-0.0390942245721817
1783153275854511600,1.27551171875,-0.08002099394798279,0.07024743407964706,-0.034818295389413834
1783153275864223200,1.28522314453125,-0.0910162404179573,0.08551861345767975,-0.006108472589403391
1783153275873934600,1.2949345703125,-0.11483928561210632,0.11911521852016449,0.033596597611904144
1783153275883646200,1.304646240234375,-0.13682979345321655,0.16248537600040436,0.06047387793660164
1783153275893357600,1.314357666015625,-0.15149012207984924,0.19180603325366974,0.07391251623630524
1783153275903069200,1.324069091796875,-0.15393351018428802,0.20219044387340546,0.06963659077882767
1783153275912780500,1.333780517578125,-0.1435490995645523,0.18997350335121155,0.05925218388438225
1783153275922492200,1.3434921875,-0.12400199472904205,0.13866232335567474,0.03542914241552353
1783153275932203500,1.35320361328125,-0.10323318839073181,0.07574506103992462,0.006719320081174374
1783153275941915100,1.3629150390625,-0.08124268800020218,0.009773556143045425,-0.03237490355968475
1783153275951626500,1.37262646484375,-0.06658235192298889,-0.055587101727724075,-0.0659715011715889
1783153275961338000,1.382338134765625,-0.061084724962711334,-0.11178504675626755,-0.08674030750989914
1783153275971049500,1.392049560546875,-0.06413896381855011,-0.15149012207984924,-0.08368607610464096
1783153275980761000,1.401760986328125,-0.06902574002742767,-0.15454435348510742,-0.0647498071193695
1783153275990472400,1.411472412109375,-0.06047387793660164,-0.12705622613430023,-0.04459185153245926
1783153276000184000,1.42118408203125,-0.04092676565051079,-0.09529217332601547,-0.01832541823387146
1783153276009895400,1.4308955078125,-0.021990500390529633,-0.05803048983216286,0.015271181240677834
1783153276019607000,1.44060693359375,-0.004886778071522713,-0.028098974376916885,0.04031591862440109
1783153276029318400,1.450318359375,0.007941014133393764,-0.01710372418165207,0.05803048983216286
1783153276039030000,1.460030029296875,0.022601349279284477,-0.034818295389413834,0.04947862774133682
1783153276048741400,1.469741455078125,0.030542362481355667,-0.05864133685827255,0.024433890357613564
1783153276058453000,1.479452880859375,0.034818295389413834,-0.08918370306491852,-0.01038440316915512
1783153276068164400,1.489164306640625,0.025655584409832954,-0.1178935244679451,-0.04092676565051079
1783153276077876000,1.4988759765625,0.013438640162348747,-0.13438639044761658,-0.056808795779943466
1783153276087587300,1.50858740234375,0,-0.13866232335567474,-0.0659715011715889
1783153276097299000,1.518298828125,-0.0030542362947016954,-0.12339114397764206,-0.06047387793660164
1783153276107010300,1.52801025390625,0.0024433890357613564,-0.1044548824429512,-0.04092676565051079
1783153276116722000,1.537721923828125,0.009773556143045425,-0.0787992998957634,-0.017714571207761765
1783153276126433300,1.547433349609375,0.012216945178806782,-0.05803048983216286,-0.0006108472589403391
1783153276136145000,1.557144775390625,0.017714571207761765,-0.05070032179355621,0.004275931045413017
1783153276145856300,1.566856201171875,0.02076880633831024,-0.04031591862440109,-0.006108472589403391
1783153276155567900,1.57656787109375,0.023823043331503868,-0.03787253051996231,-0.033596597611904144
1783153276165279200,1.586279296875,0.02993151545524597,-0.047646086663007736,-0.055587101727724075
1783153276174990800,1.595990966796875,0.033596597611904144,-0.05986303091049194,-0.06963659077882767
1783153276184702200,1.6057021484375,0.03787253051996231,-0.06963659077882767,-0.0647498071193695
1783153276194413800,1.615413818359375,0.0390942245721817,-0.07452336698770523,-0.05497625470161438
1783153276204125200,1.625125244140625,0.038483377546072006,-0.05925218388438225,-0.04703523963689804
1783153276213836800,1.6348369140625,0.042759306728839874,-0.043981000781059265,-0.037261683493852615
1783153276223548200,1.644548095703125,0.04581354558467865,-0.037261683493852615,-0.03298575058579445
1783153276233259800,1.654259765625,0.04703523963689804,-0.033596597611904144,-0.038483377546072006
1783153276242971100,1.66397119140625,0.05131116881966591,-0.02626643143594265,-0.04581354558467865
1783153276252682800,1.673682861328125,0.045202698558568954,-0.026877280324697495,-0.046424392610788345
1783153276262394000,1.68339404296875,0.034818295389413834,-0.01588202826678753,-0.04337015375494957
1783153276272105700,1.693105712890625,0.02504473738372326,-0.004886778071522713,-0.031153209507465363
1783153276281817000,1.702817138671875,0.020157959312200546,-0.0030542362947016954,-0.01588202826678753
1783153276291528700,1.71252880859375,0.02626643143594265,0.0036650835536420345,-0.009773556143045425
1783153276301240000,1.722239990234375,0.02870982140302658,0.004886778071522713,-0.0030542362947016954
1783153276310951700,1.73195166015625,0.02993151545524597,0.004275931045413017,0.0006108472589403391
1783153276320663000,1.7416630859375,0.01710372418165207,0.007941014133393764,-0.0024433890357613564
1783153276330374400,1.75137451171875,0.005497625097632408,-0.0012216945178806782,-0.0006108472589403391
1783153276340086000,1.7610859375,-0.0030542362947016954,-0.013438640162348747,0
1783153276349797600,1.770797607421875,-0.0036650835536420345,-0.01038440316915512,0.004275931045413017
1783153276359509000,1.780509033203125,-0.0024433890357613564,-0.018936265259981155,0.0036650835536420345
1783153276369220600,1.790220703125,0.0036650835536420345,-0.04092676565051079,0.0036650835536420345
1783153276378932000,1.799931884765625,0.007330167107284069,-0.05925218388438225,-0.0030542362947016954
1783153276388643600,1.8096435546875,0.0036650835536420345,-0.08246438205242157,-0.009773556143045425
1783153276398355000,1.81935498046875,-0.005497625097632408,-0.09529217332601547,-0.020157959312200546
1783153276408066600,1.829066650390625,-0.01710372418165207,-0.09956810623407364,-0.02504473738372326
1783153276417778000,1.83877783203125,-0.024433890357613564,-0.09284878522157669,-0.02870982140302658
1783153276427489500,1.848489501953125,-0.020157959312200546,-0.08490777015686035,-0.033596597611904144
1783153276437201000,1.858200927734375,-0.01588202826678753,-0.07024743407964706,-0.037261683493852615
1783153276446912500,1.86791259765625,-0.016492875292897224,-0.05864133685827255,-0.04031591862440109
1783153276456623900,1.877623779296875,-0.023823043331503868,-0.045202698558568954,-0.04092676565051079
1783153276466335200,1.887335205078125,-0.028098974376916885,-0.0390942245721817,-0.04703523963689804
1783153276476046800,1.897046875,-0.03237490355968475,-0.056808795779943466,-0.05864133685827255
1783153276485758500,1.906758544921875,-0.026877280324697495,-0.08857285231351852,-0.0787992998957634
1783153276495469800,1.9164697265625,-0.023212196305394173,-0.11178504675626755,-0.11545012891292572
1783153276505181400,1.926181396484375,-0.02870982140302658,-0.1178935244679451,-0.15515519678592682
1783153276514892800,1.935892822265625,-0.04214845970273018,-0.10873081535100937,-0.182643324136734
1783153276524604400,1.9456044921875,-0.05008947476744652,-0.0794101431965828,-0.18142163753509521
1783153276534315800,1.955315673828125,-0.0525328628718853,-0.051922015845775604,-0.1557660549879074
1783153276544027400,1.96502734375,-0.05986303091049194,-0.00916270911693573,-0.12400199472904205
1783153276553738800,1.97473876953125,-0.06780404597520828,0.05619794875383377,-0.08796200156211853
1783153276563450400,1.984450439453125,-0.07574506103992462,0.10384403169155121,-0.0525328628718853
1783153276573161700,1.99416162109375,-0.07574506103992462,0.11422843486070633,-0.031153209507465363
1783153276582873300,2.003873291015625,-0.07452336698770523,0.10628741979598999,-0.02993151545524597
1783153276592584700,2.013584716796875,-0.07696675509214401,0.08063183724880219,-0.04459185153245926
1783153276602296300,2.02329638671875,-0.07757759839296341,0.04947862774133682,-0.061084724962711334
1783153276612007700,2.033007568359375,-0.07635590434074402,0.025655584409832954,-0.07330167293548584
1783153276621719000,2.042718994140625,-0.06780404597520828,0.0012216945178806782,-0.0787992998957634
1783153276631430700,2.0524306640625,-0.053143709897994995,-0.01038440316915512,-0.07513421028852463
1783153276641142000,2.06214208984375,-0.0525328628718853,-0.018936265259981155,-0.04886778071522713
1783153276650853600,2.071853515625,-0.05131116881966591,-0.033596597611904144,-0.03237490355968475
1783153276660565200,2.081565185546875,-0.04459185153245926,-0.04947862774133682,-0.033596597611904144
1783153276670276600,2.091276611328125,-0.038483377546072006,-0.05375456064939499,-0.046424392610788345
1783153276679988200,2.10098828125,-0.030542362481355667,-0.055587101727724075,-0.06047387793660164
1783153276689699600,2.110699462890625,-0.018936265259981155,-0.06902574002742767,-0.07452336698770523
1783153276699411200,2.1204111328125,-0.01710372418165207,-0.08429691940546036,-0.0787992998957634
1783153276709122600,2.13012255859375,-0.016492875292897224,-0.10628741979598999,-0.08185353130102158
1783153276718834200,2.139834228515625,-0.02504473738372326,-0.130721315741539,-0.0781884491443634
1783153276728545500,2.149545654296875,-0.0390942245721817,-0.13866232335567474,-0.0659715011715889
1783153276738257200,2.159257080078125,-0.05497625470161438,-0.13621893525123596,-0.043981000781059265
1783153276747968500,2.168968505859375,-0.06291726976633072,-0.12522368133068085,-0.018936265259981155
1783153276757679900,2.178679931640625,-0.05864133685827255,-0.1050657257437706,0.008551862090826035
1783153276767391500,2.1883916015625,-0.04886778071522713,-0.07024743407964706,0.029320668429136276
1783153276777102800,2.198102783203125,-0.043981000781059265,-0.03298575058579445,0.03787253051996231
1783153276786814500,2.207814453125,-0.05008947476744652,-0.005497625097632408,0.04459185153245926
1783153276796526000,2.217526123046875,-0.06352811306715012,0.006108472589403391,0.04337015375494957
1783153276806237400,2.227237548828125,-0.07635590434074402,0.006719320081174374,0.037261683493852615
1783153276815949000,2.236948974609375,-0.08551861345767975,-0.004886778071522713,0.023212196305394173
1783153276825660400,2.246660400390625,-0.09345962852239609,-0.018936265259981155,0.004275931045413017
1783153276835372000,2.2563720703125,-0.10689827054738998,-0.020157959312200546,-0.0012216945178806782
1783153276845083400,2.26608349609375,-0.12094775587320328,-0.013438640162348747,0.0030542362947016954
1783153276854795000,2.275794921875,-0.12644538283348083,-0.0024433890357613564,0.006108472589403391
1783153276864506400,2.28550634765625,-0.12216944992542267,0,0.009773556143045425
1783153276874218000,2.295218017578125,-0.11545012891292572,0.0030542362947016954,0.01954711228609085
1783153276883929300,2.304929443359375,-0.10934165865182877,0.005497625097632408,0.02626643143594265
1783153276893640700,2.314640625,-0.10262233763933182,-0.0006108472589403391,0.03237490355968475
1783153276903352300,2.324352294921875,-0.10811996459960938,-0.010995250195264816,0.030542362481355667
1783153276913063700,2.334063720703125,-0.11483928561210632,-0.017714571207761765,0.014049487188458443
1783153276922775300,2.343775390625,-0.11667182296514511,-0.02870982140302658,0.008551862090826035
1783153276932486700,2.353486572265625,-0.11178504675626755,-0.028098974376916885,0.005497625097632408
1783153276942198300,2.3631982421875,-0.09407047927379608,-0.043981000781059265,0.005497625097632408
1783153276951910000,2.372909912109375,-0.0781884491443634,-0.0659715011715889,-0.006108472589403391
1783153276961621200,2.382621337890625,-0.05864133685827255,-0.07757759839296341,-0.023212196305394173
1783153276971332900,2.392332763671875,-0.04703523963689804,-0.0781884491443634,-0.038483377546072006
1783153276981044200,2.402044189453125,-0.04153761267662048,-0.08307522535324097,-0.04825693368911743
1783153276990755800,2.411755859375,-0.0397050715982914,-0.07757759839296341,-0.04581354558467865
1783153277000467200,2.42146728515625,-0.03665083646774292,-0.0647498071193695,-0.04214845970273018
1783153277010178800,2.4311787109375,-0.02748812735080719,-0.05803048983216286,-0.03176405653357506
1783153277019890200,2.44089013671875,-0.014049487188458443,-0.04337015375494957,-0.03237490355968475
1783153277029601500,2.4506015625,0.004275931045413017,-0.030542362481355667,-0.04581354558467865
1783153277039313200,2.460313232421875,0.015271181240677834,-0.03420744836330414,-0.05741964280605316
1783153277049024500,2.4700244140625,0.02626643143594265,-0.04703523963689804,-0.07513421028852463
1783153277058736000,2.479736083984375,0.030542362481355667,-0.07207997888326645,-0.09834641218185425
1783153277068447500,2.489447509765625,0.03176405653357506,-0.08735115826129913,-0.12461283802986145
1783153277078159000,2.4991591796875,0.02748812735080719,-0.09345962852239609,-0.1319430023431778
1783153277087870500,2.508870361328125,0.02993151545524597,-0.08490777015686035,-0.12216944992542267
1783153277097582000,2.51858203125,0.04214845970273018,-0.0787992998957634,-0.10140064358711243
1783153277107293700,2.528293701171875,0.05741964280605316,-0.06902574002742767,-0.08735115826129913
1783153277117005000,2.538005126953125,0.07085828483104706,-0.05803048983216286,-0.08490777015686035
1783153277126716700,2.547716552734375,0.0787992998957634,-0.05070032179355621,-0.09529217332601547
1783153277136428000,2.557427978515625,0.07269082218408585,-0.04337015375494957,-0.10628741979598999
1783153277146139600,2.5671396484375,0.06841489672660828,-0.05008947476744652,-0.12216944992542267
1783153277155851000,2.57685107421875,0.07024743407964706,-0.05864133685827255,-0.13316470384597778
1783153277165562400,2.586562255859375,0.07696675509214401,-0.07574506103992462,-0.13316470384597778
1783153277175274000,2.59627392578125,0.08551861345767975,-0.08307522535324097,-0.1301104724407196
1783153277184985300,2.6059853515625,0.08124268800020218,-0.07207997888326645,-0.129499614238739
1783153277194697000,2.615697021484375,0.0659715011715889,-0.055587101727724075,-0.1313321590423584
1783153277204408300,2.625408203125,0.04337015375494957,-0.031153209507465363,-0.130721315741539
1783153277214120000,2.635119873046875,0.02748812735080719,-0.016492875292897224,-0.12216944992542267
1783153277223831300,2.644831298828125,0.016492875292897224,-0.006719320081174374,-0.10262233763933182
1783153277233543000,2.65454296875,0.008551862090826035,0.00916270911693573,-0.08002099394798279
1783153277243254300,2.664254150390625,0.004275931045413017,0.02870982140302658,-0.05864133685827255
1783153277252966000,2.6739658203125,0.004275931045413017,0.03787253051996231,-0.0390942245721817
1783153277262677200,2.68367724609375,0.014049487188458443,0.04337015375494957,-0.022601349279284477
1783153277272388900,2.693388916015625,0.029320668429136276,0.037261683493852615,-0.023212196305394173
1783153277282100500,2.7031005859375,0.04886778071522713,0.021990500390529633,-0.030542362481355667
1783153277291811800,2.712811767578125,0.056808795779943466,-0.0006108472589403391,-0.036039989441633224
1783153277301523200,2.722523193359375,0.04886778071522713,-0.017714571207761765,-0.04153761267662048
1783153277311234800,2.73223486328125,0.03420744836330414,-0.030542362481355667,-0.04459185153245926
1783153277320946200,2.7419462890625,0.021379653364419937,-0.036039989441633224,-0.033596597611904144
1783153277330657800,2.75165771484375,0.014660334214568138,-0.03176405653357506,-0.017714571207761765
1783153277340369200,2.761369140625,0.009773556143045425,-0.014660334214568138,-0.0012216945178806782
1783153277350080800,2.771080810546875,0.004886778071522713,0.0012216945178806782,0.023823043331503868
1783153277359792000,2.780792236328125,0.0012216945178806782,0.0030542362947016954,0.045202698558568954
1783153277369503700,2.790503662109375,0.00916270911693573,-0.0024433890357613564,0.045202698558568954
1783153277379215000,2.800215087890625,0.01954711228609085,-0.004886778071522713,0.0390942245721817
1783153277388926700,2.8099267578125,0.02626643143594265,-0.02504473738372326,0.04153761267662048
1783153277398638000,2.81963818359375,0.02748812735080719,-0.028098974376916885,0.04459185153245926
1783153277408349700,2.829349609375,0.01588202826678753,-0.023823043331503868,0.05375456064939499
1783153277418061000,2.83906103515625,0.0024433890357613564,-0.01954711228609085,0.07085828483104706
1783153277427772700,2.848772705078125,-0.005497625097632408,0.0006108472589403391,0.08368607610464096
1783153277437484000,2.858484130859375,-0.006719320081174374,0.01588202826678753,0.09529217332601547
1783153277447195600,2.868195556640625,0.0012216945178806782,0.024433890357613564,0.10017894953489304
1783153277456907000,2.877906982421875,0.011606098152697086,0.029320668429136276,0.09773556143045425
1783153277466618600,2.88761865234375,0.026877280324697495,0.031153209507465363,0.0794101431965828
1783153277476330000,2.897330078125,0.043981000781059265,0.02748812735080719,0.06413896381855011
1783153277486041600,2.90704150390625,0.054365407675504684,0.0030542362947016954,0.05131116881966591
1783153277495753000,2.9167529296875,0.056808795779943466,-0.010995250195264816,0.03298575058579445
1783153277505464600,2.926464599609375,0.04825693368911743,-0.03176405653357506,0.01832541823387146
1783153277515176000,2.936176025390625,0.038483377546072006,-0.046424392610788345,0.015271181240677834
1783153277524887600,2.945887451171875,0.030542362481355667,-0.046424392610788345,0.020157959312200546
1783153277534599000,2.955598876953125,0.026877280324697495,-0.029320668429136276,0.03420744836330414
1783153277544310500,2.965310546875,0.025655584409832954,-0.01038440316915512,0.05008947476744652
1783153277554022000,2.97502197265625,0.02504473738372326,-0.0030542362947016954,0.0653606578707695
1783153277563733500,2.9847333984375,0.029320668429136276,-0.0036650835536420345,0.06963659077882767
1783153277573444900,2.99444482421875,0.03787253051996231,-0.012827792204916477,0.0647498071193695
1783153277583156500,3.004156494140625,0.04337015375494957,-0.018936265259981155,0.05008947476744652
1783153277592867800,3.013867919921875,0.04031591862440109,-0.030542362481355667,0.031153209507465363
1783153277602579500,3.023579345703125,0.031153209507465363,-0.046424392610788345,0.012216945178806782
1783153277612290800,3.033290771484375,0.02748812735080719,-0.05131116881966591,-0.011606098152697086
1783153277622002400,3.04300244140625,0.031153209507465363,-0.06291726976633072,-0.02870982140302658
1783153277631713800,3.0527138671875,0.026877280324697495,-0.07391251623630524,-0.04337015375494957
1783153277641425400,3.06242529296875,0.008551862090826035,-0.0794101431965828,-0.04825693368911743
1783153277651136800,3.07213671875,-0.018936265259981155,-0.07391251623630524,-0.045202698558568954
1783153277660848400,3.081848388671875,-0.04703523963689804,-0.0647498071193695,-0.037261683493852615
1783153277670559700,3.091559814453125,-0.05864133685827255,-0.03176405653357506,-0.01588202826678753
1783153277680271400,3.101271240234375,-0.053143709897994995,0.006108472589403391,0.008551862090826035
1783153277689982700,3.110982666015625,-0.04153761267662048,0.02993151545524597,0.033596597611904144
1783153277699694300,3.1206943359375,-0.03298575058579445,0.047646086663007736,0.036039989441633224
1783153277709405700,3.13040576171875,-0.03237490355968475,0.04825693368911743,0.024433890357613564
1783153277719117300,3.140117431640625,-0.03665083646774292,0.02504473738372326,0.006719320081174374
1783153277728828700,3.14982861328125,-0.04092676565051079,-0.0036650835536420345,-0.013438640162348747
1783153277738540300,3.159540283203125,-0.042759306728839874,-0.03298575058579445,-0.037261683493852615
1783153277748251600,3.169251708984375,-0.042759306728839874,-0.04092676565051079,-0.06047387793660164
1783153277757963300,3.17896337890625,-0.03237490355968475,-0.05008947476744652,-0.08979454636573792
1783153277767674600,3.188674560546875,-0.018936265259981155,-0.05008947476744652,-0.11056335270404816
1783153277777386200,3.19838623046875,-0.004886778071522713,-0.038483377546072006,-0.11361759155988693
1783153277787097600,3.20809765625,-0.0006108472589403391,-0.028098974376916885,-0.10750912129878998
1783153277796809200,3.217809326171875,-0.006719320081174374,0.0012216945178806782,-0.08368607610464096
1783153277806520600,3.2275205078125,-0.023823043331503868,0.038483377546072006,-0.04947862774133682
1783153277816232200,3.237232177734375,-0.037261683493852615,0.07696675509214401,-0.021990500390529633
1783153277825943600,3.246943603515625,-0.047646086663007736,0.11117420345544815,-0.006108472589403391
1783153277835655200,3.2566552734375,-0.047646086663007736,0.1319430023431778,-0.012827792204916477
1783153277845366500,3.266366455078125,-0.0397050715982914,0.1459924876689911,-0.03298575058579445
1783153277855078100,3.276078125,-0.025655584409832954,0.13682979345321655,-0.055587101727724075
1783153277864789500,3.28578955078125,-0.015271181240677834,0.10140064358711243,-0.07391251623630524
1783153277874501000,3.295501220703125,-0.00916270911693573,0.055587101727724075,-0.09651386737823486
1783153277884212500,3.30521240234375,-0.013438640162348747,0.012827792204916477,-0.11178504675626755
1783153277893924000,3.314924072265625,-0.028098974376916885,-0.01954711228609085,-0.11667182296514511
1783153277903635500,3.324635498046875,-0.04703523963689804,-0.0397050715982914,-0.10811996459960938
1783153277913347000,3.33434716796875,-0.0659715011715889,-0.045202698558568954,-0.08063183724880219
1783153277923058400,3.344058349609375,-0.07513421028852463,-0.03542914241552353,-0.0397050715982914
1783153277932770000,3.35377001953125,-0.07146912813186646,-0.01954711228609085,-0.00916270911693573
1783153277942481400,3.3634814453125,-0.06352811306715012,-0.005497625097632408,0.009773556143045425
1783153277952193000,3.373193115234375,-0.05741964280605316,-0.0036650835536420345,0.012216945178806782
1783153277961904400,3.382904296875,-0.06291726976633072,-0.0036650835536420345,0.016492875292897224
1783153277971616000,3.392615966796875,-0.06719319522380829,-0.005497625097632408,0.01588202826678753
1783153277981327400,3.402327392578125,-0.06719319522380829,-0.018936265259981155,0.021379653364419937
1783153277991039000,3.4120390625,-0.06352811306715012,-0.031153209507465363,0.022601349279284477
1783153278000750300,3.421750244140625,-0.05925218388438225,-0.046424392610788345,0.02748812735080719
1783153278010462000,3.4314619140625,-0.054365407675504684,-0.05803048983216286,0.02993151545524597
1783153278020173300,3.44117333984375,-0.04459185153245926,-0.051922015845775604,0.03420744836330414
1783153278029885000,3.450885009765625,-0.02870982140302658,-0.04825693368911743,0.0397050715982914
1783153278039596300,3.46059619140625,-0.006719320081174374,-0.05008947476744652,0.04337015375494957
1783153278049308000,3.470307861328125,0.004275931045413017,-0.054365407675504684,0.0397050715982914
1783153278059019300,3.480019287109375,0.004886778071522713,-0.053143709897994995,0.026877280324697495
1783153278068731000,3.48973095703125,0.0018325417768210173,-0.05070032179355621,0.010995250195264816
1783153278078442200,3.499442138671875,0,-0.055587101727724075,0.007941014133393764
1783153278088153900,3.50915380859375,0.007330167107284069,-0.06352811306715012,0.010995250195264816
1783153278097865200,3.518865234375,0.012827792204916477,-0.05803048983216286,0.009773556143045425
1783153278107576800,3.528576904296875,0.025655584409832954,-0.051922015845775604,0.006719320081174374
1783153278117288200,3.5382880859375,0.03237490355968475,-0.05070032179355621,0.006108472589403391
1783153278126999800,3.547999755859375,0.03787253051996231,-0.03787253051996231,0.004886778071522713
1783153278136711200,3.557711181640625,0.03787253051996231,-0.03420744836330414,0.0036650835536420345
1783153278146422800,3.5674228515625,0.037261683493852615,-0.036039989441633224,0.0006108472589403391
1783153278156134100,3.577134033203125,0.02993151545524597,-0.03237490355968475,-0.007330167107284069
1783153278165845800,3.586845703125,0.02748812735080719,-0.03176405653357506,-0.008551862090826035
1783153278175557000,3.59655712890625,0.018936265259981155,-0.02993151545524597,-0.018936265259981155
1783153278185268700,3.606268798828125,0.012827792204916477,-0.018936265259981155,-0.023823043331503868
1783153278194980000,3.61597998046875,0.004275931045413017,-0.0030542362947016954,-0.023823043331503868
1783153278204691700,3.625691650390625,-0.0018325417768210173,0.02076880633831024,-0.02626643143594265
1783153278214403000,3.635403076171875,0,0.03176405653357506,-0.02076880633831024
1783153278224114700,3.64511474609375,0.0036650835536420345,0.02748812735080719,-0.010995250195264816
1783153278233826000,3.654825927734375,-0.0006108472589403391,-0.0030542362947016954,-0.017714571207761765
1783153278243537700,3.66453759765625,-0.0018325417768210173,-0.01832541823387146,-0.031153209507465363
1783153278253249000,3.6742490234375,-0.0018325417768210173,-0.02870982140302658,-0.04214845970273018
1783153278262960600,3.683960693359375,0.0018325417768210173,-0.0397050715982914,-0.05008947476744652
1783153278272672000,3.693672119140625,0.0030542362947016954,-0.042759306728839874,-0.05070032179355621
1783153278282383400,3.70338330078125,0.006108472589403391,-0.02870982140302658,-0.05008947476744652
1783153278292095000,3.713094970703125,0.013438640162348747,-0.0030542362947016954,-0.04581354558467865
1783153278301806600,3.722806640625,0.022601349279284477,0.01588202826678753,-0.03420744836330414
1783153278311518000,3.73251806640625,0.025655584409832954,0.033596597611904144,-0.025655584409832954
1783153278321229600,3.7422294921875,0.023823043331503868,0.034818295389413834,-0.021990500390529633
1783153278330941000,3.75194091796875,0.010995250195264816,0.02870982140302658,-0.02076880633831024
1783153278340652500,3.761652587890625,0.006108472589403391,0.01832541823387146,-0.01954711228609085
1783153278350364000,3.771364013671875,0.006108472589403391,0.0012216945178806782,-0.01832541823387146
1783153278360075500,3.781075439453125,0.016492875292897224,-0.00916270911693573,-0.02626643143594265
1783153278369787000,3.790786865234375,0.018936265259981155,-0.011606098152697086,-0.02993151545524597
1783153278379498500,3.80049853515625,0.017714571207761765,-0.015271181240677834,-0.0390942245721817
1783153278389209900,3.8102099609375,0.010995250195264816,-0.018936265259981155,-0.038483377546072006
1783153278398921500,3.81992138671875,0.006108472589403391,-0.02504473738372326,-0.034818295389413834
1783153278408632800,3.8296328125,-0.0036650835536420345,-0.030542362481355667,-0.025655584409832954
1783153278418344200,3.83934423828125,-0.010995250195264816,-0.04581354558467865,-0.01588202826678753
1783153278428055800,3.849055908203125,-0.01954711228609085,-0.0390942245721817,-0.009773556143045425
1783153278437767200,3.85876708984375,-0.02504473738372326,-0.03420744836330414,0.0024433890357613564
1783153278447478800,3.868478759765625,-0.03176405653357506,-0.031153209507465363,0.017714571207761765
1783153278457190100,3.878190185546875,-0.02993151545524597,-0.028098974376916885,0.03665083646774292
1783153278466901800,3.88790185546875,-0.03298575058579445,-0.02993151545524597,0.047646086663007736
1783153278476613000,3.897613037109375,-0.046424392610788345,-0.03298575058579445,0.04947862774133682
1783153278486324700,3.90732470703125,-0.06047387793660164,-0.028098974376916885,0.045202698558568954
1783153278496036400,3.917036376953125,-0.06841489672660828,-0.009773556143045425,0.03665083646774292
1783153278505747700,3.926747802734375,-0.06658235192298889,0.014049487188458443,0.03237490355968475
1783153278515459300,3.936459228515625,-0.056808795779943466,0.03237490355968475,0.026877280324697495
1783153278525170700,3.946170654296875,-0.038483377546072006,0.030542362481355667,0.021379653364419937
1783153278534882300,3.95588232421875,-0.01832541823387146,0.013438640162348747,0.007330167107284069
1783153278544593700,3.96559375,-0.006719320081174374,-0.013438640162348747,-0.008551862090826035
1783153278554305000,3.975304931640625,-0.0036650835536420345,-0.02748812735080719,-0.025655584409832954
1783153278564016600,3.9850166015625,-0.014049487188458443,-0.030542362481355667,-0.04459185153245926
1783153278573728000,3.99472802734375,-0.03176405653357506,-0.02504473738372326,-0.0525328628718853
1783153278583439600,4.004439697265625,-0.04092676565051079,-0.011606098152697086,-0.053143709897994995
1783153278593151000,4.01415087890625,-0.03787253051996231,0.00916270911693573,-0.0390942245721817
1783153278602862600,4.023862548828125,-0.02076880633831024,0.026877280324697495,-0.025655584409832954
1783153278612574000,4.033573974609375,-0.004886778071522713,0.04459185153245926,-0.01954711228609085
1783153278622285600,4.04328564453125,0.004886778071522713,0.05375456064939499,-0.026877280324697495
1783153278631997000,4.052996826171875,0.00916270911693573,0.04947862774133682,-0.02748812735080719
1783153278641708500,4.06270849609375,0.014660334214568138,0.028098974376916885,-0.02870982140302658
1783153278651420000,4.072419921875,0.01954711228609085,0.006108472589403391,-0.03420744836330414
1783153278661131500,4.082131591796875,0.028098974376916885,-0.011606098152697086,-0.046424392610788345
1783153278670843000,4.0918427734375,0.029320668429136276,-0.01710372418165207,-0.05008947476744652
1783153278680554500,4.101554443359375,0.022601349279284477,-0.00916270911693573,-0.053143709897994995
1783153278690265900,4.111265869140625,0.010995250195264816,-0.0024433890357613564,-0.051922015845775604
1783153278699977500,4.1209775390625,0.004275931045413017,0.011606098152697086,-0.0397050715982914
1783153278709688800,4.130688720703125,0.0018325417768210173,0.018936265259981155,-0.017714571207761765
1783153278719400400,4.140400390625,0.0030542362947016954,0.030542362481355667,-0.0018325417768210173
1783153278729111800,4.15011181640625,0.0036650835536420345,0.02993151545524597,0.007941014133393764
1783153278738823400,4.159823486328125,0.0018325417768210173,0.01710372418165207,-0.0030542362947016954
1783153278748534800,4.16953466796875,0.0024433890357613564,-0.0006108472589403391,-0.023823043331503868
1783153278758246400,4.179246337890625,0,-0.01954711228609085,-0.04092676565051079
1783153278767957800,4.188957763671875,-0.006719320081174374,-0.03237490355968475,-0.05803048983216286
1783153278777669400,4.19866943359375,-0.016492875292897224,-0.031153209507465363,-0.06047387793660164
1783153278787380700,4.208380615234375,-0.026877280324697495,-0.017714571207761765,-0.047646086663007736
1783153278797092400,4.21809228515625,-0.03176405653357506,0,-0.02626643143594265
1783153278806803700,4.2278037109375,-0.03176405653357506,0.010995250195264816,-0.005497625097632408
1783153278816515300,4.237515380859375,-0.023212196305394173,0.01038440316915512,0.004275931045413017
1783153278826226700,4.247226806640625,-0.024433890357613564,0.01038440316915512,0.0036650835536420345
1783153278835938300,4.256938232421875,-0.024433890357613564,0.009773556143045425,0.0036650835536420345
1783153278845649700,4.266649658203125,-0.021379653364419937,0.005497625097632408,-0.0030542362947016954
1783153278855361300,4.276361328125,-0.007941014133393764,0.0030542362947016954,-0.018936265259981155
1783153278865072600,4.28607275390625,-0.0006108472589403391,0.0012216945178806782,-0.028098974376916885
1783153278874784300,4.2957841796875,-0.0006108472589403391,-0.02076880633831024,-0.024433890357613564
1783153278884495600,4.30549560546875,-0.005497625097632408,-0.03665083646774292,-0.007941014133393764
1783153278894207200,4.315207275390625,-0.01038440316915512,-0.04459185153245926,0.0006108472589403391
1783153278903918600,4.324918701171875,-0.014660334214568138,-0.04459185153245926,0.009773556143045425
1783153278913630200,4.334630126953125,-0.018936265259981155,-0.04214845970273018,0.013438640162348747
1783153278923341600,4.344341552734375,-0.018936265259981155,-0.04092676565051079,0.004275931045413017
1783153278933053200,4.35405322265625,-0.016492875292897224,-0.0397050715982914,-0.01038440316915512
1783153278942764500,4.3637646484375,-0.010995250195264816,-0.028098974376916885,-0.017714571207761765
1783153278952476200,4.37347607421875,-0.0006108472589403391,-0.018936265259981155,-0.017714571207761765
1783153278962187500,4.3831875,0.010995250195264816,-0.007941014133393764,-0.012827792204916477
1783153278971899100,4.392899169921875,0.018936265259981155,0.0024433890357613564,-0.007941014133393764
1783153278981610500,4.402610595703125,0.017714571207761765,0.02626643143594265,-0.006108472589403391
1783153278991322000,4.412322021484375,0.010995250195264816,0.02993151545524597,0.006719320081174374
1783153279001033500,4.422033447265625,0.0018325417768210173,0.026877280324697495,0.007941014133393764
1783153279010745000,4.4317451171875,-0.0006108472589403391,0.021379653364419937,0
1783153279020456400,4.44145654296875,-0.0018325417768210173,0.015271181240677834,-0.012827792204916477
1783153279030168000,4.45116796875,-0.004275931045413017,0.004886778071522713,-0.01832541823387146
1783153279039879400,4.46087939453125,-0.013438640162348747,0.006719320081174374,-0.025655584409832954
1783153279049591000,4.470591064453125,-0.025655584409832954,0.020157959312200546,-0.021990500390529633
1783153279059302400,4.480302490234375,-0.03420744836330414,0.04092676565051079,-0.006108472589403391
1783153279069014000,4.490013916015625,-0.03787253051996231,0.06963659077882767,0.012216945178806782
1783153279078725400,4.499725341796875,-0.0390942245721817,0.09712471067905426,0.02993151545524597
1783153279088437000,4.50943701171875,-0.0397050715982914,0.10628741979598999,0.04337015375494957
1783153279098148400,4.5191484375,-0.04459185153245926,0.10873081535100937,0.04581354558467865
1783153279107859700,4.528859619140625,-0.05375456064939499,0.11422843486070633,0.03787253051996231
1783153279117571300,4.5385712890625,-0.05803048983216286,0.11300674080848694,0.02504473738372326
1783153279127282700,4.54828271484375,-0.053143709897994995,0.10323318839073181,0.016492875292897224
1783153279136994300,4.557994384765625,-0.04153761267662048,0.0781884491443634,0.0012216945178806782
1783153279146705700,4.56770556640625,-0.014660334214568138,0.043981000781059265,-0.014660334214568138
1783153279156417300,4.577417236328125,0.01038440316915512,0.008551862090826035,-0.02993151545524597
1783153279166128600,4.587128662109375,0.021990500390529633,-0.020157959312200546,-0.045202698558568954
1783153279175840300,4.59684033203125,0.01710372418165207,-0.03542914241552353,-0.05375456064939499
1783153279185551600,4.606551513671875,0.0036650835536420345,-0.03787253051996231,-0.05619794875383377
1783153279195263200,4.61626318359375,-0.010995250195264816,-0.02993151545524597,-0.04031591862440109
1783153279204974600,4.625974609375,-0.014660334214568138,-0.015271181240677834,-0.024433890357613564
1783153279214686200,4.635686279296875,-0.008551862090826035,0.0018325417768210173,-0.006719320081174374
1783153279224397800,4.645397705078125,0.005497625097632408,0.009773556143045425,0.01038440316915512
1783153279234109200,4.655109130859375,0.012827792204916477,0.0018325417768210173,0.021990500390529633
1783153279243820500,4.664820556640625,0.009773556143045425,-0.005497625097632408,0.017714571207761765
1783153279253532200,4.6745322265625,0.004886778071522713,-0.015271181240677834,0.013438640162348747
1783153279263243500,4.684243408203125,0.007330167107284069,-0.03420744836330414,0.020157959312200546
1783153279272955100,4.693955078125,0.009773556143045425,-0.046424392610788345,0.03298575058579445
1783153279282666500,4.70366650390625,0.013438640162348747,-0.038483377546072006,0.0390942245721817
1783153279292378000,4.713378173828125,0.014049487188458443,-0.016492875292897224,0.043981000781059265
1783153279302089500,4.72308935546875,0.021990500390529633,0.0012216945178806782,0.043981000781059265
1783153279311801000,4.732801025390625,0.029320668429136276,0.014049487188458443,0.042759306728839874
1783153279321512400,4.742512451171875,0.04459185153245926,0.033596597611904144,0.04153761267662048
1783153279331224000,4.75222412109375,0.06413896381855011,0.03542914241552353,0.04886778071522713
1783153279340935400,4.761935302734375,0.08368607610464096,0.010995250195264816,0.05803048983216286
1783153279350647000,4.77164697265625,0.08490777015686035,-0.006108472589403391,0.04092676565051079
1783153279360358400,4.7813583984375,0.07269082218408585,-0.009773556143045425,0.01954711228609085
1783153279370070000,4.791070068359375,0.06841489672660828,-0.008551862090826035,-0.0030542362947016954
1783153279379781400,4.800781494140625,0.0659715011715889,-0.010995250195264816,-0.013438640162348747
1783153279389493000,4.810492919921875,0.05986303091049194,-0.0030542362947016954,-0.0036650835536420345
1783153279399204400,4.820204345703125,0.05375456064939499,0.006719320081174374,0.004275931045413017
1783153279408916000,4.829916015625,0.051922015845775604,0.017714571207761765,0.008551862090826035
1783153279418627300,4.83962744140625,0.0525328628718853,0.04153761267662048,0.005497625097632408
1783153279428339000,4.8493388671875,0.054365407675504684,0.05986303091049194,-0.0024433890357613564
1783153279438050300,4.85905029296875,0.04947862774133682,0.06169557198882103,-0.004275931045413017
1783153279447762000,4.868761962890625,0.04703523963689804,0.04581354558467865,-0.006108472589403391
1783153279457473300,4.878473388671875,0.04214845970273018,0.021990500390529633,-0.014049487188458443
1783153279467185000,4.888184814453125,0.030542362481355667,0.012216945178806782,-0.021990500390529633
1783153279476896300,4.897896240234375,0.012827792204916477,0.013438640162348747,-0.015271181240677834
1783153279486608000,4.90760791015625,-0.004275931045413017,0.017714571207761765,-0.0030542362947016954
1783153279496319200,4.9173193359375,-0.007330167107284069,0.038483377546072006,0.015271181240677834
1783153279506030800,4.92703076171875,-0.0018325417768210173,0.0525328628718853,0.023212196305394173
1783153279515742200,4.9367421875,0.010995250195264816,0.05497625470161438,0.02504473738372326
1783153279525453600,4.94645361328125,0.012216945178806782,0.04581354558467865,0.024433890357613564
1783153279535165200,4.956165283203125,0.0030542362947016954,0.022601349279284477,0.009773556143045425
1783153279544876500,4.96587646484375,-0.0036650835536420345,-0.0030542362947016954,-0.006108472589403391
1783153279554588200,4.975588134765625,-0.007941014133393764,-0.03237490355968475,-0.02870982140302658
1783153279564299500,4.985299560546875,-0.01038440316915512,-0.047646086663007736,-0.04092676565051079
1783153279574011100,4.99501123046875,-0.014660334214568138,-0.04031591862440109,-0.043981000781059265
1783153279583722500,5.004722412109375,-0.005497625097632408,-0.034818295389413834,-0.023823043331503868
1783153279593434000,5.01443408203125,0.004275931045413017,-0.03237490355968475,-0.006719320081174374
1783153279603145500,5.0241455078125,0.0018325417768210173,-0.021379653364419937,0.0012216945178806782
1783153279612857000,5.033857177734375,-0.007941014133393764,-0.01038440316915512,0
1783153279622568400,5.043568359375,-0.01588202826678753,-0.005497625097632408,-0.012827792204916477
1783153279632280000,5.053280029296875,-0.012216945178806782,-0.018936265259981155,-0.029320668429136276
1783153279641991400,5.062991455078125,-0.01710372418165207,-0.025655584409832954,-0.038483377546072006
1783153279651703000,5.072703125,-0.017714571207761765,-0.026877280324697495,-0.0397050715982914
1783153279661414400,5.082414306640625,-0.01038440316915512,-0.02748812735080719,-0.030542362481355667
1783153279671126000,5.0921259765625,-0.0024433890357613564,-0.023212196305394173,-0.02993151545524597
1783153279680837400,5.10183740234375,0.007330167107284069,-0.014049487188458443,-0.028098974376916885
1783153279690549000,5.111549072265625,0.014660334214568138,-0.010995250195264816,-0.028098974376916885
1783153279700260400,5.12126025390625,0.018936265259981155,-0.01832541823387146,-0.025655584409832954
1783153279709972000,5.130971923828125,0.02076880633831024,-0.02993151545524597,-0.030542362481355667
1783153279719683300,5.140683349609375,0.01710372418165207,-0.0390942245721817,-0.03237490355968475
1783153279729395000,5.15039501953125,0.01710372418165207,-0.03298575058579445,-0.03237490355968475
1783153279739106300,5.160106201171875,0.014049487188458443,-0.02870982140302658,-0.023823043331503868
1783153279748818000,5.16981787109375,0.01710372418165207,-0.017714571207761765,-0.005497625097632408
1783153279758529300,5.179529296875,0.02504473738372326,0.0012216945178806782,0.0006108472589403391
1783153279768241000,5.189240966796875,0.034818295389413834,0.0024433890357613564,0.005497625097632408
1783153279777952300,5.1989521484375,0.034818295389413834,-0.004275931045413017,0.0030542362947016954
1783153279787664000,5.208663818359375,0.037261683493852615,-0.015271181240677834,-0.006719320081174374
1783153279797375200,5.218375244140625,0.03420744836330414,-0.043981000781059265,-0.008551862090826035
1783153279807086600,5.228086669921875,0.036039989441633224,-0.06352811306715012,-0.017714571207761765
1783153279816798200,5.237798095703125,0.028098974376916885,-0.06902574002742767,-0.021990500390529633
1783153279826509800,5.247509765625,0.01954711228609085,-0.07207997888326645,-0.02504473738372326
1783153279836221200,5.25722119140625,0.012216945178806782,-0.05375456064939499,-0.022601349279284477
1783153279845932500,5.2669326171875,0.007330167107284069,-0.023823043331503868,-0.007941014133393764
1783153279855644200,5.27664404296875,0.007941014133393764,-0.0030542362947016954,0.015271181240677834
1783153279865355500,5.28635546875,0.00916270911693573,0.01710372418165207,0.034818295389413834
1783153279875067100,5.296067138671875,0.011606098152697086,0.02870982140302658,0.043981000781059265
1783153279884778500,5.305778564453125,0.011606098152697086,0.02504473738372326,0.043981000781059265
1783153279894490000,5.315489990234375,0.00916270911693573,0.01832541823387146,0.0397050715982914
1783153279904201500,5.325201416015625,0.006108472589403391,0.011606098152697086,0.031153209507465363
1783153279913913000,5.3349130859375,0.007941014133393764,0.0030542362947016954,0.01954711228609085
1783153279923624400,5.34462451171875,0.007941014133393764,0.01710372418165207,0.01588202826678753
1783153279933336000,5.354336181640625,0.00916270911693573,0.01954711228609085,0.023823043331503868
1783153279943047400,5.36404736328125,0.01710372418165207,0.014660334214568138,0.04581354558467865
1783153279952759000,5.373759033203125,0.024433890357613564,0.01710372418165207,0.07391251623630524
1783153279962470400,5.383470458984375,0.02870982140302658,0.012827792204916477,0.11178504675626755
1783153279972182000,5.39318212890625,0.020157959312200546,0.02076880633831024,0.14904673397541046
1783153279981893400,5.402893310546875,0.024433890357613564,0.02993151545524597,0.17531315982341766
1783153279991605000,5.41260498046875,0.04337015375494957,0.026877280324697495,0.1960819661617279
1783153280001316400,5.42231640625,0.07452336698770523,0.023823043331503868,0.20096874237060547
1783153280011028000,5.432028076171875,0.10201149433851242,0.017714571207761765,0.19119518995285034
1783153280020739300,5.4417392578125,0.12033691257238388,-0.0012216945178806782,0.17653486132621765
1783153280030451000,5.451450927734375,0.13866232335567474,-0.020157959312200546,0.15393351018428802
1783153280040162300,5.461162353515625,0.1569877415895462,-0.03298575058579445,0.14049486815929413
1783153280049874000,5.4708740234375,0.17653486132621765,-0.04153761267662048,0.13805148005485535
1783153280059585300,5.480585205078125,0.19241689145565033,-0.04031591862440109,0.14171656966209412
1783153280069297000,5.490296875,0.20341213047504425,-0.043981000781059265,0.14965757727622986
1783153280079008300,5.50000830078125,0.21379654109477997,-0.05375456064939499,0.16309621930122375
1783153280088719600,5.5097197265625,0.21379654109477997,-0.054365407675504684,0.17470231652259827
1783153280098431200,5.51943115234375,0.20707722008228302,-0.04214845970273018,0.17897824943065643
1783153280108142600,5.529142578125,0.19974705576896667,-0.022601349279284477,0.17470231652259827
1783153280117854200,5.538854248046875,0.20219044387340546,-0.0036650835536420345,0.1716480851173401
1783153280127565600,5.548565673828125,0.20280128717422485,0.010995250195264816,0.17531315982341766
1783153280137277200,5.558277099609375,0.20585553348064423,-0.0024433890357613564,0.17348061501979828
1783153280146988500,5.567988525390625,0.20768806338310242,-0.012827792204916477,0.16615045070648193
1783153280156700200,5.5777001953125,0.20096874237060547,-0.02504473738372326,0.15210096538066864
1783153280166411500,5.58741162109375,0.20035789906978607,-0.03787253051996231,0.14660334587097168
1783153280176123100,5.597123046875,0.18691925704479218,-0.04703523963689804,0.1453816443681717
1783153280185834500,5.60683447265625,0.17286977171897888,-0.04337015375494957,0.14965757727622986
1783153280195546000,5.616546142578125,0.15943112969398499,-0.029320668429136276,0.16004198789596558
1783153280205257500,5.626257568359375,0.14843589067459106,-0.006108472589403391,0.16737215220928192
1783153280214969000,5.635968994140625,0.13438639044761658,0.016492875292897224,0.18081079423427582
1783153280224680400,5.645680419921875,0.12033691257238388,0.04031591862440109,0.1979145109653473
1783153280234392000,5.65539208984375,0.11300674080848694,0.047646086663007736,0.21379654109477997
1783153280244103400,5.665103515625,0.10873081535100937,0.04092676565051079,0.2235700935125351
1783153280253815000,5.67481494140625,0.1056765764951706,0.036039989441633224,0.21929416060447693
1783153280263526400,5.6845263671875,0.10628741979598999,0.022601349279284477,0.1948602795600891
1783153280273238000,5.694238037109375,0.10689827054738998,0.0030542362947016954,0.1704263836145401
1783153280282949400,5.703949462890625,0.10140064358711243,-0.012827792204916477,0.1459924876689911
1783153280292661000,5.713660888671875,0.09956810623407364,-0.024433890357613564,0.12461283802986145
1783153280302372400,5.723372314453125,0.10140064358711243,-0.016492875292897224,0.10628741979598999
1783153280312084000,5.733083984375,0.10689827054738998,-0.004275931045413017,0.10384403169155121
1783153280321795300,5.74279541015625,0.11545012891292572,0.0024433890357613564,0.11056335270404816
1783153280331507000,5.7525068359375,0.1172826737165451,0.004886778071522713,0.12216944992542267
1783153280341218300,5.76221826171875,0.11239589750766754,0,0.12827792763710022
1783153280350929700,5.7719296875,0.1044548824429512,-0.013438640162348747,0.12094775587320328
1783153280360641300,5.781641357421875,0.09712471067905426,-0.034818295389413834,0.09529217332601547
1783153280370352600,5.7913525390625,0.09407047927379608,-0.051922015845775604,0.053143709897994995
1783153280380064300,5.801064208984375,0.10078980028629303,-0.0659715011715889,0.007941014133393764
1783153280389775600,5.810775634765625,0.1050657257437706,-0.08002099394798279,-0.024433890357613564
1783153280399487200,5.8204873046875,0.1050657257437706,-0.08551861345767975,-0.04947862774133682
1783153280409198600,5.830198486328125,0.09651386737823486,-0.0787992998957634,-0.05803048983216286
1783153280418910200,5.83991015625,0.08185353130102158,-0.05925218388438225,-0.05497625470161438
1783153280428621600,5.84962158203125,0.06841489672660828,-0.023823043331503868,-0.045202698558568954
1783153280438333200,5.859333251953125,0.05375456064939499,0.018936265259981155,-0.036039989441633224
1783153280448044500,5.86904443359375,0.04459185153245926,0.05619794875383377,-0.02504473738372326
1783153280457756200,5.878756103515625,0.03176405653357506,0.06963659077882767,-0.01038440316915512
1783153280467467500,5.888467529296875,0.01954711228609085,0.0787992998957634,-0.018936265259981155
1783153280477179100,5.89817919921875,0.010995250195264816,0.06963659077882767,-0.033596597611904144
1783153280486890500,5.907890380859375,0.0030542362947016954,0.046424392610788345,-0.051922015845775604
1783153280496602000,5.91760205078125,-0.0030542362947016954,0.023823043331503868,-0.06719319522380829
1783153280506313500,5.9273134765625,-0.00916270911693573,0.021379653364419937,-0.06963659077882767
1783153280516025000,5.937025146484375,-0.011606098152697086,0.028098974376916885,-0.06169557198882103
1783153280525736400,5.946736328125,-0.011606098152697086,0.031153209507465363,-0.04825693368911743
1783153280535448000,5.956447998046875,-0.004886778071522713,0.04031591862440109,-0.04337015375494957
1783153280545159400,5.966159423828125,-0.0012216945178806782,0.04825693368911743,-0.04092676565051079
1783153280554871000,5.97587109375,-0.006108472589403391,0.04092676565051079,-0.036039989441633224
1783153280564582400,5.98558251953125,-0.01588202826678753,0.026877280324697495,-0.04703523963689804
1783153280574294000,5.9952939453125,-0.023212196305394173,0.0036650835536420345,-0.056808795779943466
1783153280584005400,6.00500537109375,-0.03176405653357506,-0.006108472589403391,-0.06841489672660828
1783153280593717000,6.014717041015625,-0.0397050715982914,-0.01588202826678753,-0.0647498071193695
1783153280603428400,6.024428466796875,-0.04703523963689804,-0.020157959312200546,-0.04581354558467865
1783153280613139700,6.0341396484375,-0.047646086663007736,-0.021379653364419937,-0.014660334214568138
1783153280622851300,6.043851318359375,-0.04581354558467865,-0.02504473738372326,0.01954711228609085
1783153280632562700,6.053562744140625,-0.04214845970273018,-0.022601349279284477,0.045202698558568954
1783153280642274300,6.0632744140625,-0.04337015375494957,-0.024433890357613564,0.053143709897994995
1783153280651985700,6.072985595703125,-0.04947862774133682,-0.03420744836330414,0.04214845970273018
1783153280661697300,6.082697265625,-0.05741964280605316,-0.05986303091049194,0.02076880633831024
1783153280671408600,6.09240869140625,-0.07085828483104706,-0.0910162404179573,0.0036650835536420345
1783153280681120300,6.102120361328125,-0.06963659077882767,-0.1044548824429512,-0.02076880633831024
1783153280690831600,6.11183154296875,-0.06169557198882103,-0.08857285231351852,-0.043981000781059265
1783153280700543200,6.121543212890625,-0.05375456064939499,-0.0653606578707695,-0.04947862774133682
1783153280710254600,6.131254638671875,-0.04459185153245926,-0.05070032179355621,-0.03237490355968475
1783153280719966200,6.14096630859375,-0.045202698558568954,-0.04337015375494957,-0.014049487188458443
1783153280729677600,6.150677490234375,-0.0525328628718853,-0.02626643143594265,-0.010995250195264816
1783153280739389000,6.160388916015625,-0.0659715011715889,-0.0006108472589403391,-0.018936265259981155
1783153280749100500,6.1701005859375,-0.08490777015686035,0.016492875292897224,-0.030542362481355667
1783153280758812000,6.17981201171875,-0.08551861345767975,0.03176405653357506,-0.04886778071522713
1783153280768523500,6.1895234375,-0.07452336698770523,0.03787253051996231,-0.07696675509214401
1783153280778235000,6.19923486328125,-0.06352811306715012,0.043981000781059265,-0.1056765764951706
1783153280787946500,6.208946533203125,-0.05864133685827255,0.05131116881966591,-0.1325538605451584
1783153280797657900,6.218657958984375,-0.06963659077882767,0.061084724962711334,-0.13927318155765533
1783153280807369500,6.228369384765625,-0.08857285231351852,0.07452336698770523,-0.13316470384597778
1783153280817080800,6.238080810546875,-0.09956810623407364,0.09895725548267365,-0.11483928561210632
1783153280826792400,6.24779248046875,-0.10078980028629303,0.12278030067682266,-0.08735115826129913
1783153280836503800,6.25750390625,-0.0910162404179573,0.14110571146011353,-0.051922015845775604
1783153280846215400,6.26721533203125,-0.08796200156211853,0.12033691257238388,-0.015271181240677834
1783153280855926800,6.2769267578125,-0.0910162404179573,0.08612946420907974,0.004275931045413017
1783153280865638400,6.286638427734375,-0.1050657257437706,0.05619794875383377,0.0018325417768210173
1783153280875349800,6.296349853515625,-0.10873081535100937,0.020157959312200546,-0.014049487188458443
1783153280885061400,6.306061279296875,-0.10078980028629303,0.0012216945178806782,-0.03176405653357506
1783153280894772700,6.315772705078125,-0.08002099394798279,0.0030542362947016954,-0.043981000781059265
1783153280904484400,6.325484375,-0.04581354558467865,-0.008551862090826035,-0.04337015375494957
1783153280914195700,6.33519580078125,-0.013438640162348747,-0.021990500390529633,-0.0390942245721817
1783153280923907300,6.3449072265625,0.007330167107284069,-0.022601349279284477,-0.047646086663007736
1783153280933618700,6.35461865234375,0.01588202826678753,-0.021379653364419937,-0.05741964280605316
1783153280943330300,6.364330322265625,0.010995250195264816,-0.0390942245721817,-0.05986303091049194
1783153280953041700,6.374041748046875,0.0030542362947016954,-0.04459185153245926,-0.06291726976633072
1783153280962753300,6.383753173828125,0.006719320081174374,-0.05497625470161438,-0.0659715011715889
1783153280972464600,6.393464599609375,0.01832541823387146,-0.08246438205242157,-0.06413896381855011
1783153280982176000,6.403176025390625,0.02993151545524597,-0.09834641218185425,-0.07085828483104706
1783153280991887600,6.4128876953125,0.0390942245721817,-0.10323318839073181,-0.08796200156211853
1783153281001599000,6.422598876953125,0.045202698558568954,-0.1056765764951706,-0.1050657257437706
1783153281011310600,6.432310546875,0.04581354558467865,-0.09895725548267365,-0.11667182296514511
1783153281021022000,6.44202197265625,0.04459185153245926,-0.09529217332601547,-0.12216944992542267
1783153281030733600,6.451733642578125,0.04092676565051079,-0.09407047927379608,-0.12827792763710022
1783153281040445000,6.46144482421875,0.02870982140302658,-0.08124268800020218,-0.13499724864959717
1783153281050156500,6.471156494140625,0.012827792204916477,-0.07146912813186646,-0.12888877093791962
1783153281059868000,6.480867919921875,-0.0030542362947016954,-0.07207997888326645,-0.11178504675626755
1783153281069579500,6.49057958984375,-0.01710372418165207,-0.07696675509214401,-0.08979454636573792
1783153281079291000,6.500290771484375,-0.024433890357613564,-0.08490777015686035,-0.07391251623630524
1783153281089002500,6.51000244140625,-0.031153209507465363,-0.0916270911693573,-0.07513421028852463
1783153281098713900,6.5197138671875,-0.03237490355968475,-0.08735115826129913,-0.08185353130102158
1783153281108425500,6.529425537109375,-0.030542362481355667,-0.07330167293548584,-0.08918370306491852
1783153281118136800,6.53913671875,-0.030542362481355667,-0.061084724962711334,-0.09590301662683487
1783153281127848400,6.548848388671875,-0.03237490355968475,-0.043981000781059265,-0.09407047927379608
1783153281137559800,6.558559814453125,-0.042759306728839874,-0.03176405653357506,-0.0781884491443634
1783153281147271200,6.568271240234375,-0.054365407675504684,-0.020157959312200546,-0.05497625470161438
1783153281156982800,6.577982666015625,-0.06841489672660828,-0.01588202826678753,-0.02993151545524597
1783153281166694100,6.587694091796875,-0.0787992998957634,-0.01832541823387146,-0.012216945178806782
1783153281176405800,6.59740576171875,-0.08674030750989914,-0.023823043331503868,-0.009773556143045425
1783153281186117000,6.6071171875,-0.08551861345767975,-0.02748812735080719,-0.025655584409832954
1783153281195828700,6.616828857421875,-0.06658235192298889,-0.02748812735080719,-0.05070032179355621
1783153281205540000,6.6265400390625,-0.03542914241552353,-0.02870982140302658,-0.0781884491443634
1783153281215251700,6.636251708984375,0.004886778071522713,-0.022601349279284477,-0.10934165865182877
1783153281224963000,6.645963134765625,0.023823043331503868,-0.020157959312200546,-0.1301104724407196
1783153281234674700,6.6556748046875,0.02076880633831024,-0.006719320081174374,-0.1423274129629135
1783153281244386000,6.665385986328125,0.006719320081174374,-0.0018325417768210173,-0.13682979345321655
1783153281254097700,6.67509765625,-0.01038440316915512,0.028098974376916885,-0.12339114397764206
1783153281263809000,6.68480908203125,-0.02626643143594265,0.07269082218408585,-0.0922379344701767
1783153281273520600,6.694520751953125,-0.04703523963689804,0.11300674080848694,-0.045202698558568954
1783153281283232000,6.70423193359375,-0.06780404597520828,0.14110571146011353,0.006108472589403391
1783153281292943400,6.713943359375,-0.07696675509214401,0.17348061501979828,0.04886778071522713
1783153281302655000,6.723655029296875,-0.0787992998957634,0.18875180184841156,0.07635590434074402
1783153281312366300,6.733366455078125,-0.08429691940546036,0.1844758689403534,0.08674030750989914
1783153281322078000,6.743077880859375,-0.0916270911693573,0.18936264514923096,0.08124268800020218
1783153281331789300,6.752789306640625,-0.10323318839073181,0.18691925704479218,0.08490777015686035
1783153281341501000,6.7625009765625,-0.12522368133068085,0.16126367449760437,0.11483928561210632
1783153281351212300,6.77221240234375,-0.1441599577665329,0.1319430023431778,0.15393351018428802
1783153281360924000,6.781923828125,-0.15271180868148804,0.12522368133068085,0.19974705576896667
1783153281370635300,6.79163525390625,-0.14049486815929413,0.12766708433628082,0.24311721324920654
1783153281380347000,6.801346923828125,-0.11300674080848694,0.11606097966432571,0.2608317732810974
1783153281390058200,6.811058349609375,-0.08185353130102158,0.11178504675626755,0.25777754187583923
1783153281399769900,6.820769775390625,-0.06047387793660164,0.12461283802986145,0.23090025782585144
1783153281409481200,6.830481201171875,-0.033596597611904144,0.12583453953266144,0.19424942135810852
1783153281419192800,6.84019287109375,-0.0018325417768210173,0.12766708433628082,0.14843589067459106
1783153281428904200,6.849904296875,0.042759306728839874,0.11667182296514511,0.09651386737823486
1783153281438615800,6.85961572265625,0.08735115826129913,0.10078980028629303,0.05008947476744652
1783153281448327200,6.8693271484375,0.10934165865182877,0.0781884491443634,0.021990500390529633
1783153281458038800,6.879038818359375,0.11300674080848694,0.04153761267662048,0.016492875292897224
1783153281467750100,6.888750244140625,0.10017894953489304,-0.007941014133393764,0.01710372418165207
1783153281477461800,6.898461669921875,0.07696675509214401,-0.055587101727724075,0.02626643143594265
1783153281487173000,6.908173095703125,0.04153761267662048,-0.10323318839073181,0.04337015375494957
1783153281496884500,6.917884521484375,-0.0006108472589403391,-0.1453816443681717,0.08185353130102158
1783153281506596000,6.92759619140625,-0.04337015375494957,-0.15454435348510742,0.12278030067682266
1783153281516307500,6.937307373046875,-0.08185353130102158,-0.1325538605451584,0.1710372269153595
1783153281526019000,6.94701904296875,-0.11300674080848694,-0.08796200156211853,0.22601348161697388
1783153281535730400,6.95673046875,-0.13560809195041656,-0.022601349279284477,0.2870981991291046
1783153281545442000,6.966442138671875,-0.15026842057704926,0.04825693368911743,0.34635040163993835
1783153281555153400,6.9761533203125,-0.15454435348510742,0.11483928561210632,0.3836120665073395
1783153281564865000,6.985864990234375,-0.14904673397541046,0.1435490995645523,0.40010493993759155
1783153281574576400,6.995576416015625,-0.14049486815929413,0.13744063675403595,0.3762819170951843
1783153281584288000,7.0052880859375,-0.13927318155765533,0.11422843486070633,0.3151971995830536
1783153281593999400,7.014999267578125,-0.1423274129629135,0.06658235192298889,0.2211267054080963
1783153281603711000,7.0247109375,-0.1453816443681717,0,0.11545012891292572
1783153281613422300,7.03442236328125,-0.1435490995645523,-0.06413896381855011,0.007941014133393764
1783153281623134000,7.044134033203125,-0.15332266688346863,-0.10017894953489304,-0.08735115826129913
1783153281632845300,7.05384521484375,-0.1575985997915268,-0.12400199472904205,-0.1453816443681717
1783153281642557000,7.063556884765625,-0.16126367449760437,-0.12033691257238388,-0.16370706260204315
1783153281652268300,7.073268310546875,-0.17225892841815948,-0.08735115826129913,-0.1453816443681717
1783153281661980000,7.08297998046875,-0.19058434665203094,-0.01832541823387146,-0.10995250940322876
1783153281671691300,7.092691162109375,-0.21990501880645752,0.043981000781059265,-0.07757759839296341
1783153281681402600,7.102402587890625,-0.25289076566696167,0.09407047927379608,-0.05741964280605316
1783153281691114200,7.1121142578125,-0.28404396772384644,0.12033691257238388,-0.056808795779943466
1783153281700825600,7.12182568359375,-0.30908870697021484,0.12278030067682266,-0.06291726976633072
1783153281710537200,7.131537109375,-0.3249707520008087,0.1178935244679451,-0.07452336698770523
1783153281720248600,7.14124853515625,-0.33291175961494446,0.10628741979598999,-0.0781884491443634
1783153281729960200,7.150960205078125,-0.3365768492221832,0.08612946420907974,-0.08063183724880219
1783153281739671600,7.160671630859375,-0.3408527672290802,0.08551861345767975,-0.08185353130102158
1783153281749383200,7.170383056640625,-0.337798535823822,0.09468132257461548,-0.0910162404179573
1783153281759094500,7.180094482421875,-0.33291175961494446,0.09345962852239609,-0.09345962852239609
1783153281768806100,7.18980615234375,-0.3365768492221832,0.07207997888326645,-0.09895725548267365
1783153281778517500,7.199517578125,-0.3408527672290802,0.02993151545524597,-0.10995250940322876
1783153281788229000,7.20922900390625,-0.3500154912471771,-0.01954711228609085,-0.1185043677687645
1783153281797940500,7.2189404296875,-0.35856732726097107,-0.07269082218408585,-0.10262233763933182
1783153281807652000,7.228652099609375,-0.35917818546295166,-0.12033691257238388,-0.08857285231351852
1783153281817363500,7.238363525390625,-0.3530697226524353,-0.1575985997915268,-0.08551861345767975
1783153281827074800,7.24807470703125,-0.33718767762184143,-0.18936264514923096,-0.08185353130102158
1783153281836786400,7.257786376953125,-0.32252734899520874,-0.21318569779396057,-0.07207997888326645
1783153281846497800,7.267497802734375,-0.31092125177383423,-0.22479179501533508,-0.055587101727724075
1783153281856209400,7.27720947265625,-0.3035911023616791,-0.22723518311977386,-0.02748812735080719
1783153281865920800,7.286920654296875,-0.29442837834358215,-0.24189551174640656,0.013438640162348747
1783153281875632400,7.29663232421875,-0.2883199155330658,-0.25777754187583923,0.05131116881966591
1783153281885343700,7.30634375,-0.28343313932418823,-0.2724378705024719,0.06413896381855011
1783153281895055400,7.316055419921875,-0.26877278089523315,-0.291374146938324,0.04825693368911743
1783153281904766700,7.3257666015625,-0.2473931461572647,-0.3176405727863312,0.017714571207761765
1783153281914478300,7.335478271484375,-0.2235700935125351,-0.3640649616718292,-0.015271181240677834
1783153281924189700,7.345189697265625,-0.20463383197784424,-0.4031592011451721,-0.04092676565051079
1783153281933901300,7.3549013671875,-0.1954711228609085,-0.41354358196258545,-0.056808795779943466
1783153281943612700,7.36461279296875,-0.1960819661617279,-0.4056025743484497,-0.047646086663007736
1783153281953324300,7.37432421875,-0.2107423096895218,-0.37078428268432617,-0.015271181240677834
1783153281963035600,7.38403564453125,-0.22601348161697388,-0.2993151545524597,0.03298575058579445
1783153281972747000,7.3937470703125,-0.22967857122421265,-0.20280128717422485,0.09345962852239609
1783153281982458600,7.403458740234375,-0.21990501880645752,-0.08918370306491852,0.14721418917179108
1783153281992170000,7.413169921875,-0.19180603325366974,0.0030542362947016954,0.182643324136734
1783153282001881600,7.422881591796875,-0.1569877415895462,0.05864133685827255,0.19302773475646973
1783153282011593000,7.432593017578125,-0.12888877093791962,0.08551861345767975,0.18081079423427582
1783153282021304600,7.4423046875,-0.10934165865182877,0.07452336698770523,0.15026842057704926
1783153282031016000,7.452015869140625,-0.08612946420907974,0.046424392610788345,0.11239589750766754
1783153282040727600,7.4617275390625,-0.06352811306715012,0.02870982140302658,0.07635590434074402
1783153282050439000,7.47143896484375,-0.03420744836330414,0.038483377546072006,0.05497625470161438
1783153282060150500,7.481150634765625,0.005497625097632408,0.06352811306715012,0.05375456064939499
1783153282069862000,7.49086181640625,0.04947862774133682,0.09040539711713791,0.07330167293548584
1783153282079573500,7.500573486328125,0.09407047927379608,0.13927318155765533,0.0794101431965828
1783153282089284900,7.510284912109375,0.1459924876689911,0.1850867122411728,0.061084724962711334
1783153282098996200,7.519996337890625,0.20096874237060547,0.2089097648859024,0.007330167107284069
1783153282108707800,7.529707763671875,0.2516690790653229,0.22479179501533508,-0.08612946420907974
1783153282118419200,7.539419189453125,0.2980934679508209,0.22479179501533508,-0.1966928243637085
1783153282128130800,7.549130859375,0.3274141252040863,0.1954711228609085,-0.29687178134918213
1783153282137842200,7.55884228515625,0.3432961702346802,0.16065283119678497,-0.37139514088630676
1783153282147553800,7.5685537109375,0.33291175961494446,0.1459924876689911,-0.40071579813957214
1783153282157265200,7.57826513671875,0.3170297145843506,0.13927318155765533,-0.3970507085323334
1783153282166976800,7.587976806640625,0.2919849753379822,0.13499724864959717,-0.37444937229156494
1783153282176688000,7.597688232421875,0.2632751762866974,0.1453816443681717,-0.34451785683631897
1783153282186399700,7.607399658203125,0.2516690790653229,0.15087927877902985,-0.3035911023616791
1783153282196111000,7.617111083984375,0.24250635504722595,0.14843589067459106,-0.23823043704032898
1783153282205822700,7.62682275390625,0.2363978922367096,0.13805148005485535,-0.16615045070648193
1783153282215534000,7.6365341796875,0.23028941452503204,0.13988402485847473,-0.1056765764951706
1783153282225245700,7.64624560546875,0.2376195788383484,0.13621893525123596,-0.0647498071193695
1783153282234957000,7.65595703125,0.2480039894580841,0.11300674080848694,-0.03298575058579445
1783153282244668400,7.66566845703125,0.2730487287044525,0.09834641218185425,-0.021990500390529633
1783153282254380000,7.675380126953125,0.3011476993560791,0.07146912813186646,-0.014049487188458443
1783153282264091400,7.68509130859375,0.3261924386024475,0.03298575058579445,-0.028098974376916885
1783153282273803000,7.694802978515625,0.3384093940258026,-0.0006108472589403391,-0.054365407675504684
1783153282283514400,7.704514404296875,0.3414636254310608,-0.024433890357613564,-0.07696675509214401
1783153282293226000,7.71422607421875,0.3506263196468353,-0.03665083646774292,-0.08735115826129913
1783153282302937300,7.723937255859375,0.36284327507019043,-0.04459185153245926,-0.08857285231351852
1783153282312649000,7.73364892578125,0.3775036036968231,-0.042759306728839874,-0.09590301662683487
1783153282322360300,7.7433603515625,0.3897205591201782,-0.038483377546072006,-0.10323318839073181
1783153282332072000,7.753072021484375,0.3915531039237976,-0.031153209507465363,-0.11606097966432571
1783153282341783300,7.762783203125,0.3830012381076813,-0.026877280324697495,-0.11911521852016449
1783153282351495000,7.772494873046875,0.36039987206459045,-0.029320668429136276,-0.11606097966432571
1783153282361206300,7.782206298828125,0.3365768492221832,-0.021990500390529633,-0.11422843486070633
1783153282370918000,7.79191796875,0.30969956517219543,-0.020157959312200546,-0.10750912129878998
1783153282380629200,7.801629150390625,0.2761029601097107,-0.01954711228609085,-0.08857285231351852
1783153282390340600,7.811340576171875,0.237008735537529,-0.0012216945178806782,-0.07269082218408585
1783153282400052200,7.82105224609375,0.20402298867702484,0.007330167107284069,-0.05864133685827255
1783153282409763600,7.830763671875,0.17897824943065643,0.023212196305394173,-0.05008947476744652
1783153282419475200,7.84047509765625,0.1582094430923462,0.04214845970273018,-0.045202698558568954
1783153282429186600,7.8501865234375,0.1459924876689911,0.047646086663007736,-0.036039989441633224
1783153282438898200,7.859898193359375,0.13438639044761658,0.04459185153245926,-0.03665083646774292
1783153282448609500,7.869609619140625,0.12278030067682266,0.04092676565051079,-0.04092676565051079
1783153282458321200,7.879321044921875,0.11056335270404816,0.037261683493852615,-0.04581354558467865
1783153282468032500,7.889032470703125,0.1044548824429512,0.03787253051996231,-0.054365407675504684
1783153282477744000,7.898744140625,0.1044548824429512,0.04703523963689804,-0.061084724962711334
1783153282487455500,7.90845556640625,0.10873081535100937,0.055587101727724075,-0.06902574002742767
1783153282497167000,7.9181669921875,0.1178935244679451,0.05375456064939499,-0.0659715011715889
1783153282506878500,7.92787841796875,0.129499614238739,0.04581354558467865,-0.06352811306715012
1783153282516590000,7.937590087890625,0.12827792763710022,0.02870982140302658,-0.0653606578707695
1783153282526301400,7.947301513671875,0.12094775587320328,0.01954711228609085,-0.07391251623630524
1783153282536012800,7.9570126953125,0.11300674080848694,0.0018325417768210173,-0.08124268800020218
1783153282545724400,7.966724365234375,0.11117420345544815,-0.004886778071522713,-0.0910162404179573
1783153282555435800,7.976435791015625,0.12094775587320328,-0.012216945178806782,-0.10078980028629303
1783153282565147400,7.9861474609375,0.1301104724407196,-0.013438640162348747,-0.09468132257461548
1783153282574858800,7.995858642578125,0.13805148005485535,-0.011606098152697086,-0.08979454636573792
1783153282584570400,8.0055703125,0.15210096538066864,-0.016492875292897224,-0.08185353130102158
1783153282594281700,8.01528173828125,0.16187451779842377,-0.04092676565051079,-0.08246438205242157
1783153282603993300,8.024993408203125,0.16370706260204315,-0.05925218388438225,-0.08796200156211853
1783153282613704700,8.03470458984375,0.1557660549879074,-0.0653606578707695,-0.10140064358711243
1783153282623416300,8.044416259765624,0.14660334587097168,-0.06352811306715012,-0.1050657257437706
1783153282633127700,8.054127685546876,0.1447708010673523,-0.05375456064939499,-0.1056765764951706
1783153282642839300,8.06383935546875,0.1447708010673523,-0.03665083646774292,-0.09712471067905426
1783153282652550700,8.073550537109375,0.14049486815929413,-0.04214845970273018,-0.08307522535324097
1783153282662262000,8.083261962890624,0.12461283802986145,-0.04031591862440109,-0.07391251623630524
1783153282671973600,8.0929736328125,0.09956810623407364,-0.037261683493852615,-0.06352811306715012
1783153282681685000,8.10268505859375,0.07085828483104706,-0.04153761267662048,-0.05986303091049194
1783153282691396600,8.112396728515625,0.04214845970273018,-0.04947862774133682,-0.05803048983216286
1783153282701108000,8.12210791015625,0.01710372418165207,-0.033596597611904144,-0.05741964280605316
1783153282710819600,8.131819580078124,0.004886778071522713,-0.02504473738372326,-0.042759306728839874
1783153282720531000,8.141531005859376,-0.0012216945178806782,-0.023823043331503868,-0.021990500390529633
1783153282730242600,8.15124267578125,-0.012827792204916477,-0.004886778071522713,-0.007330167107284069
1783153282739954000,8.160953857421875,-0.023212196305394173,0.021990500390529633,0.0018325417768210173
1783153282749665500,8.17066552734375,-0.021990500390529633,0.036039989441633224,0.008551862090826035
1783153282759377000,8.180376953125,-0.02748812735080719,0.043981000781059265,0.015271181240677834
1783153282769088500,8.190088623046876,-0.03787253051996231,0.03787253051996231,0.022601349279284477
1783153282778799900,8.1997998046875,-0.04886778071522713,0.030542362481355667,0.03420744836330414
1783153282788511500,8.209511474609375,-0.05803048983216286,0.01832541823387146,0.0390942245721817
1783153282798222800,8.219222900390625,-0.05375456064939499,0.012216945178806782,0.0390942245721817
1783153282807934200,8.228934326171874,-0.05131116881966591,-0.0024433890357613564,0.0390942245721817
1783153282817645800,8.238645751953126,-0.043981000781059265,-0.007330167107284069,0.038483377546072006
1783153282827357200,8.248357177734375,-0.03298575058579445,-0.009773556143045425,0.03787253051996231
1783153282837068800,8.25806884765625,-0.024433890357613564,-0.007941014133393764,0.0390942245721817
1783153282846780200,8.2677802734375,-0.021379653364419937,-0.004886778071522713,0.0397050715982914
1783153282856491800,8.27749169921875,-0.02993151545524597,-0.005497625097632408,0.04337015375494957
1783153282866203100,8.287203125,-0.04092676565051079,-0.0030542362947016954,0.04581354558467865
1783153282875914800,8.296914794921875,-0.046424392610788345,-0.0030542362947016954,0.04581354558467865
1783153282885626000,8.306626220703125,-0.04703523963689804,-0.0030542362947016954,0.053143709897994995
1783153282895337700,8.316337646484374,-0.04153761267662048,-0.0012216945178806782,0.06780404597520828
1783153282905049000,8.326049072265626,-0.045202698558568954,0,0.08918370306491852
1783153282914760700,8.3357607421875,-0.043981000781059265,-0.0018325417768210173,0.10384403169155121
1783153282924472000,8.34547216796875,-0.03420744836330414,-0.004275931045413017,0.10384403169155121
1783153282934183400,8.355183349609375,-0.02504473738372326,-0.014660334214568138,0.08124268800020218
1783153282943895000,8.36489501953125,-0.007330167107284069,-0.028098974376916885,0.042759306728839874
1783153282953606400,8.3746064453125,0.0036650835536420345,-0.04031591862440109,-0.0006108472589403391
1783153282963318000,8.384318115234375,-0.0024433890357613564,-0.0659715011715889,-0.03420744836330414
1783153282973029400,8.394029296875,-0.012216945178806782,-0.07146912813186646,-0.05803048983216286
1783153282982741000,8.403740966796875,-0.023212196305394173,-0.05497625470161438,-0.06047387793660164
1783153282992452400,8.413452392578124,-0.033596597611904144,-0.03420744836330414,-0.045202698558568954
1783153283002164000,8.4231640625,-0.03420744836330414,0.0006108472589403391,-0.01710372418165207
1783153283011875300,8.432875244140625,-0.036039989441633224,0.023823043331503868,0.01710372418165207
1783153283021587000,8.4425869140625,-0.04031591862440109,0.04214845970273018,0.02748812735080719
1783153283031298300,8.45229833984375,-0.04947862774133682,0.04886778071522713,0.022601349279284477
1783153283041010000,8.462010009765624,-0.06413896381855011,0.05008947476744652,0.01038440316915512
1783153283050721300,8.47172119140625,-0.07513421028852463,0.034818295389413834,-0.0018325417768210173
1783153283060432600,8.4814326171875,-0.06841489672660828,0.022601349279284477,-0.01710372418165207
1783153283070144300,8.491144287109375,-0.05131116881966591,0.018936265259981155,-0.04214845970273018
1783153283079855600,8.500855712890624,-0.026877280324697495,0.0390942245721817,-0.06352811306715012
1783153283089567200,8.510567138671876,-0.0024433890357613564,0.05864133685827255,-0.0794101431965828
1783153283099278600,8.520278564453125,0.006108472589403391,0.06169557198882103,-0.08307522535324097
1783153283108990200,8.529990234375,0.006108472589403391,0.06291726976633072,-0.08185353130102158
1783153283118701600,8.53970166015625,-0.0018325417768210173,0.054365407675504684,-0.07513421028852463
1783153283128413200,8.5494130859375,-0.013438640162348747,0.043981000781059265,-0.06413896381855011
1783153283138124500,8.55912451171875,-0.023212196305394173,0.04092676565051079,-0.05375456064939499
1783153283147836200,8.568836181640625,-0.023212196305394173,0.055587101727724075,-0.0397050715982914
1783153283157547500,8.578547607421875,-0.012216945178806782,0.054365407675504684,-0.02748812735080719
1783153283167259100,8.588259033203125,0.0018325417768210173,0.0397050715982914,-0.02076880633831024
1783153283176970500,8.597970458984374,0.006108472589403391,0.023212196305394173,-0.036039989441633224
1783153283186682000,8.60768212890625,0.0012216945178806782,0.014049487188458443,-0.05375456064939499
1783153283196393500,8.6173935546875,0.0012216945178806782,0.006108472589403391,-0.0525328628718853
1783153283206104800,8.627104736328125,0,-0.0012216945178806782,-0.04459185153245926
1783153283215816400,8.63681640625,-0.0036650835536420345,0.0006108472589403391,-0.03420744836330414
1783153283225527800,8.64652783203125,0.0006108472589403391,0.013438640162348747,-0.025655584409832954
1783153283235239400,8.656239501953126,0.0006108472589403391,0.011606098152697086,-0.01038440316915512
1783153283244950800,8.66595068359375,-0.0018325417768210173,0.0024433890357613564,-0.0006108472589403391
1783153283254662400,8.675662353515625,-0.007330167107284069,-0.0030542362947016954,0
1783153283264373800,8.685373779296874,-0.009773556143045425,-0.010995250195264816,-0.0012216945178806782
1783153283274085400,8.69508544921875,-0.009773556143045425,-0.012216945178806782,0.0036650835536420345
1783153283283796700,8.704796630859375,-0.005497625097632408,-0.013438640162348747,0.0030542362947016954
1783153283293508400,8.71450830078125,-0.004275931045413017,-0.015271181240677834,0.010995250195264816
1783153283303219700,8.7242197265625,-0.0030542362947016954,-0.025655584409832954,0.006719320081174374
1783153283312931300,8.733931396484374,-0.0018325417768210173,-0.0397050715982914,0.005497625097632408
1783153283322642700,8.743642578125,0.0024433890357613564,-0.0390942245721817,-0.0024433890357613564
1783153283332354000,8.75335400390625,0.004275931045413017,-0.038483377546072006,-0.007330167107284069
1783153283342065700,8.763065673828125,0.01038440316915512,-0.053143709897994995,-0.012216945178806782
1783153283351777000,8.772777099609375,0.01710372418165207,-0.05619794875383377,-0.014660334214568138
1783153283361488600,8.782488525390624,0.023823043331503868,-0.06352811306715012,-0.009773556143045425
1783153283371200000,8.792199951171876,0.02626643143594265,-0.06963659077882767,-0.007330167107284069
1783153283380911600,8.80191162109375,0.023823043331503868,-0.05986303091049194,-0.01588202826678753
1783153283390623000,8.811623046875,0.020157959312200546,-0.04703523963689804,-0.014049487188458443
1783153283400334600,8.82133447265625,0.014660334214568138,-0.04153761267662048,-0.01038440316915512
1783153283410046000,8.8310458984375,0.014660334214568138,-0.042759306728839874,-0.007941014133393764
1783153283419757600,8.840757568359376,0.00916270911693573,-0.04337015375494957,-0.0018325417768210173
1783153283429469000,8.850468994140625,0.006719320081174374,-0.03787253051996231,0.006719320081174374
1783153283439180500,8.8601806640625,0.006108472589403391,-0.02870982140302658,0.017714571207761765
1783153283448892000,8.869891845703124,-0.0006108472589403391,-0.011606098152697086,0.022601349279284477
1783153283458603300,8.879603271484376,-0.0006108472589403391,-0.0018325417768210173,0.029320668429136276
1783153283468315000,8.88931494140625,-0.0006108472589403391,0.006108472589403391,0.026877280324697495
1783153283478026200,8.899026123046875,0.0006108472589403391,0.009773556143045425,0.024433890357613564
1783153283487737900,8.90873779296875,0.009773556143045425,0.012827792204916477,0.016492875292897224
1783153283497449200,8.91844921875,0.024433890357613564,0.028098974376916885,0.007941014133393764
1783153283507160800,8.928160888671876,0.03420744836330414,0.04581354558467865,-0.0006108472589403391
1783153283516872200,8.9378720703125,0.03787253051996231,0.05008947476744652,-0.0006108472589403391
1783153283526583800,8.947583740234375,0.04092676565051079,0.051922015845775604,-0.004275931045413017
1783153283536295200,8.957295166015625,0.046424392610788345,0.05864133685827255,-0.021990500390529633
1783153283546006800,8.9670068359375,0.04459185153245926,0.062306419014930725,-0.0397050715982914
1783153283555718100,8.97671826171875,0.02993151545524597,0.05986303091049194,-0.046424392610788345
1783153283565429800,8.9864296875,0.014660334214568138,0.03787253051996231,-0.043981000781059265
1783153283575141000,8.99614111328125,0.0006108472589403391,0.02870982140302658,-0.046424392610788345
1783153283584852700,9.005852783203125,-0.012827792204916477,0.025655584409832954,-0.04337015375494957
1783153283594564000,9.015564208984374,-0.021990500390529633,0.02870982140302658,-0.036039989441633224
1783153283604275500,9.025275390625,-0.021379653364419937,0.036039989441633224,-0.021379653364419937
1783153283613987000,9.034987060546875,-0.014660334214568138,0.054365407675504684,-0.016492875292897224
1783153283623698400,9.044698486328125,-0.0006108472589403391,0.06902574002742767,-0.01588202826678753
1783153283633410000,9.05441015625,0.008551862090826035,0.05864133685827255,-0.014660334214568138
1783153283643121400,9.064121337890626,0.012827792204916477,0.03787253051996231,-0.022601349279284477
1783153283652833000,9.0738330078125,0.006719320081174374,0.010995250195264816,-0.04092676565051079
1783153283662544400,9.08354443359375,0.0018325417768210173,-0.006719320081174374,-0.06047387793660164
1783153283672256000,9.093256103515625,0,-0.020157959312200546,-0.062306419014930725
1783153283681967400,9.10296728515625,0,-0.024433890357613564,-0.047646086663007736
1783153283691679000,9.112678955078126,-0.004275931045413017,-0.017714571207761765,-0.021990500390529633
1783153283701390300,9.122390380859375,-0.006108472589403391,-0.0006108472589403391,0
1783153283711102000,9.13210205078125,-0.005497625097632408,0.01588202826678753,0.009773556143045425
1783153283720813300,9.141813232421875,-0.0036650835536420345,0.01832541823387146,0.012216945178806782
1783153283730525000,9.15152490234375,-0.010995250195264816,0.006108472589403391,0.01588202826678753
1783153283740236300,9.161236328125,-0.021379653364419937,-0.009773556143045425,0.01954711228609085
1783153283749947600,9.17094775390625,-0.02870982140302658,-0.00916270911693573,0.011606098152697086
1783153283759659300,9.1806591796875,-0.03237490355968475,0.0012216945178806782,0.01588202826678753
1783153283769370600,9.19037060546875,-0.023823043331503868,0.01038440316915512,0.025655584409832954
1783153283779082200,9.200082275390624,-0.012216945178806782,0.016492875292897224,0.0390942245721817
1783153283788793600,9.209793701171876,0,0.021990500390529633,0.036039989441633224
1783153283798505200,9.219505126953125,0.0036650835536420345,0.025655584409832954,0.033596597611904144
1783153283808216600,9.229216552734375,0.004886778071522713,0.01954711228609085,0.02748812735080719
1783153283817928200,9.23892822265625,0.007330167107284069,0.01588202826678753,0.01954711228609085
1783153283827639600,9.2486396484375,0.007941014133393764,0.007941014133393764,0.011606098152697086
1783153283837351200,9.25835107421875,0.00916270911693573,-0.005497625097632408,0.01038440316915512
1783153283847062500,9.2680625,0.007941014133393764,-0.011606098152697086,0.01038440316915512
1783153283856774100,9.277774169921875,0.007941014133393764,-0.004275931045413017,0.014660334214568138
1783153283866485500,9.287485595703124,0.004275931045413017,-0.0006108472589403391,0.028098974376916885
1783153283876196900,9.29719677734375,0.0036650835536420345,0.004886778071522713,0.046424392610788345
1783153283885908500,9.306908447265625,0.005497625097632408,-0.0036650835536420345,0.0659715011715889
1783153283895619800,9.316619873046875,0.0006108472589403391,-0.0036650835536420345,0.07146912813186646
1783153283905331500,9.32633154296875,0.0006108472589403391,0,0.07330167293548584
1783153283915042800,9.336042724609374,0.01038440316915512,-0.005497625097632408,0.06169557198882103
1783153283924754400,9.34575439453125,0.01038440316915512,-0.007941014133393764,0.0525328628718853
1783153283934465800,9.3554658203125,0.006108472589403391,-0.012216945178806782,0.0390942245721817
1783153283944177400,9.365177490234375,0.0030542362947016954,-0.012827792204916477,0.02626643143594265
1783153283953888800,9.374888671875,0.0006108472589403391,-0.007941014133393764,0.01954711228609085
1783153283963600400,9.384600341796874,0.004886778071522713,0.007941014133393764,0.01832541823387146
1783153283973311700,9.394311767578126,0.004886778071522713,0.017714571207761765,0.03176405653357506
1783153283983023400,9.4040234375,0,0.020157959312200546,0.045202698558568954
1783153283992734700,9.413734619140625,-0.009773556143045425,0.03298575058579445,0.054365407675504684
1783153284002446300,9.4234462890625,-0.016492875292897224,0.04886778071522713,0.05986303091049194
1783153284012157700,9.43315771484375,-0.021379653364419937,0.056808795779943466,0.05925218388438225
1783153284021869000,9.442869140625,-0.03176405653357506,0.06291726976633072,0.06047387793660164
1783153284031580700,9.45258056640625,-0.024433890357613564,0.05864133685827255,0.05741964280605316
1783153284041292000,9.4622919921875,-0.007330167107284069,0.04886778071522713,0.04581354558467865
1783153284051003600,9.472003662109374,0.0030542362947016954,0.0390942245721817,0.034818295389413834
1783153284060715000,9.481715087890626,0.0030542362947016954,0.02748812735080719,0.020157959312200546
1783153284070426600,9.491426513671875,0.00916270911693573,0.02076880633831024,0.0024433890357613564
1783153284080138000,9.501137939453125,0.01954711228609085,0.0030542362947016954,-0.015271181240677834
1783153284089849600,9.510849609375,0.034818295389413834,-0.0030542362947016954,-0.037261683493852615
1783153284099561000,9.52056103515625,0.04459185153245926,-0.0006108472589403391,-0.045202698558568954
1783153284109272600,9.5302724609375,0.046424392610788345,-0.004275931045413017,-0.043981000781059265
1783153284118984000,9.53998388671875,0.05008947476744652,0.0036650835536420345,-0.037261683493852615
1783153284128695600,9.549695556640625,0.05131116881966591,0.0012216945178806782,-0.03542914241552353
1783153284138407000,9.559406982421875,0.04825693368911743,-0.007941014133393764,-0.02504473738372326
1783153284148118500,9.569118408203124,0.045202698558568954,-0.0030542362947016954,-0.023212196305394173
1783153284157830000,9.578829833984376,0.04092676565051079,-0.0030542362947016954,-0.020157959312200546
1783153284167541500,9.58854150390625,0.033596597611904144,-0.007330167107284069,-0.01710372418165207
1783153284177252900,9.5982529296875,0.02626643143594265,-0.01038440316915512,-0.011606098152697086
1783153284186964200,9.607964111328124,0.01588202826678753,-0.014049487188458443,-0.006719320081174374
1783153284196675800,9.61767578125,0.007330167107284069,-0.024433890357613564,0.0036650835536420345
1783153284206387200,9.62738720703125,0.0030542362947016954,-0.02748812735080719,0.021379653364419937
1783153284216098800,9.637098876953125,-0.0030542362947016954,-0.022601349279284477,0.03787253051996231
1783153284225810200,9.64681005859375,-0.013438640162348747,-0.029320668429136276,0.05375456064939499
1783153284235521800,9.656521728515624,-0.021990500390529633,-0.023212196305394173,0.0647498071193695
1783153284245233200,9.666233154296876,-0.02993151545524597,-0.021990500390529633,0.06719319522380829
1783153284254944800,9.67594482421875,-0.03542914241552353,-0.01588202826678753,0.06719319522380829
1783153284264656100,9.68565625,-0.03298575058579445,-0.004886778071522713,0.06719319522380829
1783153284274367700,9.69536767578125,-0.024433890357613564,0.004275931045413017,0.06780404597520828
1783153284284079000,9.7050791015625,-0.013438640162348747,-0.0030542362947016954,0.06352811306715012
1783153284293790700,9.714790771484376,-0.006719320081174374,-0.01038440316915512,0.04886778071522713
1783153284303502000,9.724502197265625,-0.0036650835536420345,-0.02748812735080719,0.03237490355968475
1783153284313213700,9.734213623046875,-0.007330167107284069,-0.04703523963689804,0.01954711228609085
1783153284322925000,9.743925048828125,-0.015271181240677834,-0.06047387793660164,0.01588202826678753
1783153284332636400,9.753636474609374,-0.01954711228609085,-0.061084724962711334,0.01832541823387146
1783153284342348000,9.76334814453125,-0.01710372418165207,-0.04459185153245926,0.01954711228609085
1783153284352059400,9.773059326171875,-0.005497625097632408,-0.01588202826678753,0.018936265259981155
1783153284361771000,9.78277099609375,0.0024433890357613564,-0.00916270911693573,0.017714571207761765
1783153284371482400,9.792482421875,0.0036650835536420345,-0.012827792204916477,0.018936265259981155
1783153284381194000,9.802194091796874,-0.004275931045413017,-0.024433890357613564,0.011606098152697086
1783153284390905300,9.8119052734375,-0.009773556143045425,-0.04337015375494957,0.0006108472589403391
1783153284400617000,9.821616943359375,-0.015271181240677834,-0.05803048983216286,-0.014049487188458443
1783153284410328300,9.831328369140625,-0.022601349279284477,-0.051922015845775604,-0.028098974376916885
1783153284420040000,9.8410400390625,-0.02870982140302658,-0.0390942245721817,-0.03237490355968475
1783153284429751300,9.850751220703126,-0.029320668429136276,-0.03542914241552353,-0.023823043331503868
1783153284439463000,9.860462890625,-0.02626643143594265,-0.01710372418165207,-0.00916270911693573
1783153284449174300,9.87017431640625,-0.02076880633831024,0.008551862090826035,0.006108472589403391
1783153284458886000,9.879885986328125,-0.023823043331503868,0.006719320081174374,0.01710372418165207
1783153284468597200,9.88959716796875,-0.03176405653357506,-0.0030542362947016954,0.02076880633831024
1783153284478308900,9.899308837890626,-0.04031591862440109,-0.009773556143045425,0.004275931045413017
1783153284488020200,9.909020263671875,-0.04214845970273018,-0.029320668429136276,-0.008551862090826035
1783153284497731600,9.918731689453125,-0.04581354558467865,-0.04703523963689804,-0.02076880633831024
1783153284507443200,9.928443115234375,-0.04825693368911743,-0.05070032179355621,-0.025655584409832954
1783153284517154600,9.938154541015624,-0.05131116881966591,-0.04703523963689804,-0.011606098152697086
1783153284526866200,9.9478662109375,-0.05497625470161438,-0.03420744836330414,0
1783153284536577500,9.95757763671875,-0.05803048983216286,-0.012216945178806782,0.013438640162348747
1783153284546289200,9.9672890625,-0.06291726976633072,0.007330167107284069,0.021379653364419937
1783153284556000500,9.97700048828125,-0.0647498071193695,0.01038440316915512,0.02748812735080719
1783153284565712100,9.986712158203124,-0.062306419014930725,0.009773556143045425,0.030542362481355667
1783153284575423500,9.996423583984376,-0.061084724962711334,-0.0024433890357613564,0.023823043331503868
1783153284585135000,10.006135009765625,-0.05864133685827255,-0.017714571207761765,0.021379653364419937
1783153284594846500,10.015846435546875,-0.04581354558467865,-0.04947862774133682,0.012827792204916477
1783153284604558000,10.02555810546875,-0.0647498071193695,-0.05070032179355621,0.023212196305394173
1783153284614269400,10.03526953125,-0.08246438205242157,-0.07391251623630524,0.043981000781059265
1783153284623981000,10.04498095703125,-0.08307522535324097,-0.05986303091049194,0.053143709897994995
1783153284633692400,10.0546923828125,-0.06047387793660164,-0.046424392610788345,0.055587101727724075
1783153284643403800,10.06440380859375,-0.03298575058579445,-0.03665083646774292,0.04886778071522713
1783153284653115400,10.074115478515624,-0.00916270911693573,-0.029320668429136276,0.0397050715982914
1783153284662826800,10.08382666015625,0.009773556143045425,-0.04581354558467865,0.029320668429136276
1783153284672538400,10.093538330078125,0.020157959312200546,-0.06352811306715012,0.012827792204916477
1783153284682249700,10.103249755859375,0.01832541823387146,-0.06841489672660828,0.0030542362947016954
1783153284691961300,10.11296142578125,0.012216945178806782,-0.07391251623630524,0.011606098152697086
1783153284701672700,10.122672607421874,0.011606098152697086,-0.06963659077882767,0.03420744836330414
1783153284711384300,10.13238427734375,0.012216945178806782,-0.05741964280605316,0.05925218388438225
1783153284721095700,10.142095703125,0.012216945178806782,-0.03787253051996231,0.06841489672660828
1783153284730807300,10.151807373046875,0.017714571207761765,-0.026877280324697495,0.08124268800020218
1783153284740518700,10.1615185546875,0.022601349279284477,-0.04092676565051079,0.10140064358711243
1783153284750230300,10.171230224609374,0.021379653364419937,-0.061084724962711334,0.1172826737165451
1783153284759941600,10.180941650390626,0.02076880633831024,-0.08368607610464096,0.12033691257238388
1783153284769653000,10.190653076171875,0.021990500390529633,-0.10750912129878998,0.11422843486070633
1783153284779364600,10.200364501953125,0.018936265259981155,-0.12339114397764206,0.1044548824429512
1783153284789076000,10.210075927734374,0.015271181240677834,-0.13866232335567474,0.08735115826129913
1783153284798787600,10.21978759765625,0.02076880633831024,-0.1459924876689911,0.07024743407964706
1783153284808499000,10.2294990234375,0.028098974376916885,-0.14171656966209412,0.06413896381855011
1783153284818210600,10.23921044921875,0.018936265259981155,-0.12094775587320328,0.06169557198882103
1783153284827922000,10.248921875,-0.0030542362947016954,-0.09040539711713791,0.062306419014930725
1783153284837633500,10.258633544921874,-0.02626643143594265,-0.05619794875383377,0.06841489672660828
1783153284847345000,10.268344970703126,-0.04947862774133682,-0.020157959312200546,0.0781884491443634
1783153284857056500,10.278056396484375,-0.07757759839296341,0.01038440316915512,0.09895725548267365
1783153284866768000,10.287767822265625,-0.10262233763933182,0.02870982140302658,0.1172826737165451
1783153284876479500,10.2974794921875,-0.12400199472904205,0.042759306728839874,0.129499614238739
1783153284886190800,10.30719091796875,-0.13866232335567474,0.051922015845775604,0.13866232335567474
1783153284895902500,10.31690234375,-0.15332266688346863,0.06047387793660164,0.14965757727622986
1783153284905613800,10.32661376953125,-0.16676130890846252,0.05497625470161438,0.16431790590286255
1783153284915325200,10.3363251953125,-0.17286977171897888,0.04337015375494957,0.1692046970129013
1783153284925036800,10.346036865234375,-0.17286977171897888,0.034818295389413834,0.16248537600040436
1783153284934748200,10.355748046875,-0.16737215220928192,0.024433890357613564,0.15149012207984924
1783153284944459800,10.365459716796876,-0.16737215220928192,0.012827792204916477,0.1453816443681717
1783153284954171100,10.375171142578125,-0.16676130890846252,-0.009773556143045425,0.13988402485847473
1783153284963882800,10.3848828125,-0.15454435348510742,-0.045202698558568954,0.12155860662460327
1783153284973594000,10.394593994140624,-0.13805148005485535,-0.07574506103992462,0.09712471067905426
1783153284983305700,10.4043056640625,-0.11178504675626755,-0.0910162404179573,0.07330167293548584
1783153284993017000,10.41401708984375,-0.08735115826129913,-0.10017894953489304,0.051922015845775604
1783153285002728700,10.423728759765625,-0.06719319522380829,-0.10995250940322876,0.033596597611904144
1783153285012440000,10.433440185546875,-0.05619794875383377,-0.11300674080848694,0.012827792204916477
1783153285022151700,10.443151611328124,-0.047646086663007736,-0.11239589750766754,-0.0036650835536420345
1783153285031863000,10.452863037109376,-0.0390942245721817,-0.11606097966432571,-0.02076880633831024
1783153285041574700,10.46257470703125,-0.031153209507465363,-0.11239589750766754,-0.0525328628718853
1783153285051286000,10.4722861328125,-0.018936265259981155,-0.12400199472904205,-0.08307522535324097
1783153285060997600,10.48199755859375,-0.004886778071522713,-0.13927318155765533,-0.11239589750766754
1783153285070709000,10.491708984375,0.004886778071522713,-0.1582094430923462,-0.130721315741539
1783153285080420400,10.50142041015625,0.006108472589403391,-0.16676130890846252,-0.13927318155765533
1783153285090132000,10.511132080078125,-0.009773556143045425,-0.17286977171897888,-0.12888877093791962
1783153285099843300,10.52084326171875,-0.033596597611904144,-0.1716480851173401,-0.11972606182098389
1783153285109555000,10.530554931640625,-0.055587101727724075,-0.16187451779842377,-0.10628741979598999
1783153285119266300,10.540266357421874,-0.0781884491443634,-0.13377554714679718,-0.09407047927379608
1783153285128978000,10.54997802734375,-0.09529217332601547,-0.10811996459960938,-0.07330167293548584
1783153285138689300,10.559689208984375,-0.11239589750766754,-0.08124268800020218,-0.045202698558568954
1783153285148401000,10.56940087890625,-0.1313321590423584,-0.055587101727724075,-0.011606098152697086
1783153285158112300,10.5791123046875,-0.1557660549879074,-0.017714571207761765,0.023212196305394173
1783153285167824000,10.588823974609374,-0.17836740612983704,0.020157959312200546,0.05619794875383377
1783153285177535200,10.59853515625,-0.18875180184841156,0.04214845970273018,0.08063183724880219
1783153285187246800,10.608246826171875,-0.18936264514923096,0.04886778071522713,0.0910162404179573
1783153285196958200,10.617958251953125,-0.19119518995285034,0.02870982140302658,0.0922379344701767
1783153285206669800,10.627669921875,-0.19302773475646973,-0.010995250195264816,0.09590301662683487
1783153285216381200,10.637381103515626,-0.20585553348064423,-0.04581354558467865,0.09712471067905426
1783153285226092800,10.6470927734375,-0.21196399629116058,-0.05741964280605316,0.08246438205242157
1783153285235804200,10.65680419921875,-0.21807247400283813,-0.05986303091049194,0.056808795779943466
1783153285245515800,10.666515869140625,-0.21868331730365753,-0.04214845970273018,0.029320668429136276
1783153285255227100,10.67622705078125,-0.21379654109477997,-0.010995250195264816,-0.0006108472589403391
1783153285264938500,10.6859384765625,-0.20341213047504425,0.01038440316915512,-0.01710372418165207
1783153285274650000,10.695650146484375,-0.20768806338310242,0.04886778071522713,-0.021990500390529633
1783153285284361500,10.705361572265625,-0.23212195932865143,0.11178504675626755,-0.009773556143045425
1783153285294073000,10.715072998046875,-0.258999228477478,0.1832541823387146,0.028098974376916885
1783153285303784400,10.724784423828124,-0.27121618390083313,0.24556060135364532,0.07513421028852463
1783153285313496000,10.73449609375,-0.26816195249557495,0.2883199155330658,0.13499724864959717
1783153285323207400,10.74420751953125,-0.25533416867256165,0.3029802441596985,0.1844758689403534
1783153285332919000,10.7539189453125,-0.23090025782585144,0.3005368411540985,0.20280128717422485
1783153285342630400,10.76363037109375,-0.20646637678146362,0.284654825925827,0.208298921585083
1783153285352342000,10.773342041015624,-0.18019993603229523,0.24617144465446472,0.21257483959197998
1783153285362053400,10.783053466796876,-0.14965757727622986,0.20035789906978607,0.2217375487089157
1783153285371765000,10.792764892578125,-0.11911521852016449,0.14904673397541046,0.24189551174640656
1783153285381476400,10.802476318359375,-0.08796200156211853,0.09651386737823486,0.26877278089523315
1783153285391188000,10.81218798828125,-0.061084724962711334,0.054365407675504684,0.29626092314720154
1783153285400899300,10.8218994140625,-0.02993151545524597,0.025655584409832954,0.30847787857055664
1783153285410611000,10.83161083984375,0.0006108472589403391,0.0036650835536420345,0.31825143098831177
1783153285420322300,10.841322265625,0.04947862774133682,-0.007941014133393764,0.3115321099758148
1783153285430034000,10.851033935546875,0.11239589750766754,-0.01588202826678753,0.2901524603366852
1783153285439745300,10.860745361328124,0.1832541823387146,-0.015271181240677834,0.24433889985084534
1783153285449456600,10.87045654296875,0.2357870489358902,-0.004886778071522713,0.19180603325366974
1783153285459168300,10.880168212890625,0.2602209448814392,0.0024433890357613564,0.15332266688346863
1783153285468879600,10.889879638671875,0.2724378705024719,-0.007330167107284069,0.1301104724407196
1783153285478591200,10.89959130859375,0.2895416021347046,-0.009773556143045425,0.10689827054738998
1783153285488302600,10.909302490234374,0.3042019307613373,-0.0036650835536420345,0.08857285231351852
1783153285498014200,10.91901416015625,0.314586341381073,0.016492875292897224,0.08735115826129913
1783153285507725600,10.9287255859375,0.33230090141296387,0.018936265259981155,0.08674030750989914
1783153285517437200,10.938437255859375,0.34940463304519653,0.046424392610788345,0.07024743407964706
1783153285527148500,10.9481484375,0.3561239540576935,0.09345962852239609,0.047646086663007736
1783153285536860200,10.957860107421874,0.3536805510520935,0.13927318155765533,0.018936265259981155
1783153285546571500,10.967571533203126,0.3426853120326996,0.18753011524677277,-0.012216945178806782
1783153285556283100,10.977283203125,0.3414636254310608,0.22051586210727692,-0.05008947476744652
1783153285565994500,10.986994384765625,0.3396310806274414,0.2357870489358902,-0.08063183724880219
1783153285575705900,10.996705810546874,0.3439069986343384,0.2480039894580841,-0.08429691940546036
1783153285585417500,11.00641748046875,0.3396310806274414,0.2516690790653229,-0.07269082218408585
1783153285595128800,11.01612890625,0.32130566239356995,0.25533416867256165,-0.061084724962711334
1783153285604840400,11.02584033203125,0.2864873707294464,0.2779355049133301,-0.05070032179355621
1783153285614551800,11.0355517578125,0.26755109429359436,0.2895416021347046,-0.04031591862440109
1783153285624263400,11.045263427734374,0.25655585527420044,0.29259583353996277,-0.037261683493852615
1783153285633974800,11.054974853515626,0.2522799074649811,0.3011476993560791,-0.04153761267662048
1783153285643686400,11.064686279296875,0.23823043704032898,0.312142938375473,-0.04459185153245926
1783153285653397800,11.074397705078125,0.2235700935125351,0.342074453830719,-0.04337015375494957
1783153285663109400,11.084109375,0.2095206081867218,0.420873761177063,-0.03298575058579445
1783153285672820700,11.09382080078125,0.20157960057258606,0.5210527181625366,-0.0036650835536420345
1783153285682532400,11.103532470703126,0.1985253542661667,0.5961869359016418,0.05803048983216286
1783153285692243700,11.11324365234375,0.1954711228609085,0.6218425035476685,0.12461283802986145
1783153285701955300,11.122955322265625,0.18875180184841156,0.6187883019447327,0.17714570462703705
1783153285711666700,11.132666748046875,0.1832541823387146,0.5711421966552734,0.21379654109477997
1783153285721378000,11.1423779296875,0.17897824943065643,0.5289937257766724,0.23212195932865143
1783153285731089700,11.152089599609376,0.17409147322177887,0.5021164417266846,0.22784602642059326
1783153285740801000,11.161801025390625,0.17286977171897888,0.4856235682964325,0.2107423096895218
1783153285750512600,11.1715126953125,0.17592400312423706,0.46607646346092224,0.18081079423427582
1783153285760224000,11.18122412109375,0.1850867122411728,0.4312581717967987,0.13866232335567474
1783153285769935600,11.190935546875,0.1954711228609085,0.41232189536094666,0.10323318839073181
1783153285779647000,11.20064697265625,0.1979145109653473,0.3897205591201782,0.07207997888326645
1783153285789358600,11.210358642578125,0.18814095854759216,0.38666632771492004,0.053143709897994995
1783153285799070000,11.220070068359375,0.17592400312423706,0.34879377484321594,0.05741964280605316
1783153285808781600,11.229781494140624,0.16553960740566254,0.2620534598827362,0.06719319522380829
1783153285818493000,11.239492919921876,0.1588202863931656,0.1692046970129013,0.05986303091049194
1783153285828204500,11.24920458984375,0.1575985997915268,0.08551861345767975,0.03298575058579445
1783153285837916000,11.258916015625,0.15271180868148804,0.012827792204916477,0
1783153285847627500,11.26862744140625,0.1423274129629135,-0.04153761267662048,-0.03542914241552353
1783153285857339000,11.2783388671875,0.12705622613430023,-0.04947862774133682,-0.06963659077882767
1783153285867050500,11.288050537109376,0.11300674080848694,-0.021990500390529633,-0.07696675509214401
1783153285876761900,11.297761962890625,0.10017894953489304,0.013438640162348747,-0.0659715011715889
1783153285886473500,11.307473388671875,0.0916270911693573,0.04825693368911743,-0.05008947476744652
1783153285896184800,11.317184814453125,0.08429691940546036,0.07574506103992462,-0.04337015375494957
1783153285905896400,11.326896484375,0.0787992998957634,0.08124268800020218,-0.03787253051996231
1783153285915607800,11.33660791015625,0.06841489672660828,0.06291726976633072,-0.03542914241552353
1783153285925319400,11.3463193359375,0.055587101727724075,0.04214845970273018,-0.04031591862440109
1783153285935030800,11.35603076171875,0.047646086663007736,0.023212196305394173,-0.055587101727724075
1783153285944742100,11.3657421875,0.03787253051996231,0.007330167107284069,-0.055587101727724075
1783153285954453800,11.375453857421874,0.021379653364419937,-0.004275931045413017,-0.05008947476744652
1783153285964165000,11.3851650390625,0.004886778071522713,-0.006719320081174374,-0.0390942245721817
1783153285973876700,11.394876708984375,-0.004275931045413017,0,-0.03787253051996231
1783153285983588000,11.404588134765625,-0.014660334214568138,0.0012216945178806782,-0.04092676565051079
1783153285993299700,11.4142998046875,-0.02076880633831024,-0.0036650835536420345,-0.04337015375494957
1783153286003011000,11.424010986328126,-0.021379653364419937,-0.009773556143045425,-0.034818295389413834
1783153286012722700,11.43372265625,-0.02626643143594265,-0.021990500390529633,-0.01710372418165207
1783153286022434000,11.44343408203125,-0.030542362481355667,-0.01710372418165207,-0.0030542362947016954
1783153286032145700,11.453145751953125,-0.03237490355968475,-0.005497625097632408,0.014049487188458443
1783153286041857000,11.46285693359375,-0.036039989441633224,-0.023212196305394173,0.031153209507465363
1783153286051568600,11.472568603515626,-0.038483377546072006,-0.028098974376916885,0.033596597611904144
1783153286061280000,11.482280029296875,-0.04337015375494957,-0.033596597611904144,0.03237490355968475
1783153286070991600,11.49199169921875,-0.045202698558568954,-0.05070032179355621,0.03298575058579445
1783153286080703000,11.501702880859375,-0.043981000781059265,-0.05864133685827255,0.030542362481355667
1783153286090414600,11.51141455078125,-0.04703523963689804,-0.07024743407964706,0.02504473738372326
1783153286100126000,11.5211259765625,-0.055587101727724075,-0.08002099394798279,0.014660334214568138
1783153286109837600,11.530837646484375,-0.05008947476744652,-0.08124268800020218,0.013438640162348747
1783153286119549000,11.540548828125,-0.037261683493852615,-0.07207997888326645,0.021990500390529633
1783153286129260300,11.55026025390625,-0.03665083646774292,-0.06352811306715012,0.03787253051996231
1783153286138972000,11.559971923828124,-0.046424392610788345,-0.05925218388438225,0.05925218388438225
1783153286148683300,11.569683349609376,-0.06047387793660164,-0.05008947476744652,0.06413896381855011
1783153286158395000,11.579394775390625,-0.06352811306715012,-0.042759306728839874,0.05619794875383377
1783153286168106200,11.589106201171875,-0.05925218388438225,-0.045202698558568954,0.04031591862440109
1783153286177817900,11.59881787109375,-0.056808795779943466,-0.053143709897994995,0.020157959312200546
1783153286187529200,11.608529296875,-0.0525328628718853,-0.06352811306715012,-0.009773556143045425
1783153286197240800,11.61824072265625,-0.043981000781059265,-0.06658235192298889,-0.043981000781059265
1783153286206952200,11.6279521484375,-0.04031591862440109,-0.06902574002742767,-0.06047387793660164
1783153286216663800,11.637663818359375,-0.042759306728839874,-0.0653606578707695,-0.06352811306715012
1783153286226375200,11.647375244140624,-0.04703523963689804,-0.04337015375494957,-0.04886778071522713
1783153286236086800,11.657086669921876,-0.053143709897994995,-0.02626643143594265,-0.023823043331503868
1783153286245798100,11.666798095703125,-0.06291726976633072,-0.0024433890357613564,-0.0012216945178806782
1783153286255509500,11.676509521484375,-0.06169557198882103,0.013438640162348747,0.006108472589403391
1783153286265221000,11.68622119140625,-0.05619794875383377,0.020157959312200546,0.012216945178806782
1783153286274932500,11.695932373046874,-0.0525328628718853,0.0024433890357613564,0.007941014133393764
1783153286284644000,11.70564404296875,-0.04459185153245926,-0.004886778071522713,-0.004275931045413017
1783153286294355500,11.71535546875,-0.043981000781059265,-0.013438640162348747,-0.024433890357613564
1783153286304067000,11.725067138671875,-0.04214845970273018,-0.024433890357613564,-0.04092676565051079
1783153286313778400,11.7347783203125,-0.042759306728839874,-0.02504473738372326,-0.053143709897994995
1783153286323490000,11.744489990234374,-0.045202698558568954,-0.01710372418165207,-0.05375456064939499
1783153286333201400,11.754201416015626,-0.04703523963689804,-0.016492875292897224,-0.04581354558467865
1783153286342913000,11.7639130859375,-0.04886778071522713,-0.01588202826678753,-0.037261683493852615
1783153286352624400,11.773624267578125,-0.04947862774133682,-0.0018325417768210173,-0.02748812735080719
1783153286362336000,11.7833359375,-0.056808795779943466,0.012216945178806782,-0.010995250195264816
1783153286372047400,11.79304736328125,-0.06413896381855011,0.012216945178806782,-0.0006108472589403391
1783153286381759000,11.802759033203126,-0.0653606578707695,0.011606098152697086,-0.0036650835536420345
1783153286391470300,11.81247021484375,-0.05925218388438225,0.009773556143045425,-0.017714571207761765
1783153286401182000,11.822181884765625,-0.05375456064939499,-0.004275931045413017,-0.028098974376916885
1783153286410893300,11.831893310546874,-0.04886778071522713,-0.02504473738372326,-0.038483377546072006
1783153286420605000,11.84160498046875,-0.04825693368911743,-0.03787253051996231,-0.04581354558467865
1783153286430316300,11.85131640625,-0.0525328628718853,-0.03542914241552353,-0.04337015375494957
1783153286440028000,11.86102783203125,-0.06047387793660164,-0.034818295389413834,-0.02504473738372326
1783153286449739300,11.8707392578125,-0.07024743407964706,-0.02870982140302658,-0.004275931045413017
1783153286459450600,11.88045068359375,-0.07391251623630524,-0.015271181240677834,0.02076880633831024
1783153286469162200,11.890162353515626,-0.06963659077882767,-0.011606098152697086,0.034818295389413834
1783153286478873600,11.89987353515625,-0.0659715011715889,-0.01588202826678753,0.04703523963689804
1783153286488585200,11.909585205078125,-0.07330167293548584,-0.023212196305394173,0.05131116881966591
