time,seconds_elapsed,z,y,x
1782858683210135300,0.08913525390625,-0.407257080078125,-0.8379364013671875,0.059478759765625
1782858683220084200,0.099084228515625,-0.406341552734375,-0.8527984619140625,0.062591552734375
1782858683230032100,0.1090322265625,-0.413665771484375,-0.8785858154296875,0.07110595703125
1782858683239981000,0.11898095703125,-0.408203125,-0.896697998046875,0.077789306640625
1782858683249960200,0.128960205078125,-0.3994140625,-0.89349365234375,0.076446533203125
1782858683259909000,0.1389091796875,-0.4030914306640625,-0.8662261962890625,0.073150634765625
1782858683269858000,0.148858154296875,-0.3961334228515625,-0.8838348388671875,0.06353759765625
1782858683279807200,0.15880712890625,-0.3896942138671875,-0.909393310546875,0.068359375
1782858683289786000,0.1687861328125,-0.4131622314453125,-0.8732452392578125,0.056884765625
1782858683299735300,0.1787353515625,-0.4332427978515625,-0.8588714599609375,0.0209808349609375
1782858683309683200,0.18868310546875,-0.4640045166015625,-0.841033935546875,-0.0149383544921875
1782858683319632400,0.19863232421875,-0.4549713134765625,-0.8473663330078125,-0.023834228515625
1782858683329611300,0.208611328125,-0.383880615234375,-0.862060546875,0.000823974609375
1782858683339560200,0.218560302734375,-0.3736114501953125,-0.8729095458984375,-0.0018768310546875
1782858683349509000,0.228509033203125,-0.3919525146484375,-0.87091064453125,-0.0003509521484375
1782858683359458300,0.238458251953125,-0.384735107421875,-0.861785888671875,-0.00408935546875
1782858683369437200,0.248437255859375,-0.3757476806640625,-0.8455352783203125,-0.00799560546875
1782858683379386000,0.25838623046875,-0.3725433349609375,-0.828704833984375,0.0009765625
1782858683389334300,0.268334228515625,-0.3969573974609375,-0.8319244384765625,0.013671875
1782858683399313200,0.278313232421875,-0.4372406005859375,-0.8514251708984375,0.019378662109375
1782858683409262000,0.288261962890625,-0.4605865478515625,-0.860626220703125,0.024627685546875
1782858683419211300,0.298211181640625,-0.47186279296875,-0.846832275390625,0.031219482421875
1782858683429160200,0.30816015625,-0.474365234375,-0.8330078125,0.0385589599609375
1782858683439139000,0.31813916015625,-0.488128662109375,-0.806793212890625,0.0487823486328125
1782858683449088300,0.328088134765625,-0.5168914794921875,-0.779449462890625,0.04998779296875
1782858683459036200,0.3380361328125,-0.5276336669921875,-0.78863525390625,0.0447235107421875
1782858683468985300,0.3479853515625,-0.530487060546875,-0.8106842041015625,0.0390777587890625
1782858683478964200,0.357964111328125,-0.5319061279296875,-0.836334228515625,0.0331878662109375
1782858683488913400,0.367913330078125,-0.5482330322265625,-0.8337249755859375,0.00579833984375
1782858683498862300,0.3778623046875,-0.5853729248046875,-0.7967376708984375,-0.011444091796875
1782858683508811300,0.387811279296875,-0.5908203125,-0.8434906005859375,0.0692901611328125
1782858683518790100,0.3977900390625,-0.556365966796875,-0.9219970703125,0.09381103515625
1782858683528739300,0.4077392578125,-0.545196533203125,-0.9167022705078125,0.136749267578125
1782858683538687200,0.417687255859375,-0.5847930908203125,-0.8734283447265625,0.137451171875
1782858683548667100,0.427667236328125,-0.6499786376953125,-0.8441162109375,0.0848846435546875
1782858683558615300,0.437615234375,-0.678802490234375,-0.8075408935546875,0.0475616455078125
1782858683568564200,0.447564208984375,-0.659393310546875,-0.7722625732421875,0.033935546875
1782858683578513200,0.45751318359375,-0.6440277099609375,-0.7516632080078125,0.0289459228515625
1782858683588492000,0.467491943359375,-0.6453857421875,-0.7422637939453125,0.0237579345703125
1782858683598441200,0.477441162109375,-0.62591552734375,-0.72589111328125,0.0142822265625
1782858683608389000,0.48738916015625,-0.6440582275390625,-0.717254638671875,0.0150909423828125
1782858683618338000,0.497338134765625,-0.66558837890625,-0.727935791015625,0.025970458984375
1782858683628317200,0.507317138671875,-0.6759033203125,-0.750823974609375,0.0333404541015625
1782858683638266400,0.517266357421875,-0.6758575439453125,-0.775970458984375,0.040985107421875
1782858683648215300,0.52721533203125,-0.6674957275390625,-0.7886810302734375,0.0499420166015625
1782858683658164200,0.537164306640625,-0.6606597900390625,-0.7860107421875,0.0538787841796875
1782858683668143400,0.547143310546875,-0.658203125,-0.7801055908203125,0.0536041259765625
1782858683678092300,0.55709228515625,-0.65740966796875,-0.7751617431640625,0.046966552734375
1782858683688040200,0.567040283203125,-0.6497039794921875,-0.7735748291015625,0.04315185546875
1782858683698020000,0.57702001953125,-0.6494140625,-0.7723236083984375,0.04248046875
1782858683707968300,0.58696826171875,-0.65399169921875,-0.773040771484375,0.0386199951171875
1782858683717967000,0.596967041015625,-0.658111572265625,-0.7749176025390625,0.03680419921875
1782858683727916000,0.606916015625,-0.65716552734375,-0.7771759033203125,0.03350830078125
1782858683737895000,0.61689501953125,-0.650909423828125,-0.7779541015625,0.032501220703125
1782858683747844000,0.626843994140625,-0.639312744140625,-0.774383544921875,0.035369873046875
1782858683757792000,0.6367919921875,-0.6280517578125,-0.7758026123046875,0.037872314453125
1782858683767741000,0.646740966796875,-0.6225433349609375,-0.7798309326171875,0.045196533203125
1782858683777720000,0.656719970703125,-0.626007080078125,-0.78204345703125,0.0511932373046875
1782858683787669000,0.6666689453125,-0.6335601806640625,-0.7853240966796875,0.0572509765625
1782858683797618000,0.676617919921875,-0.633148193359375,-0.7883453369140625,0.063568115234375
1782858683807566800,0.68656689453125,-0.63275146484375,-0.7923583984375,0.071014404296875
1782858683817546000,0.6965458984375,-0.6340179443359375,-0.7936859130859375,0.075927734375
1782858683827495000,0.706494873046875,-0.6342620849609375,-0.79669189453125,0.0739288330078125
1782858683837442800,0.71644287109375,-0.6312713623046875,-0.7971649169921875,0.0639495849609375
1782858683847391700,0.726391845703125,-0.6292266845703125,-0.788909912109375,0.055145263671875
1782858683857371000,0.736370849609375,-0.6269073486328125,-0.7784576416015625,0.05657958984375
1782858683867319800,0.74631982421875,-0.621795654296875,-0.773345947265625,0.062347412109375
1782858683877269000,0.75626904296875,-0.613800048828125,-0.77197265625,0.0679779052734375
1782858683887248100,0.766248046875,-0.600921630859375,-0.7738037109375,0.0766143798828125
1782858683897197000,0.776197021484375,-0.5964813232421875,-0.7788543701171875,0.0865936279296875
1782858683907145000,0.78614501953125,-0.5980682373046875,-0.787506103515625,0.0953216552734375
1782858683917094000,0.796093994140625,-0.5917205810546875,-0.795440673828125,0.1025848388671875
1782858683927073000,0.806072998046875,-0.58258056640625,-0.7945098876953125,0.11138916015625
1782858683937022000,0.81602197265625,-0.58428955078125,-0.7900848388671875,0.118927001953125
1782858683946971000,0.825970947265625,-0.5858612060546875,-0.785369873046875,0.1236724853515625
1782858683956919800,0.835919921875,-0.5836029052734375,-0.78369140625,0.1236572265625
1782858683966899000,0.84589892578125,-0.5874176025390625,-0.78851318359375,0.117828369140625
1782858683976848000,0.855847900390625,-0.590789794921875,-0.7910308837890625,0.11285400390625
1782858683986795800,0.865795654296875,-0.5889739990234375,-0.78460693359375,0.109283447265625
1782858683996745000,0.875744873046875,-0.580718994140625,-0.7718963623046875,0.10906982421875
1782858684006723800,0.885723876953125,-0.5662841796875,-0.75616455078125,0.1118316650390625
1782858684016672800,0.8956728515625,-0.5525970458984375,-0.74798583984375,0.1222991943359375
1782858684026621700,0.90562158203125,-0.544830322265625,-0.7503509521484375,0.1371917724609375
1782858684036600800,0.915600830078125,-0.5445709228515625,-0.75537109375,0.1489410400390625
1782858684046550000,0.925550048828125,-0.544830322265625,-0.759796142578125,0.1553497314453125
1782858684056498000,0.935497802734375,-0.5408172607421875,-0.7657928466796875,0.1592864990234375
1782858684066447000,0.945447021484375,-0.536468505859375,-0.7693023681640625,0.1604461669921875
1782858684076426000,0.955426025390625,-0.5323486328125,-0.766143798828125,0.1574554443359375
1782858684086375000,0.965375,-0.531097412109375,-0.7606201171875,0.1515350341796875
1782858684096323800,0.97532373046875,-0.5308990478515625,-0.75823974609375,0.1420135498046875
1782858684106273000,0.98527294921875,-0.52734375,-0.7512054443359375,0.1355743408203125
1782858684116252000,0.995251953125,-0.525177001953125,-0.737518310546875,0.138885498046875
1782858684126200800,1.005200927734375,-0.5263214111328125,-0.7325439453125,0.1444091796875
1782858684136149000,1.01514892578125,-0.5182342529296875,-0.7396392822265625,0.1535491943359375
1782858684146098000,1.025097900390625,-0.5060882568359375,-0.74993896484375,0.164886474609375
1782858684156076800,1.035076904296875,-0.498626708984375,-0.7527313232421875,0.177520751953125
1782858684166026000,1.04502587890625,-0.4905242919921875,-0.7522735595703125,0.1937408447265625
1782858684175975000,1.054974853515625,-0.484130859375,-0.7542724609375,0.2056121826171875
1782858684185923800,1.064923828125,-0.4853973388671875,-0.7561187744140625,0.2105865478515625
1782858684195902700,1.07490283203125,-0.492523193359375,-0.7550506591796875,0.210174560546875
1782858684205852000,1.084851806640625,-0.4995880126953125,-0.75140380859375,0.204864501953125
1782858684215799800,1.0947998046875,-0.503570556640625,-0.74078369140625,0.1997528076171875
1782858684225780000,1.104780029296875,-0.4987030029296875,-0.7277069091796875,0.194915771484375
1782858684235728100,1.11472802734375,-0.4944000244140625,-0.7161102294921875,0.189422607421875
1782858684245677000,1.124677001953125,-0.4993896484375,-0.7038116455078125,0.182708740234375
1782858684255626000,1.1346259765625,-0.507476806640625,-0.6952667236328125,0.1797637939453125
1782858684265604900,1.14460498046875,-0.5151214599609375,-0.6949920654296875,0.175384521484375
1782858684275554000,1.154553955078125,-0.5210723876953125,-0.6934814453125,0.171295166015625
1782858684285502000,1.164501953125,-0.527191162109375,-0.68994140625,0.1659698486328125
1782858684295451000,1.174450927734375,-0.5350799560546875,-0.688751220703125,0.164703369140625
1782858684305430000,1.184429931640625,-0.5496978759765625,-0.6871337890625,0.1716461181640625
1782858684315379000,1.19437890625,-0.5709991455078125,-0.68780517578125,0.1782073974609375
1782858684325328000,1.204327880859375,-0.58721923828125,-0.6927947998046875,0.1845855712890625
1782858684335276800,1.21427685546875,-0.59649658203125,-0.70050048828125,0.187652587890625
1782858684345256000,1.224255859375,-0.6082763671875,-0.7035980224609375,0.1880950927734375
1782858684355204900,1.234204833984375,-0.623992919921875,-0.704345703125,0.185272216796875
1782858684365152800,1.24415283203125,-0.645965576171875,-0.7062225341796875,0.179229736328125
1782858684375133000,1.2541328125,-0.6674652099609375,-0.706787109375,0.174560546875
1782858684385080800,1.264080810546875,-0.6899871826171875,-0.7029876708984375,0.1771392822265625
1782858684395030000,1.274030029296875,-0.7192840576171875,-0.69830322265625,0.182373046875
1782858684404979000,1.28397900390625,-0.7413482666015625,-0.696624755859375,0.186767578125
1782858684414958000,1.2939580078125,-0.7681732177734375,-0.6932525634765625,0.1962432861328125
1782858684424907000,1.303906982421875,-0.7876434326171875,-0.688385009765625,0.2034454345703125
1782858684434855000,1.31385498046875,-0.7908782958984375,-0.6787872314453125,0.2112884521484375
1782858684444803800,1.323803955078125,-0.790618896484375,-0.675628662109375,0.22119140625
1782858684454783000,1.333782958984375,-0.785736083984375,-0.678619384765625,0.2364959716796875
1782858684464732000,1.34373193359375,-0.782623291015625,-0.683319091796875,0.2555694580078125
1782858684474680800,1.353680908203125,-0.788665771484375,-0.68670654296875,0.281158447265625
1782858684484629800,1.363629638671875,-0.799468994140625,-0.68487548828125,0.3126068115234375
1782858684494609000,1.37360888671875,-0.8065185546875,-0.6755523681640625,0.3420257568359375
1782858684504557800,1.383557861328125,-0.8189544677734375,-0.6703033447265625,0.366424560546875
1782858684514506000,1.393506103515625,-0.8457183837890625,-0.6667633056640625,0.3757171630859375
1782858684524455000,1.403454833984375,-0.873138427734375,-0.65673828125,0.3603973388671875
1782858684534433800,1.413433837890625,-0.89404296875,-0.648101806640625,0.3401641845703125
1782858684544382700,1.4233828125,-0.92724609375,-0.647369384765625,0.3285675048828125
1782858684554332000,1.433331787109375,-0.9669647216796875,-0.648590087890625,0.3152313232421875
1782858684564311000,1.44331103515625,-0.98797607421875,-0.641204833984375,0.3010406494140625
1782858684574260000,1.453260009765625,-0.98516845703125,-0.6153106689453125,0.287445068359375
1782858684584208100,1.4632080078125,-0.9912109375,-0.5777130126953125,0.2733612060546875
1782858684594157000,1.473156982421875,-1.0226898193359375,-0.5346527099609375,0.2566070556640625
1782858684604136000,1.483135986328125,-1.0072479248046875,-0.5199737548828125,0.2445526123046875
1782858684614084900,1.4930849609375,-0.9783172607421875,-0.5475006103515625,0.2328033447265625
1782858684624034000,1.503033935546875,-0.9893035888671875,-0.5764923095703125,0.2375946044921875
1782858684633983000,1.51298291015625,-0.9497528076171875,-0.5136566162109375,0.2664337158203125
1782858684643961900,1.5229619140625,-0.9201202392578125,-0.4448089599609375,0.28912353515625
1782858684653910800,1.532910888671875,-0.9647979736328125,-0.4033966064453125,0.3479766845703125
1782858684663859000,1.54285888671875,-1.03466796875,-0.400146484375,0.423248291015625
1782858684673808000,1.552807861328125,-1.0898284912109375,-0.426605224609375,0.4602813720703125
1782858684683786800,1.562786865234375,-1.141204833984375,-0.4575042724609375,0.3655242919921875
1782858684693736000,1.57273583984375,-1.14837646484375,-0.438812255859375,0.3294525146484375
1782858684703684900,1.582684814453125,-1.099884033203125,-0.367095947265625,0.34930419921875
1782858684713718800,1.59271875,-1.0919342041015625,-0.346343994140625,0.33026123046875
1782858684723668000,1.60266796875,-1.06793212890625,-0.36962890625,0.32623291015625
1782858684733615900,1.612615966796875,-1.1031341552734375,-0.3713836669921875,0.2845916748046875
1782858684743565000,1.62256494140625,-1.149658203125,-0.3691864013671875,0.23626708984375
1782858684753544000,1.6325439453125,-1.1627349853515625,-0.3914337158203125,0.1643829345703125
1782858684763493000,1.6424931640625,-1.1560211181640625,-0.431915283203125,0.10260009765625
1782858684773442000,1.652442138671875,-1.1163330078125,-0.446563720703125,0.115234375
1782858684783391000,1.662390869140625,-1.06988525390625,-0.42816162109375,0.1505584716796875
1782858684793370000,1.6723701171875,-1.041595458984375,-0.4006195068359375,0.1887359619140625
1782858684803319000,1.682319091796875,-1.0632781982421875,-0.3347015380859375,0.271484375
1782858684813267000,1.692266845703125,-0.980682373046875,-0.1201019287109375,0.6839447021484375
1782858684823215900,1.7022158203125,-0.97283935546875,-0.308135986328125,0.7753448486328125
1782858684833195000,1.712195068359375,-1.05816650390625,-0.435516357421875,0.3082275390625
1782858684843144000,1.72214404296875,-1.1676483154296875,-0.24273681640625,0.062744140625
1782858684853092900,1.7320927734375,-1.096954345703125,-0.292724609375,-0.0200958251953125
1782858684863041800,1.742041748046875,-1.0267486572265625,-0.3719024658203125,-0.0581817626953125
1782858684873021000,1.75202099609375,-0.984375,-0.3697662353515625,-0.0858612060546875
1782858684882969900,1.761969970703125,-0.909698486328125,-0.4039459228515625,-0.05242919921875
1782858684892917800,1.771917724609375,-0.884796142578125,-0.472686767578125,-0.0218505859375
1782858684902897000,1.78189697265625,-0.8805389404296875,-0.51751708984375,-0.0119476318359375
1782858684912845800,1.791845703125,-0.82550048828125,-0.552825927734375,0.0231170654296875
1782858684922795000,1.801794921875,-0.7808685302734375,-0.5771026611328125,0.092498779296875
1782858684932744000,1.811743896484375,-0.7696380615234375,-0.597900390625,0.105010986328125
1782858684942723000,1.82172314453125,-0.645416259765625,-0.632598876953125,0.0601654052734375
1782858684952672000,1.831672119140625,-0.5408935546875,-0.6710052490234375,-0.0079345703125
1782858684962620000,1.841619873046875,-0.4765777587890625,-0.6753997802734375,-0.089202880859375
1782858684972569000,1.851569091796875,-0.42578125,-0.6639404296875,-0.1340484619140625
1782858684982548000,1.8615478515625,-0.4138031005859375,-0.666839599609375,-0.1191864013671875
1782858684992497000,1.871496826171875,-0.400482177734375,-0.69183349609375,-0.069305419921875
1782858685002445800,1.88144580078125,-0.38653564453125,-0.7249755859375,0.002899169921875
1782858685012395000,1.89139501953125,-0.3696746826171875,-0.7369537353515625,0.0970306396484375
1782858685022374000,1.901373779296875,-0.3473663330078125,-0.740203857421875,0.1778717041015625
1782858685032322800,1.91132275390625,-0.2928619384765625,-0.749847412109375,0.1113433837890625
1782858685042271000,1.92127099609375,-0.2146453857421875,-0.764434814453125,-0.01141357421875
1782858685052251000,1.9312509765625,-0.084259033203125,-0.810577392578125,-0.0362396240234375
1782858685062198800,1.94119873046875,0.02691650390625,-0.867340087890625,0.008270263671875
1782858685072148000,1.95114794921875,0.0627593994140625,-0.935394287109375,0.12451171875
1782858685082097200,1.96109716796875,0.055694580078125,-0.9945220947265625,0.22027587890625
1782858685092076000,1.971075927734375,-0.0348052978515625,-0.9850921630859375,0.2585296630859375
1782858685102025000,1.98102490234375,-0.1184234619140625,-0.926910400390625,0.3233489990234375
1782858685111973000,1.99097314453125,-0.12127685546875,-0.885406494140625,0.3855438232421875
1782858685121922000,2.000922119140625,-0.068939208984375,-0.8843231201171875,0.3996734619140625
1782858685131901000,2.01090087890625,-0.0015716552734375,-0.9020538330078125,0.3775482177734375
1782858685141850000,2.02085009765625,0.0395355224609375,-0.923187255859375,0.3499908447265625
1782858685151799000,2.030799072265625,0.0496673583984375,-0.9067535400390625,0.3426513671875
1782858685161748000,2.040748046875,0.029541015625,-0.8711090087890625,0.3788909912109375
1782858685171726800,2.050726806640625,0.004241943359375,-0.852630615234375,0.442901611328125
1782858685181676000,2.060676025390625,-0.00531005859375,-0.8422393798828125,0.4776611328125
1782858685191624000,2.0706240234375,-0.014312744140625,-0.82763671875,0.490692138671875
1782858685201572900,2.08057275390625,-0.013824462890625,-0.8219757080078125,0.5042724609375
1782858685211552000,2.090552001953125,-0.0011444091796875,-0.8180084228515625,0.5127716064453125
1782858685221501000,2.1005009765625,0.0097198486328125,-0.8202667236328125,0.5024261474609375
1782858685231450000,2.1104501953125,0.0379486083984375,-0.8311004638671875,0.4789581298828125
1782858685241428700,2.1204287109375,0.0765838623046875,-0.8336029052734375,0.475067138671875
1782858685251378200,2.130378173828125,0.0560150146484375,-0.818145751953125,0.502349853515625
1782858685261326000,2.140326171875,0.014068603515625,-0.8083953857421875,0.546051025390625
1782858685271275000,2.15027490234375,-0.0115203857421875,-0.8190460205078125,0.60321044921875
1782858685281254100,2.160254150390625,-0.04132080078125,-0.8412933349609375,0.6701812744140625
1782858685291203000,2.170203125,-0.070098876953125,-0.866790771484375,0.7366180419921875
1782858685301152000,2.180152099609375,-0.0664215087890625,-0.8881988525390625,0.7821502685546875
1782858685311101000,2.190100830078125,-0.016082763671875,-0.9145965576171875,0.8061065673828125
1782858685321080000,2.200080078125,0.056243896484375,-0.9344635009765625,0.85760498046875
1782858685331029000,2.210029052734375,0.0960693359375,-0.936248779296875,0.91998291015625
1782858685340977000,2.219976806640625,0.111541748046875,-0.911712646484375,0.9573211669921875
1782858685350925800,2.22992578125,0.138519287109375,-0.8565521240234375,0.945281982421875
1782858685360905000,2.239905029296875,0.1703643798828125,-0.7924041748046875,0.8854522705078125
1782858685370854000,2.24985400390625,0.197784423828125,-0.7281646728515625,0.822662353515625
1782858685380802800,2.259802734375,0.208465576171875,-0.6692352294921875,0.7768707275390625
1782858685390782000,2.269781982421875,0.202392578125,-0.629241943359375,0.7559661865234375
1782858685400731000,2.27973095703125,0.1926422119140625,-0.626129150390625,0.75213623046875
1782858685410678800,2.2896787109375,0.1851806640625,-0.62591552734375,0.748260498046875
1782858685420628000,2.2996279296875,0.17779541015625,-0.61065673828125,0.7357330322265625
1782858685430607000,2.309607177734375,0.177154541015625,-0.5778656005859375,0.7198638916015625
1782858685440556000,2.31955615234375,0.164947509765625,-0.534454345703125,0.71441650390625
1782858685450505000,2.3295048828125,0.152130126953125,-0.4936676025390625,0.70574951171875
1782858685460454000,2.339453857421875,0.1489715576171875,-0.4685821533203125,0.692901611328125
1782858685470433000,2.34943310546875,0.1489715576171875,-0.4571380615234375,0.686492919921875
1782858685480382000,2.3593818359375,0.12847900390625,-0.448211669921875,0.6882171630859375
1782858685490329900,2.369329833984375,0.099456787109375,-0.4507293701171875,0.6918182373046875
1782858685500279000,2.379279052734375,0.0938873291015625,-0.462158203125,0.6849365234375
1782858685510258000,2.3892578125,0.0921630859375,-0.457977294921875,0.669677734375
1782858685520206800,2.399206787109375,0.0676116943359375,-0.454437255859375,0.670135498046875
1782858685530155800,2.40915576171875,0.050384521484375,-0.45684814453125,0.67816162109375
1782858685540105000,2.41910498046875,0.0357513427734375,-0.45758056640625,0.6811981201171875
1782858685550083800,2.429083740234375,0.01654052734375,-0.4643096923828125,0.6984405517578125
1782858685560033000,2.439032958984375,-0.0069580078125,-0.472747802734375,0.7210540771484375
1782858685569981000,2.44898095703125,-0.038116455078125,-0.479248046875,0.7425384521484375
1782858685579959800,2.458959716796875,-0.0699310302734375,-0.4848175048828125,0.758087158203125
1782858685589909000,2.468908935546875,-0.099761962890625,-0.48834228515625,0.777313232421875
1782858685599858000,2.47885791015625,-0.115570068359375,-0.494598388671875,0.7953643798828125
1782858685609807000,2.48880712890625,-0.1066741943359375,-0.5047760009765625,0.8095855712890625
1782858685619786000,2.498785888671875,-0.0808868408203125,-0.5097503662109375,0.8133392333984375
1782858685629735000,2.50873486328125,-0.0453338623046875,-0.5008697509765625,0.8121795654296875
1782858685639683000,2.51868310546875,-0.017181396484375,-0.488311767578125,0.8154296875
1782858685649632000,2.528632080078125,-0.00238037109375,-0.46875,0.8264923095703125
1782858685659611000,2.53861083984375,0.004974365234375,-0.45050048828125,0.8423004150390625
1782858685669560000,2.54856005859375,0.00665283203125,-0.443695068359375,0.8538970947265625
1782858685679509000,2.558509033203125,0.00518798828125,-0.4472198486328125,0.86553955078125
1782858685689458000,2.5684580078125,0.00018310546875,-0.449127197265625,0.8710479736328125
1782858685699436800,2.578436767578125,-0.021453857421875,-0.446533203125,0.875
1782858685709386000,2.588385986328125,-0.05072021484375,-0.4504547119140625,0.87890625
1782858685719360300,2.5983603515625,-0.060943603515625,-0.464935302734375,0.877716064453125
1782858685729340400,2.60834033203125,-0.0583038330078125,-0.477813720703125,0.8650360107421875
1782858685739288300,2.618288330078125,-0.044952392578125,-0.488525390625,0.850128173828125
1782858685749237200,2.6282373046875,-0.0417022705078125,-0.49212646484375,0.8516082763671875
1782858685759186200,2.638186279296875,-0.0488128662109375,-0.4897918701171875,0.86309814453125
1782858685769165300,2.648165283203125,-0.040283203125,-0.4851837158203125,0.868560791015625
1782858685779114200,2.6581142578125,-0.0268402099609375,-0.47894287109375,0.866302490234375
1782858685789062100,2.668062255859375,-0.024688720703125,-0.45538330078125,0.8803863525390625
1782858685799011300,2.67801123046875,-0.0309295654296875,-0.4481201171875,0.8995513916015625
1782858685808990200,2.687990234375,-0.0274200439453125,-0.4536895751953125,0.8928375244140625
1782858685818939100,2.697939208984375,-0.0183563232421875,-0.454345703125,0.8759918212890625
1782858685828888300,2.707888427734375,-0.0092010498046875,-0.4643707275390625,0.8643035888671875
1782858685838837500,2.71783740234375,0.0011444091796875,-0.4776153564453125,0.8416748046875
1782858685848816400,2.72781640625,0.0111541748046875,-0.479705810546875,0.8174896240234375
1782858685858765300,2.737765380859375,0.0231781005859375,-0.4827117919921875,0.80975341796875
1782858685868713500,2.74771337890625,0.0314483642578125,-0.4945068359375,0.8199310302734375
1782858685878693400,2.757693359375,0.0440826416015625,-0.4941864013671875,0.827056884765625
1782858685888641300,2.767641357421875,0.0469818115234375,-0.4899749755859375,0.8218994140625
1782858685898590200,2.777590087890625,0.0424957275390625,-0.4963226318359375,0.8236846923828125
1782858685908539400,2.787539306640625,0.0557861328125,-0.505279541015625,0.8413848876953125
1782858685918518300,2.797518310546875,0.0587921142578125,-0.4684906005859375,0.9492034912109375
1782858685928467200,2.80746728515625,0.002777099609375,-0.46197509765625,0.901275634765625
1782858685938415400,2.817415283203125,0.06488037109375,-0.4487762451171875,0.90594482421875
1782858685948364300,2.8273642578125,0.046142578125,-0.428466796875,0.860931396484375
1782858685958343200,2.83734326171875,0.0544586181640625,-0.412750244140625,0.86572265625
1782858685968292400,2.847292236328125,0.082305908203125,-0.423065185546875,0.8745574951171875
1782858685978241300,2.8572412109375,0.080352783203125,-0.4388580322265625,0.8674163818359375
1782858685988190500,2.8671904296875,0.080718994140625,-0.4421844482421875,0.8608245849609375
1782858685998169000,2.877169189453125,0.07696533203125,-0.4452667236328125,0.8522186279296875
1782858686008118300,2.8871181640625,0.0636444091796875,-0.4590301513671875,0.8438568115234375
1782858686018066400,2.89706640625,0.0515594482421875,-0.4745635986328125,0.8442840576171875
1782858686028046300,2.90704638671875,0.0482635498046875,-0.486358642578125,0.8360443115234375
1782858686037994500,2.916994384765625,0.0408935546875,-0.5023040771484375,0.82403564453125
1782858686047943400,2.926943359375,0.0316619873046875,-0.522369384765625,0.822113037109375
1782858686057892400,2.936892333984375,0.02838134765625,-0.5401153564453125,0.8223724365234375
1782858686067871200,2.946871337890625,0.0311126708984375,-0.556884765625,0.821533203125
1782858686077820400,2.9568203125,0.0280303955078125,-0.565185546875,0.81427001953125
1782858686087768300,2.966768310546875,0.0100860595703125,-0.5626678466796875,0.8088531494140625
1782858686097717200,2.97671728515625,-0.0008544921875,-0.5423431396484375,0.804046630859375
1782858686107696400,2.9866962890625,-0.032623291015625,-0.394927978515625,0.8081512451171875
1782858686117645300,2.996645263671875,-0.076446533203125,-0.5089263916015625,0.797760009765625
1782858686127594200,3.00659423828125,-0.0043182373046875,-0.59912109375,0.8196258544921875
1782858686137543200,3.016543212890625,0.0221710205078125,-0.611663818359375,0.8363189697265625
1782858686147522300,3.026522216796875,0.0124969482421875,-0.72686767578125,0.8522491455078125
1782858686157471500,3.036471435546875,0.01824951171875,-0.800811767578125,0.9102325439453125
1782858686167419100,3.046419189453125,-0.0018768310546875,-0.813934326171875,0.94671630859375
1782858686177399300,3.0563994140625,-0.0408935546875,-0.827545166015625,0.9519195556640625
1782858686187347500,3.066347412109375,-0.08111572265625,-0.8536834716796875,0.9576873779296875
1782858686197296400,3.07629638671875,-0.0910186767578125,-0.867828369140625,0.9423980712890625
1782858686207245300,3.086245361328125,-0.08843994140625,-0.8676300048828125,0.8836517333984375
1782858686217224400,3.096224365234375,-0.0708160400390625,-0.8788909912109375,0.8034210205078125
1782858686227173400,3.10617333984375,-0.08447265625,-0.6065826416015625,0.749481201171875
1782858686237121300,3.116121337890625,-0.18463134765625,-0.6741180419921875,0.660064697265625
1782858686247070200,3.1260703125,-0.129302978515625,-0.829559326171875,0.6317596435546875
1782858686257049300,3.13604931640625,-0.0706329345703125,-0.8128662109375,0.6193695068359375
1782858686266998300,3.145998291015625,-0.094085693359375,-0.8264923095703125,0.5678558349609375
1782858686276947200,3.155947265625,-0.1245880126953125,-0.8236236572265625,0.5436859130859375
1782858686286896000,3.165896240234375,-0.1461639404296875,-0.8175048828125,0.53564453125
1782858686296875300,3.175875244140625,-0.15374755859375,-0.810943603515625,0.528961181640625
1782858686306824200,3.18582421875,-0.1448211669921875,-0.8073272705078125,0.536163330078125
1782858686316772000,3.195772216796875,-0.142852783203125,-0.8082122802734375,0.546722412109375
1782858686326721300,3.20572119140625,-0.149017333984375,-0.8103179931640625,0.5431060791015625
1782858686336700200,3.2157001953125,-0.1511688232421875,-0.81573486328125,0.531219482421875
1782858686346649300,3.2256494140625,-0.1386566162109375,-0.82568359375,0.520782470703125
1782858686356598300,3.235598388671875,-0.122039794921875,-0.835540771484375,0.5164337158203125
1782858686366577400,3.245577392578125,-0.1144866943359375,-0.83831787109375,0.5154266357421875
1782858686376526300,3.2555263671875,-0.112640380859375,-0.83099365234375,0.513702392578125
1782858686386475300,3.265475341796875,-0.1148834228515625,-0.8271484375,0.5102691650390625
1782858686396423400,3.27542333984375,-0.12188720703125,-0.8339691162109375,0.50787353515625
1782858686406402300,3.28540234375,-0.130401611328125,-0.8461761474609375,0.508087158203125
1782858686416351200,3.295351318359375,-0.13134765625,-0.8604888916015625,0.5022125244140625
1782858686426300200,3.305300048828125,-0.134429931640625,-0.8708953857421875,0.4900665283203125
1782858686436249300,3.315249267578125,-0.14141845703125,-0.875091552734375,0.478424072265625
1782858686446228200,3.325228271484375,-0.1504364013671875,-0.87579345703125,0.47576904296875
1782858686456177200,3.33517724609375,-0.16473388671875,-0.8812713623046875,0.468414306640625
1782858686466125300,3.345125244140625,-0.1560516357421875,-0.8827667236328125,0.463409423828125
1782858686476074200,3.35507421875,-0.136932373046875,-0.8756103515625,0.466156005859375
1782858686486053000,3.36505322265625,-0.1148834228515625,-0.8714752197265625,0.4948577880859375
1782858686496002300,3.375002197265625,-0.076171875,-0.8687744140625,0.5293426513671875
1782858686505951500,3.384951416015625,-0.05108642578125,-0.8773956298828125,0.5330047607421875
1782858686515930400,3.394930419921875,-0.0249786376953125,-0.876800537109375,0.522857666015625
1782858686525879300,3.40487939453125,-0.002716064453125,-0.857391357421875,0.4987640380859375
1782858686535828200,3.414828125,0.008148193359375,-0.88702392578125,0.4628753662109375
1782858686545776400,3.4247763671875,-0.0107421875,-0.823760986328125,0.4436492919921875
1782858686555756300,3.43475634765625,-0.1061859130859375,-0.8040924072265625,0.4614105224609375
1782858686565704400,3.444704345703125,-0.17535400390625,-0.7878570556640625,0.5414276123046875
1782858686575653400,3.4546533203125,-0.1748809814453125,-0.766021728515625,0.628997802734375
1782858686585602300,3.464602294921875,-0.15087890625,-0.7586212158203125,0.6669921875
1782858686595581200,3.474581298828125,-0.116973876953125,-0.748779296875,0.6728363037109375
1782858686605530400,3.4845302734375,-0.103729248046875,-0.7783050537109375,0.6446990966796875
1782858686615478300,3.494478271484375,-0.1083831787109375,-0.8043060302734375,0.6259918212890625
1782858686625427200,3.50442724609375,-0.125030517578125,-0.8229827880859375,0.6199493408203125
1782858686635406300,3.51440625,-0.1383056640625,-0.8461151123046875,0.6155853271484375
1782858686645355300,3.524355224609375,-0.1617279052734375,-0.8562164306640625,0.632354736328125
1782858686655304200,3.53430419921875,-0.1592559814453125,-0.863861083984375,0.6288909912109375
1782858686665283300,3.544283447265625,-0.165863037109375,-0.862823486328125,0.614105224609375
1782858686675232500,3.554232421875,-0.18035888671875,-0.7931060791015625,0.607391357421875
1782858686685181400,3.564181396484375,-0.2019500732421875,-0.7818145751953125,0.5871734619140625
1782858686695129300,3.57412939453125,-0.185791015625,-0.79986572265625,0.5760650634765625
1782858686705109200,3.584109130859375,-0.1505126953125,-0.8026275634765625,0.564117431640625
1782858686715116500,3.594116455078125,-0.140045166015625,-0.7983551025390625,0.5420379638671875
1782858686725065500,3.6040654296875,-0.14947509765625,-0.78607177734375,0.5337982177734375
1782858686735014400,3.614014404296875,-0.1484375,-0.7779541015625,0.5305938720703125
1782858686744993500,3.62399365234375,-0.1300811767578125,-0.7738189697265625,0.5267181396484375
1782858686754942700,3.633942626953125,-0.100921630859375,-0.771636962890625,0.5254669189453125
1782858686764890400,3.643890380859375,-0.08453369140625,-0.7703399658203125,0.5332183837890625
1782858686774839600,3.653839599609375,-0.0792694091796875,-0.767913818359375,0.54364013671875
1782858686784818700,3.663818603515625,-0.07421875,-0.7624053955078125,0.548980712890625
1782858686794767600,3.673767578125,-0.06488037109375,-0.75732421875,0.548248291015625
1782858686804716500,3.683716552734375,-0.055633544921875,-0.7582855224609375,0.5519561767578125
1782858686814695700,3.69369580078125,-0.0466156005859375,-0.767791748046875,0.5634613037109375
1782858686824644600,3.70364453125,-0.035675048828125,-0.7768096923828125,0.5753021240234375
1782858686834593500,3.713593505859375,-0.0278472900390625,-0.785308837890625,0.5888214111328125
1782858686844541400,3.72354150390625,-0.0276641845703125,-0.7923126220703125,0.604095458984375
1782858686854521600,3.733521484375,-0.0372467041015625,-0.79339599609375,0.612274169921875
1782858686864469500,3.743469482421875,-0.0549163818359375,-0.788330078125,0.6113128662109375
1782858686874418400,3.75341845703125,-0.0683135986328125,-0.788299560546875,0.61346435546875
1782858686884367400,3.763367431640625,-0.0748748779296875,-0.79510498046875,0.619781494140625
1782858686894346500,3.773346435546875,-0.0819244384765625,-0.80279541015625,0.6227874755859375
1782858686904295400,3.78329541015625,-0.08636474609375,-0.8028106689453125,0.616912841796875
1782858686914243600,3.79324365234375,-0.0852203369140625,-0.803375244140625,0.6146240234375
1782858686924192800,3.80319287109375,-0.0799560546875,-0.8074188232421875,0.6239013671875
1782858686934171400,3.81317138671875,-0.0686187744140625,-0.806793212890625,0.628814697265625
1782858686944120600,3.82312060546875,-0.0615386962890625,-0.799713134765625,0.6225128173828125
1782858686954069500,3.833069580078125,-0.0659027099609375,-0.7904510498046875,0.623779296875
1782858686964048600,3.843048583984375,-0.065338134765625,-0.7830963134765625,0.63330078125
1782858686973997600,3.85299755859375,-0.0557861328125,-0.778076171875,0.6332244873046875
1782858686983946500,3.862946533203125,-0.0453643798828125,-0.778900146484375,0.63409423828125
1782858686993894700,3.872894775390625,-0.0363311767578125,-0.78253173828125,0.643463134765625
1782858687003874600,3.88287451171875,-0.02923583984375,-0.7842864990234375,0.6584014892578125
1782858687013822500,3.892822509765625,-0.0220947265625,-0.782745361328125,0.674468994140625
1782858687023771600,3.902771728515625,-0.015289306640625,-0.78167724609375,0.6811370849609375
1782858687033720600,3.912720458984375,0.00164794921875,-0.8170928955078125,0.69134521484375
1782858687043699500,3.922699462890625,0.0797882080078125,-0.8606414794921875,0.704742431640625
1782858687053648400,3.9326484375,0.12469482421875,-0.931793212890625,0.669189453125
1782858687063597600,3.94259765625,0.0870819091796875,-0.9354095458984375,0.7409210205078125
1782858687073545500,3.95254541015625,0.0435028076171875,-0.9445037841796875,0.8010711669921875
1782858687083524400,3.9625244140625,0.009124755859375,-0.9291534423828125,0.8477325439453125
1782858687093473500,3.9724736328125,-0.01336669921875,-0.8881988525390625,0.8660736083984375
1782858687103422700,3.982422607421875,-0.01031494140625,-0.8630828857421875,0.8603668212890625
1782858687113401600,3.992401611328125,0.0263824462890625,-0.8481292724609375,0.859466552734375
1782858687123350500,4.0023505859375,0.06390380859375,-0.8321075439453125,0.8691864013671875
1782858687133299700,4.0122998046875,0.096923828125,-0.8018951416015625,0.8840484619140625
1782858687143247600,4.02224755859375,0.1278076171875,-0.761016845703125,0.891693115234375
1782858687153227500,4.0322275390625,0.1627197265625,-0.71746826171875,0.8827362060546875
1782858687163175700,4.04217578125,0.193572998046875,-0.6769866943359375,0.8633575439453125
1782858687173124600,4.05212451171875,0.21875,-0.6390380859375,0.82757568359375
1782858687183073500,4.062073486328125,0.2343902587890625,-0.6057281494140625,0.7857208251953125
1782858687193052400,4.072052490234375,0.2380523681640625,-0.5865631103515625,0.74591064453125
1782858687203001600,4.082001708984375,0.23828125,-0.5652923583984375,0.70123291015625
1782858687212950500,4.091950439453125,0.231842041015625,-0.5499420166015625,0.669586181640625
1782858687222898400,4.1018984375,0.2217559814453125,-0.5372314453125,0.639923095703125
1782858687232878300,4.11187841796875,0.2181243896484375,-0.52838134765625,0.6087188720703125
1782858687242826500,4.121826416015625,0.2121429443359375,-0.514984130859375,0.5825042724609375
1782858687252775700,4.131775634765625,0.189849853515625,-0.5058135986328125,0.564605712890625
1782858687262754600,4.141754638671875,0.1637420654296875,-0.503326416015625,0.556396484375
1782858687272703700,4.151703857421875,0.148162841796875,-0.501190185546875,0.551300048828125
1782858687282652700,4.161652587890625,0.146270751953125,-0.50164794921875,0.548583984375
1782858687292600600,4.1716005859375,0.156494140625,-0.5030670166015625,0.557769775390625
1782858687302580500,4.18158056640625,0.157257080078125,-0.5090179443359375,0.5833587646484375
1782858687312528600,4.191528564453125,0.1562042236328125,-0.511810302734375,0.6031341552734375
1782858687322477600,4.2014775390625,0.1566314697265625,-0.5146484375,0.614166259765625
1782858687332426500,4.211426513671875,0.160369873046875,-0.517974853515625,0.6188507080078125
1782858687342405600,4.221405517578125,0.16351318359375,-0.525146484375,0.623870849609375
1782858687352354600,4.2313544921875,0.1668243408203125,-0.5357666015625,0.633819580078125
1782858687362303500,4.241303466796875,0.170379638671875,-0.5467987060546875,0.641754150390625
1782858687372251400,4.25125146484375,0.1784210205078125,-0.5580291748046875,0.6395111083984375
1782858687382231600,4.2612314453125,0.181121826171875,-0.5605926513671875,0.630096435546875
1782858687392179500,4.271179443359375,0.17010498046875,-0.569549560546875,0.6265869140625
1782858687402128400,4.28112841796875,0.1459503173828125,-0.5837554931640625,0.625732421875
1782858687412107500,4.291107421875,0.124603271484375,-0.5924224853515625,0.6101226806640625
1782858687422056400,4.301056396484375,0.111175537109375,-0.5995941162109375,0.58636474609375
1782858687432005600,4.311005615234375,0.0935211181640625,-0.6123199462890625,0.5676727294921875
1782858687441953500,4.32095361328125,0.075286865234375,-0.6227264404296875,0.5528717041015625
1782858687451933700,4.33093359375,0.0540618896484375,-0.6230926513671875,0.5437164306640625
1782858687461881600,4.340881591796875,0.035369873046875,-0.630950927734375,0.546539306640625
1782858687471830500,4.35083056640625,0.015472412109375,-0.6023712158203125,0.552276611328125
1782858687481779500,4.360779541015625,-0.0522613525390625,-0.543701171875,0.544891357421875
1782858687491758600,4.370758544921875,-0.1623992919921875,-0.5499267578125,0.5062255859375
1782858687501707500,4.38070751953125,-0.1800537109375,-0.547454833984375,0.439422607421875
1782858687511656400,4.390656494140625,-0.011383056640625,-0.4238128662109375,0.4213714599609375
1782858687521635600,4.400635498046875,0.25067138671875,-0.397857666015625,0.3920440673828125
1782858687531584500,4.41058447265625,0.1482696533203125,-0.5766754150390625,0.2737274169921875
1782858687541532400,4.420532470703125,0.3014373779296875,-0.5068359375,0.363372802734375
1782858687551481600,4.430481689453125,0.386138916015625,-0.5765533447265625,0.419158935546875
1782858687561460500,4.44046044921875,0.455718994140625,-0.64617919921875,0.3678741455078125
1782858687571409400,4.450409423828125,0.4916229248046875,-0.6901092529296875,0.3201141357421875
1782858687581358300,4.4603583984375,0.5058441162109375,-0.739105224609375,0.31903076171875
1782858687591306500,4.470306396484375,0.506622314453125,-0.77886962890625,0.33111572265625
1782858687601286700,4.48028662109375,0.4752197265625,-0.7615203857421875,0.2930450439453125
1782858687611234600,4.490234619140625,0.45758056640625,-0.7380828857421875,0.1835479736328125
1782858687621183700,4.500183837890625,0.4942779541015625,-0.7433929443359375,0.0640411376953125
1782858687631132700,4.510132568359375,0.52117919921875,-0.7463226318359375,-0.02130126953125
1782858687641111600,4.520111572265625,0.4979705810546875,-0.732879638671875,-0.0823974609375
1782858687651060500,4.530060546875,0.4424896240234375,-0.7191925048828125,-0.1282501220703125
1782858687661009700,4.540009765625,0.369537353515625,-0.7431488037109375,-0.185333251953125
1782858687670988500,4.549988525390625,0.335418701171875,-0.78515625,-0.262176513671875
1782858687680937500,4.5599375,0.3099822998046875,-0.804473876953125,-0.3211669921875
1782858687690885600,4.5698857421875,0.2336578369140625,-0.8133392333984375,-0.3737030029296875
1782858687700834600,4.57983447265625,0.1058807373046875,-0.863616943359375,-0.4048614501953125
1782858687710813400,4.5898134765625,0.0244140625,-0.9754486083984375,-0.390350341796875
1782858687720790300,4.599790283203125,0.0525970458984375,-0.9508056640625,-0.4593505859375
1782858687730739200,4.6097392578125,-0.107574462890625,-0.8447265625,-0.4992218017578125
1782858687740687000,4.61968701171875,-0.2812957763671875,-0.71612548828125,-0.542510986328125
1782858687750667000,4.6296669921875,-0.387603759765625,-0.6342010498046875,-0.587799072265625
1782858687760615200,4.639615234375,-0.490020751953125,-0.577239990234375,-0.6014404296875
1782858687770564000,4.649564208984375,-0.6206207275390625,-0.538055419921875,-0.6114501953125
1782858687780513000,4.659512939453125,-0.7422027587890625,-0.509246826171875,-0.6410675048828125
1782858687790492200,4.6694921875,-0.84552001953125,-0.5069732666015625,-0.6485595703125
1782858687800441000,4.679441162109375,-0.9197540283203125,-0.5542144775390625,-0.6891937255859375
1782858687810390000,4.68939013671875,-1.01666259765625,-0.5062103271484375,-0.72686767578125
1782858687820369000,4.699368896484375,-1.11102294921875,-0.447174072265625,-0.730712890625
1782858687830318000,4.709318115234375,-1.1995849609375,-0.383270263671875,-0.7106170654296875
1782858687840266000,4.719265869140625,-1.2882232666015625,-0.3067169189453125,-0.6902618408203125
1782858687850215200,4.729215087890625,-1.3034515380859375,-0.25634765625,-0.66741943359375
1782858687860194300,4.7391943359375,-1.2920989990234375,-0.2519378662109375,-0.606475830078125
1782858687870143200,4.749143310546875,-1.29693603515625,-0.2443389892578125,-0.5211029052734375
1782858687880092200,4.759092041015625,-1.2968902587890625,-0.2283477783203125,-0.4255828857421875
1782858687890041000,4.769041015625,-1.255279541015625,-0.219482421875,-0.3359375
1782858687900020200,4.779020263671875,-1.1956329345703125,-0.1953125,-0.304962158203125
1782858687909969200,4.78896923828125,-1.14776611328125,-0.1635589599609375,-0.375213623046875
1782858687919917000,4.7989169921875,-1.09234619140625,-0.173736572265625,-0.483001708984375
1782858687929866000,4.808865966796875,-1.0786895751953125,-0.227081298828125,-0.519287109375
1782858687939845000,4.81884521484375,-1.0497589111328125,-0.2758941650390625,-0.4158935546875
1782858687949794000,4.8287939453125,-1.046630859375,-0.3013153076171875,-0.2074432373046875
1782858687959743000,4.838742919921875,-1.0501861572265625,-0.402496337890625,-0.0928192138671875
1782858687969722000,4.84872216796875,-1.0186767578125,-0.4772796630859375,-0.0872802734375
1782858687979671000,4.858671142578125,-0.98248291015625,-0.3703765869140625,-0.078582763671875
1782858687989619000,4.868618896484375,-0.94879150390625,-0.2549285888671875,-0.0558319091796875
1782858687999568000,4.87856787109375,-0.91888427734375,-0.1959228515625,-0.1377716064453125
1782858688009547000,4.888547119140625,-0.846893310546875,-0.1728973388671875,-0.2444610595703125
1782858688019496200,4.89849609375,-0.77374267578125,-0.171051025390625,-0.2793426513671875
1782858688029445000,4.908445068359375,-0.7883148193359375,-0.223968505859375,-0.297454833984375
1782858688039394000,4.91839404296875,-1.06817626953125,-0.4117279052734375,-0.36309814453125
1782858688049373200,4.928373291015625,-1.429351806640625,-0.614044189453125,-0.3702850341796875
1782858688059322000,4.938322021484375,-1.154632568359375,-0.470916748046875,-0.1072235107421875
1782858688069270000,4.94827001953125,-0.873016357421875,-0.272735595703125,0.0257110595703125
1782858688079219200,4.95821923828125,-0.845916748046875,-0.2230377197265625,-0.0118255615234375
1782858688089198000,4.968197998046875,-0.930267333984375,-0.239013671875,-0.0343170166015625
1782858688099147000,4.97814697265625,-1.03497314453125,-0.28314208984375,-0.0546875
1782858688109096000,4.988095947265625,-1.076416015625,-0.3291015625,-0.0942535400390625
1782858688119075000,4.998074951171875,-1.047454833984375,-0.3762054443359375,-0.1403350830078125
1782858688129024000,5.00802392578125,-1.02874755859375,-0.4151611328125,-0.1778717041015625
1782858688138972200,5.01797216796875,-1.0237579345703125,-0.362884521484375,-0.11370849609375
1782858688148921000,5.027921142578125,-1.2149200439453125,-0.232269287109375,0.064910888671875
1782858688158900000,5.03789990234375,-1.3514404296875,-0.208587646484375,0.1417388916015625
1782858688168849000,5.047848876953125,-1.1114044189453125,-0.246124267578125,0.0930023193359375
1782858688178798000,5.057798095703125,-0.9525604248046875,-0.24273681640625,0.105010986328125
1782858688188747300,5.067747314453125,-1.000152587890625,-0.213470458984375,0.1106719970703125
1782858688198726100,5.07772607421875,-1.0653533935546875,-0.200439453125,0.0956878662109375
1782858688208675000,5.087675048828125,-1.063140869140625,-0.1948394775390625,0.1005096435546875
1782858688218623200,5.097623291015625,-1.0257720947265625,-0.1859130859375,0.112457275390625
1782858688228572200,5.107572265625,-0.9936981201171875,-0.1803741455078125,0.1341552734375
1782858688238551000,5.117551025390625,-0.990142822265625,-0.19610595703125,0.1850738525390625
1782858688248500200,5.127500244140625,-0.9731597900390625,-0.230865478515625,0.2083740234375
1782858688258449200,5.13744921875,-0.9420166015625,-0.2468109130859375,0.2082061767578125
1782858688268428000,5.147427978515625,-0.9366912841796875,-0.2459716796875,0.1964263916015625
1782858688278377000,5.157376953125,-0.9297027587890625,-0.2436065673828125,0.1656341552734375
1782858688288325000,5.1673251953125,-0.9106903076171875,-0.2429351806640625,0.13177490234375
1782858688298274000,5.177274169921875,-0.89599609375,-0.2459259033203125,0.107025146484375
1782858688308253000,5.1872529296875,-0.8934326171875,-0.2576141357421875,0.0840606689453125
1782858688318202000,5.1972021484375,-0.89324951171875,-0.2663726806640625,0.077117919921875
1782858688328151000,5.207151123046875,-0.8777008056640625,-0.2677001953125,0.088134765625
1782858688338100200,5.217100341796875,-0.85382080078125,-0.2708282470703125,0.1068115234375
1782858688348079000,5.2270791015625,-0.8328094482421875,-0.28125,0.1325836181640625
1782858688358028300,5.2370283203125,-0.8202667236328125,-0.299041748046875,0.1607513427734375
1782858688367976200,5.24697607421875,-0.8177490234375,-0.3271331787109375,0.1853485107421875
1782858688377925000,5.256925048828125,-0.832794189453125,-0.3585662841796875,0.197906494140625
1782858688387904300,5.266904296875,-0.8507843017578125,-0.3798370361328125,0.195098876953125
1782858688397853200,5.276853271484375,-0.8575897216796875,-0.3855743408203125,0.172393798828125
1782858688407802000,5.286802001953125,-0.8617401123046875,-0.366119384765625,0.1446380615234375
1782858688417781000,5.296781005859375,-0.8692474365234375,-0.3460540771484375,0.123260498046875
1782858688427730200,5.306730224609375,-0.875335693359375,-0.3395233154296875,0.1098480224609375
1782858688437678000,5.316677978515625,-0.8705596923828125,-0.3402099609375,0.110595703125
1782858688447627000,5.326626953125,-0.872955322265625,-0.3512115478515625,0.119659423828125
1782858688457606100,5.336606201171875,-0.88037109375,-0.36614990234375,0.13006591796875
1782858688467555000,5.34655517578125,-0.8837738037109375,-0.3812255859375,0.1337890625
1782858688477504000,5.35650390625,-0.8915863037109375,-0.3957061767578125,0.13580322265625
1782858688487453000,5.366452880859375,-0.9008026123046875,-0.40325927734375,0.132843017578125
1782858688497432000,5.37643212890625,-0.9024505615234375,-0.4038543701171875,0.124481201171875
1782858688507381200,5.38638134765625,-0.9110107421875,-0.399749755859375,0.1165771484375
1782858688517329000,5.396328857421875,-0.9215240478515625,-0.3989715576171875,0.103240966796875
1782858688527309000,5.40630908203125,-0.9255523681640625,-0.3993682861328125,0.0924224853515625
1782858688537257200,5.41625732421875,-0.928863525390625,-0.391265869140625,0.0925140380859375
1782858688547206100,5.4262060546875,-0.938720703125,-0.3857269287109375,0.090850830078125
1782858688557155000,5.436155029296875,-0.9459686279296875,-0.3833770751953125,0.0797576904296875
1782858688567134200,5.44613427734375,-0.954254150390625,-0.3749847412109375,0.066253662109375
1782858688577083100,5.456083251953125,-0.9677276611328125,-0.3607940673828125,0.0505218505859375
1782858688587031000,5.466031005859375,-0.9696502685546875,-0.350250244140625,0.03863525390625
1782858688596980000,5.47597998046875,-0.9667205810546875,-0.350311279296875,0.039825439453125
1782858688606959000,5.485958984375,-0.954010009765625,-0.3604736328125,0.040374755859375
1782858688616908000,5.495907958984375,-0.9396514892578125,-0.375396728515625,0.0416259765625
1782858688626857000,5.50585693359375,-0.9469146728515625,-0.377716064453125,0.0577239990234375
1782858688636806000,5.515805908203125,-0.979705810546875,-0.3673095703125,0.0631103515625
1782858688646785000,5.525784912109375,-1.0122833251953125,-0.359344482421875,0.047088623046875
1782858688656734000,5.53573388671875,-1.03424072265625,-0.3524932861328125,0.0205535888671875
1782858688666682000,5.54568212890625,-1.0610809326171875,-0.3396453857421875,-0.007354736328125
1782858688676662300,5.555662353515625,-1.09063720703125,-0.324981689453125,-0.03607177734375
1782858688686610000,5.56560986328125,-1.105499267578125,-0.31097412109375,-0.069549560546875
1782858688696559000,5.57555908203125,-1.097198486328125,-0.2904052734375,-0.100616455078125
1782858688706508000,5.585508056640625,-1.07470703125,-0.269073486328125,-0.1251373291015625
1782858688716487200,5.595487060546875,-1.051727294921875,-0.2472381591796875,-0.1362152099609375
1782858688726468600,5.605468505859375,-1.043487548828125,-0.2352752685546875,-0.13861083984375
1782858688736417500,5.61541748046875,-1.035614013671875,-0.2298583984375,-0.137664794921875
1782858688746365400,5.625365478515625,-1.0197906494140625,-0.227447509765625,-0.130584716796875
1782858688756344600,5.635344482421875,-1.01031494140625,-0.2347869873046875,-0.128753662109375
1782858688766293500,5.64529345703125,-0.998626708984375,-0.2402191162109375,-0.13055419921875
1782858688776242400,5.655242431640625,-0.976715087890625,-0.233367919921875,-0.12762451171875
1782858688786191600,5.665191650390625,-0.9552459716796875,-0.223297119140625,-0.12738037109375
1782858688796170500,5.67517041015625,-0.93701171875,-0.21319580078125,-0.1280364990234375
1782858688806119700,5.68511962890625,-0.927886962890625,-0.2024688720703125,-0.1258544921875
1782858688816067600,5.695067626953125,-0.9307708740234375,-0.201690673828125,-0.1272430419921875
1782858688826047700,5.7050478515625,-0.9354705810546875,-0.209808349609375,-0.1356658935546875
1782858688835995600,5.71499560546875,-0.937469482421875,-0.2155914306640625,-0.1467132568359375
1782858688845944600,5.724944580078125,-0.943023681640625,-0.216156005859375,-0.1587677001953125
1782858688855893500,5.7348935546875,-0.9493255615234375,-0.210235595703125,-0.1675262451171875
1782858688865872600,5.74487255859375,-0.95281982421875,-0.205474853515625,-0.17327880859375
1782858688875821600,5.754821533203125,-0.95660400390625,-0.2076568603515625,-0.1820068359375
1782858688885770500,5.7647705078125,-0.9585723876953125,-0.2151031494140625,-0.1907958984375
1782858688895718700,5.77471875,-0.957183837890625,-0.2174835205078125,-0.1990509033203125
1782858688905698600,5.784698486328125,-0.950897216796875,-0.211395263671875,-0.209381103515625
1782858688915646500,5.794646484375,-0.9468841552734375,-0.2026214599609375,-0.21112060546875
1782858688925595600,5.804595703125,-0.944305419921875,-0.2011871337890625,-0.2077789306640625
1782858688935544600,5.814544677734375,-0.93798828125,-0.200286865234375,-0.1998291015625
1782858688945523500,5.8245234375,-0.92950439453125,-0.1969451904296875,-0.1882781982421875
1782858688955472600,5.83447265625,-0.9199981689453125,-0.19085693359375,-0.1800994873046875
1782858688965420500,5.844420654296875,-0.909393310546875,-0.1876220703125,-0.1699676513671875
1782858688975400700,5.854400634765625,-0.897552490234375,-0.1895904541015625,-0.1583099365234375
1782858688985348600,5.8643486328125,-0.888763427734375,-0.1963958740234375,-0.1485137939453125
1782858688995297800,5.8742978515625,-0.881927490234375,-0.2069091796875,-0.1446685791015625
1782858689005246700,5.884246826171875,-0.8722991943359375,-0.216217041015625,-0.1450042724609375
1782858689015225600,5.8942255859375,-0.8641357421875,-0.224700927734375,-0.143280029296875
1782858689025174500,5.904174560546875,-0.860137939453125,-0.2392120361328125,-0.142059326171875
1782858689035123700,5.914123779296875,-0.8570404052734375,-0.257476806640625,-0.1399688720703125
1782858689045071600,5.924071533203125,-0.85931396484375,-0.27130126953125,-0.1366424560546875
1782858689055051500,5.934051513671875,-0.861114501953125,-0.2779693603515625,-0.1323089599609375
1782858689064999700,5.943999755859375,-0.8630523681640625,-0.2791900634765625,-0.125579833984375
1782858689074948600,5.953948486328125,-0.867401123046875,-0.2852020263671875,-0.1207122802734375
1782858689084897500,5.9638974609375,-0.869659423828125,-0.2996826171875,-0.115997314453125
1782858689094876400,5.97387646484375,-0.8647003173828125,-0.31231689453125,-0.1116180419921875
1782858689104825600,5.98382568359375,-0.8596954345703125,-0.3173828125,-0.10687255859375
1782858689114773500,5.9937734375,-0.85711669921875,-0.31817626953125,-0.1060791015625
1782858689124753400,6.00375341796875,-0.8523712158203125,-0.31976318359375,-0.105712890625
1782858689134701600,6.01370166015625,-0.847747802734375,-0.32049560546875,-0.1027374267578125
1782858689144650800,6.023650634765625,-0.848358154296875,-0.318328857421875,-0.0990142822265625
1782858689154599700,6.033599609375,-0.8507537841796875,-0.3162078857421875,-0.0961151123046875
1782858689164578600,6.04357861328125,-0.854644775390625,-0.316375732421875,-0.0940704345703125
1782858689174527700,6.05352783203125,-0.8568115234375,-0.316619873046875,-0.0886688232421875
1782858689184476700,6.0634765625,-0.8649444580078125,-0.31817626953125,-0.079986572265625
1782858689194424600,6.073424560546875,-0.880340576171875,-0.32330322265625,-0.068572998046875
1782858689204404500,6.083404541015625,-0.8947296142578125,-0.3280792236328125,-0.05926513671875
1782858689214352600,6.0933525390625,-0.903045654296875,-0.32781982421875,-0.0580902099609375
1782858689224301600,6.103301513671875,-0.9053955078125,-0.3214111328125,-0.0603485107421875
1782858689234280700,6.11328076171875,-0.9085693359375,-0.3131561279296875,-0.056915283203125
1782858689244229600,6.123229736328125,-0.9130859375,-0.3141937255859375,-0.05401611328125
1782858689254178600,6.133178466796875,-0.912750244140625,-0.31561279296875,-0.0486297607421875
1782858689264126500,6.14312646484375,-0.9132080078125,-0.3129425048828125,-0.0358428955078125
1782858689274106600,6.153106689453125,-0.9201202392578125,-0.3201141357421875,-0.0196685791015625
1782858689284054500,6.163054443359375,-0.928009033203125,-0.3354949951171875,-0.006988525390625
1782858689294003500,6.17300341796875,-0.9378814697265625,-0.3449859619140625,-0.00238037109375
1782858689303952600,6.18295263671875,-0.948455810546875,-0.3486785888671875,-0.001251220703125
1782858689313931800,6.192931884765625,-0.9575958251953125,-0.349639892578125,-0.0053863525390625
1782858689323880700,6.202880615234375,-0.9707794189453125,-0.3463287353515625,-0.0132598876953125
1782858689333829600,6.21282958984375,-0.978179931640625,-0.34259033203125,-0.015716552734375
1782858689343777500,6.222777587890625,-0.9814453125,-0.3376922607421875,-0.013214111328125
1782858689353757700,6.2327578125,-0.9943084716796875,-0.332855224609375,-0.0152130126953125
1782858689363705600,6.24270556640625,-1.002685546875,-0.32781982421875,-0.016143798828125
1782858689373654500,6.252654541015625,-1.001800537109375,-0.32763671875,-0.0118255615234375
1782858689383633700,6.262633544921875,-0.9955596923828125,-0.3285369873046875,-0.0009918212890625
1782858689393582600,6.27258251953125,-0.986968994140625,-0.3318634033203125,0.0150299072265625
1782858689403531500,6.282531494140625,-0.9719390869140625,-0.3384857177734375,0.036346435546875
1782858689413480400,6.29248046875,-0.9562530517578125,-0.3444366455078125,0.05670166015625
1782858689423459600,6.30245947265625,-0.947052001953125,-0.3486328125,0.0717620849609375
1782858689433407500,6.312407470703125,-0.9392852783203125,-0.345458984375,0.082794189453125
1782858689443356400,6.3223564453125,-0.92816162109375,-0.3360595703125,0.0924072265625
1782858689453305600,6.3323056640625,-0.9241943359375,-0.322845458984375,0.1033477783203125
1782858689463284500,6.342284423828125,-0.9294281005859375,-0.3092498779296875,0.1143951416015625
1782858689473233700,6.352233642578125,-0.929656982421875,-0.299163818359375,0.1214599609375
1782858689483182600,6.3621826171875,-0.926055908203125,-0.2881011962890625,0.1282501220703125
1782858689493130800,6.372130859375,-0.9220733642578125,-0.274261474609375,0.1400146484375
1782858689503110700,6.382110595703125,-0.9146270751953125,-0.2675628662109375,0.151885986328125
1782858689513058600,6.39205859375,-0.907440185546875,-0.2617645263671875,0.1610260009765625
1782858689523007700,6.4020078125,-0.897491455078125,-0.249053955078125,0.171356201171875
1782858689532986600,6.411986572265625,-0.8699493408203125,-0.2479095458984375,0.19305419921875
1782858689542935600,6.421935546875,-0.829742431640625,-0.2685089111328125,0.236053466796875
1782858689552884500,6.431884521484375,-0.809295654296875,-0.29681396484375,0.295257568359375
1782858689562833700,6.441833740234375,-0.8267059326171875,-0.3036346435546875,0.340850830078125
1782858689572812500,6.4518125,-0.89312744140625,-0.259765625,0.3436431884765625
1782858689582761500,6.461761474609375,-0.974090576171875,-0.2012939453125,0.326080322265625
1782858689592709600,6.471709716796875,-0.988800048828125,-0.173370361328125,0.292510986328125
1782858689602658600,6.481658447265625,-0.9651947021484375,-0.1438446044921875,0.255584716796875
1782858689612637400,6.491637451171875,-0.9569091796875,-0.0832672119140625,0.22845458984375
1782858689622586400,6.50158642578125,-0.9399871826171875,-0.0211944580078125,0.211090087890625
1782858689632535800,6.511535888671875,-0.935516357421875,0.032379150390625,0.210540771484375
1782858689642483500,6.5214833984375,-0.9832763671875,0.0848236083984375,0.2247772216796875
1782858689652463600,6.531463623046875,-1.041229248046875,0.1017303466796875,0.24957275390625
1782858689662411800,6.541411865234375,-1.071197509765625,0.0810546875,0.27935791015625
1782858689672360700,6.551360595703125,-1.1071319580078125,0.0626983642578125,0.313720703125
1782858689682339600,6.561339599609375,-1.1402130126953125,0.0599212646484375,0.3514556884765625
1782858689692288500,6.57128857421875,-1.13507080078125,0.0697784423828125,0.3703460693359375
1782858689702237700,6.58123779296875,-1.1177825927734375,0.0897369384765625,0.376617431640625
1782858689712186600,6.5911865234375,-1.1076202392578125,0.110748291015625,0.3867034912109375
1782858689722191600,6.601191650390625,-1.104705810546875,0.1212310791015625,0.40496826171875
1782858689732140800,6.611140869140625,-1.1028900146484375,0.116485595703125,0.428680419921875
1782858689742088400,6.62108837890625,-1.104461669921875,0.1090545654296875,0.4569549560546875
1782858689752038000,6.631037841796875,-1.1204071044921875,0.105743408203125,0.4854736328125
1782858689762016800,6.641016845703125,-1.14666748046875,0.1074981689453125,0.5053253173828125
1782858689771965700,6.650965576171875,-1.1492767333984375,0.126708984375,0.4985504150390625
1782858689781914600,6.66091455078125,-1.13922119140625,0.1572113037109375,0.4875335693359375
1782858689791862800,6.67086279296875,-1.136444091796875,0.1795501708984375,0.4818115234375
1782858689801842700,6.6808427734375,-1.1336212158203125,0.1956939697265625,0.4756622314453125
1782858689811790600,6.69079052734375,-1.12481689453125,0.210357666015625,0.4701385498046875
1782858689821739800,6.70073974609375,-1.110443115234375,0.2224578857421875,0.4685821533203125
1782858689831718700,6.71071875,-1.09124755859375,0.230987548828125,0.47296142578125
1782858689841667600,6.72066748046875,-1.0765838623046875,0.2328948974609375,0.483795166015625
1782858689851616500,6.730616455078125,-1.06036376953125,0.233306884765625,0.4930572509765625
1782858689861565700,6.740565673828125,-1.042724609375,0.232025146484375,0.4948577880859375
1782858689871544600,6.750544677734375,-1.0209197998046875,0.2336883544921875,0.4856414794921875
1782858689881493500,6.760493408203125,-0.9918975830078125,0.2406463623046875,0.4726104736328125
1782858689891441700,6.770441650390625,-0.96563720703125,0.2453155517578125,0.4709930419921875
1782858689901390800,6.780390869140625,-0.9644927978515625,0.2508087158203125,0.4700469970703125
1782858689911369500,6.790369384765625,-0.9813232421875,0.2512359619140625,0.461578369140625
1782858689921318700,6.800318603515625,-0.999908447265625,0.2374267578125,0.44390869140625
1782858689931267800,6.810267822265625,-1.0180816650390625,0.222900390625,0.421478271484375
1782858689941246700,6.820246826171875,-1.0385589599609375,0.21661376953125,0.392974853515625
1782858689951195600,6.830195556640625,-1.0573272705078125,0.2095794677734375,0.359954833984375
1782858689961143800,6.840143798828125,-1.0756683349609375,0.1997222900390625,0.3207244873046875
1782858689971092700,6.8500927734375,-1.1028594970703125,0.18353271484375,0.2784271240234375
1782858689981071600,6.860071533203125,-1.1334075927734375,0.163818359375,0.2313690185546875
1782858689991020800,6.870020751953125,-1.16357421875,0.14453125,0.1731719970703125
1782858690000969700,6.8799697265625,-1.200531005859375,0.136077880859375,0.1141815185546875
1782858690010918700,6.889918701171875,-1.23333740234375,0.1379547119140625,0.0561065673828125
1782858690020897500,6.8998974609375,-1.25006103515625,0.1406402587890625,0.00927734375
1782858690030846700,6.9098466796875,-1.252227783203125,0.1383056640625,-0.0246124267578125
1782858690040794600,6.919794677734375,-1.25433349609375,0.1329193115234375,-0.049407958984375
1782858690050743600,6.92974365234375,-1.256805419921875,0.1183013916015625,-0.076873779296875
1782858690060722700,6.93972265625,-1.252227783203125,0.105712890625,-0.1037445068359375
1782858690070671600,6.949671630859375,-1.236083984375,0.09912109375,-0.12554931640625
1782858690080620800,6.959620849609375,-1.2086029052734375,0.089630126953125,-0.1437835693359375
1782858690090599700,6.969599609375,-1.1705169677734375,0.075958251953125,-0.156524658203125
1782858690100548900,6.979548828125,-1.1233062744140625,0.0597686767578125,-0.163238525390625
1782858690110496800,6.989496826171875,-1.08148193359375,0.0424346923828125,-0.170013427734375
1782858690120445700,6.99944580078125,-1.04266357421875,0.0255126953125,-0.1714324951171875
1782858690130424800,7.0094248046875,-0.9960784912109375,0.0089263916015625,-0.1638641357421875
1782858690140373800,7.019373779296875,-0.9587554931640625,-0.0113067626953125,-0.152618408203125
1782858690150322700,7.02932275390625,-0.93768310546875,-0.0393524169921875,-0.138336181640625
1782858690160271600,7.039271728515625,-0.9224090576171875,-0.0682525634765625,-0.1253662109375
1782858690170250800,7.049250732421875,-0.906463623046875,-0.0957183837890625,-0.1126708984375
1782858690180199700,7.05919970703125,-0.8911895751953125,-0.1204681396484375,-0.1024169921875
1782858690190147600,7.069147705078125,-0.879547119140625,-0.144805908203125,-0.0981903076171875
1782858690200096500,7.079096435546875,-0.8665771484375,-0.1720428466796875,-0.0930023193359375
1782858690210075600,7.08907568359375,-0.848876953125,-0.1977386474609375,-0.0851287841796875
1782858690220024600,7.099024658203125,-0.83929443359375,-0.2215118408203125,-0.0783843994140625
1782858690229973800,7.108973876953125,-0.8391265869140625,-0.2450714111328125,-0.0738525390625
1782858690239952600,7.11895263671875,-0.8365936279296875,-0.272735595703125,-0.0726470947265625
1782858690249901800,7.12890185546875,-0.827880859375,-0.296722412109375,-0.0640716552734375
1782858690259849700,7.138849609375,-0.8297119140625,-0.31634521484375,-0.055206298828125
1782858690269798700,7.148798583984375,-0.843048095703125,-0.34490966796875,-0.0530548095703125
1782858690279777800,7.15877783203125,-0.8542327880859375,-0.373931884765625,-0.0603179931640625
1782858690289726700,7.168726806640625,-0.8548126220703125,-0.392608642578125,-0.0775604248046875
1782858690299675600,7.178675537109375,-0.8516387939453125,-0.4017333984375,-0.09893798828125
1782858690309624600,7.18862451171875,-0.8500213623046875,-0.4082489013671875,-0.108123779296875
1782858690319603700,7.198603759765625,-0.8491363525390625,-0.41925048828125,-0.1102752685546875
1782858690329552600,7.208552734375,-0.845458984375,-0.43133544921875,-0.11370849609375
1782858690339500500,7.21850048828125,-0.8381805419921875,-0.4355621337890625,-0.11517333984375
1782858690349449700,7.22844970703125,-0.83526611328125,-0.43878173828125,-0.1152496337890625
1782858690359428600,7.2384287109375,-0.8414459228515625,-0.4473876953125,-0.114959716796875
1782858690369377500,7.24837744140625,-0.8516693115234375,-0.4591827392578125,-0.112274169921875
1782858690379326500,7.258326416015625,-0.853973388671875,-0.4654693603515625,-0.1077117919921875
1782858690389305600,7.2683056640625,-0.8504638671875,-0.463165283203125,-0.1014556884765625
1782858690399254500,7.278254638671875,-0.8473052978515625,-0.4577178955078125,-0.097564697265625
1782858690409203700,7.28820361328125,-0.8440399169921875,-0.455169677734375,-0.095458984375
1782858690419152000,7.29815185546875,-0.8452606201171875,-0.453460693359375,-0.101043701171875
1782858690429131800,7.3081318359375,-0.853240966796875,-0.4471588134765625,-0.10894775390625
1782858690439079700,7.31807958984375,-0.868621826171875,-0.4391937255859375,-0.1157073974609375
1782858690449028600,7.328028564453125,-0.886444091796875,-0.4381866455078125,-0.12213134765625
1782858690458977800,7.337977783203125,-0.8977813720703125,-0.4402008056640625,-0.1307525634765625
1782858690468956700,7.347956787109375,-0.9000244140625,-0.43499755859375,-0.139923095703125
1782858690478905600,7.357905517578125,-0.8919219970703125,-0.4266357421875,-0.1434478759765625
1782858690488853800,7.367853759765625,-0.8837738037109375,-0.421478271484375,-0.1397857666015625
1782858690498833700,7.377833740234375,-0.8887176513671875,-0.4224853515625,-0.1238250732421875
1782858690508781600,7.387781494140625,-0.8909759521484375,-0.424346923828125,-0.10736083984375
1782858690518730800,7.397730712890625,-0.89666748046875,-0.42449951171875,-0.094757080078125
1782858690528679700,7.4076796875,-0.9094696044921875,-0.4269256591796875,-0.086761474609375
1782858690538658600,7.417658447265625,-0.9149932861328125,-0.4268798828125,-0.0841217041015625
1782858690548607500,7.427607421875,-0.9201812744140625,-0.425750732421875,-0.0893096923828125
1782858690558556700,7.437556640625,-0.91241455078125,-0.4125213623046875,-0.09930419921875
1782858690568504600,7.447504638671875,-0.912628173828125,-0.3957061767578125,-0.0977630615234375
1782858690578484700,7.457484619140625,-0.91754150390625,-0.3978118896484375,-0.080352783203125
1782858690588433000,7.467432861328125,-0.9105072021484375,-0.41058349609375,-0.0580902099609375
1782858690598381800,7.4773818359375,-0.8968658447265625,-0.4167327880859375,-0.0305023193359375
1782858690608330800,7.487330810546875,-0.893524169921875,-0.421722412109375,0.0007476806640625
1782858690618309600,7.4973095703125,-0.8979949951171875,-0.4304046630859375,0.032623291015625
1782858690628258800,7.5072587890625,-0.90362548828125,-0.4420928955078125,0.0603179931640625
1782858690638206700,7.517206787109375,-0.9099273681640625,-0.4476318359375,0.07208251953125
1782858690648186600,7.5271865234375,-0.9185028076171875,-0.4435272216796875,0.0687713623046875
1782858690658134800,7.537134765625,-0.9292449951171875,-0.4358367919921875,0.0595855712890625
1782858690668083700,7.547083740234375,-0.9424591064453125,-0.4299468994140625,0.05474853515625
1782858690678032600,7.55703271484375,-0.945892333984375,-0.4230499267578125,0.052001953125
1782858690688011500,7.567011474609375,-0.943023681640625,-0.4124755859375,0.0528717041015625
1782858690697960700,7.576960693359375,-0.9425201416015625,-0.4008636474609375,0.059295654296875
1782858690707909600,7.58690966796875,-0.9344329833984375,-0.396087646484375,0.0677032470703125
1782858690717857500,7.596857421875,-0.926544189453125,-0.3934783935546875,0.0823974609375
1782858690727872800,7.606872802734375,-0.9315643310546875,-0.396026611328125,0.098846435546875
1782858690737821000,7.616821044921875,-0.9393310546875,-0.396728515625,0.10888671875
1782858690747769900,7.626769775390625,-0.943695068359375,-0.38433837890625,0.10772705078125
1782858690757719000,7.636718994140625,-0.9407501220703125,-0.37176513671875,0.1040802001953125
1782858690767698000,7.646697998046875,-0.9323883056640625,-0.366546630859375,0.0915374755859375
1782858690777647000,7.656647216796875,-0.9273529052734375,-0.363189697265625,0.0777130126953125
1782858690787595000,7.666594970703125,-0.928192138671875,-0.364501953125,0.067474365234375
1782858690797575000,7.676574951171875,-0.9245452880859375,-0.362823486328125,0.0550384521484375
1782858690807523000,7.686523193359375,-0.9199371337890625,-0.3526153564453125,0.0429229736328125
1782858690817472000,7.696471923828125,-0.928680419921875,-0.346466064453125,0.0333251953125
1782858690827421000,7.7064208984375,-0.941375732421875,-0.344268798828125,0.0255126953125
1782858690837400000,7.716400146484375,-0.956024169921875,-0.3380126953125,0.01959228515625
1782858690847349000,7.726348876953125,-0.967987060546875,-0.326812744140625,0.0100555419921875
1782858690857298000,7.7362978515625,-0.964599609375,-0.3124237060546875,0.0032806396484375
1782858690867245800,7.746245849609375,-0.9636383056640625,-0.3007965087890625,0.0035247802734375
1782858690877226000,7.75622607421875,-0.96124267578125,-0.3001251220703125,0.0067596435546875
1782858690887174000,7.766173828125,-0.95477294921875,-0.3012847900390625,0.0138702392578125
1782858690897122800,7.776122802734375,-0.9545745849609375,-0.29815673828125,0.0179443359375
1782858690907102000,7.78610205078125,-0.9518890380859375,-0.29461669921875,0.01605224609375
1782858690917051000,7.79605078125,-0.9520111083984375,-0.293914794921875,0.00933837890625
1782858690926999800,7.805999755859375,-0.9612884521484375,-0.2888031005859375,-0.00140380859375
1782858690936947700,7.81594775390625,-0.969970703125,-0.2753448486328125,-0.01483154296875
1782858690946928000,7.82592822265625,-0.96954345703125,-0.263702392578125,-0.0288848876953125
1782858690956876000,7.8358759765625,-0.9614715576171875,-0.2576446533203125,-0.0387725830078125
1782858690966825000,7.845824951171875,-0.95452880859375,-0.254150390625,-0.046295166015625
1782858690976774000,7.85577392578125,-0.9575958251953125,-0.2462310791015625,-0.0491485595703125
1782858690986753000,7.8657529296875,-0.961181640625,-0.240631103515625,-0.04656982421875
1782858690996702000,7.875701904296875,-0.9574127197265625,-0.241790771484375,-0.05010986328125
1782858691006651000,7.88565087890625,-0.9537811279296875,-0.244781494140625,-0.05535888671875
1782858691016599000,7.89559912109375,-0.9533843994140625,-0.2455902099609375,-0.056365966796875
1782858691026579000,7.905578857421875,-0.9549407958984375,-0.2428436279296875,-0.053619384765625
1782858691036526800,7.91552685546875,-0.9460906982421875,-0.2427825927734375,-0.04803466796875
1782858691046475800,7.925475830078125,-0.9322052001953125,-0.2441253662109375,-0.042449951171875
1782858691056455000,7.935454833984375,-0.930511474609375,-0.24188232421875,-0.0428466796875
1782858691066403800,7.94540380859375,-0.933502197265625,-0.2446746826171875,-0.048919677734375
1782858691076352800,7.955352783203125,-0.9380950927734375,-0.2505950927734375,-0.0581207275390625
1782858691086302000,7.965302001953125,-0.9423065185546875,-0.2549591064453125,-0.0679931640625
1782858691096280800,7.97528076171875,-0.9418487548828125,-0.258697509765625,-0.076080322265625
1782858691106228700,7.985228759765625,-0.9404296875,-0.258941650390625,-0.0816802978515625
1782858691116178000,7.995177978515625,-0.9409942626953125,-0.26654052734375,-0.0813446044921875
1782858691126127000,8.005127197265624,-0.943115234375,-0.283966064453125,-0.076568603515625
1782858691136106000,8.01510595703125,-0.9454498291015625,-0.302398681640625,-0.0738983154296875
1782858691146055000,8.025054931640625,-0.943145751953125,-0.3126678466796875,-0.0724334716796875
1782858691156003800,8.03500390625,-0.9407196044921875,-0.3180999755859375,-0.07598876953125
1782858691165952000,8.044951904296875,-0.944915771484375,-0.323028564453125,-0.0808258056640625
1782858691175932000,8.054931884765624,-0.9476776123046875,-0.328369140625,-0.0845947265625
1782858691185880000,8.064880126953126,-0.94830322265625,-0.330230712890625,-0.0916595458984375
1782858691195829000,8.0748291015625,-0.9497528076171875,-0.3323974609375,-0.093841552734375
1782858691205807900,8.084807861328125,-0.9481964111328125,-0.3358001708984375,-0.093353271484375
1782858691215756800,8.0947568359375,-0.9431610107421875,-0.3376617431640625,-0.0941162109375
1782858691225706000,8.1047060546875,-0.9427337646484375,-0.3382110595703125,-0.090576171875
1782858691235655000,8.114655029296875,-0.951995849609375,-0.338531494140625,-0.082916259765625
1782858691245633800,8.1246337890625,-0.964874267578125,-0.344146728515625,-0.0779571533203125
1782858691255582700,8.134582763671874,-0.9720458984375,-0.3480224609375,-0.0707244873046875
1782858691265531000,8.14453076171875,-0.975738525390625,-0.3465118408203125,-0.066650390625
1782858691275480000,8.15447998046875,-0.973236083984375,-0.3423919677734375,-0.06365966796875
1782858691285459000,8.164458984375,-0.9650421142578125,-0.337860107421875,-0.0575714111328125
1782858691295408000,8.174408203125,-0.95623779296875,-0.3362579345703125,-0.050537109375
1782858691305357000,8.184357177734375,-0.9476470947265625,-0.3389892578125,-0.044097900390625
1782858691315305000,8.194304931640625,-0.935516357421875,-0.3420867919921875,-0.03515625
1782858691325284900,8.204284912109374,-0.921051025390625,-0.3436431884765625,-0.02667236328125
1782858691335233000,8.21423291015625,-0.9088592529296875,-0.34375,-0.0203857421875
1782858691345182000,8.224181884765626,-0.902099609375,-0.3416290283203125,-0.0233612060546875
1782858691355160800,8.234160888671875,-0.8969268798828125,-0.3359527587890625,-0.031707763671875
1782858691365110000,8.244110107421875,-0.89093017578125,-0.3262481689453125,-0.0466156005859375
1782858691375059000,8.254058837890625,-0.88470458984375,-0.3029937744140625,-0.06134033203125
1782858691385007900,8.2640078125,-0.8838653564453125,-0.268310546875,-0.0618438720703125
1782858691394986800,8.27398681640625,-0.887481689453125,-0.2373046875,-0.0546722412109375
1782858691404936000,8.28393603515625,-0.8931427001953125,-0.2121124267578125,-0.044281005859375
1782858691414883800,8.2938837890625,-0.8895263671875,-0.1908111572265625,-0.0375518798828125
1782858691424832800,8.303832763671876,-0.875732421875,-0.1760101318359375,-0.027679443359375
1782858691434812000,8.31381201171875,-0.8582305908203125,-0.170135498046875,-0.009552001953125
1782858691444761000,8.323760986328125,-0.8378753662109375,-0.173980712890625,0.0182037353515625
1782858691454710000,8.3337099609375,-0.831756591796875,-0.1781005859375,0.042938232421875
1782858691464689000,8.34368896484375,-0.835174560546875,-0.1765289306640625,0.063812255859375
1782858691474638000,8.35363818359375,-0.8251953125,-0.1817779541015625,0.08349609375
1782858691484586000,8.3635859375,-0.816253662109375,-0.19134521484375,0.1065521240234375
1782858691494535000,8.373534912109376,-0.8127899169921875,-0.2062835693359375,0.1295623779296875
1782858691504514000,8.38351416015625,-0.814453125,-0.2201995849609375,0.1497344970703125
1782858691514463000,8.393462890625,-0.83056640625,-0.2262420654296875,0.1660308837890625
1782858691524412000,8.403411865234375,-0.860015869140625,-0.231719970703125,0.1758575439453125
1782858691534360800,8.41336083984375,-0.899810791015625,-0.2365875244140625,0.18048095703125
1782858691544340000,8.423340087890624,-0.9390869140625,-0.2315826416015625,0.173858642578125
1782858691554289000,8.433288818359374,-0.967681884765625,-0.2166748046875,0.1734161376953125
1782858691564236800,8.44323681640625,-1.000579833984375,-0.203399658203125,0.1805419921875
1782858691574185700,8.453185791015626,-1.03802490234375,-0.194061279296875,0.187835693359375
1782858691584164900,8.463164794921875,-1.0716705322265625,-0.186279296875,0.1997833251953125
1782858691594113800,8.47311376953125,-1.08984375,-0.17578125,0.21307373046875
1782858691604063000,8.48306298828125,-1.097259521484375,-0.1644744873046875,0.2275390625
1782858691614042000,8.4930419921875,-1.0948486328125,-0.15460205078125,0.23931884765625
1782858691623991000,8.502990966796874,-1.0923919677734375,-0.14630126953125,0.2534332275390625
1782858691633939000,8.51293896484375,-1.1012115478515625,-0.1464691162109375,0.2662353515625
1782858691643887900,8.522887939453126,-1.118865966796875,-0.1532745361328125,0.2772369384765625
1782858691653867000,8.532866943359375,-1.137603759765625,-0.1573333740234375,0.2845001220703125
1782858691663816000,8.54281591796875,-1.1496734619140625,-0.1579437255859375,0.27630615234375
1782858691673764900,8.552764892578125,-1.1538238525390625,-0.1507110595703125,0.25146484375
1782858691683713800,8.5627138671875,-1.154022216796875,-0.1388702392578125,0.222869873046875
1782858691693693000,8.57269287109375,-1.154876708984375,-0.1309661865234375,0.1994171142578125
1782858691703641900,8.582641845703124,-1.1558837890625,-0.1308441162109375,0.1798095703125
1782858691713590000,8.592590087890626,-1.1507568359375,-0.1308135986328125,0.1623992919921875
1782858691723564800,8.602564697265626,-1.1359100341796875,-0.1263275146484375,0.1455841064453125
1782858691733544000,8.6125439453125,-1.112060546875,-0.1228179931640625,0.1270599365234375
1782858691743492900,8.622492919921875,-1.0843353271484375,-0.11785888671875,0.111297607421875
1782858691753441800,8.63244189453125,-1.05804443359375,-0.1112518310546875,0.1036834716796875
1782858691763421000,8.6424208984375,-1.035430908203125,-0.1129608154296875,0.1019439697265625
1782858691773369900,8.652369873046876,-1.011871337890625,-0.1253204345703125,0.1006317138671875
1782858691783317800,8.66231787109375,-0.98748779296875,-0.13671875,0.1011810302734375
1782858691793266700,8.6722666015625,-0.9644317626953125,-0.14202880859375,0.0989837646484375
1782858691803245800,8.682245849609375,-0.944610595703125,-0.1417999267578125,0.088226318359375
1782858691813194800,8.69219482421875,-0.9344635009765625,-0.1387786865234375,0.0734405517578125
1782858691823144000,8.70214404296875,-0.927490234375,-0.1361846923828125,0.065765380859375
1782858691833092900,8.7120927734375,-0.913543701171875,-0.13812255859375,0.059417724609375
1782858691843072000,8.722072021484376,-0.8992919921875,-0.137969970703125,0.057861328125
1782858691853021000,8.73202099609375,-0.899871826171875,-0.1391143798828125,0.058624267578125
1782858691862968800,8.74196875,-0.886322021484375,-0.139373779296875,0.0459442138671875
1782858691872949000,8.751948974609375,-0.8626251220703125,-0.1275634765625,0.0322265625
1782858691882897000,8.76189697265625,-0.859344482421875,-0.1169281005859375,0.02398681640625
1782858691892845800,8.771845703125,-0.8675994873046875,-0.12127685546875,0.0153045654296875
1782858691902794800,8.781794677734375,-0.8695831298828125,-0.13726806640625,0.0048675537109375
1782858691912774000,8.79177392578125,-0.8763580322265625,-0.147125244140625,-0.008697509765625
1782858691922722800,8.801722900390626,-0.881500244140625,-0.1439056396484375,-0.03668212890625
1782858691932671700,8.811671630859376,-0.8810882568359375,-0.1309967041015625,-0.070068359375
1782858691942620000,8.821619873046876,-0.8843536376953125,-0.117218017578125,-0.10076904296875
1782858691952598800,8.831598876953125,-0.8816070556640625,-0.109039306640625,-0.1324005126953125
1782858691962547700,8.841547607421875,-0.8692169189453125,-0.1099700927734375,-0.1487579345703125
1782858691972496600,8.85149658203125,-0.869873046875,-0.1204986572265625,-0.155914306640625
1782858691982446000,8.861446044921875,-0.9084625244140625,-0.135528564453125,-0.154876708984375
1782858691992424700,8.8714248046875,-0.972991943359375,-0.1526947021484375,-0.1612548828125
1782858692002374000,8.881373779296876,-1.0291595458984375,-0.178924560546875,-0.1781005859375
1782858692012322000,8.891322021484376,-1.0656890869140625,-0.2098541259765625,-0.2021331787109375
1782858692022302000,8.901302001953125,-1.0748138427734375,-0.239593505859375,-0.237335205078125
1782858692032249900,8.911249755859375,-1.072784423828125,-0.2704315185546875,-0.2881011962890625
1782858692042198800,8.92119873046875,-1.059967041015625,-0.306854248046875,-0.351898193359375
1782858692052148000,8.93114794921875,-1.043609619140625,-0.337127685546875,-0.418914794921875
1782858692062126800,8.941126953125,-1.0184173583984375,-0.3578338623046875,-0.483734130859375
1782858692072075800,8.95107568359375,-0.9801025390625,-0.3765716552734375,-0.521820068359375
1782858692082024700,8.961024658203126,-0.9722442626953125,-0.3696136474609375,-0.5219573974609375
1782858692091972900,8.970972900390626,-0.9762420654296875,-0.3571624755859375,-0.4857635498046875
1782858692101952800,8.980952880859375,-0.9778289794921875,-0.3763275146484375,-0.425079345703125
1782858692111901000,8.99090087890625,-0.986572265625,-0.422454833984375,-0.3478240966796875
1782858692121849900,9.000849853515625,-0.9873504638671875,-0.474822998046875,-0.2768402099609375
1782858692131798800,9.010798828125,-0.9627532958984375,-0.516448974609375,-0.23846435546875
1782858692141777700,9.020777587890626,-0.926788330078125,-0.535858154296875,-0.23162841796875
1782858692151726800,9.030726806640626,-0.908050537109375,-0.52471923828125,-0.2353515625
1782858692161674800,9.0406748046875,-0.9083709716796875,-0.504669189453125,-0.2428741455078125
1782858692171655000,9.050655029296875,-0.9091949462890625,-0.4968109130859375,-0.25469970703125
1782858692181603000,9.06060302734375,-0.899078369140625,-0.4878387451171875,-0.26165771484375
1782858692191552000,9.070552001953125,-0.8883209228515625,-0.483734130859375,-0.2694549560546875
1782858692201501000,9.0805009765625,-0.8770599365234375,-0.4827880859375,-0.2754669189453125
1782858692211479800,9.090479736328126,-0.865447998046875,-0.480499267578125,-0.281341552734375
1782858692221429000,9.100428955078126,-0.85797119140625,-0.4797210693359375,-0.28204345703125
1782858692231378000,9.1103779296875,-0.8593292236328125,-0.481170654296875,-0.275665283203125
1782858692241325800,9.120325927734376,-0.8723602294921875,-0.480255126953125,-0.2751007080078125
1782858692251305700,9.1303056640625,-0.892333984375,-0.4673919677734375,-0.2730865478515625
1782858692261254000,9.14025390625,-0.919708251953125,-0.447357177734375,-0.2756195068359375
1782858692271202800,9.150202880859375,-0.94482421875,-0.4223480224609375,-0.2838897705078125
1782858692281151700,9.16015185546875,-0.9597320556640625,-0.392608642578125,-0.2985992431640625
1782858692291131000,9.170130859375,-0.9588775634765625,-0.359466552734375,-0.306976318359375
1782858692301079800,9.180079833984376,-0.9391326904296875,-0.3300628662109375,-0.30462646484375
1782858692311027700,9.19002783203125,-0.9098052978515625,-0.3046417236328125,-0.295196533203125
1782858692321007600,9.200007568359375,-0.8724212646484375,-0.2879486083984375,-0.27252197265625
1782858692330955800,9.209955810546875,-0.83416748046875,-0.2806396484375,-0.24298095703125
1782858692340905000,9.219905029296875,-0.8011627197265625,-0.272491455078125,-0.2129058837890625
1782858692350854000,9.22985400390625,-0.77178955078125,-0.26702880859375,-0.176361083984375
1782858692360833000,9.2398330078125,-0.74627685546875,-0.2734375,-0.129669189453125
1782858692370782000,9.249781982421876,-0.737152099609375,-0.29034423828125,-0.076690673828125
1782858692380731000,9.25973095703125,-0.735626220703125,-0.3123779296875,-0.0297698974609375
1782858692390678800,9.2696787109375,-0.7424163818359375,-0.3321990966796875,0.0051116943359375
1782858692400659000,9.279658935546875,-0.759765625,-0.3529815673828125,0.0264739990234375
1782858692410606800,9.28960693359375,-0.782440185546875,-0.3688812255859375,0.039215087890625
1782858692420555800,9.2995556640625,-0.8240814208984375,-0.3776397705078125,0.040618896484375
1782858692430535000,9.309534912109376,-0.888092041015625,-0.376800537109375,0.0155487060546875
1782858692440483800,9.31948388671875,-0.93304443359375,-0.35626220703125,-0.0138702392578125
1782858692450432800,9.329432861328126,-0.957733154296875,-0.326812744140625,-0.0356903076171875
1782858692460380700,9.339380615234376,-0.95733642578125,-0.303314208984375,-0.05535888671875
1782858692470360800,9.34936083984375,-0.927764892578125,-0.2868499755859375,-0.061279296875
1782858692480308700,9.359308837890625,-0.88140869140625,-0.2810211181640625,-0.050537109375
1782858692490257700,9.369257568359375,-0.8325653076171875,-0.2771759033203125,-0.024322509765625
1782858692500206800,9.379206787109375,-0.8116912841796875,-0.2786865234375,0.022186279296875
1782858692510186000,9.38918603515625,-0.8148345947265625,-0.3100128173828125,0.072998046875
1782858692520135000,9.399135009765626,-0.8252716064453125,-0.363525390625,0.1082916259765625
1782858692530083800,9.409083740234376,-0.8540191650390625,-0.4039154052734375,0.130950927734375
1782858692540032000,9.419031982421876,-0.898345947265625,-0.426055908203125,0.146209716796875
1782858692550012000,9.429011962890625,-0.9188385009765625,-0.4426422119140625,0.1568450927734375
1782858692559959800,9.438959716796875,-0.930633544921875,-0.4525909423828125,0.1578521728515625
1782858692569908700,9.44890869140625,-0.951995849609375,-0.4562835693359375,0.1583099365234375
1782858692579887900,9.458887939453126,-0.964019775390625,-0.456451416015625,0.1580352783203125
1782858692589836800,9.4688369140625,-0.9614715576171875,-0.4549407958984375,0.162750244140625
1782858692599785700,9.47878564453125,-0.954254150390625,-0.455078125,0.16778564453125
1782858692609734000,9.48873388671875,-0.9554901123046875,-0.460296630859375,0.1722412109375
1782858692619713800,9.4987138671875,-0.95440673828125,-0.4713287353515625,0.1695404052734375
1782858692629661700,9.50866162109375,-0.9408721923828125,-0.4791717529296875,0.1505126953125
1782858692639611000,9.51861083984375,-0.922515869140625,-0.4736328125,0.1236572265625
1782858692649559800,9.528559814453125,-0.9113922119140625,-0.4588775634765625,0.102569580078125
1782858692659538700,9.53853857421875,-0.9102935791015625,-0.4475860595703125,0.0862274169921875
1782858692669487900,9.54848779296875,-0.916259765625,-0.440704345703125,0.0750885009765625
1782858692679436800,9.558436767578126,-0.9256439208984375,-0.4369354248046875,0.0646514892578125
1782858692689385000,9.568385009765626,-0.9283294677734375,-0.43072509765625,0.0555572509765625
1782858692699364900,9.57836474609375,-0.924835205078125,-0.420654296875,0.0484619140625
1782858692709313000,9.58831298828125,-0.92718505859375,-0.4120025634765625,0.04443359375
1782858692719262000,9.598261962890625,-0.932373046875,-0.3986358642578125,0.0380096435546875
1782858692729277200,9.608277099609374,-0.9087066650390625,-0.389190673828125,0.0286102294921875
1782858692739226000,9.61822607421875,-0.8593597412109375,-0.37933349609375,0.0292205810546875
1782858692749175000,9.628175048828124,-0.8327484130859375,-0.359771728515625,0.0326080322265625
1782858692759124000,9.6381240234375,-0.824493408203125,-0.343902587890625,0.033935546875
1782858692769103000,9.64810302734375,-0.8226165771484375,-0.34075927734375,0.033355712890625
1782858692779052000,9.658052001953125,-0.83697509765625,-0.3458099365234375,0.0236968994140625
1782858692789000000,9.668,-0.865478515625,-0.3539276123046875,0.0100555419921875
1782858692798949000,9.67794921875,-0.889129638671875,-0.355316162109375,-0.0038299560546875
1782858692808928000,9.687927978515624,-0.8979339599609375,-0.3431396484375,-0.0197296142578125
1782858692818877000,9.697876953125,-0.8959197998046875,-0.3255157470703125,-0.032073974609375
1782858692828826000,9.707826171875,-0.9031982421875,-0.3203125,-0.04058837890625
1782858692838805200,9.71780517578125,-0.9195098876953125,-0.3245697021484375,-0.0425872802734375
1782858692848754200,9.727754150390625,-0.9312591552734375,-0.33172607421875,-0.04522705078125
1782858692858702000,9.7377021484375,-0.9256439208984375,-0.34332275390625,-0.046112060546875
1782858692868651300,9.7476513671875,-0.9257965087890625,-0.3605499267578125,-0.03839111328125
1782858692878630100,9.757630126953124,-0.922576904296875,-0.36627197265625,-0.038116455078125
1782858692888579000,9.7675791015625,-0.91168212890625,-0.3625030517578125,-0.0495147705078125
1782858692898528000,9.777528076171874,-0.8922576904296875,-0.37451171875,-0.042205810546875
1782858692908477200,9.787477294921874,-0.810546875,-0.4829559326171875,-0.01318359375
1782858692918456000,9.7974560546875,-0.760528564453125,-0.5845947265625,-0.07537841796875
1782858692928405000,9.807405029296875,-0.8952789306640625,-0.4511566162109375,-0.110260009765625
1782858692938353200,9.817353271484375,-0.975555419921875,-0.2431793212890625,-0.063751220703125
1782858692948302000,9.827302001953125,-0.939056396484375,-0.1271820068359375,-0.0539093017578125
1782858692958281000,9.837281005859374,-0.9075927734375,-0.1202239990234375,-0.0946502685546875
1782858692968230000,9.84722998046875,-0.972808837890625,-0.1786346435546875,-0.1496429443359375
1782858692978179000,9.857178955078124,-1.0748443603515625,-0.225799560546875,-0.1739349365234375
1782858692988158000,9.867157958984375,-1.1298065185546875,-0.173858642578125,-0.174591064453125
1782858692998107100,9.877107177734375,-1.141693115234375,-0.0683441162109375,-0.169708251953125
1782858693008055300,9.88705517578125,-1.1383056640625,-0.009124755859375,-0.131011962890625
1782858693018004200,9.897004150390625,-1.125274658203125,-0.0003662109375,-0.0670623779296875
1782858693027983000,9.906983154296874,-1.100677490234375,-0.0050506591796875,-0.0283966064453125
1782858693037932000,9.91693212890625,-1.0769195556640625,-0.035919189453125,-0.025909423828125
1782858693047881200,9.926881103515624,-1.0419464111328125,-0.0647125244140625,-0.0372772216796875
1782858693057830100,9.936830078125,-1.0071258544921875,-0.0421600341796875,0.004486083984375
1782858693067809000,9.94680908203125,-0.986328125,-0.0355224609375,0.02288818359375
1782858693077758000,9.956758056640625,-0.961822509765625,-0.0867156982421875,-0.0113067626953125
1782858693087706000,9.9667060546875,-0.9059295654296875,-0.1649627685546875,-0.0501251220703125
1782858693097655000,9.976655029296875,-0.7890472412109375,-0.2324066162109375,-0.12237548828125
1782858693107634200,9.98663427734375,-0.751007080078125,-0.24041748046875,-0.1610870361328125
1782858693117583000,9.9965830078125,-0.789794921875,-0.1562042236328125,-0.2216033935546875
1782858693127532000,10.006531982421874,-0.880767822265625,-0.0352325439453125,-0.2670440673828125
1782858693137511000,10.016510986328125,-1.211883544921875,0.0927886962890625,-0.2160186767578125
1782858693147460000,10.026460205078125,-1.61383056640625,0.1539764404296875,-0.1244964599609375
1782858693157408000,10.036407958984375,-1.33929443359375,-0.0076751708984375,-0.164703369140625
1782858693167357200,10.046357177734375,-1.2246856689453125,-0.1374969482421875,-0.1911163330078125
1782858693177336000,10.056336181640624,-1.113311767578125,-0.158416748046875,-0.205657958984375
1782858693187285200,10.06628515625,-0.979766845703125,-0.1778106689453125,-0.2322235107421875
1782858693197234200,10.076234130859374,-0.8693389892578125,-0.176361083984375,-0.285186767578125
1782858693207183000,10.08618310546875,-0.7747039794921875,-0.132568359375,-0.34429931640625
1782858693217162200,10.096162353515625,-0.7315216064453125,-0.064727783203125,-0.3446807861328125
1782858693227111200,10.106111083984375,-0.742034912109375,-0.018280029296875,-0.2972869873046875
1782858693237059000,10.11605908203125,-0.767974853515625,-0.009613037109375,-0.245880126953125
1782858693247039000,10.1260390625,-0.776458740234375,-0.0262603759765625,-0.1963348388671875
1782858693256987100,10.135987060546874,-0.76593017578125,-0.06024169921875,-0.1414031982421875
1782858693266936000,10.14593603515625,-0.7791290283203125,-0.1105499267578125,-0.100189208984375
1782858693276885000,10.155885009765624,-0.7898101806640625,-0.1766204833984375,-0.06787109375
1782858693286864100,10.165864013671875,-0.790496826171875,-0.239288330078125,-0.05712890625
1782858693296813000,10.17581298828125,-0.8019866943359375,-0.2761688232421875,-0.0702667236328125
1782858693306761000,10.185760986328125,-0.84173583984375,-0.2797393798828125,-0.0930633544921875
1782858693316710000,10.1957099609375,-0.9411773681640625,-0.257171630859375,-0.10205078125
1782858693326689000,10.20568896484375,-1.007171630859375,-0.2316436767578125,-0.0659027099609375
1782858693336638000,10.215637939453124,-0.9384918212890625,-0.2415618896484375,-0.002899169921875
1782858693346587100,10.225587158203124,-0.83905029296875,-0.2747802734375,0.0452423095703125
1782858693356536000,10.2355361328125,-0.8152008056640625,-0.299896240234375,0.048492431640625
1782858693366515200,10.24551513671875,-0.8665008544921875,-0.310791015625,0.026611328125
1782858693376464100,10.255464111328125,-0.9134979248046875,-0.3119049072265625,0.00897216796875
1782858693386412000,10.265412109375,-0.9125518798828125,-0.310882568359375,0.0015411376953125
1782858693396392200,10.27539208984375,-0.8996734619140625,-0.3089447021484375,0.007781982421875
1782858693406340000,10.285340087890624,-0.90576171875,-0.3075714111328125,0.024322509765625
1782858693416289000,10.2952890625,-0.9264678955078125,-0.3112640380859375,0.045989990234375
1782858693426238000,10.305238037109374,-0.9476165771484375,-0.31719970703125,0.064666748046875
1782858693436217000,10.315217041015625,-0.9624481201171875,-0.3198089599609375,0.0702667236328125
1782858693446166000,10.325166015625,-0.9822235107421875,-0.3159027099609375,0.06719970703125
1782858693456114200,10.3351142578125,-1.01116943359375,-0.2947998046875,0.0525360107421875
1782858693466063000,10.34506298828125,-1.0348358154296875,-0.268585205078125,0.0264892578125
1782858693476042000,10.3550419921875,-1.0477752685546875,-0.251953125,0.00701904296875
1782858693485991000,10.364990966796874,-1.0724334716796875,-0.2471160888671875,0.0046234130859375
1782858693495940000,10.374940185546874,-1.1059417724609375,-0.2628173828125,0.0183258056640625
1782858693505889300,10.38488916015625,-1.11981201171875,-0.3017120361328125,0.04339599609375
1782858693515868200,10.3948681640625,-1.1119384765625,-0.343505859375,0.0655059814453125
1782858693525817000,10.404817138671875,-1.08587646484375,-0.3632965087890625,0.07171630859375
1782858693535765200,10.41476513671875,-1.0558929443359375,-0.362213134765625,0.07440185546875
1782858693545745200,10.4247451171875,-1.0528411865234375,-0.3560638427734375,0.072662353515625
1782858693555693000,10.434693115234374,-1.0599517822265625,-0.3486175537109375,0.0730743408203125
1782858693565642200,10.444642333984374,-1.0606842041015625,-0.3484954833984375,0.0823974609375
1782858693575591200,10.454591064453124,-1.0572357177734375,-0.3527679443359375,0.08111572265625
1782858693585570000,10.464570068359375,-1.0563812255859375,-0.3478851318359375,0.0753021240234375
1782858693595519000,10.47451904296875,-1.07696533203125,-0.3245391845703125,0.0636444091796875
1782858693605468200,10.48446826171875,-1.0980987548828125,-0.277679443359375,0.052337646484375
1782858693615416000,10.494416015625,-1.10723876953125,-0.23028564453125,0.0478668212890625
1782858693625395000,10.50439501953125,-1.1085205078125,-0.196258544921875,0.048492431640625
1782858693635344100,10.51434423828125,-1.094696044921875,-0.1708831787109375,0.04876708984375
1782858693645293000,10.52429296875,-1.067779541015625,-0.151519775390625,0.0479888916015625
1782858693655272000,10.53427197265625,-1.035614013671875,-0.1371612548828125,0.054779052734375
1782858693665220900,10.544220947265625,-0.9938812255859375,-0.1331939697265625,0.0692291259765625
1782858693675170300,10.55417041015625,-0.9465789794921875,-0.1391448974609375,0.085662841796875
1782858693685118200,10.5641181640625,-0.9107513427734375,-0.1461334228515625,0.1061859130859375
1782858693695098000,10.57409814453125,-0.8932952880859375,-0.1560516357421875,0.130828857421875
1782858693705046300,10.58404638671875,-0.8636322021484375,-0.1749725341796875,0.14971923828125
1782858693714995200,10.5939951171875,-0.842987060546875,-0.194122314453125,0.1598663330078125
1782858693724974600,10.603974609375,-0.8489837646484375,-0.2175140380859375,0.1633148193359375
1782858693734953700,10.61395361328125,-0.8519287109375,-0.2590484619140625,0.153411865234375
1782858693744902700,10.623902587890624,-0.8532867431640625,-0.29351806640625,0.1427154541015625
1782858693754851600,10.6338515625,-0.8690185546875,-0.3075714111328125,0.1336517333984375
1782858693764799500,10.643799560546874,-0.8885955810546875,-0.3194122314453125,0.117431640625
1782858693774779600,10.653779541015625,-0.9007415771484375,-0.3318634033203125,0.102508544921875
1782858693784727600,10.6637275390625,-0.906402587890625,-0.348114013671875,0.0887451171875
1782858693794676700,10.6736767578125,-0.9177703857421875,-0.361785888671875,0.0797271728515625
1782858693804655900,10.68365576171875,-0.9327545166015625,-0.3739471435546875,0.0799560546875
1782858693814604800,10.693604736328124,-0.9357147216796875,-0.3834075927734375,0.0873260498046875
1782858693824553700,10.7035537109375,-0.937530517578125,-0.380096435546875,0.101104736328125
1782858693834501600,10.713501708984374,-0.943817138671875,-0.361907958984375,0.1183013916015625
1782858693844481800,10.723481689453125,-0.95208740234375,-0.338653564453125,0.12603759765625
1782858693854429700,10.7334296875,-0.95166015625,-0.323089599609375,0.12255859375
1782858693864378600,10.743378662109375,-0.947540283203125,-0.3166656494140625,0.11590576171875
1782858693874327600,10.75332763671875,-0.945098876953125,-0.312469482421875,0.1068878173828125
1782858693884306700,10.763306640625,-0.934326171875,-0.3101043701171875,0.1021270751953125
1782858693894255600,10.773255615234374,-0.9144134521484375,-0.3035888671875,0.1031341552734375
1782858693904204500,10.78320458984375,-0.8919219970703125,-0.297943115234375,0.09979248046875
1782858693914152700,10.793152587890624,-0.8655242919921875,-0.300537109375,0.09375
1782858693924132600,10.803132568359375,-0.8368377685546875,-0.3110504150390625,0.082977294921875
1782858693934080500,10.81308056640625,-0.8145751953125,-0.3275909423828125,0.0698394775390625
1782858693944029700,10.82302978515625,-0.796051025390625,-0.344940185546875,0.0584564208984375
1782858693954008600,10.833008544921874,-0.788909912109375,-0.3582611083984375,0.051422119140625
1782858693963957800,10.842957763671874,-0.7841339111328125,-0.367950439453125,0.0434417724609375
1782858693973906700,10.85290673828125,-0.7868194580078125,-0.377105712890625,0.03448486328125
1782858693983854800,10.862854736328124,-0.8030548095703125,-0.38720703125,0.031524658203125
1782858693993834800,10.872834716796875,-0.8176422119140625,-0.3994598388671875,0.0372161865234375
1782858694003782700,10.88278271484375,-0.8260955810546875,-0.4100189208984375,0.0441131591796875
1782858694013731800,10.89273193359375,-0.8214111328125,-0.4197540283203125,0.0406341552734375
1782858694023680800,10.9026806640625,-0.8174285888671875,-0.43115234375,0.0382843017578125
1782858694033659600,10.91265966796875,-0.8209075927734375,-0.448028564453125,0.03582763671875
1782858694043608600,10.922608642578124,-0.8240966796875,-0.4617767333984375,0.0313568115234375
1782858694053557800,10.932557861328124,-0.831634521484375,-0.470794677734375,0.0324859619140625
1782858694063536600,10.94253662109375,-0.833404541015625,-0.4732666015625,0.037811279296875
1782858694073485600,10.952485595703125,-0.83880615234375,-0.4678802490234375,0.0419464111328125
1782858694083433700,10.962433837890625,-0.8491973876953125,-0.461029052734375,0.0414276123046875
1782858694093382700,10.972382568359375,-0.8581390380859375,-0.4555206298828125,0.03753662109375
1782858694103361500,10.982361572265624,-0.867706298828125,-0.4515838623046875,0.0334625244140625
1782858694113310500,10.992310546875,-0.8747100830078125,-0.44696044921875,0.030120849609375
1782858694123260000,11.002260009765624,-0.8702392578125,-0.442230224609375,0.0249786376953125
1782858694133207600,11.01220751953125,-0.8538665771484375,-0.4419097900390625,0.0263671875
1782858694143187700,11.022187744140625,-0.8392791748046875,-0.4405517578125,0.041229248046875
1782858694153135900,11.032135986328125,-0.840972900390625,-0.4383697509765625,0.0544586181640625
1782858694163084800,11.042084716796875,-0.8437957763671875,-0.440185546875,0.057830810546875
1782858694173033700,11.05203369140625,-0.8480377197265625,-0.4470367431640625,0.0535888671875
1782858694183012600,11.0620126953125,-0.86236572265625,-0.4519500732421875,0.04681396484375
1782858694192961800,11.0719619140625,-0.8758392333984375,-0.4463958740234375,0.038543701171875
1782858694202910700,11.08191064453125,-0.88507080078125,-0.44287109375,0.0291748046875
1782858694212889600,11.0918896484375,-0.8917388916015625,-0.4471588134765625,0.0294189453125
1782858694222838500,11.101838623046875,-0.901031494140625,-0.4523162841796875,0.037017822265625
1782858694232786700,11.11178662109375,-0.916839599609375,-0.4548492431640625,0.043792724609375
1782858694242735600,11.121735595703125,-0.9228515625,-0.4585723876953125,0.042694091796875
1782858694252714800,11.13171484375,-0.9249267578125,-0.4597320556640625,0.0371551513671875
1782858694262663700,11.14166357421875,-0.93865966796875,-0.4610595703125,0.0362091064453125
1782858694272612600,11.151612548828124,-0.96038818359375,-0.45831298828125,0.0391845703125
1782858694282561800,11.161561767578124,-0.9788818359375,-0.4459228515625,0.0388641357421875
1782858694292540700,11.171540771484375,-0.984893798828125,-0.4364166259765625,0.0280914306640625
1782858694302488600,11.181488525390625,-0.98284912109375,-0.4346466064453125,0.01275634765625
1782858694312437800,11.191437744140625,-0.9819488525390625,-0.4391021728515625,0.006378173828125
1782858694322386700,11.20138671875,-0.9717864990234375,-0.4574127197265625,0.0130615234375
1782858694332365800,11.21136572265625,-0.9712677001953125,-0.4830474853515625,0.020660400390625
1782858694342314800,11.221314697265624,-0.9948577880859375,-0.49017333984375,0.023101806640625
1782858694352263700,11.231263671875,-1.010467529296875,-0.4897308349609375,0.0216064453125
1782858694362242800,11.241242919921875,-1.01348876953125,-0.4970855712890625,0.01727294921875
1782858694372191700,11.251191650390625,-1.0267486572265625,-0.50201416015625,0.005950927734375
1782858694382139600,11.2611396484375,-1.05291748046875,-0.4928131103515625,-0.016632080078125
1782858694392088600,11.271088623046875,-1.074310302734375,-0.47198486328125,-0.0475616455078125
1782858694402067700,11.281067626953124,-1.076873779296875,-0.4478607177734375,-0.087188720703125
1782858694412016600,11.2910166015625,-1.0578155517578125,-0.425933837890625,-0.1283111572265625
1782858694421965600,11.300965576171874,-1.017913818359375,-0.4036865234375,-0.160858154296875
1782858694431914500,11.31091455078125,-0.9688873291015625,-0.379486083984375,-0.1728515625
1782858694441893600,11.3208935546875,-0.92633056640625,-0.3602294921875,-0.1701812744140625
1782858694451842800,11.3308427734375,-0.9067230224609375,-0.358612060546875,-0.1572723388671875
1782858694461790500,11.34079052734375,-0.9145355224609375,-0.358642578125,-0.1405487060546875
1782858694471769600,11.35076953125,-0.9275665283203125,-0.3474273681640625,-0.13055419921875
1782858694481718800,11.36071875,-0.9178314208984375,-0.337188720703125,-0.1378936767578125
1782858694491667700,11.370667724609374,-0.8881378173828125,-0.324066162109375,-0.1605224609375
1782858694501616600,11.38061669921875,-0.8600311279296875,-0.3069000244140625,-0.1738128662109375
1782858694511595800,11.390595703125,-0.83258056640625,-0.2910919189453125,-0.1770477294921875
1782858694521544700,11.400544677734375,-0.808929443359375,-0.28472900390625,-0.1725311279296875
1782858694531492600,11.41049267578125,-0.7999420166015625,-0.2888336181640625,-0.158721923828125
1782858694541441800,11.42044189453125,-0.804168701171875,-0.3026275634765625,-0.1328887939453125
1782858694551420700,11.430420654296874,-0.8225555419921875,-0.3201751708984375,-0.1038360595703125
1782858694561369600,11.44036962890625,-0.8423309326171875,-0.3355865478515625,-0.083404541015625
1782858694571318500,11.450318603515624,-0.8463287353515625,-0.3450775146484375,-0.0733642578125
1782858694581267700,11.460267822265624,-0.8488616943359375,-0.3470916748046875,-0.080963134765625
1782858694591246600,11.47024658203125,-0.865142822265625,-0.344879150390625,-0.0940093994140625
1782858694601195500,11.480195556640625,-0.873687744140625,-0.3386993408203125,-0.1051025390625
1782858694611143700,11.490143798828125,-0.8799896240234375,-0.3313751220703125,-0.1167449951171875
1782858694621123800,11.500123779296874,-0.8915252685546875,-0.327178955078125,-0.128936767578125
1782858694631071500,11.510071533203124,-0.8998260498046875,-0.3279571533203125,-0.1334686279296875
1782858694641020700,11.520020751953124,-0.9053955078125,-0.33251953125,-0.1291656494140625
1782858694650969900,11.529969970703124,-0.9151763916015625,-0.3339691162109375,-0.1209564208984375
1782858694660948700,11.53994873046875,-0.920379638671875,-0.3360748291015625,-0.1186676025390625
1782858694670897700,11.549897705078125,-0.918731689453125,-0.3361968994140625,-0.118927001953125
1782858694680845800,11.559845703125,-0.911163330078125,-0.331817626953125,-0.112701416015625
1782858694690794800,11.569794677734375,-0.8965301513671875,-0.330963134765625,-0.09625244140625
1782858694700773600,11.579773681640624,-0.8721771240234375,-0.336456298828125,-0.0805816650390625
1782858694710722600,11.58972265625,-0.8528289794921875,-0.347320556640625,-0.0704803466796875
1782858694720671700,11.599671630859374,-0.8456878662109375,-0.3664093017578125,-0.0662841796875
1782858694730687000,11.60968701171875,-0.839263916015625,-0.38720703125,-0.059295654296875
1782858694740636000,11.619635986328126,-0.8336639404296875,-0.405426025390625,-0.046844482421875
1782858694750584800,11.629584716796876,-0.8289337158203125,-0.4184722900390625,-0.0363922119140625
1782858694760532700,11.63953271484375,-0.83013916015625,-0.4246978759765625,-0.02978515625
1782858694770513000,11.649512939453125,-0.8366851806640625,-0.43023681640625,-0.0273590087890625
1782858694780460800,11.659460693359375,-0.8439788818359375,-0.431793212890625,-0.029815673828125
1782858694790410000,11.669409912109375,-0.8502655029296875,-0.4311981201171875,-0.0328521728515625
1782858694800359000,11.67935888671875,-0.8506011962890625,-0.4255828857421875,-0.0364990234375
1782858694810338000,11.689338134765626,-0.850128173828125,-0.41748046875,-0.041259765625
1782858694820287000,11.699286865234376,-0.8430633544921875,-0.40948486328125,-0.0413055419921875
1782858694830235000,11.70923486328125,-0.8320159912109375,-0.4019317626953125,-0.034637451171875
1782858694840184000,11.71918408203125,-0.8212890625,-0.393035888671875,-0.02484130859375
1782858694850163000,11.729162841796875,-0.8162994384765625,-0.3829498291015625,-0.0175323486328125
1782858694860112000,11.73911181640625,-0.8133087158203125,-0.375213623046875,-0.0172576904296875
1782858694870060800,11.749060791015625,-0.8094482421875,-0.3746337890625,-0.013458251953125
1782858694880040000,11.7590400390625,-0.8109588623046875,-0.3727264404296875,-0.0025177001953125
1782858694889988900,11.76898876953125,-0.8145599365234375,-0.37005615234375,0.0071563720703125
1782858694899937800,11.778937744140626,-0.8038177490234375,-0.3766937255859375,0.01605224609375
1782858694909886000,11.788885986328125,-0.800262451171875,-0.386260986328125,0.02288818359375
1782858694919865900,11.798865966796875,-0.806488037109375,-0.3986968994140625,0.024688720703125
1782858694929813800,11.808813720703125,-0.8090667724609375,-0.41424560546875,0.028564453125
1782858694939763000,11.818762939453125,-0.8193817138671875,-0.422454833984375,0.0317840576171875
1782858694949712100,11.828712158203125,-0.8500518798828125,-0.41961669921875,0.03082275390625
1782858694959690800,11.838690673828125,-0.8956298828125,-0.413665771484375,0.0290069580078125
1782858694969640000,11.848639892578126,-0.92791748046875,-0.4050140380859375,0.0251312255859375
1782858694979588000,11.858588134765625,-0.8613433837890625,-0.3718109130859375,0.035858154296875
1782858694989537000,11.868537109375,-0.559326171875,-0.3363189697265625,0.2307281494140625
1782858694999516000,11.878515869140625,-0.945556640625,-0.421905517578125,0.3883209228515625
1782858695009465000,11.888465087890625,-1.0102386474609375,-0.4432830810546875,0.323211669921875
1782858695019414000,11.8984140625,-0.9416656494140625,-0.402374267578125,0.187042236328125
1782858695029393000,11.908392822265625,-0.9575042724609375,-0.4140167236328125,0.0700531005859375
1782858695039341800,11.918341796875,-0.95611572265625,-0.4447174072265625,0.060211181640625
1782858695049291000,11.928291015625,-0.9933624267578125,-0.4398345947265625,0.077484130859375
1782858695059239000,11.938239013671875,-1.0387420654296875,-0.4189910888671875,0.0654754638671875
1782858695069218800,11.94821875,-1.0517578125,-0.415069580078125,0.0449676513671875
1782858695079167000,11.9581669921875,-1.0343170166015625,-0.441070556640625,0.0553436279296875
1782858695089116000,11.968115966796875,-0.9947967529296875,-0.4658203125,0.0951080322265625
