time,seconds_elapsed,z,y,x
1783152159704483600,0.142483642578125,0.1191253662109375,0.0140380859375,-0.1460113525390625
1783152159723618000,0.1616181640625,0.1191253662109375,0.0140380859375,-0.1460113525390625
1783152159733292300,0.171292236328125,-0.265106201171875,0.4172210693359375,-0.850341796875
1783152159743027500,0.18102734375,-0.2809906005859375,0.51556396484375,-0.825897216796875
1783152159752792800,0.190792724609375,-0.293212890625,0.52532958984375,-0.7727508544921875
1783152159762528000,0.200528076171875,-0.2962493896484375,0.4642486572265625,-0.6982269287109375
1783152159772263200,0.21026318359375,-0.2950286865234375,0.3549041748046875,-0.6121063232421875
1783152159781998300,0.219998291015625,-0.28955078125,0.23333740234375,-0.5241241455078125
1783152159791702800,0.229702880859375,-0.2840423583984375,0.135589599609375,-0.4392242431640625
1783152159801407500,0.239407470703125,-0.2816009521484375,0.051910400390625,-0.3714141845703125
1783152159811112000,0.24911181640625,-0.2748870849609375,-0.0195465087890625,-0.3286590576171875
1783152159820847000,0.25884716796875,-0.255340576171875,-0.0513153076171875,-0.3042144775390625
1783152159830551800,0.2685517578125,-0.2168426513671875,-0.0452117919921875,-0.2907867431640625
1783152159840256300,0.27825634765625,-0.15576171875,-0.0110015869140625,-0.2779388427734375
1783152159849961000,0.2879609375,-0.0769500732421875,0.057403564453125,-0.249237060546875
1783152159859696000,0.297696044921875,0.0030517578125,0.131927490234375,-0.1930389404296875
1783152159869400600,0.307400634765625,0.06842041015625,0.1575927734375,-0.1166839599609375
1783152159879105300,0.317105224609375,0.1197357177734375,0.120941162109375,-0.031768798828125
1783152159888809700,0.326809814453125,0.1612701416015625,0.053741455078125,0.058013916015625
1783152159898545000,0.336544921875,0.1942596435546875,-0.024444580078125,0.1502532958984375
1783152159908249600,0.34624951171875,0.2241973876953125,-0.113616943359375,0.23272705078125
1783152159917954000,0.3559541015625,0.250457763671875,-0.21563720703125,0.2913665771484375
1783152159927658800,0.36565869140625,0.2632904052734375,-0.322540283203125,0.3237457275390625
1783152159937393700,0.3753935546875,0.2620697021484375,-0.4129486083984375,0.3304595947265625
1783152159947098400,0.385098388671875,0.242523193359375,-0.4801483154296875,0.3133544921875
1783152159956803000,0.394802978515625,0.1997528076171875,-0.535125732421875,0.2773284912109375
1783152159966538000,0.4045380859375,0.138671875,-0.5461273193359375,0.22784423828125
1783152159976273200,0.414273193359375,0.07147216796875,-0.4844207763671875,0.1728668212890625
1783152159985977900,0.423977783203125,0.0024566650390625,-0.36346435546875,0.1081085205078125
1783152159995682300,0.433682373046875,-0.0623016357421875,-0.1930389404296875,0.0378570556640625
1783152160005387000,0.443386962890625,-0.1325531005859375,0.0360260009765625,-0.028717041015625
1783152160015122200,0.4531220703125,-0.2089080810546875,0.267547607421875,-0.097137451171875
1783152160024826600,0.46282666015625,-0.266326904296875,0.448974609375,-0.166778564453125
1783152160034531300,0.47253125,-0.290771484375,0.565032958984375,-0.2309112548828125
1783152160044235800,0.48223583984375,-0.2828216552734375,0.618194580078125,-0.28466796875
1783152160053971000,0.491970947265625,-0.2492218017578125,0.629791259765625,-0.3378143310546875
1783152160063675600,0.501675537109375,-0.199127197265625,0.577880859375,-0.404388427734375
1783152160073380000,0.511380126953125,-0.1368255615234375,0.473419189453125,-0.4874725341796875
1783152160083084800,0.521084716796875,-0.0653533935546875,0.3646697998046875,-0.5803375244140625
1783152160092789200,0.530789306640625,0.0164947509765625,0.339019775390625,-0.64447021484375
1783152160102524400,0.5405244140625,0.1105804443359375,0.444091796875,-0.64202880859375
1783152160112228900,0.550228759765625,0.2015838623046875,0.65606689453125,-0.564453125
1783152160121933600,0.55993359375,0.2791595458984375,0.867431640625,-0.4331207275390625
1783152160131638300,0.56963818359375,0.3426971435546875,0.94195556640625,-0.2913818359375
1783152160141373200,0.579373291015625,0.3781280517578125,0.833221435546875,-0.184478759765625
1783152160151078000,0.589077880859375,0.36346435546875,0.585205078125,-0.1356048583984375
1783152160160782300,0.5987822265625,0.3048248291015625,0.271209716796875,-0.1514892578125
1783152160170487000,0.608487060546875,0.2211456298828125,-0.07025146484375,-0.240692138671875
1783152160180222200,0.61822216796875,0.1307220458984375,-0.417236328125,-0.403167724609375
1783152160189926700,0.6279267578125,0.0507049560546875,-0.7263336181640625,-0.6291961669921875
1783152160199631400,0.63763134765625,0.0097808837890625,-0.94134521484375,-0.8808746337890625
1783152160209335800,0.647335693359375,0.037261962890625,-1.008544921875,-1.102630615234375
1783152160219071000,0.657071044921875,0.142333984375,-0.9462432861328125,-1.247406005859375
1783152160228775700,0.666775634765625,0.317047119140625,-0.8368988037109375,-1.2938232421875
1783152160238480100,0.676480224609375,0.540618896484375,-0.7269287109375,-1.2388458251953125
1783152160248215300,0.68621533203125,0.7715301513671875,-0.6658477783203125,-1.114837646484375
1783152160257950500,0.695950439453125,0.972503662109375,-0.7098236083984375,-0.965789794921875
1783152160267655000,0.705655029296875,1.1282806396484375,-0.8680419921875,-0.818572998046875
1783152160277359600,0.715359619140625,1.2394561767578125,-1.08245849609375,-0.6646270751953125
1783152160287064300,0.725064208984375,1.3182525634765625,-1.259002685546875,-0.48931884765625
1783152160296799200,0.73479931640625,1.3781280517578125,-1.3170318603515625,-0.2779388427734375
1783152160306504000,0.74450390625,1.4190521240234375,-1.246185302734375,-0.039093017578125
1783152160316208400,0.75420849609375,1.4398193359375,-1.0794219970703125,0.2150115966796875
1783152160325913000,0.7639130859375,1.4520416259765625,-0.8448333740234375,0.469757080078125
1783152160335648300,0.773648193359375,1.4587554931640625,-0.5882720947265625,0.708587646484375
1783152160345352700,0.783352783203125,1.4477691650390625,-0.34820556640625,0.919342041015625
1783152160355057400,0.793057373046875,1.401336669921875,-0.138671875,1.0781707763671875
1783152160364761900,0.802761962890625,1.321319580078125,0.010986328125,1.1771240234375
1783152160374497000,0.8124970703125,1.2303009033203125,0.09039306640625,1.2180633544921875
1783152160384201700,0.82220166015625,1.1349945068359375,0.111785888671875,1.2137908935546875
1783152160393906200,0.83190625,1.043365478515625,0.1020050048828125,1.1710205078125
1783152160403611000,0.84161083984375,0.9529571533203125,0.0677947998046875,1.09466552734375
1783152160413346000,0.851345947265625,0.8582763671875,0.0390777587890625,1.0030364990234375
1783152160423050500,0.861050537109375,0.7684783935546875,0.0684051513671875,0.921783447265625
1783152160432755200,0.870755126953125,0.6982269287109375,0.202789306640625,0.872314453125
1783152160442459600,0.880459716796875,0.6560821533203125,0.4294281005859375,0.848480224609375
1783152160452194800,0.89019482421875,0.6249237060546875,0.6438446044921875,0.7898406982421875
1783152160461899500,0.8998994140625,0.5839996337890625,0.6847686767578125,0.624908447265625
1783152160471604000,0.90960400390625,0.50762939453125,0.5265655517578125,0.337799072265625
1783152160481308700,0.91930859375,0.3781280517578125,0.37994384765625,0.013427734375
1783152160491043600,0.929043701171875,0.1997528076171875,0.4263763427734375,-0.251678466796875
1783152160500748300,0.938748291015625,0.024444580078125,0.699432373046875,-0.4312744140625
1783152160510453000,0.948452880859375,-0.1099395751953125,1.0396881103515625,-0.5723876953125
1783152160520157400,0.958157470703125,-0.276702880859375,0.9333953857421875,-0.745880126953125
1783152160529862100,0.967862060546875,-0.5656585693359375,0.1795806884765625,-0.959075927734375
1783152160539597000,0.97759716796875,-0.94073486328125,-0.610260009765625,-1.0916290283203125
1783152160549332200,0.987332275390625,-1.352447509765625,-0.8002471923828125,-1.0054931640625
1783152160559037000,0.997036865234375,-1.7531890869140625,-0.251678466796875,-0.6634063720703125
1783152160568741400,1.006741455078125,-2.0427398681640625,0.79840087890625,-0.1539459228515625
1783152160578476500,1.0164765625,-2.142303466796875,1.8283233642578125,0.3292388916015625
1783152160588181200,1.02618115234375,-2.0720672607421875,2.39642333984375,0.6175689697265625
1783152160597885700,1.0358857421875,-1.8936920166015625,2.5485382080078125,0.6774444580078125
1783152160607590400,1.04559033203125,-1.6566619873046875,2.4721832275390625,0.5406036376953125
1783152160617325300,1.0553251953125,-1.408660888671875,2.24615478515625,0.22906494140625
1783152160627030000,1.065030029296875,-1.1624755859375,1.919952392578125,-0.2284698486328125
1783152160636734700,1.074734619140625,-0.8197784423828125,1.555267333984375,-0.7391510009765625
1783152160646439200,1.084439208984375,-0.23577880859375,1.1630859375,-1.186309814453125
1783152160656174300,1.09417431640625,0.5839996337890625,0.700042724609375,-1.5137481689453125
1783152160665878800,1.103878662109375,1.469146728515625,0.188751220703125,-1.6725616455078125
1783152160675583500,1.11358349609375,2.2015838623046875,-0.2327423095703125,-1.64141845703125
1783152160685288200,1.1232880859375,2.6096343994140625,-0.462432861328125,-1.4502105712890625
1783152160695023000,1.133023193359375,2.6695098876953125,-0.4832000732421875,-1.1453857421875
1783152160704727800,1.142727783203125,2.4544830322265625,-0.3677520751953125,-0.757476806640625
1783152160714432300,1.152432373046875,2.08184814453125,-0.27978515625,-0.3323211669921875
1783152160724137000,1.162136962890625,1.681732177734375,-0.317657470703125,0.08856201171875
1783152160733872000,1.1718720703125,1.3469696044921875,-0.3989105224609375,0.481353759765625
1783152160743576600,1.18157666015625,1.1325531005859375,-0.4410400390625,0.8191680908203125
1783152160753281300,1.19128125,1.034210205078125,-0.4752655029296875,1.0824432373046875
1783152160762985700,1.20098583984375,1.00732421875,-0.5143585205078125,1.2822113037109375
1783152160772721000,1.210720947265625,1.0140380859375,-0.5222930908203125,1.4391937255859375
1783152160782425600,1.220425537109375,1.028106689453125,-0.4777069091796875,1.566253662109375
1783152160792130000,1.230130126953125,1.0195465087890625,-0.387908935546875,1.66339111328125
1783152160801834800,1.239834716796875,0.9474639892578125,-0.2956695556640625,1.7287445068359375
1783152160811570000,1.24956982421875,0.7696990966796875,-0.21075439453125,1.7519683837890625
1783152160821304800,1.259304931640625,0.4746551513671875,-0.112396240234375,1.7238616943359375
1783152160831009500,1.269009521484375,0.0830841064453125,0.0305328369140625,1.6468963623046875
1783152160840714000,1.2787138671875,-0.36529541015625,0.2559356689453125,1.52777099609375
1783152160850449200,1.28844921875,-0.8142852783203125,0.5632171630859375,1.3719940185546875
1783152160860153900,1.29815380859375,-1.2247772216796875,0.9297332763671875,1.1844635009765625
1783152160869858300,1.3078583984375,-1.565032958984375,1.2956390380859375,0.979827880859375
1783152160879563000,1.31756298828125,-1.8271026611328125,1.5784759521484375,0.766632080078125
1783152160889298200,1.327298095703125,-2.0146331787109375,1.7373046875,0.550384521484375
1783152160899002600,1.337002685546875,-2.135589599609375,1.773345947265625,0.338409423828125
1783152160908707300,1.346707275390625,-2.209503173828125,1.7122650146484375,0.1313323974609375
1783152160918411800,1.356411865234375,-2.24737548828125,1.5864105224609375,-0.07269287109375
1783152160928116500,1.366116455078125,-2.2589874267578125,1.37139892578125,-0.2706146240234375
1783152160937851600,1.3758515625,-2.2284393310546875,1.164306640625,-0.4147796630859375
1783152160947556000,1.38555615234375,-2.0861053466796875,1.2131805419921875,-0.4410400390625
1783152160957260800,1.3952607421875,-1.7647857666015625,1.5955810546875,-0.3402557373046875
1783152160966965200,1.40496533203125,-1.2608184814453125,2.0751190185546875,-0.1912078857421875
1783152160976700400,1.414700439453125,-0.689666748046875,2.2840423583984375,-0.1331634521484375
1783152160986405000,1.424405029296875,-0.2076873779296875,1.991424560546875,-0.281005859375
1783152160996109600,1.434109619140625,0.1118011474609375,1.22784423828125,-0.64691162109375
1783152161005814300,1.443814208984375,0.2944488525390625,0.340850830078125,-1.118499755859375
1783152161015549200,1.453549072265625,0.42822265625,-0.2712249755859375,-1.534515380859375
1783152161025254000,1.46325390625,0.6145477294921875,-0.6004791259765625,-1.79901123046875
1783152161034958600,1.47295849609375,0.8497161865234375,-0.85888671875,-1.9205780029296875
1783152161044663000,1.4826630859375,1.0348052978515625,-1.183868408203125,-1.94744873046875
1783152161054398200,1.492398193359375,1.110565185546875,-1.5736083984375,-1.9181365966796875
1783152161064102700,1.5021025390625,1.0855255126953125,-2.009765625,-1.8656005859375
1783152161073807400,1.511807373046875,0.9944915771484375,-2.4337158203125,-1.7996368408203125
1783152161083512000,1.521511962890625,0.8735504150390625,-2.689666748046875,-1.6786651611328125
1783152161093216500,1.531216552734375,0.7605438232421875,-2.6053619384765625,-1.4251708984375
1783152161102951700,1.54095166015625,0.6896820068359375,-2.183258056640625,-1.0274810791015625
1783152161112686800,1.550686767578125,0.681732177734375,-1.575439453125,-0.5650482177734375
1783152161122391300,1.560391357421875,0.7287750244140625,-0.9560089111328125,-0.1380615234375
1783152161132126500,1.57012646484375,0.817352294921875,-0.4404449462890625,0.189361572265625
1783152161141831200,1.5798310546875,0.9144744873046875,-0.07696533203125,0.3970489501953125
1783152161151535600,1.58953564453125,0.9853363037109375,0.1423187255859375,0.5002899169921875
1783152161161240300,1.599240234375,1.0213775634765625,0.24005126953125,0.5302276611328125
1783152161170975200,1.608975341796875,1.0262603759765625,0.199127197265625,0.4954071044921875
1783152161180680000,1.618679931640625,0.99267578125,-0.0012359619140625,0.3909454345703125
1783152161190384400,1.62838427734375,0.93157958984375,-0.2981109619140625,0.2394561767578125
1783152161200089000,1.638089111328125,0.8772125244140625,-0.5534515380859375,0.08428955078125
1783152161219528700,1.65752880859375,0.8704833984375,-0.7556610107421875,-0.1405029296875
1783152161229233400,1.6672333984375,0.8796539306640625,-0.7464752197265625,-0.1979217529296875
1783152161238937900,1.676937744140625,0.8784332275390625,-0.6682891845703125,-0.1979217529296875
1783152161248673000,1.686673095703125,0.86376953125,-0.50396728515625,-0.1227874755859375
1783152161258377700,1.696377685546875,0.8338470458984375,-0.283447265625,0.0225830078125
1783152161268082200,1.706082275390625,0.79229736328125,-0.0910186767578125,0.2162322998046875
1783152161277787000,1.715786865234375,0.744659423828125,0.018310546875,0.4373626708984375
1783152161287491300,1.7254912109375,0.683563232421875,0.0146484375,0.65423583984375
1783152161297226500,1.7352265625,0.605377197265625,-0.097137451171875,0.842987060546875
1783152161306931200,1.74493115234375,0.530242919921875,-0.2266387939453125,1.0091400146484375
1783152161316635600,1.7546357421875,0.469146728515625,-0.3036041259765625,1.16064453125
1783152161326340400,1.76434033203125,0.4129486083984375,-0.3097076416015625,1.2858734130859375
1783152161336075500,1.774075439453125,0.36041259765625,-0.2700042724609375,1.38299560546875
1783152161345780000,1.783780029296875,0.323760986328125,-0.172271728515625,1.455078125
1783152161355484700,1.793484619140625,0.3054351806640625,-0.0189361572265625,1.500885009765625
1783152161374924300,1.81292431640625,0.2852783203125,0.2205047607421875,1.4666900634765625
1783152161384629000,1.82262890625,0.2693939208984375,0.2840423583984375,1.38360595703125
1783152161394364000,1.832364013671875,0.259613037109375,0.3646697998046875,1.2956390380859375
1783152161404068600,1.842068603515625,0.2687835693359375,0.51312255859375,1.22662353515625
1783152161413803800,1.8518037109375,0.2913818359375,0.66888427734375,1.1661376953125
1783152161423508200,1.86150830078125,0.3005523681640625,0.72265625,1.07940673828125
1783152161433213000,1.871212890625,0.2828369140625,0.624298095703125,0.95477294921875
1783152161442917400,1.88091748046875,0.2412872314453125,0.477691650390625,0.7873992919921875
1783152161452652500,1.890652587890625,0.1618804931640625,0.326202392578125,0.554046630859375
1783152161462357200,1.900357177734375,-0.009765625,0.053741455078125,0.193023681640625
1783152161472061700,1.910061767578125,-0.2809906005859375,-0.4141693115234375,-0.34698486328125
1783152161481766400,1.919766357421875,-0.6163482666015625,-0.8814849853515625,-1.0207672119140625
1783152161491501600,1.92950146484375,-1.0030364990234375,-1.07391357421875,-1.714111328125
1783152161501206000,1.9392060546875,-1.4288177490234375,-0.8020782470703125,-2.29443359375
1783152161510910700,1.94891064453125,-1.846038818359375,-0.093475341796875,-2.686004638671875
1783152161520615200,1.958615234375,-2.1795806884765625,0.8576507568359375,-2.8766021728515625
1783152161530350300,1.968350341796875,-2.37872314453125,1.8741455078125,-2.896148681640625
1783152161540055000,1.978054931640625,-2.4709625244140625,2.8393096923828125,-2.80206298828125
1783152161549759500,1.987759521484375,-2.568695068359375,3.6236724853515625,-2.6707305908203125
1783152161559464200,1.997464111328125,-2.7317962646484375,4.1319122314453125,-2.559539794921875
1783152161569199000,2.00719921875,-2.9113922119140625,4.39031982421875,-2.51495361328125
1783152161578903800,2.01690380859375,-2.8038787841796875,4.1905517578125,-2.5009002685546875
1783152161588608500,2.0266083984375,-1.8943023681640625,3.2986907958984375,-2.44287109375
1783152161598313000,2.03631298828125,-0.3127593994140625,1.7495269775390625,-2.441650390625
1783152161608048000,2.046048095703125,1.171661376953125,-0.103851318359375,-2.469757080078125
1783152161617752600,2.055752685546875,2.249847412109375,-1.295654296875,-2.2974853515625
1783152161627457300,2.065457275390625,2.898590087890625,-1.439208984375,-1.8209991455078125
1783152161637161700,2.07516162109375,3.09100341796875,-0.8509368896484375,-1.114227294921875
1783152161646897000,2.08489697265625,2.8851470947265625,-0.0855255126953125,-0.317657470703125
1783152161656601600,2.0946015625,2.44775390625,0.44287109375,0.4587554931640625
1783152161666306000,2.10430615234375,1.9480743408203125,0.5809173583984375,1.125823974609375
1783152161676010800,2.1140107421875,1.4819793701171875,0.4318695068359375,1.6401824951171875
1783152161685746000,2.123745849609375,1.0995635986328125,0.1484375,1.982269287109375
1783152161695480800,2.133480712890625,0.821014404296875,-0.20465087890625,2.1526947021484375
1783152161714890200,2.15289013671875,0.64385986328125,-1.029327392578125,2.128265380859375
1783152161724594700,2.1625947265625,0.747100830078125,-1.4795379638671875,2.0042572021484375
1783152161744034300,2.182034423828125,1.0592498779296875,-2.21441650390625,1.6487274169921875
1783152161753739000,2.191739013671875,1.1557769775390625,-2.323150634765625,1.4642486572265625
1783152161763443700,2.201443603515625,1.191802978515625,-2.251068115234375,1.300537109375
1783152161773178600,2.2111787109375,1.189361572265625,-2.0653533935546875,1.169189453125
1783152161782883300,2.22088330078125,1.1557769775390625,-1.8509368896484375,1.0812225341796875
1783152161792587800,2.230587890625,1.07818603515625,-1.6688995361328125,1.0293121337890625
1783152161802292500,2.24029248046875,0.9444122314453125,-1.5833740234375,0.991424560546875
1783152161812027600,2.250027587890625,0.759918212890625,-1.606597900390625,0.95538330078125
1783152161821732000,2.259732177734375,0.536956787109375,-1.6634063720703125,0.910186767578125
1783152161831436800,2.269436767578125,0.3054351806640625,-1.612701416015625,0.8643646240234375
1783152161841141200,2.279141357421875,0.1215667724609375,-1.3121490478515625,0.8301544189453125
1783152161850876400,2.28887646484375,0.020782470703125,-0.7733612060546875,0.80694580078125
1783152161860581000,2.2985810546875,-0.0128173828125,-0.21136474609375,0.7599029541015625
1783152161879990300,2.317990234375,-0.1820220947265625,-0.384857177734375,0.3628387451171875
1783152161889725400,2.327725341796875,-0.4471435546875,-1.2003631591796875,-0.0097808837890625
1783152161899430000,2.337429931640625,-0.835662841796875,-1.94195556640625,-0.3799591064453125
1783152161909134600,2.347134521484375,-1.2864837646484375,-2.298095703125,-0.673797607421875
1783152161918839000,2.356839111328125,-1.66217041015625,-2.264495849609375,-0.8766021728515625
1783152161928574200,2.36657421875,-1.8778076171875,-1.976165771484375,-1.0122222900390625
1783152161938279000,2.37627880859375,-1.9297332763671875,-1.464263916015625,-1.07269287109375
1783152161957688000,2.39568798828125,-1.6884307861328125,0.0366363525390625,-1.0134429931640625
1783152161967423000,2.405423095703125,-1.5509796142578125,0.635894775390625,-1.026885986328125
1783152161977158100,2.415158203125,-1.485626220703125,1.043975830078125,-1.1270599365234375
1783152161986862800,2.42486279296875,-1.498443603515625,1.37445068359375,-1.323760986328125
1783152161996567300,2.4345673828125,-1.5821380615234375,1.698211669921875,-1.615142822265625
1783152162006302500,2.444302490234375,-1.7256927490234375,2.0152587890625,-1.9835052490234375
1783152162016007200,2.454007080078125,-1.8949127197265625,2.2968597412109375,-2.3762969970703125
1783152162025711600,2.463711669921875,-2.0464019775390625,2.5112762451171875,-2.7201995849609375
1783152162035416300,2.473416259765625,-2.1514739990234375,2.6829376220703125,-2.94073486328125
1783152162045151200,2.483151123046875,-2.210723876953125,2.8765869140625,-3.0140380859375
1783152162054856000,2.49285595703125,-2.208892822265625,3.1215362548828125,-2.9529571533203125
1783152162064560600,2.502560546875,-2.10931396484375,3.421478271484375,-2.8124542236328125
1783152162074265000,2.51226513671875,-1.8661956787109375,3.68170166015625,-2.65301513671875
1783152162084000300,2.522000244140625,-1.4679107666015625,3.7672271728515625,-2.5241241455078125
1783152162093704700,2.53170458984375,-0.94439697265625,3.6939239501953125,-2.4538726806640625
1783152162103409400,2.541409423828125,-0.37750244140625,3.5143280029296875,-2.415985107421875
1783152162113114000,2.551114013671875,0.1612701416015625,3.2345428466796875,-2.37445068359375
1783152162122818600,2.560818603515625,0.63714599609375,2.8478546142578125,-2.2803802490234375
1783152162132553700,2.5705537109375,1.032989501953125,2.3768768310546875,-2.08184814453125
1783152162142258200,2.580258056640625,1.3433074951171875,1.8955230712890625,-1.759918212890625
1783152162151963000,2.589962890625,1.541839599609375,1.4703521728515625,-1.3463592529296875
1783152162161667600,2.59966748046875,1.611480712890625,1.1111602783203125,-0.896759033203125
1783152162171402500,2.609402587890625,1.5833740234375,0.8167266845703125,-0.4520416259765625
1783152162181107200,2.619107177734375,1.51190185546875,0.5870361328125,-0.039703369140625
1783152162190811600,2.628811767578125,1.4306640625,0.3915557861328125,0.3121337890625
1783152162200516400,2.638516357421875,1.3439178466796875,0.189971923828125,0.5870361328125
1783152162210251500,2.64825146484375,1.247406005859375,-0.0134429931640625,0.7892303466796875
1783152162219956000,2.6579560546875,1.1575927734375,-0.21990966796875,0.9187469482421875
1783152162229660700,2.66766064453125,1.119110107421875,-0.49481201171875,0.9737091064453125
1783152162239365000,2.677365234375,1.177764892578125,-0.78070068359375,0.981658935546875
1783152162249100300,2.687100341796875,1.287109375,-0.968231201171875,0.9676055908203125
1783152162258835500,2.69683544921875,1.3677520751953125,-1.0537567138671875,0.9303436279296875
1783152162268540000,2.706539794921875,1.4373779296875,-1.0262603759765625,0.8906402587890625
1783152162278244600,2.71624462890625,1.5351104736328125,-0.8875885009765625,0.8833160400390625
1783152162287979800,2.725979736328125,1.64141845703125,-0.6249237060546875,0.93829345703125
1783152162297684200,2.735684326171875,1.689056396484375,-0.35736083984375,1.053741455078125
1783152162307389000,2.745388916015625,1.605987548828125,-0.288330078125,1.1844635009765625
1783152162317093400,2.75509326171875,1.3097076416015625,-0.564453125,1.2828216552734375
1783152162326828500,2.76482861328125,0.8026885986328125,-1.111175537109375,1.3219146728515625
1783152162336533200,2.774533203125,0.175323486328125,-1.6750030517578125,1.2962493896484375
1783152162346237700,2.78423779296875,-0.4447021484375,-2.0635223388671875,1.200958251953125
1783152162355942400,2.7939423828125,-0.9297332763671875,-2.22296142578125,1.055572509765625
1783152162365677600,2.803677490234375,-1.23211669921875,-2.1484375,0.911407470703125
1783152162375382000,2.813382080078125,-1.3243560791015625,-1.8460540771484375,0.832000732421875
1783152162385086700,2.823086669921875,-1.2144012451171875,-1.4123382568359375,0.8325958251953125
1783152162394791200,2.832791259765625,-0.9578399658203125,-0.9474639892578125,0.8851318359375
1783152162404526300,2.8425263671875,-0.627960205078125,-0.5675048828125,0.923004150390625
1783152162414231000,2.85223095703125,-0.326202392578125,-0.4166107177734375,0.8833160400390625
1783152162423935500,2.861935546875,-0.1087188720703125,-0.458770751953125,0.7537994384765625
1783152162433640200,2.87164013671875,0.0054931640625,-0.564453125,0.52593994140625
1783152162443375000,2.881375,0.0012359619140625,-0.64019775390625,0.200347900390625
1783152162453079800,2.891079833984375,-0.0635223388671875,-0.604156494140625,-0.1863250732421875
1783152162462784500,2.900784423828125,-0.1136016845703125,-0.4465484619140625,-0.599884033203125
1783152162472489000,2.910489013671875,-0.1349945068359375,-0.2645111083984375,-1.0134429931640625
1783152162482193700,2.920193603515625,-0.1392669677734375,-0.112396240234375,-1.3854522705078125
1783152162491928600,2.929928466796875,-0.1404876708984375,0.0335845947265625,-1.6664581298828125
1783152162501633300,2.93963330078125,-0.1551513671875,0.1679840087890625,-1.8375091552734375
1783152162511338000,2.949337890625,-0.188140869140625,0.267547607421875,-1.893707275390625
1783152162521042400,2.95904248046875,-0.22296142578125,0.29931640625,-1.830169677734375
1783152162530777600,2.968777587890625,-0.22967529296875,0.2498321533203125,-1.64996337890625
1783152162540512800,2.9785126953125,-0.191802978515625,0.125823974609375,-1.3817901611328125
1783152162550217200,2.98821728515625,-0.114227294921875,-0.040924072265625,-1.0629119873046875
1783152162559922000,2.997921875,-0.0146484375,-0.2223663330078125,-0.7287750244140625
1783152162569657000,3.007656982421875,0.07513427734375,-0.4214935302734375,-0.4080657958984375
1783152162579361500,3.017361572265625,0.1252288818359375,-0.6169891357421875,-0.1240081787109375
1783152162589066200,3.027066162109375,0.1337890625,-0.743438720703125,0.129486083984375
1783152162598770700,3.036770751953125,0.127685546875,-0.7360992431640625,0.36773681640625
1783152162608505900,3.046505859375,0.1435546875,-0.6212615966796875,0.5986480712890625
1783152162618210600,3.05621044921875,0.20709228515625,-0.471588134765625,0.8216094970703125
1783152162627915000,3.0659150390625,0.324371337890625,-0.3414764404296875,1.0360260009765625
1783152162637619700,3.07561962890625,0.463653564453125,-0.2754974365234375,1.23883056640625
1783152162647354600,3.085354736328125,0.5784912109375,-0.306671142578125,1.414764404296875
1783152162657059300,3.095059326171875,0.64813232421875,-0.424560546875,1.5509796142578125
1783152162666763800,3.104763671875,0.671966552734375,-0.6200408935546875,1.627960205078125
1783152162676468500,3.114468505859375,0.64813232421875,-0.904693603515625,1.6236724853515625
1783152162686203600,3.12420361328125,0.605377197265625,-1.1661529541015625,1.547943115234375
1783152162695908000,3.133908203125,0.57177734375,-1.1973114013671875,1.4416351318359375
1783152162705612800,3.14361279296875,0.5638275146484375,-0.9425811767578125,1.338409423828125
1783152162715317200,3.153317138671875,0.6016998291015625,-0.5259552001953125,1.2492218017578125
1783152162734757000,3.172757080078125,0.7684783935546875,0.1533203125,1.125213623046875
1783152162744461600,3.182461669921875,0.7770233154296875,0.1832427978515625,1.0494537353515625
1783152162754166300,3.192166259765625,0.704345703125,0.0042572021484375,0.94744873046875
1783152162763901400,3.2019013671875,0.5497894287109375,-0.3121490478515625,0.8222198486328125
1783152162773606000,3.21160595703125,0.323150634765625,-0.78436279296875,0.6737823486328125
1783152162783310600,3.221310546875,0.023223876953125,-1.36712646484375,0.4972381591796875
1783152162793015000,3.23101513671875,-0.3206939697265625,-1.8857574462890625,0.3072509765625
1783152162802750200,3.240750244140625,-0.6468963623046875,-2.21929931640625,0.120330810546875
1783152162812455000,3.250454833984375,-0.9303436279296875,-2.298095703125,-0.030548095703125
1783152162822189800,3.26018994140625,-1.1423187255859375,-2.050079345703125,-0.1130218505859375
1783152162831894500,3.26989453125,-1.23150634765625,-1.5583343505859375,-0.135009765625
1783152162841629700,3.279629638671875,-1.1771240234375,-1.029327392578125,-0.1514892578125
1783152162851334100,3.289334228515625,-1.0177001953125,-0.64935302734375,-0.2278594970703125
1783152162861038800,3.299038818359375,-0.846038818359375,-0.4709930419921875,-0.395843505859375
1783152162870743300,3.308743408203125,-0.7177581787109375,-0.417236328125,-0.6249237060546875
1783152162880448000,3.318447998046875,-0.6438446044921875,-0.3329315185546875,-0.852783203125
1783152162890183200,3.32818310546875,-0.5968017578125,-0.1166839599609375,-1.0586395263671875
1783152162899887600,3.3378876953125,-0.5283966064453125,0.1624755859375,-1.2663421630859375
1783152162909592300,3.34759228515625,-0.406219482421875,0.37139892578125,-1.4972381591796875
1783152162919296800,3.357296875,-0.22479248046875,0.4373626708984375,-1.7422027587890625
1783152162929032000,3.367031982421875,-0.0238037109375,0.421478271484375,-1.977996826171875
1783152162938736600,3.376736572265625,0.20953369140625,0.37322998046875,-2.1667633056640625
1783152162948441000,3.386441162109375,0.4758758544921875,0.23394775390625,-2.2852783203125
1783152162958145800,3.396145751953125,0.7208251953125,-0.0213775634765625,-2.3109283447265625
1783152162967881000,3.405880859375,0.899810791015625,-0.2681732177734375,-2.21746826171875
1783152162977585400,3.41558544921875,0.9920501708984375,-0.35308837890625,-1.9847259521484375
1783152162987290000,3.4252900390625,0.9932708740234375,-0.2614593505859375,-1.619415283203125
1783152162996994600,3.43499462890625,0.92669677734375,-0.031158447265625,-1.14111328125
1783152163006729700,3.444729736328125,0.8338470458984375,0.2583770751953125,-0.595001220703125
1783152163016434400,3.454434326171875,0.7629852294921875,0.5674896240234375,-0.0250396728515625
1783152163026139000,3.464138916015625,0.7568817138671875,0.8991851806640625,0.5290069580078125
1783152163035843600,3.473843505859375,0.8436126708984375,1.198516845703125,1.0238037109375
1783152163045578500,3.48357861328125,1.0177154541015625,1.3634490966796875,1.417205810546875
1783152163055283200,3.493283203125,1.22967529296875,1.342681884765625,1.693939208984375
1783152163064988000,3.50298779296875,1.4147796630859375,1.1801910400390625,1.849090576171875
1783152163074692400,3.5126923828125,1.51678466796875,0.9058990478515625,1.8802490234375
1783152163084427500,3.522427490234375,1.50640869140625,0.5454864501953125,1.787994384765625
1783152163094132000,3.532132080078125,1.392181396484375,0.154541015625,1.6035308837890625
1783152163113571800,3.55157177734375,0.9774017333984375,-0.285888671875,1.1563568115234375
1783152163123306800,3.561306640625,0.7379302978515625,-0.2620697021484375,0.9676055908203125
1783152163133011500,3.571011474609375,0.49725341796875,-0.2321319580078125,0.80877685546875
1783152163142716200,3.580716064453125,0.2779388427734375,-0.20709228515625,0.6878204345703125
1783152163152420600,3.590420654296875,0.1142425537109375,-0.104461669921875,0.633453369140625
1783152163162155800,3.60015576171875,0.029327392578125,0.1136016845703125,0.65789794921875
1783152163171860200,3.609860107421875,0.030548095703125,0.36590576171875,0.7495269775390625
1783152163181565000,3.61956494140625,0.099578857421875,0.51434326171875,0.8741455078125
1783152163191269600,3.62926953125,0.1502685546875,0.448974609375,0.9663848876953125
1783152163201004500,3.639004638671875,0.0818634033203125,0.154541015625,0.9645538330078125
1783152163210709200,3.648709228515625,-0.1453704833984375,-0.1569976806640625,0.8600921630859375
1783152163220413700,3.65841357421875,-0.51983642578125,-0.2602386474609375,0.66766357421875
1783152163230118400,3.668118408203125,-0.980438232421875,-0.180816650390625,0.3915557861328125
1783152163239823000,3.677822998046875,-1.411102294921875,-0.0110015869140625,0.051300048828125
1783152163249558000,3.68755810546875,-1.66461181640625,0.2724456787109375,-0.2700042724609375
1783152163259262700,3.6972626953125,-1.6743927001953125,0.66217041015625,-0.50518798828125
1783152163268967200,3.70696728515625,-1.4453125,1.0623016357421875,-0.63714599609375
1783152163278672000,3.716671875,-1.0409088134765625,1.31396484375,-0.711669921875
1783152163288407000,3.726406982421875,-0.5754241943359375,1.280975341796875,-0.78375244140625
1783152163298111500,3.736111572265625,-0.188140869140625,0.9388885498046875,-0.8778228759765625
1783152163307816200,3.745816162109375,0.031768798828125,0.434326171875,-0.9883880615234375
1783152163317520600,3.755520751953125,0.0580291748046875,-0.040924072265625,-1.0916290283203125
1783152163327255800,3.765255859375,-0.08062744140625,-0.384857177734375,-1.180816650390625
1783152163336960500,3.77496044921875,-0.3194732666015625,-0.533905029296875,-1.255950927734375
1783152163346665000,3.7846650390625,-0.5656585693359375,-0.49542236328125,-1.3145904541015625
1783152163356369700,3.79436962890625,-0.773345947265625,-0.316436767578125,-1.3500213623046875
1783152163366104800,3.804104736328125,-0.9291229248046875,0.0048828125,-1.36407470703125
1783152163375809300,3.813809326171875,-1.0201416015625,0.4263763427734375,-1.37078857421875
1783152163385514000,3.823513916015625,-1.0726776123046875,0.8289337158203125,-1.36712646484375
1783152163395249000,3.833248779296875,-1.1435394287109375,1.08856201171875,-1.325592041015625
1783152163404984000,3.842984130859375,-1.24188232421875,1.16064453125,-1.186309814453125
1783152163414688800,3.852688720703125,-1.302978515625,1.0659637451171875,-0.9053192138671875
1783152163424393200,3.862393310546875,-1.2895355224609375,0.8533782958984375,-0.4862518310546875
1783152163434098000,3.872097900390625,-1.22296142578125,0.5399932861328125,0.018310546875
1783152163443833000,3.8818330078125,-1.1472015380859375,0.1148223876953125,0.52593994140625
1783152163453537500,3.89153759765625,-1.08795166015625,-0.3023834228515625,0.986541748046875
1783152163463242200,3.9012421875,-1.047637939453125,-0.530853271484375,1.3939971923828125
1783152163472946700,3.91094677734375,-1.0329742431640625,-0.50457763671875,1.7525787353515625
1783152163482681900,3.920681884765625,-1.0482330322265625,-0.3084869384765625,2.058624267578125
1783152163492386600,3.930386474609375,-1.08856201171875,-0.06964111328125,2.3072509765625
1783152163502091000,3.940091064453125,-1.1129913330078125,0.1502532958984375,2.5045623779296875
1783152163511795700,3.949795654296875,-1.0812225341796875,0.3139801025390625,2.6536102294921875
1783152163521530600,3.959530517578125,-0.976776123046875,0.43798828125,2.7605133056640625
1783152163531235300,3.9692353515625,-0.8142852783203125,0.5424346923828125,2.82220458984375
1783152163540940000,3.97893994140625,-0.625518798828125,0.5393829345703125,2.82220458984375
1783152163550644500,3.98864453125,-0.420257568359375,0.337799072265625,2.7372894287109375
1783152163560379600,3.998379638671875,-0.1734771728515625,-0.0012359619140625,2.563812255859375
1783152163570084000,4.008083984375,0.117279052734375,-0.320709228515625,2.3396148681640625
1783152163589493500,4.027493408203125,0.612701416015625,-0.455108642578125,1.842376708984375
1783152163599228400,4.037228515625,0.7251129150390625,-0.404388427734375,1.558319091796875
1783152163618637600,4.056637451171875,0.6255340576171875,-1.001220703125,0.835662841796875
1783152163628342300,4.06634228515625,0.472808837890625,-1.4441070556640625,0.52716064453125
1783152163638077400,4.076077392578125,0.309112548828125,-1.8100128173828125,0.338409423828125
1783152163647782000,4.085781982421875,0.183258056640625,-2.0537567138671875,0.265716552734375
1783152163657486600,4.095486572265625,0.0897979736328125,-1.9822845458984375,0.293212890625
1783152163667191000,4.10519091796875,-0.00244140625,-1.5901031494140625,0.3506317138671875
1783152163676895700,4.114895751953125,-0.1001739501953125,-1.1221771240234375,0.333526611328125
1783152163686631000,4.124630859375,-0.186920166015625,-0.7629852294921875,0.1771392822265625
1783152163696366000,4.134365966796875,-0.2492218017578125,-0.5577239990234375,-0.1240081787109375
1783152163706070500,4.144070556640625,-0.22967529296875,-0.50030517578125,-0.528411865234375
1783152163715775200,4.153775146484375,-0.0696258544921875,-0.5894927978515625,-0.9798431396484375
1783152163725510100,4.16351025390625,0.2296905517578125,-0.7391510009765625,-1.4141693115234375
1783152163735214800,4.17321484375,0.5907135009765625,-0.860107421875,-1.759307861328125
1783152163744919300,4.182919189453125,0.92608642578125,-0.92974853515625,-1.968841552734375
1783152163754624000,4.1926240234375,1.191802978515625,-0.9431915283203125,-2.037872314453125
1783152163764359200,4.202359130859375,1.3573455810546875,-0.9547882080078125,-2.0128173828125
1783152163774063600,4.212063720703125,1.4196624755859375,-0.9767913818359375,-1.9266815185546875
1783152163783768300,4.221768310546875,1.3744659423828125,-0.975555419921875,-1.8057403564453125
1783152163793472800,4.23147265625,1.2254180908203125,-0.9560089111328125,-1.681732177734375
1783152163803208000,4.2412080078125,1.0207672119140625,-0.9156951904296875,-1.5650482177734375
1783152163812912600,4.25091259765625,0.827728271484375,-0.740997314453125,-1.4263916015625
1783152163822617000,4.2606171875,0.6670684814453125,-0.4453277587890625,-1.2681732177734375
1783152163832321800,4.27032177734375,0.5485687255859375,-0.170440673828125,-1.1233978271484375
1783152163842057000,4.280056884765625,0.474029541015625,0.0396881103515625,-1.0195465087890625
1783152163851761400,4.289761474609375,0.4202728271484375,0.2205047607421875,-0.9841156005859375
1783152163861466000,4.299466064453125,0.35736083984375,0.3481903076171875,-1.0274810791015625
1783152163871170600,4.309170654296875,0.2926025390625,0.3964385986328125,-1.112396240234375
1783152163880905700,4.31890576171875,0.248626708984375,0.4624176025390625,-1.178375244140625
1783152163890610400,4.3286103515625,0.1991424560546875,0.623687744140625,-1.176544189453125
1783152163900315000,4.33831494140625,0.111175537109375,0.850921630859375,-1.0934600830078125
1783152163910019600,4.34801953125,-0.01220703125,1.08917236328125,-0.9230194091796875
1783152163919754800,4.357754638671875,-0.1612548828125,1.2840423583984375,-0.679901123046875
1783152163929459200,4.367459228515625,-0.3231353759765625,1.3206787109375,-0.4074554443359375
1783152163939164000,4.377163818359375,-0.4636383056640625,1.1520843505859375,-0.1405029296875
1783152163958603500,4.396603515625,-0.5882568359375,0.479522705078125,0.3933868408203125
1783152163968338700,4.406338623046875,-0.5858154296875,0.1612548828125,0.697601318359375
1783152163978043100,4.416043212890625,-0.5748138427734375,-0.1142425537109375,1.020751953125
1783152163987747800,4.425747802734375,-0.562591552734375,-0.3475799560546875,1.3231353759765625
1783152163997483000,4.43548291015625,-0.550384521484375,-0.535736083984375,1.559539794921875
1783152164007187500,4.4451875,-0.5393829345703125,-0.6157684326171875,1.7153167724609375
1783152164016892200,4.45489208984375,-0.5351104736328125,-0.5827789306640625,1.7825164794921875
1783152164026596600,4.4645966796875,-0.5076141357421875,-0.570556640625,1.7373046875
1783152164036331800,4.474331787109375,-0.417816162109375,-0.679901123046875,1.549163818359375
1783152164046036500,4.484036376953125,-0.2834320068359375,-0.9028778076171875,1.2107391357421875
1783152164055741000,4.493740966796875,-0.1527099609375,-1.1973114013671875,0.7427978515625
1783152164065445600,4.503445556640625,-0.0610809326171875,-1.469146728515625,0.1808013916015625
1783152164075150000,4.513150146484375,-0.0048828125,-1.547332763671875,-0.4025726318359375
1783152164084885200,4.52288525390625,0.0079345703125,-1.35858154296875,-0.9419708251953125
1783152164094590000,4.53258984375,0.0158843994140625,-0.92364501953125,-1.3689727783203125
1783152164104294400,4.54229443359375,0.07208251953125,-0.258392333984375,-1.607208251953125
1783152164113999000,4.5519990234375,0.20587158203125,0.478912353515625,-1.63897705078125
1783152164123734000,4.561734130859375,0.403167724609375,0.9633331298828125,-1.5204620361328125
1783152164133438700,4.571438720703125,0.6004791259765625,1.0048675537109375,-1.3139801025390625
1783152164143143400,4.581143310546875,0.7312164306640625,0.65606689453125,-1.0525360107421875
1783152164152848000,4.590847900390625,0.7935333251953125,0.054351806640625,-0.7617645263671875
1783152164162583000,4.6005830078125,0.79107666015625,-0.595001220703125,-0.457550048828125
1783152164172287500,4.61028759765625,0.7006683349609375,-1.1527099609375,-0.174102783203125
1783152164181992200,4.6199921875,0.538787841796875,-1.5943756103515625,0.050689697265625
1783152164191696600,4.629696533203125,0.36285400390625,-1.907745361328125,0.197296142578125
1783152164201431800,4.639431884765625,0.1979217529296875,-2.044586181640625,0.268768310546875
1783152164220841000,4.658841064453125,-0.0781707763671875,-1.609039306640625,0.3194732666015625
1783152164230545700,4.668545654296875,-0.1801910400390625,-1.036041259765625,0.337799072265625
1783152164240280800,4.67828076171875,-0.2504425048828125,-0.4447174072265625,0.3292388916015625
1783152164249985300,4.6879853515625,-0.2822113037109375,0.003662109375,0.2816009521484375
1783152164259720400,4.697720458984375,-0.2883148193359375,0.22540283203125,0.199127197265625
1783152164269425200,4.707425048828125,-0.2852630615234375,0.2467803955078125,0.09771728515625
1783152164279160000,4.71716015625,-0.264495849609375,0.182647705078125,0.006103515625
1783152164288864800,4.72686474609375,-0.2095184326171875,0.134368896484375,-0.0531463623046875
1783152164298569200,4.7365693359375,-0.120330810546875,0.1490325927734375,-0.06536865234375
1783152164308274000,4.74627392578125,-0.0079193115234375,0.200347900390625,-0.031158447265625
1783152164318009000,4.756009033203125,0.1130218505859375,0.262054443359375,0.042755126953125
1783152164327713500,4.765713623046875,0.21746826171875,0.343292236328125,0.1563720703125
1783152164337418200,4.775418212890625,0.2926025390625,0.4495849609375,0.3084716796875
1783152164347122700,4.785122802734375,0.3317108154296875,0.547332763671875,0.483184814453125
1783152164356827400,4.794827392578125,0.3317108154296875,0.5998687744140625,0.65850830078125
1783152164366562600,4.8045625,0.288330078125,0.6102447509765625,0.80938720703125
1783152164376267000,4.81426708984375,0.1973114013671875,0.5791015625,0.9199676513671875
1783152164385971700,4.8239716796875,0.07147216796875,0.52593994140625,0.987152099609375
1783152164395707000,4.833706787109375,-0.0647430419921875,0.4679107666015625,1.018310546875
1783152164405411300,4.843411376953125,-0.186309814453125,0.4288177490234375,1.0317535400390625
1783152164415116000,4.853115966796875,-0.2736663818359375,0.4611968994140625,1.0482330322265625
1783152164424820500,4.862820556640625,-0.334747314453125,0.5894775390625,1.08306884765625
1783152164434525200,4.872525146484375,-0.37994384765625,0.7586822509765625,1.126434326171875
1783152164444260400,4.88226025390625,-0.409271240234375,0.80816650390625,1.1526947021484375
1783152164453964800,4.89196484375,-0.3958282470703125,0.620635986328125,1.1465911865234375
1783152164463669500,4.90166943359375,-0.3048095703125,0.23760986328125,1.1484222412109375
1783152164473374000,4.9113740234375,-0.1441497802734375,-0.1527252197265625,1.202789306640625
1783152164483109000,4.921109130859375,0.0171051025390625,-0.4404449462890625,1.2870941162109375
1783152164492813800,4.930813720703125,0.106903076171875,-0.684783935546875,1.3145751953125
1783152164502518300,4.940518310546875,0.0910186767578125,-0.962738037109375,1.208892822265625
1783152164512223000,4.950222900390625,-0.0238037109375,-1.2901611328125,0.9401092529296875
1783152164521958000,4.9599580078125,-0.1771392822265625,-1.4850311279296875,0.566253662109375
1783152164531662600,4.96966259765625,-0.327423095703125,-1.4251708984375,0.2034149169921875
1783152164541397800,4.979397705078125,-0.434326171875,-1.114227294921875,-0.0238189697265625
1783152164551102200,4.989102294921875,-0.4447021484375,-0.6255340576171875,-0.06231689453125
1783152164560837400,4.99883740234375,-0.327423095703125,-0.06170654296875,0.059234619140625
1783152164570542000,5.0085419921875,-0.115447998046875,0.4618072509765625,0.2608184814453125
1783152164580246500,5.01824658203125,0.100799560546875,0.7458648681640625,0.4599761962890625
1783152164589951200,5.027951171875,0.249847412109375,0.7562408447265625,0.620635986328125
1783152164599686100,5.03768603515625,0.326812744140625,0.5919189453125,0.728759765625
1783152164609390800,5.047390869140625,0.35369873046875,0.327423095703125,0.7623443603515625
1783152164619095600,5.057095458984375,0.36346435546875,0.055572509765625,0.7104339599609375
1783152164628800000,5.066800048828125,0.394622802734375,-0.1343841552734375,0.5858154296875
1783152164638535200,5.07653515625,0.4569244384765625,-0.21014404296875,0.3982696533203125
1783152164648239600,5.086239501953125,0.544281005859375,-0.1936492919921875,0.1765289306640625
1783152164657944300,5.0959443359375,0.63409423828125,-0.130126953125,-0.06292724609375
1783152164667649000,5.10564892578125,0.6988372802734375,-0.06658935546875,-0.3054351806640625
1783152164677384000,5.115384033203125,0.7293701171875,0.00244140625,-0.536956787109375
1783152164687088600,5.125088623046875,0.7177734375,0.08551025390625,-0.7642059326171875
1783152164696793000,5.13479296875,0.65057373046875,0.1514739990234375,-1
1783152164706497800,5.144497802734375,0.535736083984375,0.196685791015625,-1.247406005859375
1783152164716233000,5.15423291015625,0.4062347412109375,0.23150634765625,-1.5009002685546875
1783152164725937400,5.1639375,0.2932281494140625,0.2822113037109375,-1.72998046875
1783152164735642000,5.17364208984375,0.2211456298828125,0.3866729736328125,-1.8814849853515625
1783152164745346600,5.1833466796875,0.1979217529296875,0.556488037109375,-1.894927978515625
1783152164755081700,5.193081787109375,0.1979217529296875,0.7452392578125,-1.753814697265625
1783152164764786400,5.202786376953125,0.1893768310546875,0.8533782958984375,-1.477691650390625
1783152164774491000,5.212490966796875,0.1673736572265625,0.835052490234375,-1.0879669189453125
1783152164784195600,5.222195556640625,0.12890625,0.72509765625,-0.604766845703125
1783152164793930800,5.2319306640625,0.06536865234375,0.5699310302734375,-0.06903076171875
1783152164803635200,5.24163525390625,-0.0250244140625,0.37872314453125,0.4630279541015625
1783152164813340000,5.25133984375,-0.120941162109375,0.1820220947265625,0.9266815185546875
1783152164823044400,5.26104443359375,-0.195465087890625,0.0384674072265625,1.269989013671875
1783152164832779500,5.270779541015625,-0.22906494140625,-0.0183258056640625,1.478302001953125
1783152164842514700,5.2805146484375,-0.24005126953125,0.003662109375,1.556488037109375
1783152164852219100,5.29021923828125,-0.2473907470703125,0.08306884765625,1.5118865966796875
1783152164861923800,5.299923828125,-0.259002685546875,0.193634033203125,1.346343994140625
1783152164871628300,5.309628173828125,-0.279144287109375,0.3121337890625,1.056793212890625
1783152164881363500,5.319363525390625,-0.2974853515625,0.4404296875,0.6798858642578125
1783152164891068200,5.329068115234375,-0.3103179931640625,0.5680999755859375,0.2608184814453125
1783152164900772600,5.338772705078125,-0.3231353759765625,0.6865997314453125,-0.1563873291015625
1783152164910477300,5.348477294921875,-0.3115386962890625,0.80328369140625,-0.529022216796875
1783152164920212500,5.35821240234375,-0.23699951171875,0.9272918701171875,-0.819183349609375
1783152164929917000,5.3679169921875,-0.07940673828125,1.0506744384765625,-0.974945068359375
1783152164939621600,5.37762158203125,0.1264495849609375,1.135589599609375,-0.9822845458984375
1783152164949326000,5.387326171875,0.311553955078125,1.1050567626953125,-0.9144744873046875
1783152164959061200,5.397061279296875,0.42822265625,0.8533782958984375,-0.8851470947265625
1783152164968766000,5.406765869140625,0.462432861328125,0.43798828125,-0.93890380859375
1783152164978470400,5.416470458984375,0.381805419921875,0.0396881103515625,-1.037261962890625
1783152164988175000,5.426175048828125,0.1521148681640625,-0.2284698486328125,-1.1337738037109375
1783152164997910000,5.435909912109375,-0.1631011962890625,-0.3335418701171875,-1.1991424560546875
1783152165007614700,5.44561474609375,-0.412933349609375,-0.2724609375,-1.2229766845703125
1783152165017319400,5.4553193359375,-0.489898681640625,-0.0806427001953125,-1.21502685546875
1783152165027024000,5.46502392578125,-0.3946075439453125,0.1801910400390625,-1.189361572265625
1783152165036759000,5.474759033203125,-0.190582275390625,0.401336669921875,-1.1673736572265625
1783152165046463500,5.48446337890625,0.0189361572265625,0.4532470703125,-1.1704254150390625
1783152165056168200,5.494168212890625,0.1649322509765625,0.339019775390625,-1.182037353515625
1783152165065873000,5.503872802734375,0.249847412109375,0.1575927734375,-1.1667633056640625
1783152165075607800,5.51360791015625,0.2968902587890625,-0.0152740478515625,-1.1215667724609375
1783152165085312500,5.5233125,0.325592041015625,-0.130126953125,-1.0452117919921875
1783152165095017000,5.533016845703125,0.35858154296875,-0.1618804931640625,-0.93524169921875
1783152165104721700,5.5427216796875,0.4025726318359375,-0.1527252197265625,-0.79534912109375
1783152165114456800,5.552456787109375,0.450225830078125,-0.1435546875,-0.64324951171875
1783152165124192000,5.56219189453125,0.4777069091796875,-0.169830322265625,-0.5113067626953125
1783152165133896400,5.571896484375,0.459991455078125,-0.2632904052734375,-0.431884765625
1783152165143601200,5.58160107421875,0.397674560546875,-0.4111175537109375,-0.417236328125
1783152165153336000,5.591336181640625,0.314605712890625,-0.560791015625,-0.457550048828125
1783152165163040800,5.601040771484375,0.2364044189453125,-0.6524200439453125,-0.528411865234375
1783152165172745500,5.610745361328125,0.1618804931640625,-0.64996337890625,-0.609649658203125
1783152165182450000,5.620449951171875,0.0836944580078125,-0.560791015625,-0.687835693359375
1783152165192185000,5.63018505859375,0.0195465087890625,-0.4355621337890625,-0.747711181640625
1783152165201889500,5.6398896484375,-0.0219879150390625,-0.317657470703125,-0.77398681640625
1783152165211594200,5.64959423828125,-0.0293121337890625,-0.1924285888671875,-0.7379302978515625
1783152165221298700,5.659298583984375,-0.0164794921875,-0.027496337890625,-0.6182098388671875
1783152165240738600,5.678738525390625,-0.0317535400390625,0.1655426025390625,-0.166778564453125
1783152165250443000,5.688443115234375,-0.058013916015625,0.135589599609375,0.117889404296875
1783152165279587300,5.71758740234375,-0.189361572265625,0.0720672607421875,0.8930816650390625
1783152165289292000,5.7272919921875,-0.23089599609375,0.08978271484375,1.0482330322265625
1783152165298996500,5.73699658203125,-0.263885498046875,0.1398773193359375,1.133758544921875
1783152165308701200,5.746701171875,-0.300537109375,0.1832427978515625,1.125823974609375
1783152165318436400,5.756436279296875,-0.345123291015625,0.1588134765625,1.01708984375
1783152165328140800,5.766140869140625,-0.401336669921875,0.046417236328125,0.8228302001953125
1783152165337845500,5.775845458984375,-0.4447021484375,-0.1685943603515625,0.5772552490234375
1783152165347550000,5.785550048828125,-0.421478271484375,-0.403167724609375,0.341461181640625
1783152165357285000,5.79528515625,-0.2962493896484375,-0.4886932373046875,0.2064666748046875
1783152165366989800,5.80498974609375,-0.0995635986328125,-0.3353729248046875,0.23455810546875
1783152165376694300,5.8146943359375,0.114837646484375,0.01953125,0.405609130859375
1783152165386399000,5.82439892578125,0.285888671875,0.3842315673828125,0.614532470703125
1783152165396134100,5.834134033203125,0.35919189453125,0.5345001220703125,0.7452392578125
1783152165405869000,5.843869140625,0.2577972412109375,0.3555145263671875,0.708587646484375
1783152165415573800,5.85357373046875,-0.0366363525390625,-0.0537567138671875,0.4966278076171875
1783152165425278200,5.8632783203125,-0.43798828125,-0.4734344482421875,0.193023681640625
1783152165435013400,5.873013427734375,-0.8637542724609375,-0.78558349609375,-0.1392822265625
1783152165444718000,5.882718017578125,-1.207672119140625,-0.892486572265625,-0.455108642578125
1783152165454422500,5.892422607421875,-1.37384033203125,-0.7678680419921875,-0.7098236083984375
1783152165464127200,5.902127197265625,-1.3157958984375,-0.4459381103515625,-0.8643798828125
1783152165473862400,5.9118623046875,-1.0372467041015625,-0.0152740478515625,-0.92486572265625
1783152165483566800,5.92156689453125,-0.633453369140625,0.334747314453125,-0.93463134765625
1783152165493271600,5.931271484375,-0.265106201171875,0.4679107666015625,-0.93402099609375
1783152165502976000,5.94097607421875,-0.0335845947265625,0.410491943359375,-0.92791748046875
1783152165512711200,5.950711181640625,0.07452392578125,0.24127197265625,-0.907135009765625
1783152165532120300,5.970120361328125,0.05987548828125,-0.1466064453125,-0.7745819091796875
1783152165541825000,5.979824951171875,0.032379150390625,-0.2303009033203125,-0.64569091796875
1783152165551560000,5.989559814453125,0.029937744140625,-0.21197509765625,-0.4722137451171875
1783152165561264600,5.9992646484375,0.0446014404296875,-0.1624908447265625,-0.2700042724609375
1783152165570969300,6.00896923828125,0.06536865234375,-0.1264495849609375,-0.05987548828125
1783152165580673800,6.018673828125,0.07086181640625,-0.1295013427734375,0.1368255615234375
1783152165590409000,6.028408935546875,0.0543670654296875,-0.181427001953125,0.3011474609375
1783152165600113400,6.038113525390625,0.0225982666015625,-0.278564453125,0.416595458984375
1783152165609818000,6.047818115234375,-0.0128173828125,-0.397064208984375,0.470977783203125
1783152165658371600,6.09637158203125,0.0940704345703125,-0.817962646484375,0.113006591796875
1783152165668076000,6.106075927734375,0.185699462890625,-0.7654266357421875,0.0623016357421875
1783152165677811200,6.115811279296875,0.2724609375,-0.616363525390625,0.08001708984375
1783152165687546400,6.12554638671875,0.322540283203125,-0.4123382568359375,0.1624755859375
1783152165697251000,6.1352509765625,0.3359832763671875,-0.1594390869140625,0.29931640625
1783152165706955500,6.14495556640625,0.315826416015625,0.120941162109375,0.488677978515625
1783152165716690700,6.154690673828125,0.2620697021484375,0.3518524169921875,0.7055511474609375
1783152165726395100,6.16439501953125,0.1881561279296875,0.4654693603515625,0.910186767578125
1783152165736099800,6.174099853515625,0.113616943359375,0.4398040771484375,1.0763397216796875
1783152165745804500,6.183804443359375,0.06170654296875,0.2834320068359375,1.197296142578125
1783152165755539500,6.19353955078125,0.037872314453125,0.0641326904296875,1.2834320068359375
1783152165765244200,6.203244140625,0.034210205078125,-0.1252288818359375,1.353668212890625
1783152165774948600,6.212948486328125,0.030548095703125,-0.2211456298828125,1.408660888671875
1783152165794388500,6.232388427734375,0.0048980712890625,-0.1563873291015625,1.4361419677734375
1783152165804093000,6.242093017578125,-0.015869140625,-0.07269287109375,1.39031982421875
1783152165813797600,6.251797607421875,-0.054351806640625,0.042755126953125,1.2974700927734375
1783152165823502000,6.261502197265625,-0.126434326171875,0.2131805419921875,1.1520843505859375
1783152165833237200,6.2712373046875,-0.23760986328125,0.483184814453125,0.9669952392578125
1783152165842942000,6.28094189453125,-0.37811279296875,0.852142333984375,0.756866455078125
1783152165852646400,6.290646484375,-0.5277862548828125,1.22174072265625,0.5277862548828125
1783152165862351000,6.30035107421875,-0.65728759765625,1.4727935791015625,0.2913665771484375
1783152165872086300,6.310086181640625,-0.7391357421875,1.479522705078125,0.0702362060546875
1783152165881790700,6.319790771484375,-0.7501373291015625,1.1392669677734375,-0.1233978271484375
1783152165891495400,6.329495361328125,-0.703094482421875,0.51495361328125,-0.288330078125
1783152165901200000,6.339199951171875,-0.628570556640625,-0.099578857421875,-0.42578125
1783152165910935000,6.34893505859375,-0.551605224609375,-0.4380035400390625,-0.536346435546875
1783152165920639700,6.3586396484375,-0.4960174560546875,-0.4911346435546875,-0.63653564453125
1783152165930344200,6.36834423828125,-0.44775390625,-0.3671417236328125,-0.7299957275390625
1783152165940049000,6.378048828125,-0.37933349609375,-0.2015838623046875,-0.825897216796875
1783152165949753300,6.38775341796875,-0.2748870849609375,-0.0403289794921875,-0.91876220703125
1783152165959488500,6.397488525390625,-0.1441497802734375,0.09283447265625,-0.9944915771484375
1783152165969223700,6.4072236328125,-0.0103759765625,0.1801910400390625,-1.040924072265625
1783152165978928000,6.41692822265625,0.108734130859375,0.22967529296875,-1.050689697265625
1783152165988632800,6.4266328125,0.21807861328125,0.2498321533203125,-1.026885986328125
1783152165998368000,6.436367919921875,0.318267822265625,0.2547149658203125,-0.9786224365234375
1783152166008072400,6.446072509765625,0.388519287109375,0.23760986328125,-0.92608642578125
1783152166017777200,6.455777099609375,0.4098968505859375,0.182647705078125,-0.889434814453125
1783152166027481600,6.465481689453125,0.3824005126953125,0.0738983154296875,-0.8735504150390625
1783152166037216800,6.475216796875,0.3317108154296875,-0.0910186767578125,-0.8582763671875
1783152166046921500,6.48492138671875,0.2999420166015625,-0.2681732177734375,-0.816131591796875
1783152166056626000,6.4946259765625,0.312774658203125,-0.4056243896484375,-0.7367095947265625
1783152166066330600,6.50433056640625,0.36407470703125,-0.49237060546875,-0.6279754638671875
1783152166076065500,6.5140654296875,0.4380035400390625,-0.5595550537109375,-0.5210723876953125
1783152166085770200,6.523770263671875,0.5174102783203125,-0.6304168701171875,-0.4398193359375
1783152166095475000,6.533474853515625,0.5803375244140625,-0.71044921875,-0.395843505859375
1783152166105179400,6.543179443359375,0.607818603515625,-0.7733612060546875,-0.391571044921875
1783152166114914600,6.55291455078125,0.5882720947265625,-0.8136749267578125,-0.417236328125
1783152166124619000,6.562618896484375,0.5149688720703125,-0.8478851318359375,-0.4544830322265625
1783152166134323700,6.57232373046875,0.404388427734375,-0.831390380859375,-0.4697723388671875
1783152166144028400,6.5820283203125,0.27490234375,-0.72021484375,-0.4337158203125
1783152166153763300,6.591763427734375,0.1496734619140625,-0.5522308349609375,-0.3359832763671875
1783152166163468000,6.601468017578125,0.0488739013671875,-0.3708038330078125,-0.183258056640625
1783152166173172500,6.61117236328125,-0.0213623046875,-0.21075439453125,0.00244140625
1783152166182877200,6.620877197265625,-0.056182861328125,-0.137451171875,0.187530517578125
1783152166192612400,6.6306123046875,-0.0610809326171875,-0.1673736572265625,0.342681884765625
1783152166202316800,6.64031689453125,-0.044586181640625,-0.2223663330078125,0.4660797119140625
1783152166212021500,6.650021484375,-0.0280914306640625,-0.252899169921875,0.558319091796875
1783152166221726000,6.659725830078125,-0.013427734375,-0.20892333984375,0.6328582763671875
1783152166231461000,6.669461181640625,0.0079345703125,-0.029937744140625,0.721435546875
1783152166241165800,6.679165771484375,0.031158447265625,0.2528839111328125,0.8277130126953125
1783152166250870300,6.688870361328125,0.0507049560546875,0.4947967529296875,0.909576416015625
1783152166260605400,6.69860546875,0.07452392578125,0.623687744140625,0.94195556640625
1783152166270340600,6.708340576171875,0.0879669189453125,0.6487274169921875,0.906524658203125
1783152166280045000,6.718045166015625,0.0897979736328125,0.553436279296875,0.7965545654296875
1783152166289749800,6.727749755859375,0.0965118408203125,0.37017822265625,0.630401611328125
1783152166299454200,6.7374541015625,0.1331634521484375,0.2076873779296875,0.4514312744140625
1783152166309189400,6.747189453125,0.21258544921875,0.194244384765625,0.3249664306640625
1783152166318894000,6.75689404296875,0.325592041015625,0.335968017578125,0.293212890625
1783152166328598500,6.7665986328125,0.4385986328125,0.52593994140625,0.336578369140625
1783152166338303200,6.77630322265625,0.5192413330078125,0.6456756591796875,0.3982696533203125
1783152166348007700,6.786007568359375,0.535125732421875,0.65850830078125,0.3939971923828125
1783152166357742800,6.795742919921875,0.4557037353515625,0.5760345458984375,0.2608184814453125
1783152166367447600,6.805447509765625,0.310333251953125,0.4520263671875,0.0066986083984375
1783152166377152000,6.815152099609375,0.1514892578125,0.3054351806640625,-0.314605712890625
1783152166386856700,6.824856689453125,0.0164947509765625,0.1777496337890625,-0.6285858154296875
1783152166396591900,6.834591796875,-0.08612060546875,0.188751220703125,-0.8711090087890625
1783152166406296300,6.84429638671875,-0.154541015625,0.3933868408203125,-1.0103759765625
1783152166416001000,6.8540009765625,-0.182647705078125,0.7104339599609375,-1.0549774169921875
1783152166425705500,6.86370556640625,-0.1728668212890625,0.9981536865234375,-1.0476531982421875
1783152166435440600,6.873440673828125,-0.14599609375,1.1533050537109375,-1.042755126953125
1783152166445145300,6.883145263671875,-0.1325531005859375,1.1172637939453125,-1.06475830078125
1783152166454849800,6.892849853515625,-0.147216796875,0.921783447265625,-1.107513427734375
1783152166464554500,6.902554443359375,-0.1746978759765625,0.66278076171875,-1.149658203125
1783152166474289700,6.91228955078125,-0.1820220947265625,0.4337005615234375,-1.1575927734375
1783152166483994000,6.921994140625,-0.1368255615234375,0.295654296875,-1.108123779296875
1783152166493698800,6.93169873046875,-0.042755126953125,0.23577880859375,-0.998779296875
1783152166503403300,6.9414033203125,0.0806427001953125,0.199737548828125,-0.8338470458984375
1783152166513138400,6.951138427734375,0.21624755859375,0.156982421875,-0.6230926513671875
1783152166522843000,6.9608427734375,0.3402557373046875,0.09283447265625,-0.3762969970703125
1783152166532547600,6.970547607421875,0.4276123046875,-0.0140533447265625,-0.109954833984375
1783152166542282800,6.98028271484375,0.4746551513671875,-0.1514892578125,0.1533203125
1783152166552018000,6.990017822265625,0.4764862060546875,-0.273681640625,0.3848419189453125
1783152166561722400,6.999722412109375,0.4422760009765625,-0.36407470703125,0.558319091796875
1783152166571427000,7.009427001953125,0.389739990234375,-0.4056243896484375,0.66644287109375
1783152166581131500,7.019131591796875,0.3365936279296875,-0.3787384033203125,0.7189788818359375
1783152166590866700,7.02886669921875,0.28466796875,-0.276123046875,0.7275390625
1783152166600571400,7.0385712890625,0.2327423095703125,-0.1118011474609375,0.702484130859375
1783152166610275800,7.04827587890625,0.1826629638671875,0.0690155029296875,0.65545654296875
1783152166619980500,7.05798046875,0.1417236328125,0.22845458984375,0.6023101806640625
1783152166629715500,7.067715576171875,0.108734130859375,0.331695556640625,0.555267333984375
1783152166639420200,7.077420166015625,0.0849151611328125,0.37139892578125,0.5338897705078125
1783152166649124900,7.087124755859375,0.07391357421875,0.36529541015625,0.547943115234375
1783152166668564500,7.106564453125,0.0568084716796875,0.193023681640625,0.6084136962890625
1783152166678259700,7.116259765625,0.040924072265625,0.1453704833984375,0.6517791748046875
1783152166687964400,7.12596435546875,0.0134429931640625,0.1710357666015625,0.706146240234375
1783152166697668900,7.1356689453125,-0.0152587890625,0.2180633544921875,0.761749267578125
1783152166707404000,7.145404052734375,-0.0219879150390625,0.2541046142578125,0.80267333984375
1783152166717108500,7.1551083984375,0.0140533447265625,0.22845458984375,0.8222198486328125
1783152166726813200,7.164813232421875,0.102020263671875,0.135589599609375,0.8209991455078125
1783152166736518000,7.174517822265625,0.21868896484375,0.1032257080078125,0.80572509765625
1783152166746222300,7.184222412109375,0.323760986328125,0.144775390625,0.765411376953125
1783152166755957500,7.19395751953125,0.4086761474609375,0.1301116943359375,0.6774444580078125
1783152166765662000,7.203661865234375,0.49176025390625,0.0066986083984375,0.5369415283203125
1783152166775366700,7.21336669921875,0.564453125,-0.2223663330078125,0.345123291015625
1783152166785071400,7.2230712890625,0.5845947265625,-0.545501708984375,0.1136016845703125
1783152166794806300,7.23280615234375,0.529022216796875,-0.8124542236328125,-0.102630615234375
1783152166804511000,7.242510986328125,0.424560546875,-0.817962646484375,-0.2290802001953125
1783152166814215400,7.25221533203125,0.329254150390625,-0.570556640625,-0.2351837158203125
1783152166823920000,7.261920166015625,0.2669525146484375,-0.2345733642578125,-0.1466064453125
1783152166833655300,7.2716552734375,0.249237060546875,0.1313323974609375,-0.0225982666015625
1783152166843390500,7.281390380859375,0.259613037109375,0.5057830810546875,0.0604705810546875
1783152166853095000,7.291094970703125,0.249237060546875,0.7293548583984375,0.0421295166015625
1783152166862799600,7.300799560546875,0.176544189453125,0.7128753662109375,-0.07818603515625
1783152166872534500,7.310534423828125,0.0525360107421875,0.5051727294921875,-0.2700042724609375
1783152166882239200,7.3202392578125,-0.09893798828125,0.191192626953125,-0.49176025390625
1783152166891943700,7.329943603515625,-0.2394561767578125,-0.097137451171875,-0.7006683349609375
1783152166901648400,7.3396484375,-0.3524627685546875,-0.239471435546875,-0.8711090087890625
1783152166911383600,7.349383544921875,-0.4361419677734375,-0.243743896484375,-0.9957275390625
1783152166921088000,7.359087890625,-0.483184814453125,-0.1875457763671875,-1.0806427001953125
1783152166930792700,7.368792724609375,-0.482574462890625,-0.1380615234375,-1.113616943359375
1783152166940497200,7.3784970703125,-0.4422607421875,-0.1227874755859375,-1.0830841064453125
1783152166950232300,7.388232421875,-0.37994384765625,-0.175323486328125,-0.9792327880859375
1783152166959937000,7.39793701171875,-0.3066558837890625,-0.307891845703125,-0.7959747314453125
1783152166969641500,7.407641357421875,-0.23638916015625,-0.49847412109375,-0.535125732421875
1783152166979346200,7.41734619140625,-0.182647705078125,-0.7183837890625,-0.2315216064453125
1783152166989081300,7.427081298828125,-0.1612548828125,-0.93157958984375,0.0665740966796875
1783152166998785800,7.436785888671875,-0.1636962890625,-1.1215667724609375,0.3213043212890625
1783152167008490500,7.446490478515625,-0.159423828125,-1.2901611328125,0.51434326171875
1783152167018195000,7.45619482421875,-0.131927490234375,-1.439208984375,0.6328582763671875
1783152167027930000,7.46593017578125,-0.07940673828125,-1.5540618896484375,0.6707305908203125
1783152167037634800,7.475634765625,-0.0213623046875,-1.64141845703125,0.6426239013671875
1783152167047339300,7.48533935546875,0.032379150390625,-1.6927337646484375,0.5772552490234375
1783152167057044000,7.4950439453125,0.07574462890625,-1.6560821533203125,0.52410888671875
1783152167066779100,7.504779052734375,0.0965118408203125,-1.5271759033203125,0.5265655517578125
1783152167076483600,7.514483642578125,0.07696533203125,-1.3475799560546875,0.5992431640625
1783152167086188300,7.524188232421875,-0.0018157958984375,-1.1221771240234375,0.728759765625
1783152167095892700,7.533892822265625,-0.1533203125,-0.860107421875,0.877197265625
1783152167105628000,7.5436279296875,-0.3555145263671875,-0.606597900390625,0.990203857421875
1783152167115363000,7.553363037109375,-0.556488037109375,-0.4056243896484375,1.0396881103515625
1783152167125067500,7.563067626953125,-0.701873779296875,-0.2889404296875,1.020751953125
1783152167134772200,7.572772216796875,-0.758087158203125,-0.2645111083984375,0.95355224609375
1783152167144476700,7.5824765625,-0.7183685302734375,-0.317657470703125,0.867431640625
1783152167154211800,7.5922119140625,-0.6096343994140625,-0.4471588134765625,0.772125244140625
1783152167163916500,7.60191650390625,-0.477691650390625,-0.615142822265625,0.6450653076171875
1783152167173621000,7.61162109375,-0.344512939453125,-0.6591339111328125,0.4923553466796875
1783152167183325700,7.62132568359375,-0.22723388671875,-0.4886932373046875,0.334136962890625
1783152167193060900,7.631060791015625,-0.1301116943359375,-0.250457763671875,0.1777496337890625
1783152167202765300,7.640765380859375,-0.0250244140625,-0.0849151611328125,0.051910400390625
1783152167212470000,7.650469970703125,0.0928497314453125,-0.0525360107421875,-0.025665283203125
1783152167222174500,7.660174560546875,0.177154541015625,-0.1514892578125,-0.07330322265625
1783152167231909600,7.66990966796875,0.1881561279296875,-0.2895660400390625,-0.0922393798828125
1783152167241614300,7.6796142578125,0.127685546875,-0.3359832763671875,-0.06292724609375
1783152167251318800,7.68931884765625,0.0433807373046875,-0.258392333984375,0.018310546875
1783152167261023500,7.6990234375,0.0048980712890625,-0.139892578125,0.113006591796875
1783152167270758400,7.70875830078125,0.0403289794921875,-0.102630615234375,0.1655426025390625
1783152167280463000,7.718463134765625,0.1319427490234375,-0.175323486328125,0.1527099609375
1783152167290167800,7.728167724609375,0.2565765380859375,-0.2700042724609375,0.0995635986328125
1783152167299872300,7.737872314453125,0.386077880859375,-0.314605712890625,0.0274810791015625
1783152167319312000,7.757311767578125,0.531463623046875,-0.3451385498046875,-0.175933837890625
1783152167329016600,7.7670166015625,0.5271759033203125,-0.36163330078125,-0.2956695556640625
1783152167338721000,7.776720947265625,0.4697723388671875,-0.35491943359375,-0.4123382568359375
1783152167348456200,7.786456298828125,0.3732452392578125,-0.323760986328125,-0.5100860595703125
1783152167358161000,7.796160888671875,0.257171630859375,-0.2840576171875,-0.5760498046875
1783152167367865300,7.805865234375,0.138671875,-0.20465087890625,-0.604766845703125
1783152167377570000,7.815570068359375,0.0238189697265625,-0.06781005859375,-0.615142822265625
1783152167387305200,7.82530517578125,-0.08551025390625,0.124603271484375,-0.6230926513671875
1783152167397009700,7.835009765625,-0.1777496337890625,0.3549041748046875,-0.63287353515625
1783152167406744800,7.844744873046875,-0.23699951171875,0.5888671875,-0.63287353515625
1783152167416449500,7.854449462890625,-0.270599365234375,0.7928924560546875,-0.6230926513671875
1783152167426184400,7.864184326171875,-0.293212890625,0.94317626953125,-0.606597900390625
1783152167435889200,7.87388916015625,-0.3121337890625,1.0060882568359375,-0.5821533203125
1783152167445593600,7.883593505859375,-0.333526611328125,0.95416259765625,-0.5449066162109375
1783152167455298300,7.89329833984375,-0.3561248779296875,0.7916717529296875,-0.4850311279296875
1783152167465003000,7.9030029296875,-0.37567138671875,0.5442657470703125,-0.400726318359375
1783152167474738000,7.912738037109375,-0.3878936767578125,0.23150634765625,-0.3084869384765625
1783152167484442600,7.922442626953125,-0.3958282470703125,-0.07696533203125,-0.238250732421875
1783152167494147000,7.93214697265625,-0.3994903564453125,-0.2852783203125,-0.1875457763671875
1783152167513587000,7.9515869140625,-0.4593658447265625,-0.1343841552734375,-0.0189361572265625
1783152167523291400,7.96129150390625,-0.5033416748046875,0.0946807861328125,0.1172637939453125
1783152167532996000,7.97099609375,-0.52716064453125,0.29931640625,0.257781982421875
1783152167542700500,7.980700439453125,-0.5082244873046875,0.409271240234375,0.36773681640625
1783152167552435700,7.990435791015625,-0.4483642578125,0.37689208984375,0.4172210693359375
1783152167562140400,8.000140380859374,-0.3640594482421875,0.23394775390625,0.3921661376953125
1783152167571844900,8.009844970703124,-0.274261474609375,0.08306884765625,0.300537109375
1783152167581549600,8.019549560546874,-0.191802978515625,0.0146484375,0.1563720703125
1783152167591284700,8.02928466796875,-0.1136016845703125,-0.0061187744140625,0.0018157958984375
1783152167600989200,8.0389892578125,-0.01708984375,-0.1527252197265625,-0.1331634521484375
1783152167620398300,8.0583984375,0.2223663330078125,-0.8497161865234375,-0.314605712890625
1783152167630133500,8.068133544921874,0.3420867919921875,-1.048248291015625,-0.3402557373046875
1783152167639838200,8.077838134765624,0.4153900146484375,-1.040924072265625,-0.328033447265625
1783152167649542700,8.087542724609374,0.4037933349609375,-0.8680419921875,-0.3121490478515625
1783152167659247400,8.097247314453124,0.35736083984375,-0.601104736328125,-0.3011627197265625
1783152167668982300,8.106982177734375,0.3695831298828125,-0.313995361328125,-0.260833740234375
1783152167678687000,8.11668701171875,0.5143585205078125,-0.0519256591796875,-0.1527252197265625
1783152167688422100,8.126422119140624,0.7727508544921875,0.1068878173828125,0.0238037109375
1783152167698126600,8.136126708984374,1.0586395263671875,0.08184814453125,0.2394561767578125
1783152167707861800,8.14586181640625,1.2974853515625,-0.06109619140625,0.4703521728515625
1783152167717566500,8.15556640625,1.4459381103515625,-0.251678466796875,0.66400146484375
1783152167727271000,8.16527099609375,1.473419189453125,-0.48809814453125,0.7379150390625
1783152167746710500,8.18471044921875,1.1612701416015625,-1.06842041015625,0.329864501953125
1783152167756415200,8.194415283203124,0.9114227294921875,-1.249237060546875,-0.103851318359375
1783152167766120000,8.204119873046874,0.683563232421875,-1.2034149169921875,-0.5784912109375
1783152167775824400,8.213824462890624,0.49786376953125,-0.9444122314453125,-1.0250396728515625
1783152167785559600,8.2235595703125,0.36163330078125,-0.5571136474609375,-1.3866729736328125
1783152167795264000,8.233263916015625,0.2590179443359375,-0.0952911376953125,-1.626129150390625
1783152167814673400,8.25267333984375,0.028717041015625,0.7855682373046875,-1.728759765625
1783152167824377900,8.2623779296875,-0.135589599609375,1.0738983154296875,-1.6334686279296875
1783152167834113000,8.272113037109374,-0.326202392578125,1.23822021484375,-1.471588134765625
1783152167843817500,8.2818173828125,-0.5290069580078125,1.3096923828125,-1.251678466796875
1783152167853522200,8.291522216796874,-0.7183685302734375,1.3164215087890625,-0.99267578125
1783152167863227000,8.301226806640624,-0.8741455078125,1.266326904296875,-0.72021484375
1783152167872961800,8.3109619140625,-0.987762451171875,1.191192626953125,-0.461212158203125
1783152167882666500,8.32066650390625,-1.057403564453125,1.132537841796875,-0.2339630126953125
1783152167892371000,8.330370849609375,-1.0836639404296875,1.128265380859375,-0.034210205078125
1783152167902075600,8.34007568359375,-1.0775604248046875,1.1722412109375,0.1490325927734375
1783152167911810800,8.349810791015624,-1.0623016357421875,1.23028564453125,0.3127593994140625
1783152167921515300,8.359515380859374,-1.0421295166015625,1.2559356689453125,0.4526519775390625
1783152167931220000,8.369219970703124,-1.0115814208984375,1.2284393310546875,0.563812255859375
1783152167940924400,8.37892431640625,-0.982269287109375,1.1166534423828125,0.624908447265625
1783152167950659600,8.38865966796875,-0.9755401611328125,0.9248504638671875,0.624908447265625
1783152167960364300,8.3983642578125,-1.0036468505859375,0.7354736328125,0.5784759521484375
1783152167970068700,8.40806884765625,-1.0732879638671875,0.6468963623046875,0.5076141357421875
1783152167979804000,8.417803955078124,-1.1600341796875,0.6792755126953125,0.4318695068359375
1783152167989539000,8.4275390625,-1.2150115966796875,0.8240509033203125,0.37628173828125
1783152167999243500,8.437243408203125,-1.2180633544921875,1.061676025390625,0.343292236328125
1783152168008948200,8.4469482421875,-1.1673583984375,1.3035888671875,0.3188629150390625
1783152168018652700,8.456652587890625,-1.0738983154296875,1.4544677734375,0.28955078125
1783152168028387800,8.466387939453124,-0.9596710205078125,1.458740234375,0.263885498046875
1783152168038092500,8.476092529296874,-0.843597412109375,1.3280181884765625,0.2828216552734375
1783152168047797000,8.485796875,-0.7067718505859375,1.09344482421875,0.37506103515625
1783152168057501700,8.495501708984374,-0.548553466796875,0.7422027587890625,0.51922607421875
1783152168067236900,8.50523681640625,-0.3872833251953125,0.3048095703125,0.65362548828125
1783152168076941300,8.51494140625,-0.2498321533203125,-0.1661529541015625,0.7269134521484375
1783152168086646000,8.52464599609375,-0.1636962890625,-0.5870513916015625,0.7104339599609375
1783152168096350500,8.5343505859375,-0.1325531005859375,-0.8735504150390625,0.6114654541015625
1783152168106085600,8.544085693359374,-0.1410980224609375,-0.9877777099609375,0.4654693603515625
1783152168125494800,8.563494873046874,-0.2773284912109375,-0.885772705078125,0.116668701171875
1783152168135199500,8.573199462890624,-0.37017822265625,-0.6682891845703125,-0.0500946044921875
1783152168144934400,8.582934326171875,-0.4257659912109375,-0.3805694580078125,-0.176544189453125
1783152168154639000,8.59263916015625,-0.414764404296875,-0.1368408203125,-0.243743896484375
1783152168164343800,8.60234375,-0.335968017578125,-0.034820556640625,-0.244354248046875
1783152168174048300,8.61204833984375,-0.22540283203125,-0.0897979736328125,-0.1612701416015625
1783152168183783400,8.621783447265624,-0.125213623046875,-0.2687835693359375,-0.0201568603515625
1783152168193488000,8.63148779296875,-0.0366363525390625,-0.542449951171875,0.135589599609375
1783152168203192600,8.641192626953124,0.0446014404296875,-0.8796539306640625,0.2534942626953125
1783152168212897300,8.650897216796874,0.1118011474609375,-1.22174072265625,0.3090972900390625
1783152168222601700,8.660601806640624,0.166778564453125,-1.4819793701171875,0.2999267578125
1783152168232337000,8.6703369140625,0.21563720703125,-1.6053619384765625,0.23211669921875
1783152168242041300,8.680041259765625,0.2614593505859375,-1.5949859619140625,0.122161865234375
1783152168251746000,8.68974609375,0.3109283447265625,-1.475250244140625,-0.0134429931640625
1783152168261481200,8.699481201171874,0.3689727783203125,-1.259613037109375,-0.1569976806640625
1783152168271216400,8.70921630859375,0.4312744140625,-0.969451904296875,-0.2920074462890625
1783152168280920800,8.7189208984375,0.48931884765625,-0.678680419921875,-0.398284912109375
1783152168290625500,8.72862548828125,0.539398193359375,-0.460601806640625,-0.463653564453125
1783152168300330000,8.738330078125,0.5864410400390625,-0.35980224609375,-0.49237060546875
1783152168310065200,8.748065185546874,0.64813232421875,-0.4068450927734375,-0.49359130859375
1783152168319769900,8.757769775390624,0.7342681884765625,-0.5736083984375,-0.4850311279296875
1783152168329474300,8.767474365234374,0.8332366943359375,-0.7715301513671875,-0.4734344482421875
1783152168339179000,8.777178955078124,0.92120361328125,-0.91754150390625,-0.4520416259765625
1783152168378027800,8.81602783203125,0.9492950439453125,-0.4874725341796875,-0.1166839599609375
1783152168387763000,8.825762939453124,0.8674468994140625,-0.28466796875,-0.0152740478515625
1783152168397467400,8.83546728515625,0.77520751953125,-0.07574462890625,0.07635498046875
1783152168407172000,8.845172119140624,0.6951751708984375,0.0995635986328125,0.1563720703125
1783152168416876500,8.85487646484375,0.6334686279296875,0.22540283203125,0.22662353515625
1783152168426611700,8.86461181640625,0.5839996337890625,0.327423095703125,0.302978515625
1783152168436316400,8.87431640625,0.534515380859375,0.4269866943359375,0.38055419921875
1783152168446020900,8.884020751953125,0.4813690185546875,0.491119384765625,0.435546875
1783152168455725600,8.8937255859375,0.4367828369140625,0.4666900634765625,0.4349212646484375
1783152168465460700,8.903460693359374,0.4208984375,0.3622283935546875,0.37139892578125
1783152168475165200,8.913165283203124,0.470367431640625,0.2822113037109375,0.29443359375
1783152168484870000,8.922869873046874,0.5864410400390625,0.36895751953125,0.2901458740234375
1783152168504309500,8.9423095703125,0.8387298583984375,0.620635986328125,0.6163482666015625
1783152168514014200,8.95201416015625,0.893707275390625,0.409271240234375,0.8741455078125
1783152168523718700,8.96171875,0.8674468994140625,0.1624755859375,1.1123809814453125
1783152168533423400,8.97142333984375,0.7635955810546875,-0.033599853515625,1.24188232421875
1783152168543158500,8.981158447265624,0.5565032958984375,-0.2993316650390625,1.2156219482421875
1783152168552893400,8.9908935546875,0.2003631591796875,-0.7269287109375,1.020751953125
1783152168562598100,9.00059814453125,-0.2516632080078125,-1.22967529296875,0.66461181640625
1783152168572302600,9.010302490234375,-0.6493377685546875,-1.605987548828125,0.199737548828125
1783152168582007300,9.02000732421875,-0.8845367431640625,-1.7446441650390625,-0.2840576171875
1783152168591742500,9.029742431640624,-0.9321746826171875,-1.5992584228515625,-0.7073822021484375
1783152168601447000,9.039447021484374,-0.7898406982421875,-1.174102783203125,-1.0030517578125
1783152168611151600,9.049151611328124,-0.4984588623046875,-0.5791168212890625,-1.114227294921875
1783152168620856000,9.05885595703125,-0.1502532958984375,0.0354156494140625,-1.0476531982421875
1783152168630591200,9.06859130859375,0.1435546875,0.448974609375,-0.8607177734375
1783152168640296000,9.0782958984375,0.3072662353515625,0.543670654296875,-0.609039306640625
1783152168650000400,9.08800048828125,0.325592041015625,0.406219482421875,-0.3317108154296875
1783152168708289000,9.1462890625,-0.6798858642578125,-0.5613861083984375,0.3603973388671875
1783152168717993700,9.15599365234375,-0.81365966796875,-0.3097076416015625,0.1013946533203125
1783152168727698200,9.1656982421875,-0.907745361328125,-0.0213775634765625,-0.259613037109375
1783152168737403000,9.17540283203125,-0.95843505859375,0.263275146484375,-0.673187255859375
1783152168747137800,9.1851376953125,-0.95477294921875,0.52471923828125,-1.07391357421875
1783152168756842500,9.194842529296874,-0.9058990478515625,0.7440185546875,-1.402557373046875
1783152168766547200,9.204547119140624,-0.840545654296875,0.9352264404296875,-1.610870361328125
1783152168776251600,9.214251708984374,-0.7922821044921875,1.127655029296875,-1.6774444580078125
1783152168785986800,9.22398681640625,-0.758087158203125,1.3219146728515625,-1.609649658203125
1783152168795691300,9.233691162109375,-0.7256927490234375,1.491119384765625,-1.4160003662109375
1783152168815100400,9.253100341796875,-0.619415283203125,1.6084136962890625,-0.745880126953125
1783152168824835600,9.262835693359374,-0.5442657470703125,1.491729736328125,-0.35491943359375
1783152168834570800,9.27257080078125,-0.4630279541015625,1.24432373046875,0.0066986083984375
1783152168844275500,9.282275390625,-0.37628173828125,0.93707275390625,0.3176422119140625
1783152168853980000,9.29197998046875,-0.269989013671875,0.703704833984375,0.583984375
1783152168863715000,9.301715087890624,-0.1337738037109375,0.6126861572265625,0.8301544189453125
1783152168873419500,9.31141943359375,0.0225982666015625,0.6444549560546875,1.067779541015625
1783152168883124200,9.321124267578124,0.177764892578125,0.723876953125,1.2931976318359375
1783152168892829000,9.330828857421874,0.313995361328125,0.7855682373046875,1.490509033203125
1783152168902533400,9.340533447265624,0.4080657958984375,0.79962158203125,1.643218994140625
1783152168912268500,9.3502685546875,0.4385986328125,0.695159912109375,1.7269134521484375
1783152168931677700,9.369677734375,0.2938232421875,-0.07574462890625,1.4654693603515625
1783152168941382400,9.37938232421875,0.21319580078125,-0.5485687255859375,1.10076904296875
1783152168960822000,9.398822021484374,0.1918182373046875,-0.94012451171875,0.2156219482421875
1783152168970526500,9.4085263671875,0.2009735107421875,-1.044586181640625,-0.248626708984375
1783152168980231200,9.418231201171874,0.1967010498046875,-1.402557373046875,-0.744659423828125
1783152168989966300,9.42796630859375,0.1496734619140625,-1.79046630859375,-1.252899169921875
1783152168999670800,9.4376708984375,-0.0274810791015625,-1.8839263916015625,-1.6988372802734375
1783152169009375500,9.44737548828125,-0.37506103515625,-1.546112060546875,-1.9566192626953125
1783152169019080000,9.457079833984375,-0.8600921630859375,-0.7275543212890625,-1.9847259521484375
1783152169028815000,9.466815185546874,-1.37628173828125,0.273040771484375,-1.8436126708984375
1783152169038519800,9.476519775390624,-1.7910614013671875,1.1453704833984375,-1.607818603515625
1783152169048224300,9.486224365234374,-2.0250244140625,1.7544097900390625,-1.334136962890625
1783152169057929000,9.495928955078124,-2.0830535888671875,2.0861053466796875,-1.07391357421875
1783152169067664100,9.5056640625,-2.029296875,2.2308807373046875,-0.8546142578125
1783152169077368600,9.51536865234375,-1.8936920166015625,2.213165283203125,-0.6982269287109375
1783152169087073300,9.5250732421875,-1.6933135986328125,1.993255615234375,-0.6133270263671875
1783152169096777700,9.53477783203125,-1.4288177490234375,1.5986328125,-0.5827789306640625
1783152169106513000,9.544512939453124,-1.0836639404296875,1.1777496337890625,-0.5815582275390625
1783152169116248000,9.554248046875,-0.65972900390625,0.7586822509765625,-0.607208251953125
1783152169125952500,9.563952392578125,-0.1783599853515625,0.2797698974609375,-0.6560821533203125
1783152169135657200,9.5736572265625,0.2987213134765625,-0.21868896484375,-0.6945648193359375
1783152169145392400,9.583392333984374,0.684173583984375,-0.675628662109375,-0.6939544677734375
1783152169155096800,9.593096923828124,0.92547607421875,-1.0128173828125,-0.6585235595703125
1783152169164801500,9.602801513671874,1.0616912841796875,-1.1967010498046875,-0.6004791259765625
1783152169174506000,9.612506103515624,1.144775390625,-1.2797698974609375,-0.5241241455078125
1783152169184241200,9.6222412109375,1.190582275390625,-1.323150634765625,-0.4416656494140625
1783152169193945900,9.63194580078125,1.1997528076171875,-1.3677520751953125,-0.36407470703125
1783152169203650300,9.641650390625,1.181427001953125,-1.4404296875,-0.3048248291015625
1783152169213355000,9.65135498046875,1.149658203125,-1.546112060546875,-0.2632904052734375
1783152169223059500,9.6610595703125,1.115447998046875,-1.6206512451171875,-0.21807861328125
1783152169232794600,9.670794677734374,1.0861358642578125,-1.604766845703125,-0.1356048583984375
1783152169242499300,9.680499267578124,1.0598602294921875,-1.49908447265625,-0.0042724609375
1783152169252203800,9.690203857421874,1.026885986328125,-1.329254150390625,0.1667633056640625
1783152169261908500,9.699908447265624,0.9804534912109375,-1.1252288818359375,0.36956787109375
1783152169271643400,9.709643310546875,0.9205780029296875,-0.9150848388671875,0.590087890625
1783152169281348000,9.71934814453125,0.8472747802734375,-0.753204345703125,0.80572509765625
1783152169291052800,9.729052734375,0.7733612060546875,-0.7208251953125,1.0018157958984375
1783152169300757200,9.73875732421875,0.6994476318359375,-0.8546142578125,1.188751220703125
1783152169310492400,9.748492431640624,0.605987548828125,-1.0488739013671875,1.3909454345703125
1783152169320196900,9.75819677734375,0.4850311279296875,-1.07879638671875,1.6029052734375
1783152169329901600,9.767901611328124,0.325592041015625,-0.92913818359375,1.7873992919921875
1783152169339606300,9.777606201171874,0.1319427490234375,-0.7464752197265625,1.919342041015625
1783152169349341200,9.787341064453125,-0.0610809326171875,-0.64996337890625,2.0054779052734375
1783152169359046000,9.7970458984375,-0.2076873779296875,-0.63653564453125,2.0518951416015625
1783152169368750300,9.806750244140625,-0.2919921875,-0.6121063232421875,2.0415191650390625
1783152169378455000,9.816455078125,-0.338409423828125,-0.5534515380859375,1.9449920654296875
1783152169388190200,9.826190185546874,-0.3634490966796875,-0.535125732421875,1.7452392578125
1783152169397894700,9.835894775390624,-0.3573455810546875,-0.5852203369140625,1.44775390625
1783152169407629800,9.8456298828125,-0.3060302734375,-0.617584228515625,1.1123809814453125
1783152169417334500,9.85533447265625,-0.2192840576171875,-0.4819793701171875,0.8142852783203125
1783152169427069400,9.8650693359375,-0.1044464111328125,-0.1118011474609375,0.6328582763671875
1783152169436774100,9.874774169921874,0.036651611328125,0.337188720703125,0.5962066650390625
1783152169456183300,9.894183349609374,0.1453857421875,0.1337738037109375,0.51434326171875
1783152169465918500,9.90391845703125,0.0164947509765625,-0.2309112548828125,0.3225250244140625
1783152169475623000,9.913622802734375,-0.22967529296875,-0.278564453125,0.1288909912109375
1783152169485327600,9.92332763671875,-0.549774169921875,-0.252899169921875,-0.034820556640625
1783152169495032000,9.933031982421875,-0.8759765625,-0.3762969970703125,-0.20343017578125
1783152169504767200,9.942767333984374,-1.126434326171875,-0.542449951171875,-0.35003662109375
1783152169514472000,9.952471923828124,-1.2522735595703125,-0.5925445556640625,-0.399505615234375
1783152169524176400,9.96217626953125,-1.2516632080078125,-0.5485687255859375,-0.3439178466796875
1783152169533881000,9.971881103515624,-1.1374359130859375,-0.5241241455078125,-0.2345733642578125
1783152169543616300,9.9816162109375,-0.94195556640625,-0.5821533203125,-0.1258392333984375
1783152169553320700,9.99132080078125,-0.7171478271484375,-0.7238922119140625,-0.0568084716796875
1783152169563025400,10.001025390625,-0.4905242919921875,-0.9156951904296875,-0.032379150390625
1783152169572729900,10.010729736328125,-0.2834320068359375,-1.100189208984375,-0.042144775390625
1783152169582465000,10.020465087890624,-0.1087188720703125,-1.2376251220703125,-0.07818603515625
1783152169592169700,10.030169677734374,0.040924072265625,-1.3121490478515625,-0.13623046875
1783152169601874200,10.039874267578124,0.1209564208984375,-1.3451385498046875,-0.21075439453125
1783152169611579000,10.049578857421874,0.0867462158203125,-1.1991424560546875,-0.2742767333984375
1783152169621283300,10.059283447265624,0.0018310546875,-0.891265869140625,-0.243133544921875
1783152169660132400,10.09813232421875,0.5241241455078125,-0.3445281982421875,0.128265380859375
1783152169669867300,10.1078671875,0.64080810546875,-0.1600494384765625,0.2052459716796875
1783152169679572000,10.117572021484374,0.7306060791015625,0.0390777587890625,0.2504425048828125
1783152169689307100,10.12730712890625,0.8020782470703125,0.200347900390625,0.2382354736328125
1783152169699011600,10.137011474609375,0.8796539306640625,0.3084716796875,0.1673583984375
1783152169708746800,10.146746826171874,0.971282958984375,0.3585662841796875,0.055572509765625
1783152169718451500,10.156451416015624,1.07086181640625,0.3488006591796875,-0.0800323486328125
1783152169728156000,10.166156005859374,1.1582183837890625,0.279144287109375,-0.2303009033203125
1783152169737860600,10.175860595703124,1.180206298828125,0.130706787109375,-0.388519287109375
1783152169747595800,10.185595703125,1.0959014892578125,-0.097137451171875,-0.543060302734375
1783152169757300200,10.19530029296875,0.91876220703125,-0.2926025390625,-0.6609649658203125
1783152169767005000,10.2050048828125,0.706787109375,-0.288330078125,-0.716552734375
1783152169776709400,10.21470947265625,0.49725341796875,-0.0568084716796875,-0.714111328125
1783152169786444500,10.224444580078124,0.3011627197265625,0.3219146728515625,-0.678070068359375
1783152169796149200,10.234149169921874,0.1191253662109375,0.7269134521484375,-0.63531494140625
1783152169805853700,10.243853759765624,-0.045806884765625,1.0005950927734375,-0.5943756103515625
1783152169815558400,10.253558349609374,-0.1710357666015625,1.0824432373046875,-0.5516204833984375
1783152169825293300,10.263293212890625,-0.2480010986328125,1.0305328369140625,-0.5088653564453125
1783152169834998000,10.272998046875,-0.2901458740234375,0.977996826171875,-0.456329345703125
1783152169844702700,10.28270263671875,-0.3158111572265625,1.08428955078125,-0.397674560546875
1783152169854407200,10.2924072265625,-0.3304595947265625,1.2858734130859375,-0.35247802734375
1783152169864142300,10.302142333984374,-0.3512420654296875,1.3683319091796875,-0.3433074951171875
1783152169873846800,10.3118466796875,-0.3909454345703125,1.1502532958984375,-0.3683624267578125
1783152169883551500,10.321551513671874,-0.448974609375,0.6414031982421875,-0.390960693359375
1783152169893256000,10.331255859375,-0.4954071044921875,0.013427734375,-0.3445281982421875
1783152169902991000,10.3409912109375,-0.4996795654296875,-0.50518798828125,-0.1838836669921875
1783152169912695800,10.35069580078125,-0.4575347900390625,-0.742218017578125,0.0677947998046875
1783152169922400300,10.360400146484375,-0.3958282470703125,-0.7214508056640625,0.30419921875
1783152169932105000,10.37010498046875,-0.3500213623046875,-0.605377197265625,0.419036865234375
1783152169941840100,10.379840087890624,-0.329864501953125,-0.534515380859375,0.36773681640625
1783152169951544600,10.389544677734374,-0.3280181884765625,-0.56201171875,0.187530517578125
1783152169961249300,10.399249267578124,-0.3267974853515625,-0.64813232421875,-0.0452117919921875
1783152169970953700,10.40895361328125,-0.3109130859375,-0.678680419921875,-0.2675628662109375
1783152169980689000,10.41868896484375,-0.300537109375,-0.49053955078125,-0.4202728271484375
1783152169990424000,10.428424072265624,-0.3072509765625,-0.0763702392578125,-0.49359130859375
1783152170000128500,10.43812841796875,-0.327423095703125,0.419036865234375,-0.5186309814453125
1783152170009833200,10.447833251953124,-0.337188720703125,0.79351806640625,-0.529022216796875
1783152170019538000,10.457537841796874,-0.3103179931640625,0.923004150390625,-0.536956787109375
1783152170029272800,10.46727294921875,-0.2425079345703125,0.836273193359375,-0.537567138671875
1783152170038977500,10.4769775390625,-0.1417083740234375,0.633453369140625,-0.5259552001953125
1783152170048682000,10.486681884765625,-0.0177001953125,0.408660888671875,-0.50701904296875
1783152170058386700,10.49638671875,0.111175537109375,0.2162322998046875,-0.49603271484375
1783152170068121900,10.506121826171874,0.2272491455078125,0.07757568359375,-0.50457763671875
1783152170077826300,10.515826416015624,0.315826416015625,0.00244140625,-0.538787841796875
1783152170087531000,10.525531005859374,0.3695831298828125,0.0177001953125,-0.604766845703125
1783152170097235500,10.5352353515625,0.397064208984375,0.1044464111328125,-0.6927337646484375
1783152170106970600,10.544970703125,0.4300537109375,0.23455810546875,-0.7745819091796875
1783152170116675300,10.55467529296875,0.50274658203125,0.37567138671875,-0.8124542236328125
1783152170126379800,10.5643798828125,0.6200408935546875,0.4984588623046875,-0.79046630859375
1783152170136084500,10.57408447265625,0.756256103515625,0.583984375,-0.7122802734375
1783152170145819600,10.583819580078124,0.8851470947265625,0.631011962890625,-0.5876617431640625
1783152170155524000,10.593524169921874,0.9841156005859375,0.6365203857421875,-0.4385986328125
1783152170165228800,10.603228759765624,1.049468994140625,0.5674896240234375,-0.2968902587890625
1783152170174933200,10.612933349609374,1.050689697265625,0.52410888671875,-0.1624908447265625
1783152170184668400,10.62266845703125,0.9877777099609375,0.5674896240234375,-0.0415496826171875
1783152170194373000,10.632373046875,0.8784332275390625,0.6475067138671875,0.054962158203125
1783152170204077600,10.64207763671875,0.749542236328125,0.702484130859375,0.128265380859375
1783152170213782300,10.6517822265625,0.6273651123046875,0.687225341796875,0.1856842041015625
1783152170223517200,10.66151708984375,0.5198516845703125,0.6029205322265625,0.24127197265625
1783152170233222000,10.671221923828124,0.4092864990234375,0.4544677734375,0.2870941162109375
1783152170242926600,10.680926513671874,0.287109375,0.2131805419921875,0.327423095703125
1783152170252631000,10.690631103515624,0.1618804931640625,-0.0574188232421875,0.37872314453125
1783152170262366200,10.7003662109375,0.0427703857421875,-0.281005859375,0.44287109375
1783152170272101400,10.710101318359374,-0.0708465576171875,-0.4373779296875,0.4880828857421875
1783152170281805800,10.719805908203124,-0.1740875244140625,-0.540008544921875,0.5057830810546875
1783152170301215000,10.739215087890624,-0.2773284912109375,-0.545501708984375,0.5277862548828125
1783152170310950100,10.7489501953125,-0.266326904296875,-0.4777069091796875,0.550384521484375
1783152170320654800,10.75865478515625,-0.23272705078125,-0.395843505859375,0.5735931396484375
1783152170330359300,10.768359375,-0.193023681640625,-0.2956695556640625,0.6047515869140625
1783152170340064000,10.77806396484375,-0.1551513671875,-0.20770263671875,0.65484619140625
1783152170349799000,10.787798828125,-0.1184844970703125,-0.169830322265625,0.7201995849609375
1783152170359503600,10.797503662109374,-0.08428955078125,-0.1967010498046875,0.7849578857421875
1783152170369208300,10.807208251953124,-0.08551025390625,-0.2864990234375,0.79351806640625
1783152170378912800,10.816912841796874,-0.1533203125,-0.467315673828125,0.6725616455078125
1783152170388648000,10.82664794921875,-0.2608184814453125,-0.6652374267578125,0.411712646484375
1783152170398352400,10.836352294921875,-0.37139892578125,-0.7464752197265625,0.051300048828125
1783152170408057000,10.84605712890625,-0.4642486572265625,-0.64080810546875,-0.35003662109375
1783152170417761800,10.85576171875,-0.51617431640625,-0.3408660888671875,-0.7110595703125
1783152170427496700,10.86549658203125,-0.51495361328125,0.1453704833984375,-0.957855224609375
1783152170437201400,10.875201416015624,-0.479522705078125,0.65789794921875,-1.0592498779296875
1783152170446905900,10.88490576171875,-0.4398040771484375,0.983489990234375,-1.0274810791015625
1783152170456610600,10.894610595703124,-0.4160003662109375,1.0354156494140625,-0.893707275390625
1783152170466345700,10.904345703125,-0.4160003662109375,0.849700927734375,-0.704345703125
1783152170476050200,10.91405029296875,-0.4361419677734375,0.52288818359375,-0.5180206298828125
1783152170485755000,10.9237548828125,-0.4605865478515625,0.194854736328125,-0.3775177001953125
1783152170495459300,10.933459228515625,-0.4660797119140625,-0.0134429931640625,-0.278564453125
1783152170505194500,10.943194580078124,-0.434326171875,-0.0800323486328125,-0.20587158203125
1783152170514899200,10.952899169921874,-0.3597869873046875,-0.020782470703125,-0.1576080322265625
1783152170524603600,10.962603759765624,-0.2803802490234375,0.1392669677734375,-0.169219970703125
1783152170534308400,10.972308349609374,-0.2131805419921875,0.37811279296875,-0.2345733642578125
1783152170544043500,10.98204345703125,-0.1502532958984375,0.66033935546875,-0.2999420166015625
1783152170553778400,10.9917783203125,-0.1160430908203125,0.8997955322265625,-0.3384246826171875
1783152170563483100,11.001483154296874,-0.1184844970703125,1.025634765625,-0.3420867919921875
1783152170573187600,11.0111875,-0.1631011962890625,1.0030364990234375,-0.309112548828125
1783152170582922800,11.0209228515625,-0.2449493408203125,0.80816650390625,-0.254730224609375
1783152170592627500,11.03062744140625,-0.3524627685546875,0.4636383056640625,-0.2009735107421875
1783152170602332000,11.040331787109375,-0.4666900634765625,0.056182861328125,-0.174713134765625
1783152170612036600,11.05003662109375,-0.5680999755859375,-0.320098876953125,-0.1826629638671875
1783152170621741000,11.059740966796875,-0.6529998779296875,-0.608428955078125,-0.20831298828125
1783152170631476200,11.069476318359374,-0.695770263671875,-0.747711181640625,-0.2241973876953125
1783152170641181000,11.079180908203124,-0.6731719970703125,-0.7012786865234375,-0.20648193359375
1783152170650885400,11.088885498046874,-0.590087890625,-0.50030517578125,-0.1368408203125
1783152170660590000,11.098590087890624,-0.469757080078125,-0.2248077392578125,-0.0189361572265625
1783152170670325200,11.1083251953125,-0.3506317138671875,0.0262603759765625,0.1398773193359375
1783152170680029700,11.11802978515625,-0.271209716796875,0.2192840576171875,0.336578369140625
1783152170689734400,11.127734375,-0.2406768798828125,0.3982696533203125,0.562591552734375
1783152170699438800,11.13743896484375,-0.256561279296875,0.5943603515625,0.7898406982421875
1783152170709174000,11.147174072265624,-0.3145904541015625,0.771514892578125,0.986541748046875
1783152170718878700,11.156878662109374,-0.3952178955078125,0.8943023681640625,1.133148193359375
1783152170728583200,11.166583251953124,-0.4654693603515625,0.94805908203125,1.2272186279296875
1783152170738287900,11.176287841796874,-0.486846923828125,0.94439697265625,1.274871826171875
1783152170748022800,11.186022705078125,-0.4257659912109375,0.94927978515625,1.2864837646484375
1783152170757727500,11.1957275390625,-0.2834320068359375,1.0079193115234375,1.272430419921875
1783152170767432200,11.20543212890625,-0.09771728515625,1.0018157958984375,1.2480010986328125
1783152170777136600,11.21513671875,0.0952911376953125,0.7843475341796875,1.1930084228515625
1783152170786871800,11.224871826171874,0.2681732177734375,0.3634490966796875,1.056793212890625
1783152170796576300,11.234576171875,0.36468505859375,-0.1392822265625,0.7819061279296875
1783152170806281000,11.244281005859374,0.320709228515625,-0.5919342041015625,0.3640594482421875
1783152170815985700,11.253985595703124,0.1282806396484375,-0.828338623046875,-0.1191253662109375
1783152170825720600,11.263720458984375,-0.1801910400390625,-0.8081817626953125,-0.5675048828125
1783152170835455700,11.273455810546874,-0.51800537109375,-0.6334686279296875,-0.9181365966796875
1783152170845160400,11.283160400390624,-0.79473876953125,-0.4129486083984375,-1.14599609375
1783152170854865000,11.292864990234374,-0.9669952392578125,-0.1887664794921875,-1.262664794921875
1783152170864600000,11.30260009765625,-1.053741455078125,0.09283447265625,-1.2681732177734375
1783152170874304800,11.3123046875,-1.0690155029296875,0.5393829345703125,-1.1533203125
1783152170884009200,11.32200927734375,-1.0073089599609375,1.1588134765625,-0.92974853515625
1783152170893714000,11.3317138671875,-0.8576507568359375,1.7507476806640625,-0.63287353515625
1783152170903448800,11.34144873046875,-0.6383514404296875,2.1606292724609375,-0.3011627197265625
1783152170913153500,11.351153564453124,-0.38238525390625,2.279754638671875,0.01953125
1783152170922858000,11.36085791015625,-0.1184844970703125,2.0445709228515625,0.2797698974609375
1783152170932562700,11.370562744140624,0.1154632568359375,1.51861572265625,0.4422607421875
1783152170942297900,11.3802978515625,0.2950439453125,0.8552093505859375,0.4636383056640625
1783152170952002300,11.390002197265625,0.4428863525390625,0.2498321533203125,0.3524627685546875
1783152170961707000,11.39970703125,0.598663330078125,-0.1215667724609375,0.1624755859375
1783152170971411500,11.409411376953125,0.751983642578125,-0.2779388427734375,-0.06353759765625
1783152170981116200,11.4191162109375,0.8802642822265625,-0.3262176513671875,-0.288330078125
1783152170990851300,11.428851318359374,0.971282958984375,-0.322540283203125,-0.4862518310546875
1783152171000555800,11.4385556640625,1.0189361572265625,-0.2901611328125,-0.63531494140625
1783152171010260500,11.448260498046874,1.0213775634765625,-0.273681640625,-0.718994140625
1783152171019965000,11.45796484375,0.9902191162109375,-0.306671142578125,-0.7330474853515625
1783152171029700000,11.4677001953125,0.94134521484375,-0.3805694580078125,-0.6695098876953125
1783152171039404800,11.47740478515625,0.885772705078125,-0.4844207763671875,-0.531463623046875
1783152171049109200,11.487109130859375,0.829559326171875,-0.6249237060546875,-0.3329315185546875
1783152171058814000,11.49681396484375,0.78253173828125,-0.7696990966796875,-0.0922393798828125
1783152171068549000,11.506549072265624,0.753204345703125,-0.8888092041015625,0.15087890625
1783152171078253600,11.516253662109374,0.7391510009765625,-1.0134429931640625,0.3500213623046875
1783152171087958300,11.525958251953124,0.750152587890625,-1.14111328125,0.481964111328125
1783152171097662700,11.535662841796874,0.78497314453125,-1.2364044189453125,0.554656982421875
1783152171107398000,11.54539794921875,0.819793701171875,-1.258392333984375,0.5888671875
1783152171117102600,11.5551025390625,0.8399505615234375,-1.1771392822265625,0.6047515869140625
1783152171126837500,11.56483740234375,0.8344573974609375,-1.0201568603515625,0.6047515869140625
1783152171136542200,11.574542236328124,0.8075714111328125,-0.814910888671875,0.5919189453125
1783152171146277400,11.58427734375,0.7605438232421875,-0.56689453125,0.5735931396484375
1783152171155981800,11.59398193359375,0.685394287109375,-0.3017730712890625,0.555267333984375
1783152171165686500,11.6036865234375,0.5858306884765625,-0.0513153076171875,0.5412139892578125
1783152171175391000,11.613390869140625,0.469146728515625,0.154541015625,0.5265655517578125
1783152171185126100,11.623126220703124,0.35552978515625,0.2736663818359375,0.481964111328125
1783152171194830800,11.632830810546874,0.2724609375,0.2534942626953125,0.37811279296875
1783152171204535300,11.642535400390624,0.2376251220703125,0.07940673828125,0.2131805419921875
1783152171214240000,11.652239990234374,0.2657318115234375,-0.1191253662109375,0.0366363525390625
1783152171223975200,11.66197509765625,0.3396453857421875,-0.183258056640625,-0.0891876220703125
1783152171233679600,11.6716796875,0.4227142333984375,-0.06781005859375,-0.1295013427734375
1783152171243384300,11.68138427734375,0.4807586669921875,0.09100341796875,-0.107513427734375
1783152171253088800,11.6910888671875,0.5204620361328125,0.1777496337890625,-0.0592498779296875
1783152171262824000,11.700823974609374,0.538787841796875,0.2040252685546875,-0.0036773681640625
1783152171272528600,11.710528564453124,0.5155792236328125,0.23577880859375,0.043975830078125
1783152171282233000,11.720233154296874,0.429443359375,0.3103179931640625,0.0738983154296875
1783152171291937800,11.729937744140624,0.2907867431640625,0.4422607421875,0.0983428955078125
1783152171301672700,11.739672607421875,0.1380615234375,0.5992431640625,0.1136016845703125
1783152171311377400,11.74937744140625,0.0122222900390625,0.690277099609375,0.1026153564453125
1783152171321082000,11.75908203125,-0.0677947998046875,0.66827392578125,0.048248291015625
1783152171330786600,11.76878662109375,-0.08489990234375,0.5656585693359375,-0.0507049560546875
1783152171340491300,11.7784912109375,-0.0348052978515625,0.4318695068359375,-0.178375244140625
1783152171350226200,11.78822607421875,0.06964111328125,0.3017578125,-0.3097076416015625
1783152171359931000,11.797930908203124,0.21136474609375,0.2131805419921875,-0.4147796630859375
1783152171369635300,11.80763525390625,0.36407470703125,0.186920166015625,-0.461822509765625
1783152171379340000,11.817340087890624,0.49359130859375,0.2052459716796875,-0.4331207275390625
1783152171389075200,11.8270751953125,0.5693359375,0.2547149658203125,-0.324371337890625
1783152171398779600,11.836779541015625,0.575439453125,0.332916259765625,-0.1569976806640625
1783152171408514800,11.846514892578124,0.5192413330078125,0.4532470703125,0.0317535400390625
1783152171427954400,11.865954345703125,0.240692138671875,0.66888427734375,0.329864501953125
1783152171437659100,11.8756591796875,0.0476531982421875,0.65545654296875,0.3927764892578125
1783152171447363800,11.88536376953125,-0.1453704833984375,0.555267333984375,0.3854522705078125
1783152171457068300,11.895068359375,-0.3054351806640625,0.404998779296875,0.3054351806640625
1783152171466803500,11.904803466796874,-0.409271240234375,0.265716552734375,0.1514739990234375
1783152171476508000,11.9145078125,-0.4447021484375,0.1820220947265625,-0.0574188232421875
1783152171486212600,11.924212646484374,-0.4172210693359375,0.1801910400390625,-0.2926025390625
1783152171495917300,11.933917236328124,-0.3469696044921875,0.257781982421875,-0.5204620361328125
1783152171505652200,11.94365234375,-0.2541046142578125,0.38238525390625,-0.7098236083984375
1783152171515357000,11.95335693359375,-0.156982421875,0.51617431640625,-0.829559326171875
1783152171525061400,11.963061279296875,-0.08001708984375,0.6340789794921875,-0.8582763671875
1783152171534766000,11.97276611328125,-0.0360260009765625,0.7183685302734375,-0.78863525390625
1783152171544501200,11.982501220703124,-0.018310546875,0.7537994384765625,-0.6346893310546875
1783152171554205700,11.992205810546874,-0.0201416015625,0.7464599609375,-0.4190521240234375
1783152171563910400,12.001910400390624,-0.0384674072265625,0.7140960693359375,-0.177764892578125
1783152171573614800,12.01161474609375,-0.0629119873046875,0.6737823486328125,0.0604705810546875
1783152171583350000,12.02135009765625,-0.0702362060546875,0.65118408203125,0.2816009521484375
1783152171593054700,12.0310546875,-0.058013916015625,0.65667724609375,0.4618072509765625
1783152171602759200,12.04075927734375,-0.0409088134765625,0.692108154296875,0.5772552490234375
1783152171612463900,12.0504638671875,-0.0244293212890625,0.7861785888671875,0.629180908203125
1783152171622168300,12.060168212890625,-0.010986328125,0.9401092529296875,0.6371307373046875
1783152171631903500,12.069903564453124,0.0030517578125,1.09283447265625,0.6126861572265625
1783152171641608200,12.079608154296874,0.039703369140625,1.1508636474609375,0.5644378662109375
1783152171651312600,12.089312744140624,0.106292724609375,1.0152435302734375,0.51007080078125
1783152171661017300,12.099017333984374,0.180816650390625,0.58154296875,0.4532470703125
1783152171670752500,12.10875244140625,0.2339630126953125,-0.094696044921875,0.3634490966796875
1783152171680457000,12.11845703125,0.254730224609375,-0.7135009765625,0.22784423828125
1783152171690161700,12.12816162109375,0.2577972412109375,-0.975555419921875,0.0684051513671875
1783152171699896600,12.137896484375,0.240692138671875,-0.8430023193359375,-0.106903076171875
1783152171709631700,12.1476318359375,0.21624755859375,-0.5094757080078125,-0.2754974365234375
1783152171719336400,12.15733642578125,0.20587158203125,-0.167999267578125,-0.401947021484375
1783152171729041000,12.167041015625,0.20648193359375,0.0983428955078125,-0.460601806640625
1783152171738745600,12.17674560546875,0.1869354248046875,0.2131805419921875,-0.4569244384765625
1783152171748480800,12.186480712890624,0.107513427734375,0.124603271484375,-0.4013519287109375
1783152171758185200,12.196185302734374,-0.047637939453125,-0.098358154296875,-0.2968902587890625
1783152171767890000,12.205889892578124,-0.23760986328125,-0.287109375,-0.169219970703125
1783152171777594400,12.215594482421874,-0.37200927734375,-0.35369873046875,-0.06292724609375
1783152171787329500,12.22532958984375,-0.3817901611328125,-0.326812744140625,0.0018157958984375
1783152171797034200,12.2350341796875,-0.261444091796875,-0.2620697021484375,0.0311431884765625
1783152171806738700,12.24473876953125,-0.051910400390625,-0.1270599365234375,0.046417236328125
1783152171816443400,12.254443359375,0.1918182373046875,0.2144012451171875,0.0421295166015625
1783152171826178300,12.26417822265625,0.4263916015625,0.5992431640625,-0.0164947509765625
1783152171835883000,12.273883056640624,0.6212615966796875,0.7922821044921875,-0.13623046875
1783152171845587700,12.283587646484374,0.742218017578125,0.767242431640625,-0.312774658203125
1783152171855292200,12.293292236328124,0.7428131103515625,0.6071929931640625,-0.527801513671875
1783152171865027300,12.30302734375,0.64691162109375,0.37567138671875,-0.709228515625
1783152171874731800,12.312731689453125,0.5522308349609375,0.1832427978515625,-0.78985595703125
1783152171884436500,12.3224365234375,0.533905029296875,0.07635498046875,-0.7660369873046875
1783152171894141200,12.33214111328125,0.5833740234375,-0.0146636962890625,-0.676239013671875
1783152171903876000,12.3418759765625,0.671966552734375,-0.1264495849609375,-0.5461273193359375
1783152171913580800,12.351580810546874,0.7709197998046875,-0.2241973876953125,-0.3836212158203125
1783152171923285200,12.36128515625,0.850341796875,-0.2712249755859375,-0.1967010498046875
1783152171932990000,12.370989990234374,0.9016571044921875,-0.2003631591796875,0.006103515625
1783152171942725000,12.38072509765625,0.92486572265625,-0.0110015869140625,0.201568603515625
1783152171952429600,12.3904296875,0.92242431640625,0.156982421875,0.37872314453125
1783152171962134300,12.40013427734375,0.902252197265625,0.2076873779296875,0.554046630859375
1783152171971838700,12.409838623046875,0.8717041015625,0.1410980224609375,0.7446441650390625
1783152171981574000,12.419573974609374,0.825286865234375,0.008544921875,0.94256591796875
1783152171991309000,12.42930908203125,0.762359619140625,-0.1417236328125,1.1148223876953125
1783152172010718200,12.44871826171875,0.598663330078125,-0.4306640625,1.2571563720703125
1783152172020423000,12.4584228515625,0.50579833984375,-0.50274658203125,1.197296142578125
1783152172030157800,12.46815771484375,0.4068450927734375,-0.4844207763671875,1.057403564453125
1783152172039862500,12.477862548828124,0.3054351806640625,-0.4037933349609375,0.8564300537109375
1783152172049567000,12.48756689453125,0.169219970703125,-0.3683624267578125,0.6187896728515625
1783152172059271700,12.497271728515624,0.022003173828125,-0.2412872314453125,0.3872833251953125
1783152172069006800,12.5070068359375,-0.0708465576171875,0.0262603759765625,0.194244384765625
1783152172078711300,12.516711181640625,-0.08612060546875,0.3054351806640625,0.0348052978515625
1783152172088416000,12.526416015625,-0.0238037109375,0.412322998046875,-0.102020263671875
1783152172098120400,12.536120361328125,0.0806427001953125,0.29931640625,-0.2241973876953125
1783152172107855600,12.545855712890624,0.169219970703125,0.0971221923828125,-0.3042144775390625
1783152172117560300,12.555560302734374,0.1954803466796875,-0.06597900390625,-0.3286590576171875
1783152172127264800,12.5652646484375,0.165557861328125,-0.21746826171875,-0.3060455322265625
1783152172136969500,12.574969482421874,0.1179046630859375,-0.390350341796875,-0.2357940673828125
1783152172146704600,12.58470458984375,0.0867462158203125,-0.50274658203125,-0.1154632568359375
1783152172156409000,12.5944091796875,0.0513153076171875,-0.5540618896484375,0.01708984375
1783152172166113800,12.60411376953125,-0.0384674072265625,-0.64569091796875,0.07940673828125
1783152172175818200,12.613818359375,-0.193634033203125,-0.750152587890625,0.0232086181640625
1783152172185553400,12.623553466796874,-0.36529541015625,-0.716552734375,-0.1191253662109375
1783152172195258000,12.633258056640624,-0.5406036376953125,-0.540618896484375,-0.3060455322265625
1783152172204962600,12.642962646484374,-0.707366943359375,-0.324981689453125,-0.50091552734375
1783152172214667300,12.652667236328124,-0.81121826171875,-0.1521148681640625,-0.672576904296875
1783152172224402200,12.662402099609375,-0.779449462890625,-0.0116119384765625,-0.7733612060546875
1783152172234107000,12.67210693359375,-0.6175689697265625,0.1050567626953125,-0.748321533203125
1783152172243811600,12.6818115234375,-0.4031524658203125,0.123382568359375,-0.599884033203125
1783152172253516000,12.69151611328125,-0.2058563232421875,0.0262603759765625,-0.384246826171875
1783152172263251200,12.701251220703124,-0.0671844482421875,-0.1563873291015625,-0.1490478515625
1783152172272986400,12.710986328125,0.0067138671875,-0.3781280517578125,0.058013916015625
1783152172282690800,12.72069091796875,0.0574188232421875,-0.5546722412109375,0.1612548828125
1783152172292395500,12.7303955078125,0.1484527587890625,-0.4752655029296875,0.124603271484375
1783152172302130700,12.740130615234374,0.2620697021484375,-0.0213775634765625,-0.0122222900390625
1783152172311835100,12.749835205078124,0.3133697509765625,0.610870361328125,-0.1466064453125
1783152172321539800,12.759539794921874,0.1490478515625,1.0610809326171875,0.1081085205078125
1783152172331244300,12.769244384765624,-0.268157958984375,0.7904510498046875,0.403778076171875
1783152172340949000,12.778948974609374,-0.6401824951171875,0.2205047607421875,0.6078033447265625
1783152172350684200,12.78868408203125,-0.7483062744140625,-0.2223663330078125,0.770904541015625
1783152172360388600,12.798388671875,-0.6798858642578125,-0.3665313720703125,0.880859375
1783152172370093300,12.80809326171875,-0.5845794677734375,-0.384857177734375,0.838104248046875
1783152172379797800,12.8177978515625,-0.4575347900390625,-0.3121490478515625,0.66278076171875
1783152172389533000,12.827532958984374,-0.2608184814453125,-0.1472320556640625,0.4233245849609375
1783152172399237600,12.837237548828124,-0.0769500732421875,0.047027587890625,0.1765289306640625
1783152172408942000,12.846942138671874,-0.0293121337890625,0.1600341796875,0.0274810791015625
