time,seconds_elapsed,z,y,x
1782858795663636700,0.09263671875,-0.8703155517578125,-0.454132080078125,0.0139007568359375
1782858795673584600,0.102584716796875,-0.873504638671875,-0.452117919921875,0.0272216796875
1782858795683533600,0.112533447265625,-0.8819580078125,-0.4494476318359375,0.0421905517578125
1782858795693482800,0.122482666015625,-0.8869781494140625,-0.442840576171875,0.05499267578125
1782858795703461600,0.132461669921875,-0.8841705322265625,-0.4371337890625,0.0555267333984375
1782858795713410600,0.14241064453125,-0.8813934326171875,-0.4352264404296875,0.0498199462890625
1782858795723358700,0.152358642578125,-0.8813629150390625,-0.438018798828125,0.0428009033203125
1782858795733307600,0.1623076171875,-0.8836669921875,-0.439666748046875,0.0356903076171875
1782858795743286500,0.17228662109375,-0.886505126953125,-0.441802978515625,0.032135009765625
1782858795753235500,0.1822353515625,-0.8864288330078125,-0.4453125,0.0251312255859375
1782858795763184600,0.1921845703125,-0.886810302734375,-0.4475860595703125,0.019073486328125
1782858795773133600,0.202133544921875,-0.88525390625,-0.44793701171875,0.0160980224609375
1782858795783112400,0.212112548828125,-0.8781585693359375,-0.445770263671875,0.01336669921875
1782858795793061400,0.222061279296875,-0.8710174560546875,-0.442962646484375,0.0112762451171875
1782858795803009500,0.232009521484375,-0.86968994140625,-0.4429473876953125,0.0097503662109375
1782858795812965000,0.241965087890625,-0.8719329833984375,-0.4461517333984375,0.009033203125
1782858795822944300,0.2519443359375,-0.8765411376953125,-0.4490966796875,0.013916015625
1782858795832893200,0.26189306640625,-0.8805389404296875,-0.44854736328125,0.0188446044921875
1782858795842842000,0.271842041015625,-0.884307861328125,-0.4482421875,0.02056884765625
1782858795852790000,0.2817900390625,-0.8793487548828125,-0.4510955810546875,0.0209197998046875
1782858795862770200,0.291770263671875,-0.873321533203125,-0.451019287109375,0.019744873046875
1782858795872718000,0.301718017578125,-0.8816375732421875,-0.4498138427734375,0.0196075439453125
1782858795882667000,0.3116669921875,-0.8932952880859375,-0.4562530517578125,0.0218048095703125
1782858795892616000,0.321615966796875,-0.895111083984375,-0.4585723876953125,0.022796630859375
1782858795902595000,0.331594970703125,-0.89544677734375,-0.448822021484375,0.0231170654296875
1782858795912544000,0.3415439453125,-0.9146881103515625,-0.4365386962890625,0.02288818359375
1782858795922493000,0.351492919921875,-0.92913818359375,-0.4300079345703125,0.022430419921875
1782858795932441000,0.361441162109375,-0.91949462890625,-0.4311370849609375,0.018524169921875
1782858795942421000,0.3714208984375,-0.90887451171875,-0.4358367919921875,0.00604248046875
1782858795952369000,0.381368896484375,-0.9157257080078125,-0.4330596923828125,-0.0039215087890625
1782858795962317800,0.39131787109375,-0.9413909912109375,-0.4324798583984375,-0.0089263916015625
1782858795972267300,0.401267333984375,-0.9427947998046875,-0.437103271484375,-0.012603759765625
1782858795982246100,0.41124609375,-0.9508209228515625,-0.427703857421875,-0.008453369140625
1782858795992195000,0.421195068359375,-0.94921875,-0.4226531982421875,-0.040985107421875
1782858796002144000,0.43114404296875,-0.93072509765625,-0.4080657958984375,-0.0951995849609375
1782858796012092200,0.441092041015625,-0.9511871337890625,-0.387451171875,-0.07525634765625
1782858796022071000,0.451071044921875,-0.9471435546875,-0.37005615234375,-0.04583740234375
1782858796032020000,0.46102001953125,-0.9391021728515625,-0.3420562744140625,-0.047027587890625
1782858796041969200,0.47096923828125,-0.9573974609375,-0.30853271484375,-0.0429534912109375
1782858796051918000,0.48091796875,-0.999786376953125,-0.29412841796875,-0.044769287109375
1782858796061897000,0.49089697265625,-1.043426513671875,-0.290008544921875,-0.0420989990234375
1782858796071846000,0.500845947265625,-1.05291748046875,-0.2824249267578125,-0.0379791259765625
1782858796081794000,0.5107939453125,-1.0456695556640625,-0.2647552490234375,-0.05218505859375
1782858796091743000,0.520742919921875,-1.0229339599609375,-0.23809814453125,-0.06982421875
1782858796101722000,0.53072216796875,-0.968963623046875,-0.2221221923828125,-0.0984954833984375
1782858796111671000,0.540671142578125,-0.9622039794921875,-0.2162322998046875,-0.118560791015625
1782858796121620000,0.550619873046875,-1.004150390625,-0.2178192138671875,-0.122222900390625
1782858796131569200,0.560569091796875,-1.036163330078125,-0.2144317626953125,-0.143707275390625
1782858796141548000,0.570548095703125,-1.0241241455078125,-0.208404541015625,-0.17462158203125
1782858796151497200,0.580497314453125,-0.97064208984375,-0.1768951416015625,-0.16961669921875
1782858796161445000,0.590445068359375,-0.9599761962890625,-0.1278228759765625,-0.0913238525390625
1782858796171394000,0.60039404296875,-0.9655609130859375,-0.0764312744140625,0.0447235107421875
1782858796181373200,0.610373291015625,-0.981536865234375,-0.0602264404296875,0.106903076171875
1782858796191322000,0.620322021484375,-1.0317535400390625,-0.1220550537109375,0.0364990234375
1782858796201271000,0.63027099609375,-1.0736541748046875,-0.18621826171875,-0.033416748046875
1782858796211219200,0.64021923828125,-1.06402587890625,-0.155242919921875,-0.21148681640625
1782858796221199000,0.65019921875,-0.9877777099609375,-0.13861083984375,-0.272857666015625
1782858796231147000,0.66014697265625,-0.887359619140625,-0.136199951171875,-0.2570953369140625
1782858796241096000,0.670095947265625,-0.82440185546875,-0.17681884765625,-0.22564697265625
1782858796251044900,0.680044921875,-0.8394622802734375,-0.2581024169921875,-0.205230712890625
1782858796261024000,0.69002392578125,-0.8781280517578125,-0.3126983642578125,-0.2288665771484375
1782858796270973000,0.699972900390625,-0.87628173828125,-0.323486328125,-0.2645111083984375
1782858796280921900,0.709921875,-0.8771209716796875,-0.3147125244140625,-0.306488037109375
1782858796290870000,0.7198701171875,-0.8785400390625,-0.299713134765625,-0.3524322509765625
1782858796300850200,0.72985009765625,-0.8437652587890625,-0.26873779296875,-0.384246826171875
1782858796310798000,0.739798095703125,-0.808349609375,-0.2450408935546875,-0.39398193359375
1782858796320747300,0.749747314453125,-0.8009796142578125,-0.2519378662109375,-0.38079833984375
1782858796330726100,0.75972607421875,-0.79766845703125,-0.2704010009765625,-0.369293212890625
1782858796340675000,0.769675048828125,-0.8035888671875,-0.29693603515625,-0.3510284423828125
1782858796350624000,0.7796240234375,-0.829864501953125,-0.370208740234375,-0.306610107421875
1782858796360572200,0.789572265625,-0.8575897216796875,-0.4617767333984375,-0.2686004638671875
1782858796370552000,0.799552001953125,-0.841461181640625,-0.5090789794921875,-0.2443389892578125
1782858796380500000,0.8095,-0.831878662109375,-0.53802490234375,-0.22625732421875
1782858796390449200,0.81944921875,-0.85125732421875,-0.606536865234375,-0.1943359375
1782858796400398000,0.829398193359375,-0.8804779052734375,-0.7369537353515625,-0.1237335205078125
1782858796410377000,0.839376953125,-0.8989410400390625,-0.8470916748046875,-0.0508575439453125
1782858796420326000,0.849325927734375,-0.9043121337890625,-0.7599945068359375,-0.09552001953125
1782858796430275000,0.859275146484375,-0.8794708251953125,-0.5049285888671875,-0.21588134765625
1782858796440223000,0.869222900390625,-0.8577880859375,-0.4615478515625,-0.2473602294921875
1782858796450203000,0.879202880859375,-0.84832763671875,-0.494659423828125,-0.2059326171875
1782858796460151000,0.889151123046875,-0.850677490234375,-0.4307403564453125,-0.206787109375
1782858796470100200,0.899100341796875,-0.8676605224609375,-0.412200927734375,-0.2130279541015625
1782858796480049200,0.909049072265625,-0.872406005859375,-0.4019775390625,-0.202423095703125
1782858796490028000,0.919028076171875,-0.8818359375,-0.371856689453125,-0.1746368408203125
1782858796499977200,0.928977294921875,-0.890869140625,-0.349822998046875,-0.1501922607421875
1782858796509925000,0.938925048828125,-0.8707122802734375,-0.3410491943359375,-0.130523681640625
1782858796519874000,0.9488740234375,-0.8406829833984375,-0.3429107666015625,-0.119873046875
1782858796529853200,0.958853271484375,-0.820343017578125,-0.3513031005859375,-0.115692138671875
1782858796539802000,0.968802001953125,-0.81024169921875,-0.3484649658203125,-0.128448486328125
1782858796549751000,0.9787509765625,-0.8269500732421875,-0.343841552734375,-0.138397216796875
1782858796559700000,0.988699951171875,-0.8597412109375,-0.3481903076171875,-0.1299285888671875
1782858796569679000,0.99867919921875,-0.8758087158203125,-0.3566741943359375,-0.1266326904296875
1782858796579628000,1.0086279296875,-0.879791259765625,-0.3667144775390625,-0.1246337890625
1782858796589576000,1.018575927734375,-0.8699188232421875,-0.38128662109375,-0.1309967041015625
1782858796599524900,1.02852490234375,-0.85302734375,-0.384735107421875,-0.1332550048828125
1782858796609504000,1.03850390625,-0.8481597900390625,-0.3887939453125,-0.1256256103515625
1782858796619453000,1.048452880859375,-0.8509979248046875,-0.3950653076171875,-0.1081695556640625
1782858796629402000,1.058402099609375,-0.85498046875,-0.4010772705078125,-0.0867767333984375
1782858796639351000,1.06835107421875,-0.8704376220703125,-0.4118499755859375,-0.0684356689453125
1782858796649330200,1.078330078125,-0.8839569091796875,-0.408111572265625,-0.058746337890625
1782858796659279000,1.088279052734375,-0.87786865234375,-0.3955535888671875,-0.0747833251953125
1782858796669227000,1.09822705078125,-0.86376953125,-0.3957061767578125,-0.093597412109375
1782858796679176200,1.10817626953125,-0.85260009765625,-0.3915252685546875,-0.094512939453125
1782858796689155000,1.118155029296875,-0.85467529296875,-0.38970947265625,-0.085662841796875
1782858796699104000,1.12810400390625,-0.863128662109375,-0.39447021484375,-0.1026611328125
1782858796709053000,1.138052978515625,-0.8596954345703125,-0.3988494873046875,-0.125091552734375
1782858796719001000,1.1480009765625,-0.8572998046875,-0.408294677734375,-0.1319122314453125
1782858796728981000,1.15798095703125,-0.8568572998046875,-0.4097137451171875,-0.12957763671875
1782858796738929200,1.16792919921875,-0.8614501953125,-0.4097900390625,-0.1249237060546875
1782858796748878000,1.177878173828125,-0.8587493896484375,-0.4134063720703125,-0.1223602294921875
1782858796758827000,1.187826904296875,-0.853118896484375,-0.4168853759765625,-0.117340087890625
1782858796768806000,1.197805908203125,-0.85491943359375,-0.4146881103515625,-0.115966796875
1782858796778755000,1.207755126953125,-0.850006103515625,-0.4118499755859375,-0.1124725341796875
1782858796788704300,1.217704345703125,-0.8515777587890625,-0.4098663330078125,-0.1119384765625
1782858796798652200,1.227652099609375,-0.8581085205078125,-0.4083099365234375,-0.1119537353515625
1782858796808632000,1.237632080078125,-0.85321044921875,-0.404449462890625,-0.1074066162109375
1782858796818602800,1.247602783203125,-0.852691650390625,-0.40228271484375,-0.108642578125
1782858796828551700,1.2575517578125,-0.8525238037109375,-0.398345947265625,-0.1094512939453125
1782858796838500900,1.2675009765625,-0.855712890625,-0.397003173828125,-0.1007080078125
1782858796848479700,1.277479736328125,-0.863250732421875,-0.3995819091796875,-0.096160888671875
1782858796858428700,1.2874287109375,-0.8653411865234375,-0.393280029296875,-0.092376708984375
1782858796868376800,1.297376953125,-0.8673553466796875,-0.3914337158203125,-0.0867156982421875
1782858796878325800,1.30732568359375,-0.878021240234375,-0.3877410888671875,-0.0844879150390625
1782858796888304600,1.3173046875,-0.89154052734375,-0.3800811767578125,-0.0877838134765625
1782858796898253600,1.327253662109375,-0.890655517578125,-0.37469482421875,-0.086212158203125
1782858796908202800,1.33720263671875,-0.888275146484375,-0.371551513671875,-0.085235595703125
1782858796918151700,1.347151611328125,-0.8903045654296875,-0.370635986328125,-0.0829620361328125
1782858796928130600,1.357130615234375,-0.88836669921875,-0.368194580078125,-0.0771026611328125
1782858796938079700,1.367079833984375,-0.879974365234375,-0.365081787109375,-0.06573486328125
1782858796948027600,1.377027587890625,-0.8777618408203125,-0.3616180419921875,-0.0577545166015625
1782858796957976800,1.386976806640625,-0.8825531005859375,-0.3554840087890625,-0.05780029296875
1782858796967955700,1.396955810546875,-0.8819122314453125,-0.3488311767578125,-0.0620880126953125
1782858796977905000,1.40690478515625,-0.8745574951171875,-0.3413543701171875,-0.0566253662109375
1782858796987853800,1.416853759765625,-0.8660430908203125,-0.3252410888671875,-0.0446014404296875
1782858796997802800,1.426802734375,-0.8562774658203125,-0.3113250732421875,-0.0247039794921875
1782858797007781600,1.43678173828125,-0.85260009765625,-0.3043975830078125,0.001495361328125
1782858797017729800,1.446729736328125,-0.8347930908203125,-0.238433837890625,0.043212890625
1782858797027678700,1.4566787109375,-0.72601318359375,-0.153106689453125,0.079559326171875
1782858797037627600,1.466627685546875,-0.6882171630859375,-0.2964019775390625,-0.0017242431640625
1782858797047606800,1.476606689453125,-0.7837677001953125,-0.388336181640625,-0.113128662109375
1782858797057555700,1.4865556640625,-0.848846435546875,-0.345550537109375,-0.1209259033203125
1782858797067504600,1.496504638671875,-0.824920654296875,-0.291839599609375,-0.06365966796875
1782858797077452500,1.50645263671875,-0.7869415283203125,-0.27093505859375,-0.013458251953125
1782858797087432700,1.5164326171875,-0.7837677001953125,-0.273162841796875,0.0020751953125
1782858797097380600,1.526380615234375,-0.7794036865234375,-0.27520751953125,-0.0014495849609375
1782858797107329500,1.53632958984375,-0.7689971923828125,-0.2834930419921875,-0.031036376953125
1782858797117278700,1.54627880859375,-0.7577972412109375,-0.2924652099609375,-0.0852813720703125
1782858797127257900,1.5562578125,-0.75079345703125,-0.3171844482421875,-0.156951904296875
1782858797137206800,1.566206787109375,-0.7484130859375,-0.322967529296875,-0.2120819091796875
1782858797147155700,1.57615576171875,-0.717803955078125,-0.34808349609375,-0.2704315185546875
1782858797157103900,1.586103759765625,-0.7718353271484375,-0.3786468505859375,-0.28662109375
1782858797167083800,1.596083740234375,-0.848602294921875,-0.407379150390625,-0.2556915283203125
1782858797177031700,1.60603173828125,-0.8818817138671875,-0.3973846435546875,-0.2129058837890625
1782858797186980600,1.615980712890625,-0.887664794921875,-0.3469390869140625,-0.15728759765625
1782858797196929800,1.6259296875,-0.8640289306640625,-0.319854736328125,-0.118255615234375
1782858797206908700,1.63590869140625,-0.8395538330078125,-0.3177337646484375,-0.1278228759765625
1782858797216857600,1.645857666015625,-0.8144378662109375,-0.2493896484375,-0.16845703125
1782858797226805800,1.6558056640625,-0.7656097412109375,-0.126800537109375,-0.18212890625
1782858797236754700,1.665754638671875,-0.7944488525390625,-0.10333251953125,-0.1769866943359375
1782858797246733600,1.675733642578125,-0.8471527099609375,-0.157440185546875,-0.2303466796875
1782858797256682800,1.685682861328125,-0.8371124267578125,-0.1651763916015625,-0.2877960205078125
1782858797266631700,1.695631591796875,-0.83514404296875,-0.12615966796875,-0.2900390625
1782858797276580900,1.705580810546875,-0.8603057861328125,-0.07373046875,-0.2892303466796875
1782858797286559700,1.715559814453125,-0.89129638671875,-0.0255126953125,-0.2962493896484375
1782858797296508700,1.7255087890625,-0.9186859130859375,0.0030364990234375,-0.30621337890625
1782858797306456800,1.735456787109375,-0.9608306884765625,0.051727294921875,-0.3337249755859375
1782858797316436700,1.745436767578125,-1.002044677734375,0.1571197509765625,-0.3795318603515625
1782858797326385000,1.755385009765625,-1.018035888671875,0.2737274169921875,-0.4109039306640625
1782858797336333800,1.765333740234375,-1.01092529296875,0.3501739501953125,-0.4068450927734375
1782858797346282800,1.77528271484375,-1.0424957275390625,0.3985748291015625,-0.360565185546875
1782858797356261600,1.78526171875,-1.0799713134765625,0.4322357177734375,-0.2903594970703125
1782858797366210800,1.7952109375,-1.0648956298828125,0.472564697265625,-0.202667236328125
1782858797376158700,1.80515869140625,-1.091156005859375,0.5169219970703125,-0.0963287353515625
1782858797386107600,1.815107666015625,-1.1523284912109375,0.528656005859375,-0.012359619140625
1782858797396086800,1.825086669921875,-1.1722412109375,0.5160980224609375,0.0297698974609375
1782858797406035700,1.83503564453125,-1.1705780029296875,0.5234222412109375,0.055206298828125
1782858797415984600,1.844984619140625,-1.20062255859375,0.5513458251953125,0.0651702880859375
1782858797425933800,1.854933837890625,-1.2379608154296875,0.570220947265625,0.0696258544921875
1782858797435912700,1.86491259765625,-1.24664306640625,0.5694427490234375,0.0799560546875
1782858797445862000,1.87486181640625,-1.2436065673828125,0.559417724609375,0.0767364501953125
1782858797455809800,1.884809814453125,-1.241119384765625,0.559326171875,0.05682373046875
1782858797465758700,1.8947587890625,-1.2358856201171875,0.5583038330078125,0.040313720703125
1782858797475737900,1.90473779296875,-1.22149658203125,0.542083740234375,0.0366363525390625
1782858797485686800,1.914686767578125,-1.2086181640625,0.5147552490234375,0.04302978515625
1782858797495635700,1.9246357421875,-1.1917724609375,0.4863433837890625,0.063262939453125
1782858797505583900,1.934583984375,-1.1832427978515625,0.457977294921875,0.0884246826171875
1782858797515563800,1.944563720703125,-1.173675537109375,0.4307098388671875,0.1050567626953125
1782858797525511700,1.95451171875,-1.149993896484375,0.4103546142578125,0.1035614013671875
1782858797535460600,1.964460693359375,-1.1207427978515625,0.3941650390625,0.1018218994140625
1782858797545409800,1.974409912109375,-1.0972442626953125,0.383514404296875,0.1073150634765625
1782858797555388700,1.984388671875,-1.0680999755859375,0.3648529052734375,0.1157989501953125
1782858797565337600,1.994337646484375,-1.0352630615234375,0.3393096923828125,0.1230621337890625
1782858797575286500,2.00428662109375,-1.009033203125,0.3121337890625,0.1304168701171875
1782858797585234700,2.014234619140625,-0.980712890625,0.2804718017578125,0.13330078125
1782858797595214600,2.024214599609375,-0.944610595703125,0.25067138671875,0.121307373046875
1782858797605162500,2.03416259765625,-0.91851806640625,0.2364654541015625,0.1085052490234375
1782858797615112000,2.04411181640625,-0.9041595458984375,0.2227935791015625,0.0958709716796875
1782858797625060900,2.054060791015625,-0.886932373046875,0.203765869140625,0.0785675048828125
1782858797635039700,2.064039794921875,-0.8762359619140625,0.1976470947265625,0.0752716064453125
1782858797644988700,2.07398876953125,-0.87939453125,0.1862945556640625,0.0791015625
1782858797654937900,2.083937744140625,-0.8888092041015625,0.16851806640625,0.0827789306640625
1782858797664885800,2.0938857421875,-0.8824310302734375,0.1658477783203125,0.07489013671875
1782858797674865000,2.103864990234375,-0.8750457763671875,0.1700286865234375,0.0648345947265625
1782858797684813800,2.113813720703125,-0.8762054443359375,0.16082763671875,0.0572357177734375
1782858797694762800,2.1237626953125,-0.877410888671875,0.14691162109375,0.0504150390625
1782858797704711700,2.133711669921875,-0.8782958984375,0.1393280029296875,0.0463714599609375
1782858797714690600,2.143690673828125,-0.8734893798828125,0.1344451904296875,0.035675048828125
1782858797724639700,2.1536396484375,-0.87689208984375,0.1300506591796875,0.0294647216796875
1782858797734587600,2.163587646484375,-0.8876495361328125,0.1208038330078125,0.028076171875
1782858797744536600,2.17353662109375,-0.901031494140625,0.1189422607421875,0.02496337890625
1782858797754515700,2.183515625,-0.9088897705078125,0.1167144775390625,0.0153656005859375
1782858797764464600,2.193464599609375,-0.9156341552734375,0.1139678955078125,0.0045318603515625
1782858797774413800,2.203413818359375,-0.93280029296875,0.1115570068359375,-0.0005645751953125
1782858797784362800,2.21336279296875,-0.951019287109375,0.10552978515625,0.006591796875
1782858797794342000,2.223341796875,-0.96551513671875,0.0931396484375,0.018768310546875
1782858797804290800,2.233290771484375,-0.96826171875,0.0813446044921875,0.022003173828125
1782858797814255000,2.243255126953125,-0.9695892333984375,0.075653076171875,0.0250091552734375
1782858797824204000,2.2532041015625,-0.9618988037109375,0.069091796875,0.026336669921875
1782858797834183000,2.263182861328125,-0.94940185546875,0.049346923828125,0.0264434814453125
1782858797844131800,2.2731318359375,-0.940216064453125,0.0174713134765625,0.0174407958984375
1782858797854081300,2.283081298828125,-0.9368896484375,-0.003204345703125,0.00054931640625
1782858797864029200,2.293029296875,-0.9311981201171875,0.0196533203125,-0.0062713623046875
1782858797874009000,2.303009033203125,-0.946685791015625,0.0077667236328125,-0.00860595703125
1782858797883957200,2.312957275390625,-0.9630279541015625,-0.0201416015625,-0.0080718994140625
1782858797893906200,2.32290625,-0.971893310546875,-0.036224365234375,0.0032196044921875
1782858797903855000,2.332855224609375,-0.97137451171875,-0.0440673828125,0.0063629150390625
1782858797913834000,2.342833984375,-0.9749755859375,-0.0527801513671875,-0.002166748046875
1782858797923783200,2.352783203125,-0.983184814453125,-0.0616302490234375,-0.008941650390625
1782858797933732000,2.362732177734375,-0.9884033203125,-0.065826416015625,-0.013031005859375
1782858797943680000,2.372679931640625,-0.990325927734375,-0.0731048583984375,-0.01611328125
1782858797953660000,2.382659912109375,-0.9918975830078125,-0.077484130859375,-0.0171356201171875
1782858797963608000,2.392608154296875,-0.990081787109375,-0.072784423828125,-0.0241851806640625
1782858797973557000,2.402556884765625,-0.9810638427734375,-0.07073974609375,-0.032196044921875
1782858797983506000,2.412505859375,-0.9711761474609375,-0.0716705322265625,-0.026947021484375
1782858797993485000,2.422485107421875,-0.9708099365234375,-0.068572998046875,-0.007781982421875
1782858798003434000,2.43243408203125,-0.9610748291015625,-0.0748291015625,0.006866455078125
1782858798013382000,2.4423818359375,-0.9632110595703125,-0.072601318359375,0.0088958740234375
1782858798023331000,2.4523310546875,-0.963653564453125,-0.0654449462890625,0.017120361328125
1782858798033310000,2.46231005859375,-0.956573486328125,-0.0616607666015625,0.0204620361328125
1782858798043259100,2.472259033203125,-0.9547119140625,-0.05914306640625,0.0237884521484375
1782858798053208000,2.4822080078125,-0.95098876953125,-0.06304931640625,0.0359344482421875
1782858798063157000,2.492156982421875,-0.9547119140625,-0.0751495361328125,0.053955078125
1782858798073136000,2.50213623046875,-0.958831787109375,-0.084014892578125,0.0618133544921875
1782858798083085000,2.5120849609375,-0.950592041015625,-0.0826873779296875,0.05584716796875
1782858798093033000,2.522032958984375,-0.94586181640625,-0.0801239013671875,0.045379638671875
1782858798102982100,2.531982177734375,-0.9396514892578125,-0.07781982421875,0.03485107421875
1782858798112961000,2.5419609375,-0.929351806640625,-0.0811767578125,0.02593994140625
1782858798122910000,2.551909912109375,-0.94573974609375,-0.0958251953125,0.009490966796875
1782858798132859000,2.56185888671875,-0.9689788818359375,-0.108612060546875,-0.0180816650390625
1782858798142808000,2.57180810546875,-0.97283935546875,-0.1017608642578125,-0.0520782470703125
1782858798152787000,2.581786865234375,-0.9849700927734375,-0.0838165283203125,-0.0904388427734375
1782858798162735000,2.591735107421875,-0.998565673828125,-0.0771942138671875,-0.1283416748046875
1782858798172684000,2.60168408203125,-1.005706787109375,-0.0740966796875,-0.1561431884765625
1782858798182633200,2.61163330078125,-1.0187835693359375,-0.0679931640625,-0.1740264892578125
1782858798192612000,2.621612060546875,-1.0261383056640625,-0.0606231689453125,-0.1865081787109375
1782858798202561000,2.63156103515625,-1.025970458984375,-0.053253173828125,-0.1966400146484375
1782858798212510200,2.64151025390625,-1.026519775390625,-0.04315185546875,-0.19683837890625
1782858798222458000,2.6514580078125,-1.023162841796875,-0.036895751953125,-0.1948699951171875
1782858798232438000,2.66143798828125,-1.0208282470703125,-0.034088134765625,-0.194488525390625
1782858798242386200,2.67138623046875,-1.0170745849609375,-0.0200653076171875,-0.18902587890625
1782858798252335000,2.681335205078125,-1.018035888671875,-0.0069732666015625,-0.1765899658203125
1782858798262284000,2.691283935546875,-1.0193023681640625,-0.0043487548828125,-0.1609649658203125
1782858798272263200,2.70126318359375,-1.0208587646484375,-0.005462646484375,-0.1487579345703125
1782858798282212000,2.711212158203125,-1.01708984375,-0.003509521484375,-0.143524169921875
1782858798292161000,2.7211611328125,-1.0104217529296875,-0.000579833984375,-0.140960693359375
1782858798302109000,2.73110888671875,-1.003265380859375,-0.0073394775390625,-0.133209228515625
1782858798312089000,2.741089111328125,-0.99432373046875,-0.0200042724609375,-0.1244049072265625
1782858798322037000,2.751037109375,-0.9813079833984375,-0.0323333740234375,-0.1195526123046875
1782858798331986000,2.76098583984375,-0.9682769775390625,-0.0423126220703125,-0.1163177490234375
1782858798341935000,2.77093505859375,-0.9557037353515625,-0.051361083984375,-0.11572265625
1782858798351914200,2.780914306640625,-0.9453125,-0.060638427734375,-0.1155548095703125
1782858798361863200,2.79086328125,-0.93731689453125,-0.0715789794921875,-0.1133270263671875
1782858798371811000,2.80081103515625,-0.933197021484375,-0.0778656005859375,-0.1148529052734375
1782858798381760000,2.810760009765625,-0.9303436279296875,-0.0832672119140625,-0.1150665283203125
1782858798391739100,2.8207392578125,-0.92901611328125,-0.0890045166015625,-0.119354248046875
1782858798401688000,2.83068798828125,-0.93280029296875,-0.08917236328125,-0.12042236328125
1782858798411637000,2.840636962890625,-0.9413909912109375,-0.0909423828125,-0.1165618896484375
1782858798421616000,2.8506162109375,-0.948760986328125,-0.0930328369140625,-0.117584228515625
1782858798431565000,2.86056494140625,-0.9554443359375,-0.09039306640625,-0.1179046630859375
1782858798441514000,2.870513916015625,-0.9638519287109375,-0.091552734375,-0.11492919921875
1782858798451462100,2.880462158203125,-0.9699859619140625,-0.09576416015625,-0.1115264892578125
1782858798461442000,2.890442138671875,-0.978973388671875,-0.09814453125,-0.10687255859375
1782858798471390000,2.900389892578125,-0.98583984375,-0.0955047607421875,-0.1056671142578125
1782858798481339000,2.9103388671875,-0.9917755126953125,-0.0895538330078125,-0.1045379638671875
1782858798491288000,2.9202880859375,-1.00054931640625,-0.0861663818359375,-0.1042022705078125
1782858798501267000,2.930266845703125,-1.0041351318359375,-0.08770751953125,-0.10284423828125
1782858798511216000,2.940216064453125,-1.0089569091796875,-0.088836669921875,-0.097991943359375
1782858798521164000,2.9501640625,-1.0126800537109375,-0.0888671875,-0.0923919677734375
1782858798531113200,2.96011328125,-1.0167236328125,-0.085113525390625,-0.0928802490234375
1782858798541092000,2.970092041015625,-1.020050048828125,-0.081268310546875,-0.09490966796875
1782858798551041000,2.980041015625,-1.021026611328125,-0.0809478759765625,-0.094879150390625
1782858798560990200,2.989990234375,-1.02227783203125,-0.0849609375,-0.093780517578125
1782858798570939100,2.999939208984375,-1.0222930908203125,-0.0835418701171875,-0.0956878662109375
1782858798580918000,3.00991796875,-1.018646240234375,-0.078826904296875,-0.0985260009765625
1782858798590867000,3.019866943359375,-1.0120391845703125,-0.0811920166015625,-0.1005706787109375
1782858798600815000,3.029815185546875,-1.0064544677734375,-0.085845947265625,-0.0998077392578125
1782858798610764000,3.039763916015625,-1.0016937255859375,-0.0901947021484375,-0.09906005859375
1782858798620743000,3.049742919921875,-0.9923248291015625,-0.0937652587890625,-0.09991455078125
1782858798630692000,3.059692138671875,-0.9814910888671875,-0.09649658203125,-0.1007537841796875
1782858798640641000,3.06964111328125,-0.97320556640625,-0.102264404296875,-0.1002349853515625
1782858798650589000,3.0795888671875,-0.9671630859375,-0.111602783203125,-0.098114013671875
1782858798660568800,3.08956884765625,-0.959625244140625,-0.118377685546875,-0.101165771484375
1782858798670517000,3.09951708984375,-0.9577484130859375,-0.11944580078125,-0.1065826416015625
1782858798680466000,3.1094658203125,-0.9615020751953125,-0.119110107421875,-0.111083984375
1782858798690415000,3.1194150390625,-0.965301513671875,-0.1237945556640625,-0.1123199462890625
1782858798700394200,3.129394287109375,-0.9699249267578125,-0.1297454833984375,-0.110992431640625
1782858798710343200,3.13934326171875,-0.969970703125,-0.1358795166015625,-0.1123046875
1782858798720292000,3.1492919921875,-0.9694366455078125,-0.138916015625,-0.113067626953125
1782858798730240000,3.159239990234375,-0.970123291015625,-0.1436004638671875,-0.11370849609375
1782858798740220200,3.16922021484375,-0.9710540771484375,-0.1497344970703125,-0.1129302978515625
1782858798750168000,3.17916796875,-0.976898193359375,-0.15252685546875,-0.1186065673828125
1782858798760117000,3.189116943359375,-0.9809112548828125,-0.1545867919921875,-0.1290740966796875
1782858798770066000,3.19906591796875,-0.989044189453125,-0.15081787109375,-0.13458251953125
1782858798780045000,3.209045166015625,-0.9996795654296875,-0.1457366943359375,-0.138519287109375
1782858798789994000,3.218993896484375,-1.0098724365234375,-0.1440277099609375,-0.1457366943359375
1782858798799943000,3.22894287109375,-1.0182037353515625,-0.1384735107421875,-0.156829833984375
1782858798809891000,3.23889111328125,-1.026092529296875,-0.128173828125,-0.16943359375
1782858798819884000,3.248884033203125,-1.028900146484375,-0.1222991943359375,-0.1792755126953125
1782858798829832200,3.258832275390625,-1.02130126953125,-0.11566162109375,-0.1893768310546875
1782858798839781400,3.268781494140625,-1.0088348388671875,-0.103485107421875,-0.1937408447265625
1782858798849730300,3.278730224609375,-0.9952239990234375,-0.097625732421875,-0.1875457763671875
1782858798859709200,3.288709228515625,-0.9765167236328125,-0.103515625,-0.172119140625
1782858798869658000,3.298658203125,-0.954620361328125,-0.1116485595703125,-0.1497039794921875
1782858798879606300,3.308606201171875,-0.9381103515625,-0.118682861328125,-0.1304473876953125
1782858798889555200,3.31855517578125,-0.9189300537109375,-0.1263885498046875,-0.1152496337890625
1782858798899534300,3.328534423828125,-0.9019622802734375,-0.1263427734375,-0.0985260009765625
1782858798909483300,3.338483154296875,-0.8895111083984375,-0.123992919921875,-0.0824432373046875
1782858798919432200,3.34843212890625,-0.87408447265625,-0.1274261474609375,-0.0700531005859375
1782858798929381000,3.358381103515625,-0.86395263671875,-0.1317901611328125,-0.0609130859375
1782858798939360300,3.3683603515625,-0.8583221435546875,-0.1359710693359375,-0.0561981201171875
1782858798949309200,3.37830908203125,-0.8574066162109375,-0.1358184814453125,-0.0521697998046875
1782858798959257000,3.388257080078125,-0.859710693359375,-0.1273193359375,-0.0475311279296875
1782858798969206000,3.3982060546875,-0.865966796875,-0.1208953857421875,-0.0420074462890625
1782858798979185200,3.40818505859375,-0.87579345703125,-0.11669921875,-0.034088134765625
1782858798989134000,3.418134033203125,-0.8812255859375,-0.10943603515625,-0.0222930908203125
1782858798999083300,3.428083251953125,-0.8937530517578125,-0.09600830078125,-0.012176513671875
1782858799009031200,3.43803125,-0.911346435546875,-0.07781982421875,-0.0064697265625
1782858799019011300,3.44801123046875,-0.924774169921875,-0.0567626953125,-0.0003204345703125
1782858799028959200,3.457959228515625,-0.9394073486328125,-0.042694091796875,0.0075836181640625
1782858799038908200,3.467908203125,-0.9530487060546875,-0.0368194580078125,0.0186920166015625
1782858799048857000,3.477857177734375,-0.966766357421875,-0.0337982177734375,0.028656005859375
1782858799058836200,3.487836181640625,-0.9770660400390625,-0.0301513671875,0.035064697265625
1782858799068785200,3.49778515625,-0.9885406494140625,-0.025115966796875,0.033447265625
1782858799078734000,3.507734130859375,-0.9956207275390625,-0.0205230712890625,0.028778076171875
1782858799088682200,3.51768212890625,-1.004486083984375,-0.011962890625,0.025421142578125
1782858799098662100,3.527662109375,-1.0153045654296875,-0.0068206787109375,0.0212860107421875
1782858799108610000,3.537610107421875,-1.0245819091796875,-0.005615234375,0.0144805908203125
1782858799118559200,3.547559326171875,-1.031890869140625,-0.00335693359375,0.0048370361328125
1782858799128508200,3.557508056640625,-1.0335845947265625,0.0005950927734375,-0.002288818359375
1782858799138487000,3.567487060546875,-1.031585693359375,-0.0003204345703125,-0.010833740234375
1782858799148436000,3.57743603515625,-1.0295562744140625,0.0006103515625,-0.0164031982421875
1782858799158384000,3.587384033203125,-1.02783203125,0.00054931640625,-0.0159454345703125
1782858799168333300,3.597333251953125,-1.0237884521484375,-0.0066680908203125,-0.0141143798828125
1782858799178312000,3.60731201171875,-1.015106201171875,-0.012115478515625,-0.010467529296875
1782858799188261400,3.617261474609375,-1.0063018798828125,-0.0165252685546875,-0.0084381103515625
1782858799198210300,3.627210205078125,-0.9918060302734375,-0.0251007080078125,-0.009979248046875
1782858799208159200,3.6371591796875,-0.9771728515625,-0.028900146484375,-0.00970458984375
1782858799218138000,3.64713818359375,-0.96490478515625,-0.028045654296875,-0.0079193115234375
1782858799228087300,3.65708740234375,-0.951019287109375,-0.0327301025390625,-0.00543212890625
1782858799238035200,3.66703515625,-0.9378509521484375,-0.0342254638671875,-0.0034942626953125
1782858799247984000,3.676984130859375,-0.9289703369140625,-0.0341949462890625,0.0005340576171875
1782858799257963300,3.68696337890625,-0.9269561767578125,-0.0353546142578125,0.006805419921875
1782858799267912200,3.696912109375,-0.927978515625,-0.032501220703125,0.0103759765625
1782858799277861000,3.706861083984375,-0.9297332763671875,-0.0241241455078125,0.0106201171875
1782858799287810000,3.71681005859375,-0.9383697509765625,-0.0190582275390625,0.01373291015625
1782858799297789200,3.7267890625,-0.94854736328125,-0.0179595947265625,0.01654052734375
1782858799307738000,3.736738037109375,-0.9597320556640625,-0.0130462646484375,0.0113525390625
1782858799317686000,3.74668603515625,-0.971649169921875,-0.005126953125,0.0052642822265625
1782858799327635200,3.75663525390625,-0.98443603515625,0.0003509521484375,0.0025177001953125
1782858799337614000,3.766614013671875,-0.99566650390625,0.0074462890625,-0.003173828125
1782858799347563300,3.776563232421875,-1.0059356689453125,0.0168914794921875,-0.0087890625
1782858799357512200,3.78651220703125,-1.0177764892578125,0.0232391357421875,-0.0182037353515625
1782858799367460400,3.79646044921875,-1.024200439453125,0.032562255859375,-0.0284271240234375
1782858799377440300,3.806440185546875,-1.0305328369140625,0.0413665771484375,-0.0400390625
1782858799387388200,3.81638818359375,-1.033905029296875,0.0478057861328125,-0.051239013671875
1782858799397337000,3.826337158203125,-1.030181884765625,0.0534820556640625,-0.05975341796875
1782858799407286300,3.836286376953125,-1.023834228515625,0.0535736083984375,-0.0670013427734375
1782858799417265200,3.84626513671875,-1.014251708984375,0.05023193359375,-0.0760345458984375
1782858799427214000,3.856214111328125,-1.0046539306640625,0.0457763671875,-0.0839691162109375
1782858799437163000,3.8661630859375,-0.995574951171875,0.0413360595703125,-0.0938262939453125
1782858799447111200,3.876111083984375,-0.98663330078125,0.0407562255859375,-0.1078338623046875
1782858799457091000,3.886091064453125,-0.9786376953125,0.041900634765625,-0.118438720703125
1782858799467039200,3.896039306640625,-0.97393798828125,0.038909912109375,-0.1264495849609375
1782858799476988200,3.90598828125,-0.9691619873046875,0.033599853515625,-0.13726806640625
1782858799486937300,3.915937255859375,-0.969940185546875,0.0328521728515625,-0.14666748046875
1782858799496916200,3.925916259765625,-0.9713134765625,0.03369140625,-0.1587677001953125
1782858799506865200,3.935865234375,-0.974029541015625,0.029296875,-0.1698150634765625
1782858799516813300,3.945813232421875,-0.9782257080078125,0.0271148681640625,-0.1763458251953125
1782858799526793200,3.955793212890625,-0.9801177978515625,0.027374267578125,-0.180694580078125
1782858799536741400,3.965741455078125,-0.9802398681640625,0.025634765625,-0.1835784912109375
1782858799546690300,3.975690185546875,-0.977996826171875,0.02105712890625,-0.1844635009765625
1782858799556639200,3.98563916015625,-0.9758148193359375,0.017852783203125,-0.1854705810546875
1782858799566618000,3.9956181640625,-0.974151611328125,0.016082763671875,-0.1865692138671875
1782858799576567300,4.0055673828125,-0.970123291015625,0.0132598876953125,-0.18634033203125
1782858799586516200,4.01551611328125,-0.9665374755859375,0.01092529296875,-0.184356689453125
1782858799596464000,4.025464111328125,-0.9634857177734375,0.0074920654296875,-0.179656982421875
1782858799606444000,4.035444091796875,-0.9617767333984375,0.006439208984375,-0.1753387451171875
1782858799616392200,4.04539208984375,-0.963470458984375,0.008575439453125,-0.1738739013671875
1782858799626341000,4.055341064453125,-0.9641876220703125,0.0092315673828125,-0.1692657470703125
1782858799636290000,4.0652900390625,-0.967071533203125,0.0118255615234375,-0.164794921875
1782858799646269200,4.075269287109375,-0.97247314453125,0.0153045654296875,-0.16094970703125
1782858799656218400,4.08521826171875,-0.9774627685546875,0.0149078369140625,-0.155792236328125
1782858799666166000,4.095166015625,-0.981170654296875,0.0155029296875,-0.15118408203125
1782858799676115200,4.105115234375,-0.98773193359375,0.0213623046875,-0.1517181396484375
1782858799686094300,4.11509423828125,-0.9949188232421875,0.0316162109375,-0.15386962890625
1782858799696043300,4.125043212890625,-1.0005950927734375,0.044036865234375,-0.15753173828125
1782858799705992200,4.1349921875,-1.0079498291015625,0.0542144775390625,-0.1616973876953125
1782858799715941000,4.144941162109375,-1.0117645263671875,0.0623779296875,-0.1683807373046875
1782858799725920300,4.154920166015625,-1.012969970703125,0.071929931640625,-0.1785736083984375
1782858799735869200,4.164869140625,-1.0168914794921875,0.0843353271484375,-0.1866607666015625
1782858799745817000,4.174817138671875,-1.0179595947265625,0.0931243896484375,-0.1892242431640625
1782858799755766300,4.184766357421875,-1.019561767578125,0.096466064453125,-0.18841552734375
1782858799765745200,4.1947451171875,-1.017822265625,0.09991455078125,-0.19091796875
1782858799775694000,4.204694091796875,-1.0108642578125,0.1036376953125,-0.195404052734375
1782858799785643000,4.21464306640625,-1.0038909912109375,0.106292724609375,-0.1978912353515625
1782858799795592200,4.22459228515625,-0.9994049072265625,0.1068267822265625,-0.201904296875
1782858799805571000,4.234571044921875,-0.9939117431640625,0.106353759765625,-0.205596923828125
1782858799815550000,4.244550048828125,-0.991058349609375,0.105010986328125,-0.2086334228515625
1782858799825499000,4.254498779296875,-0.9875946044921875,0.1050262451171875,-0.2132415771484375
1782858799835448000,4.264447998046875,-0.9839324951171875,0.1021575927734375,-0.21478271484375
1782858799845427000,4.274427001953125,-0.97906494140625,0.0977020263671875,-0.2158966064453125
1782858799855376100,4.284376220703125,-0.9731292724609375,0.0936279296875,-0.21490478515625
1782858799865325000,4.294324951171875,-0.967041015625,0.0859527587890625,-0.213165283203125
1782858799875273000,4.30427294921875,-0.9608306884765625,0.0775146484375,-0.2118988037109375
1782858799885252900,4.3142529296875,-0.9552459716796875,0.07073974609375,-0.2128753662109375
1782858799895201000,4.324200927734375,-0.9525909423828125,0.067626953125,-0.2129058837890625
1782858799905150000,4.33414990234375,-0.9497528076171875,0.0618133544921875,-0.2111968994140625
1782858799915099000,4.344098876953125,-0.9480133056640625,0.0545654296875,-0.2099761962890625
1782858799925078000,4.354078125,-0.9470672607421875,0.0514678955078125,-0.2090301513671875
1782858799935027000,4.36402685546875,-0.9482269287109375,0.050872802734375,-0.20794677734375
1782858799944976000,4.373975830078125,-0.9517974853515625,0.04840087890625,-0.2069244384765625
1782858799954923800,4.383923828125,-0.9551239013671875,0.0460052490234375,-0.2059173583984375
1782858799964904000,4.393904052734375,-0.956939697265625,0.044921875,-0.2054443359375
1782858799974851800,4.403851806640625,-0.9631195068359375,0.0446014404296875,-0.2039947509765625
1782858799984800800,4.41380078125,-0.9697113037109375,0.0437164306640625,-0.2035980224609375
1782858799994750000,4.42375,-0.9751739501953125,0.0452728271484375,-0.206817626953125
1782858800004729000,4.43372900390625,-0.97979736328125,0.04632568359375,-0.2097320556640625
1782858800014678000,4.443677978515625,-0.9835662841796875,0.0452117919921875,-0.2099761962890625
1782858800024626000,4.4536259765625,-0.989532470703125,0.044219970703125,-0.2101593017578125
1782858800034575000,4.4635751953125,-0.9955596923828125,0.046875,-0.2131195068359375
1782858800044554000,4.473553955078125,-0.99957275390625,0.0526580810546875,-0.2153167724609375
1782858800054503000,4.4835029296875,-1.001800537109375,0.050750732421875,-0.2134857177734375
1782858800064451800,4.493451904296875,-1.00115966796875,0.0472412109375,-0.2101287841796875
1782858800074401000,4.503401123046875,-0.996795654296875,0.0478363037109375,-0.2093505859375
1782858800084380000,4.5133798828125,-0.9911651611328125,0.0465240478515625,-0.207611083984375
1782858800094328800,4.523328857421875,-0.9857635498046875,0.04071044921875,-0.2028961181640625
1782858800104277000,4.533277099609375,-0.982696533203125,0.0357666015625,-0.193634033203125
1782858800114226000,4.543225830078125,-0.978790283203125,0.030426025390625,-0.1846160888671875
1782858800124204800,4.553204833984375,-0.9727783203125,0.024444580078125,-0.181671142578125
1782858800134153700,4.56315380859375,-0.9673614501953125,0.02215576171875,-0.1773529052734375
1782858800144103000,4.57310302734375,-0.9633331298828125,0.0172576904296875,-0.173095703125
1782858800154050800,4.58305078125,-0.9608154296875,0.011932373046875,-0.171905517578125
1782858800164031000,4.593031005859375,-0.962554931640625,0.011444091796875,-0.1728057861328125
1782858800173979100,4.602979248046875,-0.9649200439453125,0.0113983154296875,-0.1746978759765625
1782858800183928000,4.612927978515625,-0.9655303955078125,0.0073394775390625,-0.175384521484375
1782858800193877000,4.622876953125,-0.967254638671875,0.0064544677734375,-0.172698974609375
1782858800203856000,4.63285595703125,-0.966644287109375,0.0032501220703125,-0.172698974609375
1782858800213805000,4.64280517578125,-0.9630126953125,0.0014190673828125,-0.171539306640625
1782858800223754000,4.65275390625,-0.96343994140625,0.0007171630859375,-0.1670684814453125
1782858800233702000,4.662701904296875,-0.965576171875,-0.0040283203125,-0.160919189453125
1782858800243681800,4.672681884765625,-0.9713592529296875,-0.0057830810546875,-0.1572418212890625
1782858800253630000,4.6826298828125,-0.97882080078125,-0.005859375,-0.15142822265625
1782858800263579000,4.692578857421875,-0.9817047119140625,-0.0018768310546875,-0.1431884765625
1782858800273527800,4.70252783203125,-0.9918212890625,0.0035400390625,-0.1392822265625
1782858800283507000,4.7125068359375,-0.9966278076171875,-0.00054931640625,-0.1333160400390625
1782858800293456000,4.722455810546875,-1.001556396484375,-0.011138916015625,-0.12451171875
1782858800303403800,4.73240380859375,-1.0070343017578125,-0.0215301513671875,-0.11163330078125
1782858800313352700,4.742352783203125,-1.0081329345703125,-0.0352630615234375,-0.098876953125
1782858800323331800,4.752331787109375,-1.0145721435546875,-0.0495147705078125,-0.09173583984375
1782858800333281000,4.762281005859375,-1.014495849609375,-0.0578155517578125,-0.08892822265625
1782858800343230000,4.77222998046875,-1.014404296875,-0.062957763671875,-0.087310791015625
1782858800353179000,4.782178955078125,-1.0116119384765625,-0.065399169921875,-0.0835418701171875
1782858800363158000,4.792157958984375,-1.0170745849609375,-0.07086181640625,-0.0847625732421875
1782858800373107000,4.80210693359375,-1.032257080078125,-0.086090087890625,-0.085968017578125
1782858800383054800,4.812054931640625,-1.0480499267578125,-0.1033477783203125,-0.0872955322265625
1782858800393004000,4.822004150390625,-1.06158447265625,-0.1154937744140625,-0.0948028564453125
1782858800402983000,4.83198291015625,-1.0587158203125,-0.12652587890625,-0.1100006103515625
1782858800412931800,4.841931884765625,-1.042694091796875,-0.1266326904296875,-0.1183319091796875
1782858800422880800,4.851880859375,-1.0496368408203125,-0.123077392578125,-0.1294097900390625
1782858800432830000,4.861829833984375,-1.058013916015625,-0.1389007568359375,-0.1470794677734375
1782858800442808800,4.871808837890625,-1.0589447021484375,-0.156036376953125,-0.1711273193359375
1782858800452757800,4.8817578125,-1.06964111328125,-0.1705322265625,-0.2105560302734375
1782858800462706000,4.891705810546875,-1.082794189453125,-0.1793212890625,-0.2546539306640625
1782858800472654800,4.90165478515625,-1.0862274169921875,-0.16943359375,-0.2921142578125
1782858800482633700,4.9116337890625,-1.0778350830078125,-0.16571044921875,-0.29620361328125
1782858800492583000,4.9215830078125,-1.06842041015625,-0.172882080078125,-0.266571044921875
1782858800502532000,4.931531982421875,-1.06964111328125,-0.1776275634765625,-0.217926025390625
1782858800512480000,4.94147998046875,-1.065704345703125,-0.1800537109375,-0.15533447265625
1782858800522460000,4.9514599609375,-1.0527191162109375,-0.165557861328125,-0.104217529296875
1782858800532408000,4.961407958984375,-1.052001953125,-0.132293701171875,-0.0769195556640625
1782858800542357000,4.97135693359375,-1.0574188232421875,-0.11944580078125,-0.076934814453125
1782858800552306000,4.981305908203125,-1.069610595703125,-0.1285552978515625,-0.0915374755859375
1782858800562285000,4.99128515625,-1.0662841796875,-0.1374969482421875,-0.0838775634765625
1782858800572234000,5.00123388671875,-1.039581298828125,-0.1398773193359375,-0.0526885986328125
1782858800582183000,5.011182861328125,-1.0107574462890625,-0.1587982177734375,-0.014984130859375
1782858800592130800,5.021130859375,-0.9872589111328125,-0.2018280029296875,0.013427734375
1782858800602111000,5.031111083984375,-0.9608917236328125,-0.2433319091796875,0.020294189453125
1782858800612059000,5.041058837890625,-0.941986083984375,-0.2613983154296875,0.0166015625
1782858800622007800,5.0510078125,-0.928955078125,-0.2594146728515625,-0.00323486328125
1782858800631956700,5.060956787109375,-0.906463623046875,-0.25042724609375,-0.033416748046875
1782858800641936000,5.070935791015625,-0.8892669677734375,-0.2477874755859375,-0.0565185546875
1782858800651885000,5.080885009765625,-0.8864593505859375,-0.2541656494140625,-0.0654449462890625
1782858800661832700,5.090832763671875,-0.8835601806640625,-0.271820068359375,-0.06085205078125
1782858800671813000,5.100813232421875,-0.8707122802734375,-0.2979736328125,-0.0469970703125
1782858800681761000,5.110760986328125,-0.86004638671875,-0.3223876953125,-0.0272674560546875
1782858800691710000,5.1207099609375,-0.85369873046875,-0.3489837646484375,-0.0097503662109375
1782858800701659000,5.130658935546875,-0.8390045166015625,-0.3682098388671875,0.00091552734375
1782858800711638000,5.140637939453125,-0.8367156982421875,-0.37811279296875,0.003021240234375
1782858800721587000,5.1505869140625,-0.84228515625,-0.3838653564453125,-0.008453369140625
1782858800731536000,5.160535888671875,-0.8436431884765625,-0.37091064453125,-0.0262908935546875
1782858800741484000,5.170484130859375,-0.840484619140625,-0.3627777099609375,-0.037322998046875
1782858800751464000,5.1804638671875,-0.8331451416015625,-0.370086669921875,-0.0417633056640625
1782858800761411800,5.190411865234375,-0.8275909423828125,-0.3820037841796875,-0.039703369140625
1782858800771360800,5.20036083984375,-0.8184814453125,-0.39410400390625,-0.02984619140625
1782858800781310000,5.21031005859375,-0.8018798828125,-0.4053955078125,-0.01953125
1782858800791288800,5.220288818359375,-0.7899322509765625,-0.4179229736328125,-0.0095672607421875
1782858800801237800,5.23023779296875,-0.776824951171875,-0.4298095703125,0.0015869140625
1782858800811186000,5.24018603515625,-0.7613525390625,-0.439544677734375,0.010772705078125
1782858800821149000,5.25014892578125,-0.7522430419921875,-0.4517974853515625,0.0132598876953125
1782858800831127800,5.2601279296875,-0.7398834228515625,-0.4581298828125,0.0084686279296875
1782858800841076700,5.27007666015625,-0.729217529296875,-0.4551544189453125,0.0030364990234375
1782858800851026000,5.28002587890625,-0.7247772216796875,-0.4580535888671875,0.000701904296875
1782858800860975000,5.28997509765625,-0.715118408203125,-0.469451904296875,-0.0011138916015625
1782858800870954000,5.2999541015625,-0.709625244140625,-0.478424072265625,-0.002105712890625
1782858800880903000,5.30990283203125,-0.710662841796875,-0.48944091796875,0.0023345947265625
1782858800890851000,5.31985107421875,-0.70501708984375,-0.5045013427734375,0.007843017578125
1782858800900800000,5.329800048828125,-0.700836181640625,-0.50982666015625,0.0113372802734375
1782858800910779000,5.33977880859375,-0.700714111328125,-0.5174713134765625,0.014801025390625
1782858800920728000,5.34972802734375,-0.6955413818359375,-0.529052734375,0.0186309814453125
1782858800930677000,5.359677001953125,-0.691375732421875,-0.5394134521484375,0.0235443115234375
1782858800940626000,5.3696259765625,-0.6941070556640625,-0.5540618896484375,0.028594970703125
1782858800950604800,5.379604736328125,-0.696136474609375,-0.568206787109375,0.0353546142578125
1782858800960554000,5.389553955078125,-0.699798583984375,-0.577606201171875,0.04058837890625
1782858800970502000,5.399501953125,-0.7054290771484375,-0.5830230712890625,0.044403076171875
1782858800980450800,5.409450927734375,-0.7173919677734375,-0.5909881591796875,0.0495147705078125
1782858800990430000,5.419429931640625,-0.731964111328125,-0.5987701416015625,0.0552978515625
1782858801000379000,5.42937890625,-0.7525177001953125,-0.607391357421875,0.05963134765625
1782858801010327800,5.439327880859375,-0.7758941650390625,-0.61236572265625,0.0621185302734375
1782858801020275700,5.449275634765625,-0.7947845458984375,-0.6057281494140625,0.0646820068359375
1782858801030256000,5.459256103515625,-0.813385009765625,-0.59228515625,0.066131591796875
1782858801040203800,5.469203857421875,-0.8321380615234375,-0.581390380859375,0.0657958984375
1782858801050153000,5.479153076171875,-0.8485260009765625,-0.5741424560546875,0.0704498291015625
1782858801060102000,5.489101806640625,-0.8665008544921875,-0.5642547607421875,0.0787353515625
1782858801070081000,5.4990810546875,-0.8778228759765625,-0.551910400390625,0.084564208984375
1782858801080030000,5.509030029296875,-0.8793182373046875,-0.5335845947265625,0.09088134765625
1782858801089979000,5.518978759765625,-0.8832550048828125,-0.5149383544921875,0.09564208984375
1782858801099927000,5.528927001953125,-0.8881072998046875,-0.4982147216796875,0.0997314453125
1782858801109907000,5.538906982421875,-0.8901519775390625,-0.4765167236328125,0.104217529296875
1782858801119854800,5.548854736328125,-0.8907470703125,-0.4613189697265625,0.11639404296875
1782858801129803800,5.5588037109375,-0.8910064697265625,-0.45660400390625,0.1299591064453125
1782858801139753000,5.5687529296875,-0.883941650390625,-0.455078125,0.1410980224609375
1782858801149731800,5.57873193359375,-0.8719329833984375,-0.449005126953125,0.15093994140625
1782858801159680800,5.5886806640625,-0.86395263671875,-0.4467010498046875,0.1595458984375
1782858801169629000,5.59862890625,-0.8539886474609375,-0.449310302734375,0.16650390625
1782858801179577900,5.608577880859375,-0.8399658203125,-0.4519195556640625,0.1717529296875
1782858801189556700,5.618556640625,-0.824462890625,-0.458404541015625,0.1774749755859375
1782858801199506000,5.628505859375,-0.8143768310546875,-0.46630859375,0.1824493408203125
1782858801209455000,5.638455078125,-0.80615234375,-0.4768524169921875,0.185150146484375
1782858801219404000,5.648404052734375,-0.7965240478515625,-0.487457275390625,0.1892242431640625
1782858801229383000,5.6583828125,-0.7977447509765625,-0.4964141845703125,0.1948699951171875
1782858801239331800,5.668331787109375,-0.8056488037109375,-0.50506591796875,0.1940765380859375
1782858801249280000,5.678280029296875,-0.8100738525390625,-0.5100860595703125,0.1881103515625
1782858801259229000,5.68822900390625,-0.818389892578125,-0.508575439453125,0.1826934814453125
1782858801269208000,5.6982080078125,-0.83245849609375,-0.507904052734375,0.1822509765625
1782858801279157000,5.708156982421875,-0.8404998779296875,-0.5129241943359375,0.1801605224609375
1782858801289106000,5.71810595703125,-0.84765625,-0.51666259765625,0.1805267333984375
1782858801299053800,5.7280537109375,-0.8599090576171875,-0.522491455078125,0.1869049072265625
1782858801309034000,5.738033935546875,-0.875885009765625,-0.5290374755859375,0.1924591064453125
1782858801318982000,5.74798193359375,-0.89276123046875,-0.5310821533203125,0.1990509033203125
1782858801328930800,5.757930908203125,-0.9122772216796875,-0.528594970703125,0.203094482421875
1782858801338879700,5.767879638671875,-0.930694580078125,-0.52166748046875,0.204376220703125
1782858801348859000,5.77785888671875,-0.9493408203125,-0.5127410888671875,0.2041473388671875
1782858801358808000,5.78780810546875,-0.9627532958984375,-0.5027313232421875,0.199462890625
1782858801368757000,5.797757080078125,-0.963958740234375,-0.4853668212890625,0.1908721923828125
1782858801378705200,5.807705078125,-0.9540557861328125,-0.4665374755859375,0.1815948486328125
1782858801388685000,5.81768505859375,-0.933807373046875,-0.4546356201171875,0.16729736328125
1782858801398633000,5.827633056640625,-0.91436767578125,-0.44403076171875,0.1544189453125
1782858801408582000,5.837581787109375,-0.9171142578125,-0.4329833984375,0.14068603515625
1782858801418530800,5.84753076171875,-0.94158935546875,-0.4273834228515625,0.110504150390625
1782858801428510000,5.857510009765625,-0.947540283203125,-0.3997802734375,0.0756683349609375
1782858801438459000,5.867458984375,-0.9413299560546875,-0.3681793212890625,0.05926513671875
1782858801448407800,5.87740771484375,-0.9448394775390625,-0.3661956787109375,0.051025390625
1782858801458356000,5.88735595703125,-0.944854736328125,-0.3749847412109375,0.05322265625
1782858801468334800,5.8973349609375,-0.93743896484375,-0.382293701171875,0.0670623779296875
1782858801478283800,5.90728369140625,-0.92230224609375,-0.3906097412109375,0.081878662109375
1782858801488233000,5.91723291015625,-0.9037933349609375,-0.398468017578125,0.0953826904296875
1782858801498182000,5.927181884765625,-0.8923492431640625,-0.4062957763671875,0.1092987060546875
1782858801508160800,5.937160888671875,-0.8769683837890625,-0.4092559814453125,0.114837646484375
1782858801518110000,5.94710986328125,-0.864532470703125,-0.4099578857421875,0.119659423828125
1782858801528057900,5.957057861328125,-0.86822509765625,-0.4111785888671875,0.118072509765625
1782858801538007000,5.967007080078125,-0.8612060546875,-0.4125823974609375,0.1099853515625
1782858801547986000,5.97698583984375,-0.8463897705078125,-0.4090118408203125,0.10791015625
1782858801557935000,5.98693505859375,-0.8405303955078125,-0.4109954833984375,0.10443115234375
1782858801567884000,5.996884033203125,-0.8338775634765625,-0.416412353515625,0.1016082763671875
1782858801577833000,6.0068330078125,-0.825592041015625,-0.4183502197265625,0.103179931640625
1782858801587811800,6.016811767578125,-0.8245086669921875,-0.4225616455078125,0.1063079833984375
1782858801597761000,6.026760986328125,-0.826141357421875,-0.4316558837890625,0.109619140625
1782858801607709000,6.036708984375,-0.8318634033203125,-0.441925048828125,0.1114044189453125
1782858801617657900,6.046657958984375,-0.83612060546875,-0.4488525390625,0.1097259521484375
1782858801627637000,6.056636962890625,-0.83355712890625,-0.45166015625,0.107635498046875
1782858801637586000,6.0665859375,-0.838836669921875,-0.4541168212890625,0.1032257080078125
1782858801647534800,6.076534912109375,-0.84320068359375,-0.4570770263671875,0.09564208984375
1782858801657482800,6.086482666015625,-0.8445587158203125,-0.460357666015625,0.093780517578125
1782858801667463000,6.096462890625,-0.8495635986328125,-0.466094970703125,0.09283447265625
1782858801677410800,6.106410888671875,-0.86676025390625,-0.4730377197265625,0.087860107421875
1782858801687359700,6.11635986328125,-0.8804473876953125,-0.4714202880859375,0.082183837890625
1782858801697309000,6.126308837890625,-0.8856964111328125,-0.4697265625,0.0775146484375
1782858801707288000,6.1362880859375,-0.890960693359375,-0.4712982177734375,0.0698699951171875
1782858801717237000,6.146237060546875,-0.8957366943359375,-0.469451904296875,0.067901611328125
1782858801727186000,6.15618603515625,-0.9014892578125,-0.4723052978515625,0.0672149658203125
1782858801737134000,6.166134033203125,-0.903106689453125,-0.478790283203125,0.06536865234375
1782858801747114000,6.176114013671875,-0.9047698974609375,-0.4827423095703125,0.0652008056640625
1782858801757062000,6.186061767578125,-0.9045562744140625,-0.486328125,0.0640716552734375
1782858801767010800,6.1960107421875,-0.904876708984375,-0.48486328125,0.06170654296875
1782858801776960000,6.2059599609375,-0.9080810546875,-0.4814605712890625,0.05474853515625
1782858801786939000,6.21593896484375,-0.907440185546875,-0.4762420654296875,0.0467376708984375
1782858801796887800,6.2258876953125,-0.902069091796875,-0.4693145751953125,0.0438385009765625
1782858801806836000,6.2358359375,-0.8950347900390625,-0.46490478515625,0.044830322265625
1782858801816780800,6.24578076171875,-0.8870086669921875,-0.4633331298828125,0.048797607421875
1782858801826760000,6.255760009765625,-0.8784332275390625,-0.4605560302734375,0.0541534423828125
1782858801836708900,6.265708984375,-0.86553955078125,-0.456298828125,0.058990478515625
1782858801846657800,6.27565771484375,-0.8510894775390625,-0.4502716064453125,0.0631866455078125
1782858801856607000,6.28560693359375,-0.8437347412109375,-0.4470367431640625,0.062652587890625
1782858801866585900,6.2955859375,-0.8415985107421875,-0.4460906982421875,0.0627899169921875
1782858801876535000,6.30553515625,-0.836151123046875,-0.4437713623046875,0.0626983642578125
1782858801886483000,6.31548291015625,-0.836944580078125,-0.44146728515625,0.0615997314453125
1782858801896431900,6.325431884765625,-0.8469085693359375,-0.4423370361328125,0.0593414306640625
1782858801906411000,6.335410888671875,-0.86090087890625,-0.4447479248046875,0.0553131103515625
1782858801916360000,6.34535986328125,-0.88031005859375,-0.4454498291015625,0.0499420166015625
1782858801926308900,6.355308837890625,-0.9044647216796875,-0.4470977783203125,0.0475616455078125
1782858801936288000,6.3652880859375,-0.925445556640625,-0.4459075927734375,0.0352783203125
1782858801946237000,6.37523681640625,-0.9378509521484375,-0.4399566650390625,0.017913818359375
1782858801956184800,6.385184814453125,-0.94244384765625,-0.4309539794921875,0.0112762451171875
1782858801966133800,6.3951337890625,-0.9337005615234375,-0.423980712890625,0.0155029296875
1782858801976113000,6.40511279296875,-0.9100799560546875,-0.4132080078125,0.0188140869140625
1782858801986061800,6.415061767578125,-0.9105987548828125,-0.412872314453125,0.021087646484375
1782858801996010800,6.4250107421875,-0.9004058837890625,-0.428955078125,0.022796630859375
1782858802005959700,6.434959716796875,-0.8416748046875,-0.43853759765625,0.00531005859375
1782858802015938800,6.444938720703125,-0.7991180419921875,-0.4277496337890625,-0.009857177734375
1782858802025887700,6.4548876953125,-0.7976226806640625,-0.4144287109375,-0.0149383544921875
1782858802035835600,6.464835693359375,-0.7657318115234375,-0.420379638671875,-0.0162200927734375
1782858802045784800,6.474784912109375,-0.7293701171875,-0.42364501953125,0.03741455078125
1782858802055764000,6.484763916015625,-0.701202392578125,-0.42095947265625,0.094482421875
1782858802065713000,6.494712890625,-0.6931610107421875,-0.4176788330078125,0.1152191162109375
1782858802075661800,6.504661865234375,-0.7353668212890625,-0.404937744140625,0.144287109375
1782858802085610800,6.51461083984375,-0.7543182373046875,-0.384857177734375,0.189117431640625
1782858802095590000,6.52458984375,-0.76739501953125,-0.3846282958984375,0.2001495361328125
1782858802105538800,6.534538818359375,-0.8048553466796875,-0.3778839111328125,0.2046051025390625
1782858802115487000,6.544487060546875,-0.8492431640625,-0.357330322265625,0.2006072998046875
1782858802125436000,6.554435791015625,-0.8794708251953125,-0.3311004638671875,0.2114105224609375
1782858802135414800,6.564414794921875,-0.886383056640625,-0.3134765625,0.2215423583984375
1782858802145363700,6.57436376953125,-0.9487762451171875,-0.304443359375,0.2170867919921875
1782858802155313000,6.58431298828125,-1.0041656494140625,-0.2971343994140625,0.224822998046875
1782858802165260800,6.5942607421875,-1.041046142578125,-0.2940826416015625,0.22320556640625
1782858802175240700,6.60424072265625,-1.051971435546875,-0.291107177734375,0.2113189697265625
1782858802185188900,6.61418896484375,-1.05792236328125,-0.2680511474609375,0.2011260986328125
1782858802195137800,6.6241376953125,-1.04730224609375,-0.2059783935546875,0.2073974609375
1782858802205087000,6.6340869140625,-1.046173095703125,-0.1428985595703125,0.2053985595703125
1782858802215065900,6.64406591796875,-1.07159423828125,-0.08502197265625,0.2009735107421875
1782858802225015000,6.65401513671875,-1.106658935546875,-0.0660552978515625,0.179351806640625
1782858802234964000,6.6639638671875,-1.1505584716796875,-0.10064697265625,0.14215087890625
1782858802244911900,6.673911865234375,-1.19970703125,-0.133392333984375,0.1321868896484375
1782858802254891800,6.683891845703125,-1.2091827392578125,-0.1721954345703125,0.13812255859375
1782858802264840000,6.69383984375,-1.181640625,-0.1775970458984375,0.1512451171875
1782858802274788900,6.703788818359375,-1.1418609619140625,-0.09869384765625,0.179229736328125
1782858802284737800,6.71373779296875,-1.1132049560546875,0.00616455078125,0.18475341796875
1782858802294717000,6.723717041015625,-1.080230712890625,0.0840911865234375,0.1469879150390625
1782858802304665900,6.733665771484375,-1.04345703125,0.1181182861328125,0.142578125
1782858802314613800,6.74361376953125,-0.988006591796875,0.17987060546875,0.1480712890625
1782858802324562700,6.753562744140625,-0.907806396484375,0.272918701171875,0.079254150390625
1782858802334541800,6.763541748046875,-0.879974365234375,0.2094879150390625,-0.057952880859375
1782858802344490800,6.77349072265625,-0.9202117919921875,0.067779541015625,-0.11248779296875
1782858802354439700,6.783439697265625,-0.9319305419921875,0.0501861572265625,-0.1292572021484375
1782858802364388900,6.793388916015625,-0.90667724609375,0.0984649658203125,-0.0991668701171875
1782858802374368000,6.803367919921875,-0.9092254638671875,0.1470489501953125,-0.0426788330078125
1782858802384317000,6.81331689453125,-0.953094482421875,0.1693115234375,-0.0399322509765625
1782858802394264800,6.823264892578125,-0.98919677734375,0.1384735107421875,-0.064910888671875
1782858802404214000,6.833214111328125,-1.0137481689453125,0.1066741943359375,-0.0683441162109375
1782858802414193000,6.84319287109375,-1.010406494140625,0.084197998046875,-0.0789947509765625
1782858802424141800,6.853141845703125,-1.0016937255859375,0.0683746337890625,-0.064971923828125
1782858802434090800,6.8630908203125,-1.0030670166015625,0.0670928955078125,0.0010223388671875
1782858802444039000,6.873038818359375,-0.97723388671875,0.0832061767578125,0.0636749267578125
1782858802454018800,6.883018798828125,-0.9603118896484375,0.0729522705078125,0.014801025390625
1782858802463966700,6.892966796875,-1.02886962890625,0.036529541015625,-0.0244903564453125
1782858802473916000,6.902916015625,-1.094207763671875,0.089752197265625,-0.0115966796875
1782858802483864800,6.91286474609375,-1.047149658203125,0.1123046875,-0.0418853759765625
1782858802493843700,6.92284375,-0.9627685546875,0.0858917236328125,-0.09033203125
1782858802503792600,6.932792724609375,-0.93365478515625,0.0509185791015625,-0.1267547607421875
1782858802513741800,6.942741943359375,-0.9431304931640625,-0.004913330078125,-0.1279144287109375
1782858802523689700,6.952689697265625,-0.930084228515625,-0.0598297119140625,-0.100189208984375
1782858802533670000,6.962669921875,-0.9061737060546875,-0.1007232666015625,-0.0437164306640625
1782858802543618000,6.9726181640625,-0.89825439453125,-0.1175537109375,0.022613525390625
1782858802553567000,6.98256689453125,-0.914459228515625,-0.1089935302734375,0.0528564453125
1782858802563516000,6.992515869140625,-0.9243316650390625,-0.10467529296875,0.0466156005859375
1782858802573494800,7.002494873046875,-0.927642822265625,-0.121826171875,0.0003509521484375
1782858802583444000,7.01244384765625,-0.90936279296875,-0.1588287353515625,-0.055938720703125
1782858802593393000,7.022392822265625,-0.876861572265625,-0.2134857177734375,-0.1028900146484375
1782858802603340800,7.0323408203125,-0.862335205078125,-0.2552337646484375,-0.1243743896484375
1782858802613320700,7.04232080078125,-0.8557281494140625,-0.276031494140625,-0.1293182373046875
1782858802623268900,7.052268798828125,-0.847900390625,-0.300506591796875,-0.134307861328125
1782858802633217800,7.0622177734375,-0.8490753173828125,-0.3232421875,-0.1337890625
1782858802643166700,7.072166748046875,-0.8687896728515625,-0.35638427734375,-0.1220703125
1782858802653145900,7.082145751953125,-0.90643310546875,-0.4028167724609375,-0.1020355224609375
1782858802663094800,7.0920947265625,-0.9611358642578125,-0.4276885986328125,-0.0859375
1782858802673042700,7.102042724609375,-0.9725189208984375,-0.417327880859375,-0.1000518798828125
1782858802682991600,7.11199169921875,-0.93646240234375,-0.4006500244140625,-0.1284942626953125
1782858802692970800,7.121970703125,-0.905059814453125,-0.402069091796875,-0.1428375244140625
1782858802702920000,7.131919921875,-0.89080810546875,-0.4040069580078125,-0.1390380859375
1782858802712868900,7.141868896484375,-0.8750762939453125,-0.4019927978515625,-0.125640869140625
1782858802722817800,7.15181787109375,-0.851715087890625,-0.3987579345703125,-0.10614013671875
1782858802732797000,7.161796875,-0.703094482421875,-0.389129638671875,-0.0886688232421875
1782858802742745900,7.171745849609375,-0.624298095703125,-0.3892974853515625,-0.0348358154296875
1782858802752694000,7.181694091796875,-0.699920654296875,-0.4260101318359375,0.01806640625
1782858802762643000,7.191642822265625,-0.8004913330078125,-0.4800567626953125,0.041107177734375
1782858802772621800,7.201621826171875,-0.8860015869140625,-0.5236358642578125,0.0649566650390625
1782858802782570800,7.21157080078125,-0.9756011962890625,-0.5345306396484375,0.086517333984375
1782858802792519700,7.221519775390625,-1.1066436767578125,-0.5051422119140625,0.109283447265625
1782858802802467800,7.2314677734375,-1.171966552734375,-0.45587158203125,0.08453369140625
1782858802812447700,7.24144775390625,-1.0465545654296875,-0.4608154296875,0.104766845703125
1782858802822423000,7.251423095703125,-0.878692626953125,-0.4895477294921875,0.1425628662109375
1782858802832372000,7.2613720703125,-0.8040313720703125,-0.479034423828125,0.12274169921875
1782858802842321000,7.27132080078125,-0.8211517333984375,-0.44195556640625,0.0944366455078125
1782858802852300000,7.281300048828125,-0.86798095703125,-0.42333984375,0.0847015380859375
1782858802862249000,7.2912490234375,-0.89788818359375,-0.430084228515625,0.087615966796875
1782858802872198000,7.301197998046875,-0.9052581787109375,-0.4386749267578125,0.0925140380859375
1782858802882145800,7.311145751953125,-0.8986663818359375,-0.43560791015625,0.0924835205078125
1782858802892126200,7.321126220703125,-0.8835906982421875,-0.426544189453125,0.0871429443359375
1782858802902073900,7.331073974609375,-0.876739501953125,-0.422821044921875,0.0829925537109375
1782858802912023000,7.34102294921875,-0.880157470703125,-0.4270477294921875,0.0819091796875
1782858802921972000,7.350971923828125,-0.8819732666015625,-0.4355926513671875,0.0798797607421875
1782858802931951000,7.360951171875,-0.8780059814453125,-0.4374237060546875,0.077178955078125
1782858802941900000,7.370900146484375,-0.884674072265625,-0.4387664794921875,0.08062744140625
1782858802951848000,7.380847900390625,-0.8985443115234375,-0.442138671875,0.0826873779296875
1782858802961797000,7.390797119140625,-0.9041290283203125,-0.4451141357421875,0.0773773193359375
1782858802971776000,7.40077587890625,-0.9041900634765625,-0.4428863525390625,0.070281982421875
1782858802981725000,7.410724853515625,-0.9081878662109375,-0.4392547607421875,0.0630340576171875
1782858802991673900,7.420673828125,-0.914581298828125,-0.437164306640625,0.0525665283203125
1782858803001623000,7.430623046875,-0.91754150390625,-0.4331207275390625,0.037750244140625
1782858803011602000,7.440601806640625,-0.9126434326171875,-0.427276611328125,0.0217437744140625
1782858803021550800,7.45055078125,-0.9032135009765625,-0.418243408203125,0.0114898681640625
1782858803031499000,7.4604990234375,-0.895721435546875,-0.4097137451171875,0.00701904296875
1782858803041448000,7.470447998046875,-0.8946685791015625,-0.405670166015625,0.002960205078125
1782858803051426800,7.4804267578125,-0.899383544921875,-0.404632568359375,0.0003662109375
1782858803061375700,7.490375732421875,-0.905242919921875,-0.402069091796875,0.001373291015625
1782858803071325200,7.5003251953125,-0.909271240234375,-0.3994293212890625,0.001617431640625
1782858803081274000,7.510274169921875,-0.912872314453125,-0.395294189453125,0.0023956298828125
1782858803091253000,7.5202529296875,-0.918182373046875,-0.3907470703125,0.0021514892578125
1782858803101202000,7.530201904296875,-0.9173736572265625,-0.3858489990234375,-0.001251220703125
1782858803111150000,7.540150146484375,-0.914398193359375,-0.3807525634765625,-0.00457763671875
1782858803121099000,7.55009912109375,-0.9134674072265625,-0.3764801025390625,-0.003753662109375
1782858803131078000,7.560077880859375,-0.9124908447265625,-0.3761749267578125,-0.000457763671875
1782858803141027000,7.570027099609375,-0.915130615234375,-0.3767852783203125,0
1782858803150976000,7.57997607421875,-0.9234161376953125,-0.3804168701171875,-0.0020599365234375
1782858803160924000,7.589923828125,-0.921600341796875,-0.3852691650390625,-0.004852294921875
1782858803170903800,7.59990380859375,-0.9149932861328125,-0.3887786865234375,-0.002838134765625
1782858803180852000,7.60985205078125,-0.9128570556640625,-0.392120361328125,-0.0003509521484375
1782858803190801000,7.61980078125,-0.9184417724609375,-0.3971710205078125,0.0014495849609375
1782858803200749800,7.629749755859375,-0.9187164306640625,-0.3974609375,0.001068115234375
1782858803210729000,7.63972900390625,-0.912139892578125,-0.3964996337890625,0.0041961669921875
1782858803220678000,7.649677978515625,-0.91607666015625,-0.39959716796875,0.009796142578125
1782858803230627000,7.659626953125,-0.927276611328125,-0.405853271484375,0.0198211669921875
1782858803240606000,7.66960595703125,-0.93707275390625,-0.411651611328125,0.0284881591796875
1782858803250555100,7.67955517578125,-0.9420623779296875,-0.41510009765625,0.034149169921875
1782858803260503000,7.6895029296875,-0.9328765869140625,-0.4133148193359375,0.0392608642578125
1782858803270452000,7.699451904296875,-0.9229888916015625,-0.40887451171875,0.0417022705078125
1782858803280431000,7.70943115234375,-0.923919677734375,-0.4072723388671875,0.043243408203125
1782858803290380000,7.719380126953125,-0.925750732421875,-0.4069671630859375,0.046417236328125
1782858803300329000,7.729328857421875,-0.916046142578125,-0.4081268310546875,0.0489349365234375
1782858803310276900,7.73927685546875,-0.90423583984375,-0.40447998046875,0.0514678955078125
1782858803320257000,7.749257080078125,-0.89447021484375,-0.3992767333984375,0.0537261962890625
1782858803330205000,7.759204833984375,-0.884674072265625,-0.39984130859375,0.05908203125
1782858803340153900,7.76915380859375,-0.8797607421875,-0.4027862548828125,0.0655059814453125
1782858803350102800,7.779102783203125,-0.8796844482421875,-0.405364990234375,0.06939697265625
1782858803360082000,7.78908203125,-0.8868560791015625,-0.4080047607421875,0.071990966796875
1782858803370030800,7.79903076171875,-0.885528564453125,-0.410247802734375,0.0724639892578125
1782858803379980000,7.80897998046875,-0.87969970703125,-0.40777587890625,0.072662353515625
1782858803389928000,7.818927978515625,-0.8834686279296875,-0.4040069580078125,0.0753021240234375
1782858803399908000,7.828908203125,-0.8902587890625,-0.403778076171875,0.0782470703125
1782858803409856000,7.83885595703125,-0.8986358642578125,-0.4040985107421875,0.07806396484375
1782858803419805000,7.848804931640625,-0.90789794921875,-0.399017333984375,0.075653076171875
1782858803429754000,7.858754150390625,-0.9103240966796875,-0.3926849365234375,0.07525634765625
1782858803439733000,7.86873291015625,-0.9100799560546875,-0.3888092041015625,0.0763092041015625
1782858803449682000,7.878681884765625,-0.9142913818359375,-0.3844757080078125,0.0751953125
1782858803459630000,7.888630126953125,-0.91900634765625,-0.38250732421875,0.0752410888671875
1782858803469579000,7.8985791015625,-0.925140380859375,-0.3814239501953125,0.0784149169921875
1782858803479558000,7.908557861328125,-0.9258880615234375,-0.37921142578125,0.0804443359375
1782858803489507000,7.918507080078125,-0.92596435546875,-0.3762054443359375,0.079864501953125
1782858803499456000,7.9284560546875,-0.9263458251953125,-0.3742828369140625,0.0790557861328125
1782858803509405000,7.938405029296875,-0.925506591796875,-0.3736419677734375,0.0777587890625
1782858803519383800,7.9483837890625,-0.922088623046875,-0.3719329833984375,0.0805511474609375
1782858803529333000,7.9583330078125,-0.9157562255859375,-0.3717803955078125,0.0851898193359375
1782858803539281000,7.968281005859375,-0.9210357666015625,-0.37481689453125,0.0841217041015625
1782858803549229800,7.978229736328125,-0.9261474609375,-0.377105712890625,0.0831298828125
1782858803559209000,7.988208984375,-0.9297943115234375,-0.3769073486328125,0.0819091796875
1782858803569158100,7.998158203125,-0.9354400634765625,-0.3797149658203125,0.082489013671875
1782858803579107000,8.008107177734376,-0.9299163818359375,-0.3881378173828125,0.0927734375
1782858803589056000,8.018055908203126,-0.9127960205078125,-0.3954620361328125,0.102996826171875
1782858803599035100,8.02803515625,-0.9023895263671875,-0.400848388671875,0.10858154296875
1782858803608983000,8.037983154296874,-0.8983612060546875,-0.40692138671875,0.11090087890625
1782858803618932000,8.047931884765624,-0.8811492919921875,-0.4113616943359375,0.1119537353515625
1782858803628881000,8.057880859375,-0.8729248046875,-0.413604736328125,0.1133270263671875
1782858803638860000,8.067860107421875,-0.8809661865234375,-0.4234619140625,0.1192474365234375
1782858803648809000,8.07780908203125,-0.8827972412109375,-0.4386749267578125,0.1201019287109375
1782858803658758000,8.0877578125,-0.8764190673828125,-0.443359375,0.1182861328125
1782858803668706000,8.0977060546875,-0.8725738525390625,-0.4373931884765625,0.1155242919921875
1782858803678686000,8.10768603515625,-0.8635101318359375,-0.429107666015625,0.1119842529296875
1782858803688633900,8.1176337890625,-0.8595123291015625,-0.4219818115234375,0.1062469482421875
1782858803698582800,8.127582763671874,-0.8607177734375,-0.418365478515625,0.1054534912109375
1782858803708532000,8.137531982421875,-0.8565216064453125,-0.4162750244140625,0.110321044921875
1782858803718510800,8.1475107421875,-0.8524169921875,-0.411285400390625,0.115875244140625
1782858803728460000,8.1574599609375,-0.8528900146484375,-0.413726806640625,0.1203460693359375
1782858803738409000,8.167408935546876,-0.8538818359375,-0.415435791015625,0.1259613037109375
1782858803748357000,8.177357177734375,-0.8537139892578125,-0.4170684814453125,0.1316070556640625
1782858803758337000,8.1873369140625,-0.853912353515625,-0.4158935546875,0.13494873046875
1782858803768285000,8.197284912109374,-0.8579254150390625,-0.4159088134765625,0.13555908203125
1782858803778234000,8.207234130859375,-0.8590850830078125,-0.4175567626953125,0.1303253173828125
1782858803788183000,8.21718310546875,-0.8623046875,-0.4197998046875,0.1244659423828125
1782858803798162000,8.227161865234375,-0.8668975830078125,-0.4193572998046875,0.120269775390625
1782858803808110800,8.23711083984375,-0.8744659423828125,-0.41912841796875,0.1150970458984375
1782858803818059000,8.24705908203125,-0.885955810546875,-0.4213714599609375,0.1089630126953125
1782858803828014800,8.257014892578125,-0.888702392578125,-0.4219970703125,0.1071014404296875
1782858803837994000,8.266993896484376,-0.88958740234375,-0.4180908203125,0.10906982421875
1782858803847943000,8.27694287109375,-0.89703369140625,-0.41583251953125,0.1112060546875
1782858803857891800,8.286891845703124,-0.905029296875,-0.4171295166015625,0.1102752685546875
1782858803867840800,8.2968408203125,-0.901702880859375,-0.4177398681640625,0.108856201171875
1782858803877820000,8.30681982421875,-0.8960723876953125,-0.410186767578125,0.10736083984375
1782858803887768800,8.316768798828125,-0.8974609375,-0.4075927734375,0.10601806640625
1782858803897716700,8.326716796875,-0.9017333984375,-0.410919189453125,0.1051483154296875
1782858803907665700,8.336665771484375,-0.900543212890625,-0.4125213623046875,0.1039886474609375
1782858803917644800,8.346644775390626,-0.902191162109375,-0.410186767578125,0.1013641357421875
1782858803927594000,8.356593994140624,-0.905426025390625,-0.410247802734375,0.09783935546875
1782858803937543000,8.36654296875,-0.9056243896484375,-0.4137420654296875,0.09283447265625
1782858803947490800,8.37649072265625,-0.9016571044921875,-0.41400146484375,0.0871734619140625
1782858803957471000,8.386470947265625,-0.8967132568359375,-0.4116058349609375,0.0865936279296875
1782858803967419000,8.3964189453125,-0.8960113525390625,-0.41253662109375,0.0858612060546875
1782858803977367800,8.406367919921875,-0.89593505859375,-0.41558837890625,0.0837249755859375
1782858803987316700,8.416316650390625,-0.891265869140625,-0.41680908203125,0.0820159912109375
1782858803997295900,8.4262958984375,-0.8884124755859375,-0.4171142578125,0.082000732421875
1782858804007244800,8.436244873046874,-0.886871337890625,-0.4196014404296875,0.0814666748046875
1782858804017193700,8.44619384765625,-0.89306640625,-0.423828125,0.080963134765625
1782858804027142000,8.456141845703126,-0.9024810791015625,-0.4265899658203125,0.0777587890625
1782858804037121800,8.466121826171875,-0.8998870849609375,-0.42681884765625,0.071868896484375
1782858804047069700,8.476069580078125,-0.8923492431640625,-0.4254608154296875,0.06500244140625
1782858804057019000,8.486018798828125,-0.8885345458984375,-0.4191436767578125,0.0559539794921875
1782858804066967800,8.4959677734375,-0.8845367431640625,-0.4151611328125,0.048095703125
1782858804076946700,8.50594677734375,-0.8832244873046875,-0.41522216796875,0.0503692626953125
1782858804086895900,8.515895751953124,-0.8853912353515625,-0.4170989990234375,0.052490234375
1782858804096844000,8.525843994140626,-0.8901519775390625,-0.4183807373046875,0.05767822265625
1782858804106793000,8.53579296875,-0.9010772705078125,-0.4188079833984375,0.06463623046875
1782858804116771800,8.545771728515625,-0.897430419921875,-0.424102783203125,0.076812744140625
1782858804126721000,8.555720947265625,-0.89166259765625,-0.4271392822265625,0.0966644287109375
1782858804136670000,8.565669921875,-0.8908843994140625,-0.42401123046875,0.113250732421875
1782858804146619000,8.575618896484375,-0.8875732421875,-0.41741943359375,0.1238250732421875
1782858804156597800,8.58559765625,-0.8720703125,-0.4133148193359375,0.132354736328125
1782858804166547000,8.595546875,-0.861083984375,-0.4208526611328125,0.1396636962890625
1782858804176494800,8.605494873046876,-0.85906982421875,-0.4683380126953125,0.149078369140625
1782858804186443800,8.61544384765625,-0.8523101806640625,-0.5083465576171875,0.17205810546875
1782858804196423000,8.6254228515625,-0.8761138916015625,-0.4696044921875,0.1927642822265625
1782858804206371800,8.635371826171875,-0.8949432373046875,-0.449310302734375,0.175811767578125
1782858804216320800,8.64532080078125,-0.87451171875,-0.4161224365234375,0.1522979736328125
1782858804226270000,8.65527001953125,-0.8444061279296875,-0.3910675048828125,0.1550750732421875
1782858804236248800,8.665248779296874,-0.8594970703125,-0.3766632080078125,0.15447998046875
1782858804246198000,8.675197998046874,-0.8868408203125,-0.368682861328125,0.151519775390625
1782858804256146000,8.68514599609375,-0.885345458984375,-0.36297607421875,0.158203125
1782858804266094800,8.6950947265625,-0.88427734375,-0.358612060546875,0.1719207763671875
1782858804276074000,8.705073974609375,-0.886199951171875,-0.361541748046875,0.19464111328125
1782858804286023000,8.71502294921875,-0.8788604736328125,-0.371185302734375,0.221893310546875
1782858804295971800,8.724971923828125,-0.878936767578125,-0.3850555419921875,0.2385101318359375
1782858804305920000,8.734919921875,-0.8935089111328125,-0.4055328369140625,0.248504638671875
1782858804315900000,8.74489990234375,-0.90924072265625,-0.432342529296875,0.251068115234375
1782858804325847800,8.754847900390626,-0.8961944580078125,-0.4923248291015625,0.2690277099609375
1782858804335796700,8.764796630859376,-0.863128662109375,-0.4756927490234375,0.24798583984375
1782858804345746000,8.774745849609374,-0.842254638671875,-0.39678955078125,0.219696044921875
1782858804355724800,8.784724853515625,-0.8171844482421875,-0.37750244140625,0.1955718994140625
1782858804365673700,8.794673828125,-0.859954833984375,-0.37445068359375,0.1844482421875
1782858804375622700,8.80462255859375,-0.925201416015625,-0.350433349609375,0.1695556640625
1782858804385570800,8.81457080078125,-0.989349365234375,-0.3129119873046875,0.145294189453125
1782858804395550700,8.82455078125,-1.012939453125,-0.28839111328125,0.1292266845703125
1782858804405498600,8.83449853515625,-0.9859619140625,-0.2845306396484375,0.1259002685546875
1782858804415448000,8.844447998046874,-0.9470977783203125,-0.2981719970703125,0.1312255859375
1782858804425397000,8.85439697265625,-0.9171295166015625,-0.3280487060546875,0.14337158203125
1782858804435375900,8.8643759765625,-0.886566162109375,-0.355865478515625,0.15496826171875
1782858804445324800,8.87432470703125,-0.875457763671875,-0.359375,0.1653594970703125
1782858804455273000,8.88427294921875,-0.9058380126953125,-0.3477630615234375,0.1625518798828125
1782858804465222000,8.894221923828125,-0.948638916015625,-0.3289642333984375,0.15008544921875
1782858804475200800,8.90420068359375,-0.9410400390625,-0.3152923583984375,0.144195556640625
1782858804485150000,8.91414990234375,-0.8969268798828125,-0.315216064453125,0.1436920166015625
1782858804495099000,8.924098876953124,-0.8730316162109375,-0.323822021484375,0.1412811279296875
1782858804505047800,8.9340478515625,-0.8843994140625,-0.33758544921875,0.1399383544921875
1782858804515026700,8.944026611328125,-0.895172119140625,-0.347412109375,0.14093017578125
1782858804524975900,8.953975830078125,-0.889739990234375,-0.349700927734375,0.146392822265625
1782858804534923800,8.963923828125,-0.884124755859375,-0.3506927490234375,0.1435089111328125
1782858804544872700,8.973872802734375,-0.88262939453125,-0.34814453125,0.139617919921875
1782858804554851800,8.983851806640626,-0.90283203125,-0.3492889404296875,0.14569091796875
1782858804564800800,8.99380078125,-0.9097442626953125,-0.3592071533203125,0.1423797607421875
1782858804574750000,9.00375,-0.888916015625,-0.3645172119140625,0.1384735107421875
1782858804584697900,9.01369775390625,-0.8790130615234375,-0.3579254150390625,0.140045166015625
1782858804594678000,9.023677978515625,-0.8855743408203125,-0.353118896484375,0.1399993896484375
1782858804604626000,9.0336259765625,-0.887847900390625,-0.3524932861328125,0.143463134765625
1782858804614574800,9.043574951171875,-0.8914794921875,-0.3511505126953125,0.1450653076171875
1782858804624523800,9.053523681640625,-0.8898468017578125,-0.34771728515625,0.145751953125
1782858804634503000,9.0635029296875,-0.889129638671875,-0.3489532470703125,0.1483306884765625
1782858804644451800,9.073451904296874,-0.9111480712890625,-0.3559417724609375,0.148590087890625
1782858804654400800,9.08340087890625,-0.9252777099609375,-0.364959716796875,0.1417694091796875
1782858804664380000,9.0933798828125,-0.917999267578125,-0.3677215576171875,0.131500244140625
1782858804674328800,9.103328857421875,-0.9212646484375,-0.3621673583984375,0.117767333984375
1782858804684276700,9.11327685546875,-0.918853759765625,-0.3558197021484375,0.108367919921875
1782858804694225700,9.1232255859375,-0.912139892578125,-0.3527984619140625,0.105926513671875
1782858804704204800,9.133204833984376,-0.90826416015625,-0.3537139892578125,0.105072021484375
1782858804714153700,9.14315380859375,-0.9188079833984375,-0.36053466796875,0.08905029296875
1782858804724102700,9.1531025390625,-0.9667816162109375,-0.375274658203125,0.0500946044921875
1782858804734051800,9.1630517578125,-1.02392578125,-0.3764190673828125,0.055511474609375
1782858804744031000,9.173031005859375,-1.029632568359375,-0.3979949951171875,0.04669189453125
1782858804753980000,9.18297998046875,-0.996002197265625,-0.4058380126953125,0.04931640625
1782858804763928000,9.192927978515625,-0.9638214111328125,-0.3987274169921875,0.0408935546875
1782858804773877000,9.202876953125,-0.9421844482421875,-0.4105987548828125,0.0413665771484375
1782858804783855900,9.21285595703125,-0.941497802734375,-0.4102783203125,0.0506591796875
1782858804793804800,9.2228046875,-0.9307861328125,-0.389739990234375,0.0605926513671875
1782858804803753700,9.232753662109374,-0.91058349609375,-0.3778228759765625,0.06500244140625
1782858804813702000,9.242701904296876,-0.899993896484375,-0.374755859375,0.0676727294921875
1782858804823709000,9.252708984375,-0.901702880859375,-0.375030517578125,0.0655059814453125
1782858804833657000,9.262656982421875,-0.9004364013671875,-0.37689208984375,0.0569000244140625
1782858804843606000,9.27260595703125,-0.8911285400390625,-0.37152099609375,0.0518951416015625
1782858804853555000,9.282554931640625,-0.894073486328125,-0.3617401123046875,0.0468902587890625
1782858804863534000,9.2925341796875,-0.9123687744140625,-0.3596343994140625,0.04339599609375
1782858804873483000,9.30248291015625,-0.9291534423828125,-0.366119384765625,0.0266571044921875
1782858804883432200,9.31243212890625,-0.9146881103515625,-0.3663787841796875,0.0380401611328125
1782858804893380000,9.322380126953124,-0.9182586669921875,-0.347320556640625,0.0431365966796875
1782858804903360300,9.3323603515625,-0.9254302978515625,-0.3293304443359375,0.0506134033203125
1782858804913308200,9.34230810546875,-0.918426513671875,-0.3311004638671875,0.058013916015625
1782858804923257000,9.352257080078125,-0.92205810546875,-0.3431854248046875,0.0625457763671875
1782858804933206000,9.3622060546875,-0.932159423828125,-0.3552093505859375,0.06634521484375
1782858804943185200,9.37218505859375,-0.9335479736328125,-0.3600006103515625,0.0641632080078125
1782858804953134000,9.382134033203124,-0.92584228515625,-0.3605194091796875,0.0614013671875
1782858804963082000,9.39208203125,-0.922393798828125,-0.361175537109375,0.062286376953125
1782858804973031200,9.40203125,-0.9243927001953125,-0.3645782470703125,0.060333251953125
1782858804983010000,9.412010009765625,-0.9175262451171875,-0.3697052001953125,0.0537109375
1782858804992959000,9.421958984375,-0.9142913818359375,-0.3783416748046875,0.048858642578125
1782858805002908000,9.431907958984375,-0.9096832275390625,-0.385223388671875,0.0427398681640625
1782858805012857000,9.441857177734375,-0.9033203125,-0.3917083740234375,0.038543701171875
1782858805022836000,9.4518359375,-0.9051971435546875,-0.397186279296875,0.0365447998046875
1782858805032785000,9.461784912109374,-0.9050445556640625,-0.3970794677734375,0.034210205078125
1782858805042733000,9.471733154296874,-0.89959716796875,-0.3876800537109375,0.034271240234375
1782858805052682200,9.48168212890625,-0.8976593017578125,-0.3777618408203125,0.034332275390625
1782858805062661000,9.4916611328125,-0.90252685546875,-0.3725433349609375,0.035980224609375
1782858805072610000,9.501610107421875,-0.9103240966796875,-0.3737945556640625,0.0406646728515625
1782858805082559200,9.511559326171875,-0.909088134765625,-0.37896728515625,0.04107666015625
1782858805092507100,9.521507080078125,-0.9077606201171875,-0.3821868896484375,0.0427093505859375
1782858805102487000,9.531487060546874,-0.914306640625,-0.374420166015625,0.04168701171875
1782858805112435200,9.541435302734374,-0.9116973876953125,-0.372039794921875,0.04205322265625
1782858805122384100,9.551384033203124,-0.9061279296875,-0.3768768310546875,0.045806884765625
1782858805132333000,9.5613330078125,-0.9028472900390625,-0.3806610107421875,0.049774169921875
1782858805142312000,9.57131201171875,-0.9002685546875,-0.3835296630859375,0.051849365234375
1782858805152261000,9.58126123046875,-0.899383544921875,-0.3852081298828125,0.053497314453125
1782858805162210000,9.5912099609375,-0.8974456787109375,-0.3873443603515625,0.053192138671875
1782858805172158000,9.601157958984375,-0.89794921875,-0.3891143798828125,0.0501251220703125
1782858805182137900,9.611137939453124,-0.8999481201171875,-0.3904571533203125,0.0467529296875
1782858805192086000,9.6210859375,-0.904937744140625,-0.39178466796875,0.0461883544921875
1782858805202035000,9.631034912109374,-0.90948486328125,-0.3912506103515625,0.05010986328125
1782858805211984100,9.640984130859374,-0.9122772216796875,-0.385986328125,0.05133056640625
1782858805221963300,9.65096337890625,-0.9090728759765625,-0.384063720703125,0.0498046875
1782858805231912200,9.660912109375,-0.9087066650390625,-0.3869476318359375,0.052886962890625
1782858805241861000,9.670861083984375,-0.9116973876953125,-0.388519287109375,0.0554351806640625
1782858805251809000,9.68080908203125,-0.91033935546875,-0.39129638671875,0.0565948486328125
1782858805261788200,9.6907880859375,-0.9114990234375,-0.3922271728515625,0.0558319091796875
1782858805271737000,9.700737060546874,-0.917266845703125,-0.3899383544921875,0.055389404296875
1782858805281686000,9.71068603515625,-0.918487548828125,-0.3870697021484375,0.05230712890625
1782858805291635000,9.720635009765624,-0.9170684814453125,-0.383941650390625,0.05218505859375
1782858805301614000,9.730614013671875,-0.91845703125,-0.38079833984375,0.0515289306640625
1782858805311563000,9.74056298828125,-0.9239959716796875,-0.37890625,0.052398681640625
1782858805321511000,9.750510986328125,-0.9261016845703125,-0.3775634765625,0.05340576171875
1782858805331460000,9.760460205078125,-0.92327880859375,-0.377777099609375,0.0552215576171875
1782858805341439000,9.77043896484375,-0.9238433837890625,-0.3796234130859375,0.0554351806640625
1782858805351388000,9.780387939453124,-0.9212493896484375,-0.37945556640625,0.05584716796875
1782858805361336800,9.7903369140625,-0.914794921875,-0.377838134765625,0.0554046630859375
1782858805371286300,9.800286376953125,-0.9090423583984375,-0.3757476806640625,0.055267333984375
1782858805381265200,9.81026513671875,-0.9085540771484375,-0.3756866455078125,0.0553131103515625
1782858805391214000,9.820214111328125,-0.905242919921875,-0.3779144287109375,0.052337646484375
1782858805401162200,9.830162353515625,-0.9024200439453125,-0.3817596435546875,0.050506591796875
1782858805411111200,9.840111083984375,-0.9040679931640625,-0.385467529296875,0.0498809814453125
1782858805421090000,9.850090087890624,-0.9074554443359375,-0.387786865234375,0.0495147705078125
1782858805431039000,9.8600390625,-0.9122161865234375,-0.38916015625,0.0525054931640625
1782858805440988200,9.86998828125,-0.914276123046875,-0.385894775390625,0.0553741455078125
1782858805450936000,9.87993603515625,-0.9135284423828125,-0.3811798095703125,0.05450439453125
1782858805460916000,9.889916015625,-0.912078857421875,-0.3799591064453125,0.0548553466796875
1782858805470864100,9.899864013671875,-0.909637451171875,-0.3816986083984375,0.0594024658203125
1782858805480813000,9.90981298828125,-0.9074554443359375,-0.38250732421875,0.063018798828125
1782858805490762000,9.919761962890625,-0.908843994140625,-0.3813018798828125,0.06622314453125
1782858805500741000,9.9297412109375,-0.9091644287109375,-0.38140869140625,0.0678253173828125
1782858805510690000,9.93968994140625,-0.9046173095703125,-0.3841400146484375,0.0684661865234375
1782858805520639000,9.949638916015624,-0.901153564453125,-0.38555908203125,0.067230224609375
1782858805530587000,9.9595869140625,-0.90325927734375,-0.3849945068359375,0.06707763671875
1782858805540567000,9.969567138671875,-0.903411865234375,-0.386199951171875,0.0646820068359375
1782858805550515000,9.979514892578125,-0.89990234375,-0.386474609375,0.063018798828125
1782858805560464100,9.989464111328125,-0.8981170654296875,-0.3842010498046875,0.0635833740234375
1782858805570413000,9.9994130859375,-0.8987884521484375,-0.383270263671875,0.063446044921875
1782858805580392200,10.00939208984375,-0.90155029296875,-0.3859100341796875,0.06683349609375
1782858805590341000,10.019341064453124,-0.9076690673828125,-0.3845367431640625,0.0707855224609375
1782858805600289000,10.0292890625,-0.9139404296875,-0.3813629150390625,0.0717315673828125
1782858805610238000,10.039238037109374,-0.9125518798828125,-0.380157470703125,0.0699615478515625
1782858805620217000,10.049217041015625,-0.912322998046875,-0.3806304931640625,0.0679779052734375
1782858805630166000,10.059166015625,-0.911041259765625,-0.38165283203125,0.06610107421875
1782858805640115000,10.069114990234375,-0.910858154296875,-0.38079833984375,0.0666351318359375
1782858805650064000,10.07906396484375,-0.909759521484375,-0.3822021484375,0.0659027099609375
1782858805660043000,10.08904296875,-0.9095611572265625,-0.384857177734375,0.0650787353515625
1782858805669992000,10.098991943359374,-0.9111175537109375,-0.38531494140625,0.0636749267578125
1782858805679940000,10.108940185546874,-0.90997314453125,-0.38323974609375,0.061279296875
1782858805689889000,10.118888916015624,-0.9119415283203125,-0.3812408447265625,0.059112548828125
1782858805699868000,10.128867919921875,-0.9148712158203125,-0.380950927734375,0.0582275390625
1782858805709817000,10.138817138671875,-0.9204254150390625,-0.3814239501953125,0.05938720703125
1782858805719766000,10.14876611328125,-0.919281005859375,-0.381500244140625,0.0597076416015625
1782858805729715200,10.158715087890625,-0.9176177978515625,-0.3819580078125,0.060516357421875
1782858805739694000,10.168694091796874,-0.9186248779296875,-0.3817596435546875,0.06146240234375
1782858805749642200,10.178642333984374,-0.9136505126953125,-0.38311767578125,0.05908203125
1782858805759591200,10.188591064453124,-0.9085235595703125,-0.3818359375,0.0599365234375
1782858805769540000,10.1985400390625,-0.90966796875,-0.379058837890625,0.061859130859375
1782858805779519000,10.20851904296875,-0.9076080322265625,-0.3793182373046875,0.0615386962890625
1782858805789468200,10.21846826171875,-0.9005889892578125,-0.377777099609375,0.06231689453125
1782858805799417000,10.2284169921875,-0.897003173828125,-0.379669189453125,0.060546875
1782858805809365000,10.238364990234375,-0.8978729248046875,-0.381134033203125,0.0618896484375
1782858805819345000,10.248344970703124,-0.9028778076171875,-0.383148193359375,0.068115234375
1782858805829310200,10.258310302734374,-0.9025115966796875,-0.3872528076171875,0.069183349609375
1782858805839259100,10.268259033203124,-0.895050048828125,-0.3858795166015625,0.068603515625
1782858805849208000,10.2782080078125,-0.8939971923828125,-0.38330078125,0.0696258544921875
1782858805859187200,10.288187255859375,-0.896209716796875,-0.387481689453125,0.066314697265625
1782858805869136100,10.29813623046875,-0.8974761962890625,-0.392303466796875,0.06781005859375
1782858805879085000,10.3080849609375,-0.9026336669921875,-0.399444580078125,0.07476806640625
1782858805889033000,10.318032958984375,-0.919219970703125,-0.4101104736328125,0.0919036865234375
1782858805899013400,10.328013427734374,-0.9281463623046875,-0.4176025390625,0.1050262451171875
1782858805908961300,10.337961181640624,-0.9208984375,-0.415191650390625,0.089996337890625
1782858805918910200,10.34791015625,-0.9178466796875,-0.3959197998046875,0.0801544189453125
1782858805928859100,10.357859130859374,-0.9112396240234375,-0.3835296630859375,0.0665740966796875
1782858805938838300,10.36783837890625,-0.9017791748046875,-0.3877410888671875,0.05621337890625
1782858805948787200,10.377787109375,-0.8966064453125,-0.4005889892578125,0.0544891357421875
1782858805958735000,10.387735107421875,-0.8978118896484375,-0.4133453369140625,0.05670166015625
1782858805968684300,10.397684326171875,-0.9075164794921875,-0.4214630126953125,0.0612640380859375
1782858805978663200,10.4076630859375,-0.9174957275390625,-0.4222259521484375,0.0657958984375
1782858805988612000,10.417612060546874,-0.9175262451171875,-0.4183807373046875,0.0663909912109375
1782858805998561000,10.42756103515625,-0.91290283203125,-0.413482666015625,0.06134033203125
1782858806008510200,10.43751025390625,-0.907806396484375,-0.407257080078125,0.0577239990234375
1782858806018489000,10.447489013671875,-0.8966217041015625,-0.4054107666015625,0.054412841796875
1782858806028438000,10.45743798828125,-0.893157958984375,-0.4080352783203125,0.05322265625
1782858806038386200,10.46738623046875,-0.89739990234375,-0.409698486328125,0.054107666015625
1782858806048335000,10.477335205078125,-0.8991241455078125,-0.407562255859375,0.055908203125
1782858806058314000,10.48731396484375,-0.8986053466796875,-0.404632568359375,0.060333251953125
1782858806068263200,10.49726318359375,-0.9002838134765625,-0.4033050537109375,0.065338134765625
1782858806078212400,10.50721240234375,-0.898223876953125,-0.40509033203125,0.067657470703125
1782858806088160300,10.51716015625,-0.89300537109375,-0.409820556640625,0.069183349609375
1782858806098140200,10.52714013671875,-0.893280029296875,-0.4116668701171875,0.069854736328125
1782858806108088300,10.53708837890625,-0.8958282470703125,-0.4080810546875,0.0696563720703125
1782858806118037200,10.547037353515625,-0.8991546630859375,-0.406402587890625,0.0713958740234375
1782858806128016100,10.55701611328125,-0.892333984375,-0.406005859375,0.07177734375
1782858806137965300,10.56696533203125,-0.887847900390625,-0.404052734375,0.0693511962890625
1782858806147914200,10.576914306640624,-0.8880157470703125,-0.4034576416015625,0.0675811767578125
1782858806157863200,10.58686328125,-0.888946533203125,-0.4064483642578125,0.0684661865234375
1782858806167842000,10.596842041015625,-0.8912353515625,-0.4086456298828125,0.0683441162109375
1782858806177791200,10.606791259765625,-0.890228271484375,-0.4095001220703125,0.06817626953125
1782858806187739100,10.6167392578125,-0.8925018310546875,-0.406524658203125,0.070037841796875
1782858806197688000,10.62668798828125,-0.89630126953125,-0.400238037109375,0.0717620849609375
1782858806207667200,10.636667236328124,-0.8927154541015625,-0.3956451416015625,0.0720672607421875
1782858806217616100,10.6466162109375,-0.8882904052734375,-0.393280029296875,0.06951904296875
1782858806227565300,10.6565654296875,-0.891143798828125,-0.3949432373046875,0.065338134765625
1782858806237513000,10.666512939453124,-0.8946990966796875,-0.3984375,0.0610504150390625
1782858806247493400,10.676493408203125,-0.8974609375,-0.40191650390625,0.0610504150390625
1782858806257441300,10.686441162109375,-0.8997955322265625,-0.400299072265625,0.0635223388671875
1782858806267390200,10.69639013671875,-0.9006500244140625,-0.3978118896484375,0.0643310546875
1782858806277339100,10.706339111328125,-0.9043121337890625,-0.3985137939453125,0.0663299560546875
1782858806287318300,10.716318359375,-0.9105377197265625,-0.4009246826171875,0.06793212890625
1782858806297267200,10.72626708984375,-0.915069580078125,-0.405792236328125,0.072113037109375
1782858806307216100,10.736216064453124,-0.9065704345703125,-0.408843994140625,0.072021484375
1782858806317164300,10.746164306640624,-0.90020751953125,-0.4040374755859375,0.0665283203125
1782858806327144200,10.756144287109375,-0.9035186767578125,-0.399200439453125,0.064178466796875
1782858806337092000,10.766092041015625,-0.9030303955078125,-0.4023895263671875,0.0640716552734375
1782858806347041000,10.776041015625,-0.898834228515625,-0.408294677734375,0.06512451171875
1782858806356990200,10.785990234375,-0.90338134765625,-0.40679931640625,0.06634521484375
1782858806366969000,10.795968994140624,-0.905914306640625,-0.4053802490234375,0.0680084228515625
1782858806376918000,10.80591796875,-0.906890869140625,-0.404632568359375,0.0689544677734375
1782858806386867200,10.8158671875,-0.9077606201171875,-0.4051513671875,0.0687408447265625
1782858806396815000,10.825815185546874,-0.9063720703125,-0.4045867919921875,0.06878662109375
1782858806406794000,10.8357939453125,-0.905426025390625,-0.4029541015625,0.06939697265625
1782858806416743200,10.8457431640625,-0.904144287109375,-0.401397705078125,0.0689544677734375
1782858806426692400,10.8556923828125,-0.901275634765625,-0.4009246826171875,0.0655517578125
1782858806436641300,10.865641357421875,-0.9026641845703125,-0.3984222412109375,0.0657806396484375
1782858806446620200,10.8756201171875,-0.9031982421875,-0.3983154296875,0.0661468505859375
1782858806456569000,10.885569091796874,-0.8997039794921875,-0.399993896484375,0.0656890869140625
1782858806466517200,10.895517333984374,-0.896392822265625,-0.401885986328125,0.0649566650390625
1782858806476466200,10.905466064453124,-0.9017486572265625,-0.403289794921875,0.06842041015625
1782858806486445300,10.9154453125,-0.9080963134765625,-0.40252685546875,0.0745697021484375
1782858806496394200,10.925394287109375,-0.9066314697265625,-0.401947021484375,0.07373046875
1782858806506343200,10.93534326171875,-0.9064178466796875,-0.3985595703125,0.0692901611328125
1782858806516292000,10.9452919921875,-0.9056549072265625,-0.3984222412109375,0.06365966796875
1782858806526271200,10.955271240234374,-0.901763916015625,-0.404693603515625,0.06207275390625
1782858806536220200,10.96522021484375,-0.897430419921875,-0.4165191650390625,0.066131591796875
1782858806546168000,10.97516796875,-0.895751953125,-0.427886962890625,0.0712432861328125
1782858806556117200,10.9851171875,-0.8944549560546875,-0.411163330078125,0.0710906982421875
1782858806566096100,10.99509619140625,-0.8979644775390625,-0.3797149658203125,0.0674285888671875
1782858806576045300,11.00504541015625,-0.89434814453125,-0.3661041259765625,0.065155029296875
1782858806585994200,11.014994140625,-0.8935699462890625,-0.3713226318359375,0.0624542236328125
1782858806595942100,11.024942138671875,-0.8979339599609375,-0.3802032470703125,0.0608367919921875
1782858806605922300,11.03492236328125,-0.9047698974609375,-0.382965087890625,0.0634307861328125
1782858806615870200,11.0448701171875,-0.915130615234375,-0.38177490234375,0.065399169921875
1782858806625819100,11.054819091796874,-0.9194488525390625,-0.380401611328125,0.0690155029296875
1782858806635768000,11.06476806640625,-0.92266845703125,-0.379852294921875,0.0716400146484375
1782858806645747200,11.074747314453125,-0.922210693359375,-0.3830718994140625,0.0707855224609375
1782858806655696100,11.084696044921875,-0.9133453369140625,-0.3894500732421875,0.0691375732421875
1782858806665645000,11.09464501953125,-0.9096832275390625,-0.3955535888671875,0.0703582763671875
1782858806675593200,11.10459326171875,-0.9091949462890625,-0.395782470703125,0.0741119384765625
1782858806685573000,11.114572998046874,-0.9100189208984375,-0.3947601318359375,0.079437255859375
1782858806695521000,11.12452099609375,-0.9105377197265625,-0.39495849609375,0.080810546875
1782858806705470200,11.13447021484375,-0.910858154296875,-0.393463134765625,0.0800323486328125
1782858806715419400,11.14441943359375,-0.907958984375,-0.3917236328125,0.080108642578125
1782858806725398000,11.15439794921875,-0.905303955078125,-0.392669677734375,0.078216552734375
1782858806735347200,11.16434716796875,-0.9031982421875,-0.392822265625,0.073883056640625
1782858806745295400,11.17429541015625,-0.9028778076171875,-0.39306640625,0.0695648193359375
1782858806755244300,11.184244384765625,-0.901885986328125,-0.3940887451171875,0.0680084228515625
1782858806765223200,11.19422314453125,-0.9016265869140625,-0.3954620361328125,0.0657196044921875
1782858806775172400,11.20417236328125,-0.9037017822265625,-0.394805908203125,0.066436767578125
1782858806785121300,11.214121337890624,-0.904388427734375,-0.3965606689453125,0.0685272216796875
1782858806795070200,11.2240703125,-0.90533447265625,-0.400787353515625,0.072418212890625
1782858806805049000,11.234049072265625,-0.9063568115234375,-0.404083251953125,0.0745086669921875
1782858806814998300,11.243998291015625,-0.9011077880859375,-0.4059295654296875,0.0767364501953125
1782858806824965000,11.253965087890625,-0.899688720703125,-0.4030303955078125,0.07684326171875
1782858806834914000,11.2639140625,-0.9016265869140625,-0.397979736328125,0.0767364501953125
1782858806844893000,11.273892822265625,-0.898345947265625,-0.396636962890625,0.0760955810546875
1782858806854841900,11.283841796875,-0.8931732177734375,-0.4013519287109375,0.0742340087890625
1782858806864791000,11.293791015625,-0.8927459716796875,-0.403594970703125,0.0734405517578125
1782858806874740000,11.303739990234375,-0.8936767578125,-0.4031219482421875,0.0728759765625
1782858806884718800,11.31371875,-0.8974609375,-0.4022674560546875,0.072509765625
1782858806894667800,11.323667724609376,-0.9005889892578125,-0.4023895263671875,0.071624755859375
1782858806904616000,11.333615966796875,-0.899078369140625,-0.4018707275390625,0.071258544921875
1782858806914564900,11.34356494140625,-0.8983612060546875,-0.3975067138671875,0.0734100341796875
1782858806924543700,11.353543701171875,-0.894073486328125,-0.393707275390625,0.075714111328125
1782858806934493000,11.363492919921875,-0.8933868408203125,-0.3948211669921875,0.079010009765625
1782858806944442000,11.373442138671875,-0.8994598388671875,-0.39605712890625,0.083038330078125
1782858806954389800,11.3833896484375,-0.9029388427734375,-0.3974456787109375,0.08404541015625
1782858806964370000,11.393369873046876,-0.9012603759765625,-0.40155029296875,0.08319091796875
1782858806974318000,11.403318115234375,-0.899322509765625,-0.4041748046875,0.08172607421875
1782858806984267000,11.41326708984375,-0.8972930908203125,-0.4037322998046875,0.0828704833984375
1782858806994216000,11.4232158203125,-0.896148681640625,-0.405059814453125,0.0830230712890625
1782858807004195000,11.433195068359375,-0.896697998046875,-0.404937744140625,0.0815277099609375
1782858807014144000,11.44314404296875,-0.9006195068359375,-0.403350830078125,0.079925537109375
1782858807024093000,11.453093017578125,-0.900787353515625,-0.4043426513671875,0.0776824951171875
1782858807034040800,11.463040771484375,-0.9027862548828125,-0.4036102294921875,0.0767364501953125
1782858807044021000,11.47302099609375,-0.902557373046875,-0.40069580078125,0.0777740478515625
1782858807053969000,11.482968994140625,-0.9029998779296875,-0.3998260498046875,0.0770111083984375
1782858807063917800,11.492917724609375,-0.9058074951171875,-0.4002685546875,0.0774383544921875
1782858807073866800,11.50286669921875,-0.9067840576171875,-0.4008026123046875,0.0771331787109375
1782858807083846000,11.512845947265625,-0.9038848876953125,-0.401092529296875,0.0778350830078125
1782858807093794800,11.522794921875,-0.901580810546875,-0.400482177734375,0.0777587890625
1782858807103742700,11.53274267578125,-0.9005584716796875,-0.398773193359375,0.078521728515625
1782858807113692200,11.542692138671875,-0.89935302734375,-0.3988494873046875,0.0795745849609375
1782858807123670800,11.5526708984375,-0.901611328125,-0.3987274169921875,0.07794189453125
1782858807133620000,11.562619873046875,-0.9029541015625,-0.3981170654296875,0.07763671875
1782858807143569000,11.57256884765625,-0.903961181640625,-0.396820068359375,0.07806396484375
1782858807153518000,11.58251806640625,-0.903167724609375,-0.395538330078125,0.07733154296875
1782858807163497000,11.5924970703125,-0.89886474609375,-0.3959503173828125,0.0767364501953125
1782858807173446000,11.60244580078125,-0.8992156982421875,-0.395782470703125,0.0770111083984375
1782858807183394000,11.61239404296875,-0.9004058837890625,-0.3946990966796875,0.0771331787109375
1782858807193343000,11.622343017578125,-0.9020843505859375,-0.39215087890625,0.076324462890625
1782858807203321900,11.63232177734375,-0.901519775390625,-0.389984130859375,0.076019287109375
1782858807213270800,11.642270751953125,-0.900360107421875,-0.3905181884765625,0.0747833251953125
1782858807223220000,11.652219970703126,-0.901336669921875,-0.39031982421875,0.0752410888671875
1782858807233168000,11.66216796875,-0.9028778076171875,-0.390228271484375,0.0770721435546875
1782858807243147800,11.672147705078125,-0.90521240234375,-0.3914031982421875,0.0793304443359375
1782858807253096000,11.682095947265625,-0.9105987548828125,-0.3919830322265625,0.0813140869140625
1782858807263044900,11.692044921875,-0.9143829345703125,-0.3907012939453125,0.0825347900390625
1782858807272994000,11.701994140625,-0.9154815673828125,-0.3889617919921875,0.0834808349609375
1782858807282973000,11.711972900390625,-0.9137420654296875,-0.388641357421875,0.0824737548828125
1782858807292922000,11.721922119140626,-0.9115753173828125,-0.389892578125,0.0836944580078125
1782858807302871000,11.73187109375,-0.9097442626953125,-0.39080810546875,0.08453369140625
1782858807312819000,11.74181884765625,-0.9086456298828125,-0.391510009765625,0.0851593017578125
1782858807322798800,11.751798828125,-0.9101104736328125,-0.392059326171875,0.0859832763671875
1782858807332747000,11.7617470703125,-0.9199981689453125,-0.3971710205078125,0.0865631103515625
1782858807342696000,11.771696044921875,-0.928741455078125,-0.4025115966796875,0.083221435546875
1782858807352644900,11.781644775390625,-0.9404449462890625,-0.40167236328125,0.0858612060546875
1782858807362624000,11.7916240234375,-0.94439697265625,-0.3895111083984375,0.080535888671875
1782858807372573000,11.801572998046876,-0.9018707275390625,-0.3619537353515625,0.0670928955078125
1782858807382521900,11.81152197265625,-0.818359375,-0.330474853515625,0.082183837890625
1782858807392469800,11.8214697265625,-0.800384521484375,-0.328033447265625,0.13104248046875
1782858807402449000,11.831448974609375,-0.9857940673828125,-0.3967437744140625,0.143341064453125
1782858807412397800,11.841397705078125,-0.927093505859375,-0.416778564453125,0.1032867431640625
1782858807422346800,11.8513466796875,-0.9501800537109375,-0.415069580078125,0.065155029296875
1782858807432296000,11.8612958984375,-0.9289703369140625,-0.4275360107421875,0.049468994140625
1782858807442274800,11.87127490234375,-0.897308349609375,-0.4340362548828125,0.0396881103515625
1782858807452224000,11.88122412109375,-0.8895721435546875,-0.4302215576171875,0.030120849609375
1782858807462172000,11.891171875,-0.8746490478515625,-0.4442138671875,0.0352020263671875
1782858807472121000,11.90112109375,-0.855255126953125,-0.4600067138671875,0.062042236328125
