time,seconds_elapsed,z,y,x
1783168978833607000,0.09460693359375,-0.7298431396484375,-0.193115234375,-0.1049041748046875
1783168978843555800,0.104555908203125,-0.698394775390625,-0.2290496826171875,-0.1372528076171875
1783168978853535000,0.114534912109375,-0.6779022216796875,-0.297576904296875,-0.1638031005859375
1783168978863484000,0.12448388671875,-0.670654296875,-0.329620361328125,-0.191650390625
1783168978873431800,0.134431884765625,-0.680023193359375,-0.3399200439453125,-0.2432403564453125
1783168978883381000,0.144381103515625,-0.688232421875,-0.3570556640625,-0.29473876953125
1783168978893359900,0.15435986328125,-0.73492431640625,-0.3867645263671875,-0.2910919189453125
1783168978903308800,0.164308837890625,-0.7427520751953125,-0.4048614501953125,-0.255035400390625
1783168978913257700,0.1742578125,-0.6997528076171875,-0.414276123046875,-0.30084228515625
1783168978923236900,0.18423681640625,-0.6751556396484375,-0.4112091064453125,-0.395172119140625
1783168978933186000,0.19418603515625,-0.7387237548828125,-0.437774658203125,-0.501251220703125
1783168978943135000,0.204135009765625,-0.8245086669921875,-0.470062255859375,-0.5656280517578125
1783168978953083100,0.214083251953125,-0.85894775390625,-0.47125244140625,-0.5526885986328125
1783168978963063000,0.22406298828125,-0.849212646484375,-0.4332122802734375,-0.5230560302734375
1783168978973011000,0.234010986328125,-0.8456268310546875,-0.35919189453125,-0.4894866943359375
1783168978982959900,0.2439599609375,-0.86663818359375,-0.2530364990234375,-0.452667236328125
1783168978992909000,0.253908935546875,-0.8374176025390625,-0.159423828125,-0.4437255859375
1783168979002888000,0.263887939453125,-0.0522918701171875,-0.1564788818359375,-0.46685791015625
1783168979012836900,0.2738369140625,0.7454071044921875,-0.2826995849609375,-0.6588897705078125
1783168979022785000,0.283784912109375,0.145904541015625,-0.3565216064453125,-0.9396209716796875
1783168979032765000,0.293764892578125,-0.1568603515625,-0.3917083740234375,-1.0575408935546875
1783168979042712800,0.303712890625,-0.3098297119140625,-0.3791351318359375,-0.9840087890625
1783168979052662000,0.313662109375,-0.45880126953125,-0.29547119140625,-0.81878662109375
1783168979062611000,0.32361083984375,-0.6148529052734375,-0.1912078857421875,-0.6893768310546875
1783168979072589800,0.33358984375,-0.7047576904296875,-0.198394775390625,-0.6026458740234375
1783168979082538800,0.343538818359375,-0.7288665771484375,-0.2330322265625,-0.5605926513671875
1783168979092488000,0.353488037109375,-0.6142730712890625,-0.282012939453125,-0.4420318603515625
1783168979102436000,0.36343603515625,-0.5213165283203125,-0.3152923583984375,-0.291107177734375
1783168979112416000,0.373416015625,-0.5443572998046875,-0.297271728515625,-0.1931610107421875
1783168979122364200,0.3833642578125,-0.558624267578125,-0.2854156494140625,-0.1524810791015625
1783168979132313000,0.39331298828125,-0.5607757568359375,-0.310028076171875,-0.1365509033203125
1783168979142292000,0.4032919921875,-0.57513427734375,-0.3399658203125,-0.1263427734375
1783168979152241000,0.413240966796875,-0.5791778564453125,-0.35406494140625,-0.10211181640625
1783168979162190000,0.423190185546875,-0.5826416015625,-0.353912353515625,-0.0884857177734375
1783168979172138000,0.433137939453125,-0.594573974609375,-0.35223388671875,-0.07977294921875
1783168979182118000,0.443117919921875,-0.600982666015625,-0.34222412109375,-0.0662689208984375
1783168979192066000,0.453066162109375,-0.6203765869140625,-0.3380279541015625,-0.0787353515625
1783168979202015000,0.463014892578125,-0.6581268310546875,-0.35205078125,-0.094024658203125
1783168979211964000,0.4729638671875,-0.720123291015625,-0.3430938720703125,-0.091827392578125
1783168979221942800,0.48294287109375,-0.794891357421875,-0.2935638427734375,-0.093994140625
1783168979231892000,0.49289208984375,-0.85723876953125,-0.2435150146484375,-0.1337890625
1783168979241841000,0.5028408203125,-0.8621978759765625,-0.20806884765625,-0.1705169677734375
1783168979251788800,0.512788818359375,-0.8459320068359375,-0.2028350830078125,-0.1647186279296875
1783168979261769000,0.52276904296875,-0.8957977294921875,-0.2014312744140625,-0.168548583984375
1783168979271716900,0.532716796875,-0.973846435546875,-0.2313232421875,-0.206146240234375
1783168979281666000,0.542666015625,-1.0142822265625,-0.248138427734375,-0.2559814453125
1783168979291645000,0.55264501953125,-1.0340423583984375,-0.23291015625,-0.3098297119140625
1783168979301594000,0.562593994140625,-1.0218353271484375,-0.244781494140625,-0.328887939453125
1783168979311543000,0.57254296875,-1.0735321044921875,-0.253692626953125,-0.3248443603515625
1783168979321491000,0.582490966796875,-1.166015625,-0.272552490234375,-0.3197174072265625
1783168979331470800,0.592470947265625,-1.2230072021484375,-0.3076324462890625,-0.3408660888671875
1783168979341419000,0.6024189453125,-1.2627105712890625,-0.3315582275390625,-0.38037109375
1783168979351368000,0.612367919921875,-1.314971923828125,-0.34356689453125,-0.4085845947265625
1783168979361316900,0.62231689453125,-1.34698486328125,-0.3214263916015625,-0.4170989990234375
1783168979371296000,0.6322958984375,-1.3731842041015625,-0.289581298828125,-0.3937530517578125
1783168979381245000,0.642244873046875,-1.4383697509765625,-0.2979736328125,-0.412506103515625
1783168979391193900,0.65219384765625,-1.4123077392578125,-0.3419952392578125,-0.445526123046875
1783168979401173000,0.662173095703125,-1.390167236328125,-0.3433990478515625,-0.4188995361328125
1783168979411122000,0.672121826171875,-1.3984222412109375,-0.3203887939453125,-0.3775634765625
1783168979421069800,0.68206982421875,-1.3683319091796875,-0.3355712890625,-0.311676025390625
1783168979431019000,0.69201904296875,-1.364044189453125,-0.3637237548828125,-0.247528076171875
1783168979440998000,0.701997802734375,-1.34100341796875,-0.3697357177734375,-0.201202392578125
1783168979450947000,0.711947021484375,-1.3101654052734375,-0.348968505859375,-0.146728515625
1783168979460896000,0.72189599609375,-1.3075714111328125,-0.3060302734375,-0.110992431640625
1783168979470845000,0.731844970703125,-1.302398681640625,-0.2770538330078125,-0.0818328857421875
1783168979480824000,0.741823974609375,-1.297515869140625,-0.2558135986328125,-0.0438385009765625
1783168979490772000,0.75177197265625,-1.27874755859375,-0.2222900390625,-0.0355377197265625
1783168979500721000,0.761720947265625,-1.2430572509765625,-0.192779541015625,-0.0391998291015625
1783168979510669800,0.771669921875,-1.2209625244140625,-0.186370849609375,-0.03668212890625
1783168979520649000,0.78164892578125,-1.2010650634765625,-0.20111083984375,-0.02972412109375
1783168979530598000,0.791597900390625,-1.19329833984375,-0.20001220703125,-0.0487213134765625
1783168979540546800,0.801546875,-1.1641082763671875,-0.1807098388671875,-0.071075439453125
1783168979550526000,0.81152587890625,-1.1260528564453125,-0.1384735107421875,-0.0567474365234375
1783168979560475000,0.821474853515625,-1.0952911376953125,-0.09246826171875,-0.0364837646484375
1783168979570422800,0.8314228515625,-1.057525634765625,-0.076171875,-0.014312744140625
1783168979580372000,0.8413720703125,-1.0503692626953125,-0.0670318603515625,-0.015777587890625
1783168979590350800,0.851350830078125,-1.0418548583984375,-0.0833587646484375,-0.0321502685546875
1783168979600299800,0.8612998046875,-1.0541839599609375,-0.1080474853515625,-0.043975830078125
1783168979610249000,0.8712490234375,-1.0571746826171875,-0.1256256103515625,-0.05712890625
1783168979620198000,0.881197998046875,-1.051971435546875,-0.0986785888671875,-0.0303192138671875
1783168979630177000,0.891177001953125,-1.0365142822265625,-0.05889892578125,-0.0408172607421875
1783168979640126000,0.9011259765625,-1.0263519287109375,-0.073150634765625,-0.0487518310546875
1783168979650074000,0.91107421875,-1.0073089599609375,-0.1100616455078125,-0.035888671875
1783168979660054000,0.921053955078125,-1.0011749267578125,-0.1159210205078125,0.0023040771484375
1783168979670002000,0.931001953125,-1.0072021484375,-0.0966339111328125,0.0132293701171875
1783168979679950800,0.940950927734375,-0.9958648681640625,-0.0671539306640625,0.019989013671875
1783168979689900000,0.950900146484375,-0.9840850830078125,-0.0363006591796875,0.025604248046875
1783168979699879000,0.96087890625,-0.976776123046875,-0.028472900390625,0.0355224609375
1783168979709827800,0.970827880859375,-0.97760009765625,-0.028656005859375,0.06298828125
1783168979719776000,0.98077587890625,-0.9808349609375,-0.032745361328125,0.1053009033203125
1783168979729725000,0.990724853515625,-0.9961395263671875,-0.01953125,0.14215087890625
1783168979739703800,1.000703857421875,-0.9952239990234375,-0.0219268798828125,0.14031982421875
1783168979749652700,1.01065283203125,-0.9891510009765625,-0.043609619140625,0.1356201171875
1783168979759606300,1.020606201171875,-0.986480712890625,-0.0436248779296875,0.1285858154296875
1783168979769585400,1.03058544921875,-0.9834136962890625,-0.024810791015625,0.130096435546875
1783168979779534300,1.040534423828125,-0.978179931640625,-0.009063720703125,0.12347412109375
1783168979789483500,1.0504833984375,-0.984283447265625,-0.01373291015625,0.0988006591796875
1783168979799431700,1.060431640625,-1.0186309814453125,-0.0453948974609375,0.095733642578125
1783168979809411600,1.07041162109375,-1.04718017578125,-0.080078125,0.09832763671875
1783168979819359500,1.080359375,-1.0799102783203125,-0.0864105224609375,0.110565185546875
1783168979829308400,1.090308349609375,-1.0886383056640625,-0.0524139404296875,0.097747802734375
1783168979839257600,1.100257568359375,-1.06646728515625,-0.0200958251953125,0.046783447265625
1783168979849236500,1.110236572265625,-1.0435791015625,-0.027984619140625,0.014404296875
1783168979859185400,1.120185302734375,-1.00860595703125,-0.024810791015625,-0.0127410888671875
1783168979869133600,1.130133544921875,-0.991668701171875,-0.0212860107421875,-0.0410919189453125
1783168979879082500,1.14008251953125,-0.9674835205078125,-0.0495758056640625,-0.0062713623046875
1783168979889061400,1.150061279296875,-0.9662322998046875,-0.0283355712890625,0.0616607666015625
1783168979899010300,1.16001025390625,-0.9912872314453125,-0.013916015625,0.0887908935546875
1783168979908959500,1.16995947265625,-1.0032196044921875,-0.06427001953125,0.03900146484375
1783168979918938400,1.1799384765625,-0.992523193359375,-0.09210205078125,0.0009918212890625
1783168979928887300,1.18988720703125,-0.9760284423828125,-0.07501220703125,-0.004608154296875
1783168979938836200,1.199836181640625,-0.958953857421875,-0.075927734375,-0.00543212890625
1783168979948784400,1.209784423828125,-0.9542694091796875,-0.0989532470703125,-0.01165771484375
1783168979958764500,1.2197646484375,-0.9466094970703125,-0.1063079833984375,0.0043182373046875
1783168979968712400,1.22971240234375,-0.948638916015625,-0.08349609375,-0.0174102783203125
1783168979978661600,1.23966162109375,-0.966156005859375,-0.0872802734375,-0.013031005859375
1783168979988610600,1.249610595703125,-0.96484375,-0.099090576171875,-0.0220489501953125
1783168979998589400,1.25958935546875,-0.977996826171875,-0.0823516845703125,-0.0345916748046875
1783168980008538400,1.269538330078125,-0.997344970703125,-0.0632171630859375,-0.0303192138671875
1783168980018486500,1.279486572265625,-1.0028076171875,-0.0732879638671875,-0.0106353759765625
1783168980028466400,1.289466552734375,-1.011871337890625,-0.0822601318359375,-0.0006103515625
1783168980038414600,1.29941455078125,-1.002532958984375,-0.0786590576171875,0.015777587890625
1783168980048363500,1.309363525390625,-0.99017333984375,-0.0772247314453125,-0.0015716552734375
1783168980058312400,1.3193125,-0.98358154296875,-0.0815277099609375,-0.0139923095703125
1783168980068291300,1.329291259765625,-0.9794464111328125,-0.0959625244140625,0.023681640625
1783168980078240500,1.339240478515625,-0.9345703125,-0.1008453369140625,0.019317626953125
1783168980088189400,1.349189453125,-1.046356201171875,-0.051666259765625,0.013519287109375
1783168980098137300,1.359137451171875,-0.9821014404296875,-0.1314544677734375,0.0312652587890625
1783168980108117200,1.3691171875,-0.8863067626953125,-0.044036865234375,0.000396728515625
1783168980118065400,1.3790654296875,-0.9644012451171875,0.002044677734375,-0.0149688720703125
1783168980128014600,1.3890146484375,-1.0185089111328125,-0.0666961669921875,0.0023193359375
1783168980137963500,1.398963623046875,-1.0139007568359375,-0.071807861328125,0.007781982421875
1783168980147942700,1.408942626953125,-0.9998779296875,-0.0590667724609375,0.0295562744140625
1783168980157891600,1.4188916015625,-1.036407470703125,-0.070343017578125,0.0281219482421875
1783168980167839500,1.428839599609375,-1.0557708740234375,-0.089080810546875,0.0391387939453125
1783168980177819400,1.4388193359375,-1.051361083984375,-0.0445556640625,0.04217529296875
1783168980187767600,1.448767578125,-1.054534912109375,-0.0220947265625,0.033843994140625
1783168980197716500,1.458716552734375,-0.979644775390625,-0.0460968017578125,0.0040130615234375
1783168980207665400,1.46866552734375,-0.9832305908203125,-0.035430908203125,0.009307861328125
1783168980217644500,1.47864453125,-1.016845703125,-0.0309295654296875,0.011199951171875
1783168980227593500,1.488593505859375,-0.98809814453125,-0.0339813232421875,-0.012786865234375
1783168980237542400,1.49854248046875,-0.9961090087890625,-0.0346832275390625,-0.0054473876953125
1783168980247490300,1.508490234375,-0.9824371337890625,-0.029571533203125,-0.020599365234375
1783168980257470500,1.518470458984375,-0.993072509765625,-0.030548095703125,-0.0122528076171875
1783168980267418400,1.52841845703125,-0.9893646240234375,-0.02960205078125,-0.007598876953125
1783168980277367300,1.5383671875,-0.9866180419921875,-0.0298919677734375,-0.004791259765625
1783168980287346400,1.548346435546875,-0.9666900634765625,-0.030853271484375,-0.0030975341796875
1783168980297295400,1.55829541015625,-0.979522705078125,-0.03619384765625,0.0043182373046875
1783168980307244500,1.56824462890625,-0.988983154296875,-0.0432281494140625,0.0074462890625
1783168980317193500,1.578193359375,-0.994720458984375,-0.0392913818359375,0.0023193359375
1783168980327172600,1.588172607421875,-0.9906463623046875,-0.0381011962890625,-0.00238037109375
1783168980337120500,1.59812060546875,-0.98785400390625,-0.0342254638671875,-0.0057220458984375
1783168980347069400,1.6080693359375,-0.9873046875,-0.031829833984375,-0.007293701171875
1783168980357018400,1.618018310546875,-0.9883270263671875,-0.031646728515625,-0.009185791015625
1783168980366997500,1.62799755859375,-0.9874267578125,-0.0327301025390625,-0.0064849853515625
1783168980376946400,1.637946533203125,-0.987091064453125,-0.0352783203125,-0.0023345947265625
1783168980386895400,1.647895263671875,-0.9867706298828125,-0.0379486083984375,0.001068115234375
1783168980396843500,1.657843505859375,-0.9871063232421875,-0.0385894775390625,0.004058837890625
1783168980406823400,1.667823486328125,-0.986328125,-0.0380401611328125,0.00469970703125
1783168980416771300,1.677771240234375,-0.985992431640625,-0.0355987548828125,0.003143310546875
1783168980426720300,1.68772021484375,-0.9868316650390625,-0.031646728515625,0.0003662109375
1783168980436699400,1.697699462890625,-0.986602783203125,-0.0302886962890625,-0.0034942626953125
1783168980446648300,1.7076484375,-0.9868621826171875,-0.0298004150390625,-0.0060882568359375
1783168980456597500,1.717597412109375,-0.9874114990234375,-0.0309295654296875,-0.0065765380859375
1783168980466546400,1.72754638671875,-0.9878387451171875,-0.0319366455078125,-0.006683349609375
1783168980476525600,1.737525634765625,-0.987091064453125,-0.0325469970703125,-0.0034332275390625
1783168980486474500,1.747474609375,-0.9871673583984375,-0.032440185546875,-0.001251220703125
1783168980496422700,1.757422607421875,-0.987152099609375,-0.031890869140625,0.0001373291015625
1783168980506371600,1.76737158203125,-0.986602783203125,-0.03155517578125,0.0010223388671875
1783168980516350500,1.7773505859375,-0.9876708984375,-0.0314788818359375,0.0002593994140625
1783168980526299400,1.78729931640625,-0.98681640625,-0.0309600830078125,-0.001617431640625
1783168980536248300,1.797248291015625,-0.987701416015625,-0.033538818359375,-0.0044097900390625
1783168980546227500,1.8072275390625,-0.9879150390625,-0.035125732421875,-0.005126953125
1783168980556176400,1.81717626953125,-0.9870758056640625,-0.0368194580078125,-0.0056304931640625
1783168980566124500,1.82712451171875,-0.9871063232421875,-0.03790283203125,-0.0030975341796875
1783168980576073500,1.837073486328125,-0.9871063232421875,-0.0367279052734375,-0.001434326171875
1783168980586052400,1.84705224609375,-0.987640380859375,-0.0354156494140625,0.0003204345703125
1783168980596001300,1.857001220703125,-0.9879302978515625,-0.03460693359375,0.0015869140625
1783168980605950500,1.866950439453125,-0.9867706298828125,-0.03424072265625,0.001373291015625
1783168980615899600,1.876899658203125,-0.9866180419921875,-0.034271240234375,-0.0007476806640625
1783168980625878300,1.886878173828125,-0.986358642578125,-0.034759521484375,-0.003814697265625
1783168980635827500,1.896827392578125,-0.986541748046875,-0.0359039306640625,-0.0045318603515625
1783168980645775600,1.906775634765625,-0.9865570068359375,-0.035888671875,-0.00494384765625
1783168980655724500,1.916724609375,-0.985687255859375,-0.0360260009765625,-0.004852294921875
1783168980665703400,1.926703369140625,-0.985565185546875,-0.0348052978515625,-0.002105712890625
1783168980675652600,1.936652587890625,-0.9864501953125,-0.0319061279296875,-0.0009765625
1783168980685601500,1.9466015625,-0.987030029296875,-0.0305633544921875,-0.0007476806640625
1783168980695580400,1.956580322265625,-0.987335205078125,-0.0308380126953125,-0.0000762939453125
1783168980705529300,1.966529296875,-0.9877471923828125,-0.030975341796875,-0.0010528564453125
1783168980715477500,1.9764775390625,-0.9873046875,-0.0314788818359375,-0.0023040771484375
1783168980725426400,1.986426513671875,-0.986236572265625,-0.0320281982421875,-0.0033721923828125
1783168980735405600,1.996405517578125,-0.986083984375,-0.0327911376953125,-0.0049285888671875
1783168980745354500,2.0063544921875,-0.9861297607421875,-0.0327911376953125,-0.003692626953125
1783168980755346700,2.0163466796875,-0.9871063232421875,-0.032958984375,-0.0024871826171875
1783168980765295600,2.026295654296875,-0.9874267578125,-0.03436279296875,-0.001068115234375
1783168980775274800,2.036274658203125,-0.987213134765625,-0.03399658203125,0.00018310546875
1783168980785223700,2.0462236328125,-0.985809326171875,-0.035400390625,0.0012969970703125
1783168980795171800,2.056171875,-0.986572265625,-0.0362701416015625,0.0005340576171875
1783168980805151700,2.06615185546875,-0.986968994140625,-0.03582763671875,-0.0015869140625
1783168980815099600,2.076099609375,-0.9874420166015625,-0.035308837890625,-0.0017547607421875
1783168980825048600,2.086048583984375,-0.9866790771484375,-0.0351104736328125,-0.0031890869140625
1783168980834997800,2.095997802734375,-0.9874267578125,-0.0343475341796875,-0.0033416748046875
1783168980844976600,2.1059765625,-0.987701416015625,-0.03399658203125,-0.0035552978515625
1783168980854925600,2.115925537109375,-0.98651123046875,-0.034210205078125,-0.00323486328125
1783168980864873700,2.125873779296875,-0.9866180419921875,-0.0341796875,-0.00299072265625
1783168980874822700,2.13582275390625,-0.9866943359375,-0.034759521484375,-0.00238037109375
1783168980884801500,2.145801513671875,-0.98736572265625,-0.0350799560546875,-0.00323486328125
1783168980894750700,2.155750732421875,-0.9869232177734375,-0.0345458984375,-0.002685546875
1783168980904700000,2.165699951171875,-0.98651123046875,-0.032867431640625,-0.002349853515625
1783168980914648800,2.17564892578125,-0.986907958984375,-0.0317535400390625,-0.001678466796875
1783168980924627700,2.185627685546875,-0.9873199462890625,-0.030792236328125,-0.0009307861328125
1783168980934576600,2.19557666015625,-0.98712158203125,-0.03033447265625,-0.00213623046875
1783168980944524800,2.20552490234375,-0.986419677734375,-0.0318756103515625,-0.0020294189453125
1783168980954504700,2.215504638671875,-0.9863433837890625,-0.03216552734375,-0.002227783203125
1783168980964452900,2.225452880859375,-0.987213134765625,-0.0328369140625,-0.001953125
1783168980974401800,2.23540185546875,-0.9871978759765625,-0.0331878662109375,-0.0012664794921875
1783168980984350700,2.245350830078125,-0.987457275390625,-0.0337677001953125,-0.001434326171875
1783168980994329600,2.25532958984375,-0.9873046875,-0.03411865234375,-0.0009002685546875
1783168981004278800,2.26527880859375,-0.9868927001953125,-0.0340728759765625,-0.00067138671875
1783168981014226700,2.275226806640625,-0.987701416015625,-0.034576416015625,-0.000732421875
1783168981024175600,2.285175537109375,-0.9868927001953125,-0.0343017578125,-0.0009307861328125
1783168981034154800,2.29515478515625,-0.9867401123046875,-0.0353240966796875,-0.0020751953125
1783168981044103700,2.305103759765625,-0.986724853515625,-0.035125732421875,-0.0032806396484375
1783168981054052600,2.315052490234375,-0.9868927001953125,-0.0352783203125,-0.004180908203125
1783168981064031500,2.325031494140625,-0.986328125,-0.034698486328125,-0.0037994384765625
1783168981073981000,2.33498095703125,-0.9865570068359375,-0.034088134765625,-0.0027923583984375
1783168981083929900,2.344929931640625,-0.98663330078125,-0.0339202880859375,-0.001708984375
1783168981093877800,2.354877685546875,-0.9873199462890625,-0.0330963134765625,-0.001220703125
1783168981103857700,2.364857666015625,-0.9874267578125,-0.034149169921875,-0.000732421875
1783168981113805800,2.374805908203125,-0.98638916015625,-0.0339508056640625,-0.001495361328125
1783168981123754800,2.384754638671875,-0.9860992431640625,-0.0335540771484375,-0.002227783203125
1783168981133703700,2.39470361328125,-0.9863739013671875,-0.0328826904296875,-0.002410888671875
1783168981143682800,2.404682861328125,-0.986724853515625,-0.0324554443359375,-0.0030517578125
1783168981153631700,2.4146318359375,-0.9873199462890625,-0.0325775146484375,-0.0030059814453125
1783168981163580700,2.42458056640625,-0.9871368408203125,-0.0310821533203125,-0.0024261474609375
1783168981173528600,2.434528564453125,-0.9867095947265625,-0.03125,-0.00128173828125
1783168981183507700,2.4445078125,-0.9867401123046875,-0.032989501953125,-0.00103759765625
1783168981193456600,2.45445654296875,-0.9874725341796875,-0.0330352783203125,-0.000640869140625
1783168981203405600,2.464405517578125,-0.98699951171875,-0.0348358154296875,-0.0002288818359375
1783168981213384700,2.474384765625,-0.9867401123046875,-0.034759521484375,-0.0013885498046875
1783168981223333600,2.484333740234375,-0.9868621826171875,-0.0352783203125,-0.0019683837890625
1783168981233282800,2.49428271484375,-0.9869232177734375,-0.03546142578125,-0.0027313232421875
1783168981243230500,2.50423046875,-0.9872283935546875,-0.0348052978515625,-0.003204345703125
1783168981253211000,2.5142109375,-0.986663818359375,-0.03387451171875,-0.0027923583984375
1783168981263158800,2.52415869140625,-0.9864044189453125,-0.034332275390625,-0.0029754638671875
1783168981273107700,2.534107666015625,-0.9868011474609375,-0.0350189208984375,-0.00323486328125
1783168981283056600,2.544056640625,-0.986175537109375,-0.03509521484375,-0.002960205078125
1783168981293035800,2.554035888671875,-0.98675537109375,-0.0341339111328125,-0.0026092529296875
1783168981302984700,2.563984619140625,-0.9870758056640625,-0.0352325439453125,-0.0028228759765625
1783168981312933600,2.57393359375,-0.9867706298828125,-0.0349273681640625,-0.00225830078125
1783168981322881800,2.5838818359375,-0.987701416015625,-0.0342559814453125,-0.00244140625
1783168981332861700,2.59386181640625,-0.9877471923828125,-0.0335693359375,-0.00238037109375
1783168981342809600,2.6038095703125,-0.9871063232421875,-0.032501220703125,-0.002288818359375
1783168981352758500,2.613758544921875,-0.98602294921875,-0.032562255859375,-0.0013580322265625
1783168981362737700,2.623737548828125,-0.98614501953125,-0.0325469970703125,-0.0014801025390625
1783168981372686600,2.6336865234375,-0.9863128662109375,-0.0326690673828125,-0.0011749267578125
1783168981382635500,2.643635498046875,-0.9876251220703125,-0.0329742431640625,-0.000823974609375
1783168981392583700,2.653583740234375,-0.987579345703125,-0.03326416015625,-0.0010986328125
1783168981402563800,2.663563720703125,-0.98748779296875,-0.033233642578125,-0.0020904541015625
1783168981412511500,2.673511474609375,-0.9873504638671875,-0.0326385498046875,-0.0025177001953125
1783168981422460700,2.683460693359375,-0.9862823486328125,-0.033538818359375,-0.001983642578125
1783168981432409900,2.693409912109375,-0.986785888671875,-0.0351409912109375,-0.00341796875
1783168981442388700,2.703388671875,-0.987548828125,-0.0353240966796875,-0.003021240234375
1783168981452337700,2.713337646484375,-0.9865264892578125,-0.0348663330078125,-0.002532958984375
1783168981462286600,2.72328662109375,-0.98712158203125,-0.03570556640625,-0.002593994140625
1783168981472265700,2.733265625,-0.987030029296875,-0.0354156494140625,-0.0025634765625
1783168981482214700,2.743214599609375,-0.9865875244140625,-0.03533935546875,-0.00274658203125
1783168981492162800,2.753162841796875,-0.98687744140625,-0.034454345703125,-0.00177001953125
1783168981502111700,2.76311181640625,-0.9866180419921875,-0.0347442626953125,-0.00286865234375
1783168981512090600,2.773090576171875,-0.98675537109375,-0.033721923828125,-0.0034637451171875
1783168981522039600,2.78303955078125,-0.9886016845703125,-0.03411865234375,-0.0012664794921875
1783168981531988700,2.79298876953125,-0.9868621826171875,-0.033721923828125,-0.0013427734375
1783168981541936600,2.8029365234375,-0.98626708984375,-0.03350830078125,-0.001953125
1783168981551916500,2.81291650390625,-0.9861297607421875,-0.0339202880859375,-0.0016326904296875
1783168981561864700,2.82286474609375,-0.9874267578125,-0.0332489013671875,-0.0018310546875
1783168981571813600,2.832813720703125,-0.987579345703125,-0.032470703125,-0.000457763671875
1783168981581792500,2.84279248046875,-0.9873504638671875,-0.0317840576171875,-0.001129150390625
1783168981591741700,2.85274169921875,-0.986724853515625,-0.0325775146484375,-0.002166748046875
1783168981601691000,2.86269091796875,-0.9869842529296875,-0.0324554443359375,-0.0019073486328125
1783168981611639800,2.872639892578125,-0.986663818359375,-0.03277587890625,-0.0021820068359375
1783168981621618700,2.88261865234375,-0.98602294921875,-0.03411865234375,-0.001739501953125
1783168981631567600,2.892567626953125,-0.9860687255859375,-0.034912109375,-0.0025787353515625
1783168981641515800,2.902515869140625,-0.9868621826171875,-0.03448486328125,-0.0022735595703125
1783168981651464700,2.912464599609375,-0.9873046875,-0.0337677001953125,-0.00189208984375
1783168981661443600,2.922443603515625,-0.98651123046875,-0.0341033935546875,-0.001922607421875
1783168981671392800,2.932392822265625,-0.987091064453125,-0.0343170166015625,-0.00238037109375
1783168981681341700,2.942341796875,-0.9871978759765625,-0.0339813232421875,-0.002471923828125
1783168981691289600,2.95228955078125,-0.9864501953125,-0.035125732421875,-0.0024871826171875
1783168981701269500,2.96226953125,-0.987030029296875,-0.0348052978515625,-0.00250244140625
1783168981711217700,2.9722177734375,-0.9870147705078125,-0.03363037109375,-0.002777099609375
1783168981721166600,2.98216650390625,-0.986083984375,-0.0348358154296875,-0.003631591796875
1783168981731145700,2.992145751953125,-0.9863433837890625,-0.03387451171875,-0.0024566650390625
1783168981741094700,3.0020947265625,-0.986785888671875,-0.0338134765625,-0.00189208984375
1783168981751043800,3.0120439453125,-0.987152099609375,-0.0326995849609375,-0.0014801025390625
1783168981761009200,3.022009033203125,-0.9868621826171875,-0.0338134765625,-0.0023651123046875
1783168981770988300,3.03198828125,-0.986785888671875,-0.034393310546875,-0.001739501953125
1783168981780937200,3.041937255859375,-0.987457275390625,-0.033172607421875,-0.0008392333984375
1783168981790885000,3.051885009765625,-0.9863739013671875,-0.0329132080078125,-0.001800537109375
1783168981800834300,3.061834228515625,-0.9872589111328125,-0.03265380859375,-0.002716064453125
1783168981810813200,3.071813232421875,-0.9870452880859375,-0.033294677734375,-0.0020751953125
1783168981820762000,3.08176220703125,-0.9868927001953125,-0.0329437255859375,-0.002471923828125
1783168981830711000,3.0917109375,-0.9866485595703125,-0.033447265625,-0.00274658203125
1783168981840690200,3.101690185546875,-0.9862060546875,-0.0329437255859375,-0.002960205078125
1783168981850639400,3.111639404296875,-0.9871978759765625,-0.0333099365234375,-0.0022430419921875
1783168981860587300,3.121587158203125,-0.98712158203125,-0.0337066650390625,-0.002410888671875
1783168981870536400,3.131536376953125,-0.9868316650390625,-0.034027099609375,-0.0020294189453125
1783168981880515300,3.141515380859375,-0.9862060546875,-0.0329742431640625,-0.002288818359375
1783168981890464300,3.15146435546875,-0.9876708984375,-0.033172607421875,-0.0030975341796875
1783168981900413200,3.1614130859375,-0.9872589111328125,-0.033538818359375,-0.002960205078125
1783168981910362400,3.1713623046875,-0.98687744140625,-0.03375244140625,-0.0024871826171875
1783168981920341200,3.18134130859375,-0.986541748046875,-0.0341644287109375,-0.0020751953125
1783168981930290200,3.191290283203125,-0.9872894287109375,-0.0348968505859375,-0.00238037109375
1783168981940238300,3.20123828125,-0.9878997802734375,-0.034576416015625,-0.0012359619140625
1783168981950187300,3.211187255859375,-0.9870147705078125,-0.0340118408203125,-0.0011749267578125
1783168981960166100,3.221166259765625,-0.98822021484375,-0.0341033935546875,-0.001953125
1783168981970115000,3.231114990234375,-0.9868011474609375,-0.0340118408203125,-0.002410888671875
1783168981980064300,3.241064208984375,-0.9860992431640625,-0.0333404541015625,-0.00091552734375
1783168981990043100,3.251043212890625,-0.98724365234375,-0.033111572265625,-0.0009002685546875
1783168981999992000,3.260991943359375,-0.987457275390625,-0.033447265625,-0.0020751953125
1783168982009940200,3.270940185546875,-0.987060546875,-0.0331878662109375,-0.002105712890625
1783168982019889400,3.280889404296875,-0.9864044189453125,-0.033111572265625,-0.0019378662109375
1783168982029868000,3.290867919921875,-0.9857635498046875,-0.03289794921875,-0.00286865234375
1783168982039817200,3.300817138671875,-0.986907958984375,-0.033447265625,-0.0020904541015625
1783168982049766400,3.310766357421875,-0.9869384765625,-0.0328521728515625,-0.00238037109375
1783168982059715300,3.32071533203125,-0.9867095947265625,-0.0325927734375,-0.002532958984375
1783168982069694200,3.330694091796875,-0.986663818359375,-0.032928466796875,-0.0020599365234375
1783168982079643100,3.34064306640625,-0.987274169921875,-0.03375244140625,-0.0019073486328125
1783168982089591300,3.35059130859375,-0.987060546875,-0.0336456298828125,-0.001739501953125
1783168982099571200,3.3605712890625,-0.987640380859375,-0.0334625244140625,-0.0027313232421875
1783168982109519400,3.370519287109375,-0.9868011474609375,-0.0341796875,-0.003662109375
1783168982119468300,3.38046826171875,-0.9866790771484375,-0.034393310546875,-0.0020599365234375
1783168982129417200,3.390417236328125,-0.9876556396484375,-0.034027099609375,-0.002349853515625
1783168982139396000,3.40039599609375,-0.9875030517578125,-0.03326416015625,-0.002197265625
1783168982149345300,3.41034521484375,-0.9868316650390625,-0.0338592529296875,-0.0015411376953125
1783168982159294200,3.420294189453125,-0.9872283935546875,-0.0347442626953125,-0.0010986328125
1783168982169242000,3.4302421875,-0.986785888671875,-0.033355712890625,-0.0017242431640625
1783168982179222300,3.44022216796875,-0.9862823486328125,-0.033935546875,-0.0020904541015625
1783168982189170400,3.45017041015625,-0.986541748046875,-0.033721923828125,-0.00164794921875
1783168982199119400,3.460119384765625,-0.9870452880859375,-0.033843994140625,-0.002960205078125
1783168982209068300,3.470068359375,-0.9871978759765625,-0.034149169921875,-0.00360107421875
1783168982219047400,3.48004736328125,-0.98602294921875,-0.0339508056640625,-0.0017852783203125
1783168982228996400,3.489996337890625,-0.986602783203125,-0.03314208984375,-0.0028839111328125
1783168982238944300,3.4999443359375,-0.985626220703125,-0.03326416015625,-0.002349853515625
1783168982248924200,3.509924072265625,-0.9864501953125,-0.0330963134765625,-0.0023345947265625
1783168982258872300,3.519872314453125,-0.98736572265625,-0.033538818359375,-0.0020294189453125
1783168982268821200,3.5298212890625,-0.9872589111328125,-0.034149169921875,-0.002166748046875
1783168982278770200,3.539770263671875,-0.98773193359375,-0.034637451171875,-0.001861572265625
1783168982288749300,3.549749267578125,-0.987823486328125,-0.0346221923828125,-0.0013275146484375
1783168982298698200,3.5596982421875,-0.9872283935546875,-0.0339508056640625,-0.0031585693359375
1783168982308647200,3.569647216796875,-0.9875030517578125,-0.0342254638671875,-0.0029296875
1783168982318595000,3.579594970703125,-0.987274169921875,-0.0345458984375,-0.0027618408203125
1783168982328575200,3.5895751953125,-0.987701416015625,-0.0347137451171875,-0.0028076171875
1783168982338523100,3.599523193359375,-0.987030029296875,-0.03369140625,-0.0017547607421875
1783168982348472300,3.609472412109375,-0.9862060546875,-0.033843994140625,-0.00201416015625
1783168982358451200,3.619451171875,-0.9862518310546875,-0.033599853515625,-0.0023345947265625
1783168982368400400,3.629400390625,-0.986785888671875,-0.0336761474609375,-0.0019989013671875
1783168982378349300,3.639349365234375,-0.9867706298828125,-0.0335845947265625,-0.0022430419921875
1783168982388297200,3.649297119140625,-0.9864044189453125,-0.0334320068359375,-0.0018768310546875
1783168982398277400,3.65927734375,-0.98681640625,-0.0331878662109375,-0.0019989013671875
1783168982408225300,3.669225341796875,-0.9871978759765625,-0.033203125,-0.00189208984375
1783168982418174200,3.67917431640625,-0.987762451171875,-0.0334014892578125,-0.0017547607421875
1783168982428123100,3.689123046875,-0.98712158203125,-0.03411865234375,-0.0019378662109375
1783168982438102300,3.699102294921875,-0.98736572265625,-0.03375244140625,-0.0018310546875
1783168982448051200,3.70905126953125,-0.9876708984375,-0.033782958984375,-0.0015106201171875
1783168982458000100,3.719000244140625,-0.987152099609375,-0.033782958984375,-0.0024261474609375
1783168982467948300,3.7289482421875,-0.986724853515625,-0.0344390869140625,-0.0020904541015625
1783168982477928200,3.73892822265625,-0.9873809814453125,-0.033599853515625,-0.0021514892578125
1783168982487876000,3.7488759765625,-0.98626708984375,-0.0329132080078125,-0.00274658203125
1783168982497825000,3.758824951171875,-0.986480712890625,-0.03277587890625,-0.0025787353515625
1783168982507804200,3.76880419921875,-0.986724853515625,-0.03326416015625,-0.00286865234375
1783168982517753000,3.778753173828125,-0.986846923828125,-0.0335235595703125,-0.00164794921875
1783168982527702300,3.788702392578125,-0.9868927001953125,-0.0347137451171875,-0.0025634765625
1783168982537650400,3.798650390625,-0.9864654541015625,-0.03363037109375,-0.0024871826171875
1783168982547630300,3.80863037109375,-0.98687744140625,-0.033966064453125,-0.0025482177734375
1783168982557578200,3.818578125,-0.9868011474609375,-0.0331878662109375,-0.0024871826171875
1783168982567527200,3.828527099609375,-0.9865264892578125,-0.0334930419921875,-0.0018463134765625
1783168982577476400,3.838476318359375,-0.98681640625,-0.03436279296875,-0.0028533935546875
1783168982587455200,3.848455322265625,-0.987030029296875,-0.0345306396484375,-0.002471923828125
1783168982597404200,3.858404052734375,-0.986785888671875,-0.0339202880859375,-0.0027923583984375
1783168982607353000,3.86835302734375,-0.986358642578125,-0.0343475341796875,-0.00274658203125
1783168982617332200,3.878332275390625,-0.986724853515625,-0.0337066650390625,-0.0017547607421875
1783168982627281200,3.88828125,-0.987640380859375,-0.0341796875,-0.0019683837890625
1783168982637229300,3.898229248046875,-0.9872894287109375,-0.03369140625,-0.0023040771484375
1783168982647178200,3.90817822265625,-0.9872283935546875,-0.03411865234375,-0.0020751953125
1783168982657157000,3.9181572265625,-0.9864501953125,-0.0331268310546875,-0.001708984375
1783168982667106000,3.92810595703125,-0.98638916015625,-0.03350830078125,-0.0019683837890625
1783168982677055200,3.93805517578125,-0.986419677734375,-0.033233642578125,-0.001800537109375
1783168982687003100,3.948003173828125,-0.9870452880859375,-0.0334014892578125,-0.00238037109375
1783168982696983300,3.9579833984375,-0.9878692626953125,-0.033416748046875,-0.0028839111328125
1783168982706931500,3.967931396484375,-0.9868621826171875,-0.0332183837890625,-0.0013427734375
1783168982716880400,3.97788037109375,-0.9878387451171875,-0.03369140625,-0.0016632080078125
1783168982726829300,3.987829345703125,-0.98712158203125,-0.0333709716796875,-0.0026397705078125
1783168982736808200,3.99780810546875,-0.9864654541015625,-0.0338287353515625,-0.00201416015625
1783168982746757400,4.00775732421875,-0.9869537353515625,-0.033935546875,-0.00177001953125
1783168982756726500,4.0177265625,-0.986541748046875,-0.0342559814453125,-0.0021209716796875
1783168982766705400,4.027705322265625,-0.987335205078125,-0.0342864990234375,-0.0025634765625
1783168982776654600,4.037654541015625,-0.9878082275390625,-0.034027099609375,-0.0016632080078125
1783168982786602500,4.0476025390625,-0.9870147705078125,-0.0342864990234375,-0.0008697509765625
1783168982796551400,4.057551513671875,-0.9863739013671875,-0.034088134765625,-0.002166748046875
1783168982806530600,4.067530517578125,-0.9864654541015625,-0.033721923828125,-0.0023040771484375
1783168982816479500,4.0774794921875,-0.986572265625,-0.0340576171875,-0.001617431640625
1783168982826428400,4.087428466796875,-0.9864959716796875,-0.033721923828125,-0.0009613037109375
1783168982836377300,4.09737744140625,-0.9864044189453125,-0.03436279296875,-0.001617431640625
1783168982846356500,4.1073564453125,-0.9872283935546875,-0.03375244140625,-0.0014190673828125
1783168982856304400,4.117304443359375,-0.9865875244140625,-0.033203125,-0.00225830078125
1783168982866253300,4.12725341796875,-0.985565185546875,-0.03338623046875,-0.001708984375
1783168982876202200,4.1372021484375,-0.986602783203125,-0.033111572265625,-0.0015411376953125
1783168982886181400,4.147181396484375,-0.9872283935546875,-0.033203125,-0.002471923828125
1783168982896130600,4.157130615234375,-0.987701416015625,-0.0330352783203125,-0.0018310546875
1783168982906079500,4.16707958984375,-0.9876556396484375,-0.033355712890625,-0.0010986328125
1783168982916058600,4.17705859375,-0.9871673583984375,-0.033966064453125,-0.0012969970703125
1783168982926007600,4.187007568359375,-0.986846923828125,-0.0337982177734375,-0.00091552734375
1783168982935955500,4.19695556640625,-0.9866943359375,-0.0337371826171875,-0.0017852783203125
1783168982945904400,4.206904296875,-0.98638916015625,-0.033905029296875,-0.00152587890625
1783168982955883500,4.216883544921875,-0.9871673583984375,-0.0341796875,-0.002166748046875
1783168982965832400,4.22683251953125,-0.9876251220703125,-0.0342254638671875,-0.00189208984375
1783168982975781400,4.236781494140625,-0.987030029296875,-0.0337371826171875,-0.0017242431640625
1783168982985730300,4.246730224609375,-0.9878692626953125,-0.03375244140625,-0.00177001953125
1783168982995709400,4.25670947265625,-0.9875946044921875,-0.0340118408203125,-0.002655029296875
1783168983005658400,4.266658447265625,-0.98602294921875,-0.033966064453125,-0.003143310546875
1783168983015606500,4.2766064453125,-0.98724365234375,-0.034088134765625,-0.002593994140625
1783168983025585400,4.28658544921875,-0.9865264892578125,-0.033935546875,-0.001861572265625
1783168983035534300,4.296534423828125,-0.98626708984375,-0.0339508056640625,-0.0025177001953125
1783168983045483300,4.306483154296875,-0.9862060546875,-0.0335235595703125,-0.002471923828125
1783168983055432400,4.316432373046875,-0.9873199462890625,-0.0328826904296875,-0.00274658203125
1783168983065411600,4.32641162109375,-0.9872589111328125,-0.033935546875,-0.001617431640625
1783168983075360500,4.336360595703125,-0.9873046875,-0.0339813232421875,-0.00201416015625
1783168983085308700,4.34630859375,-0.9868927001953125,-0.03387451171875,-0.0014190673828125
1783168983095257600,4.356257568359375,-0.986663818359375,-0.03411865234375,-0.00250244140625
1783168983105236500,4.366236572265625,-0.9865570068359375,-0.0335693359375,-0.0024261474609375
1783168983115185400,4.376185302734375,-0.9863433837890625,-0.0341949462890625,-0.0010986328125
1783168983125134600,4.386134521484375,-0.98681640625,-0.033538818359375,-0.0023345947265625
1783168983135083500,4.39608349609375,-0.986663818359375,-0.033050537109375,-0.00225830078125
1783168983145062400,4.4060625,-0.98675537109375,-0.0327606201171875,-0.0016021728515625
1783168983155011300,4.41601123046875,-0.986724853515625,-0.033599853515625,-0.001800537109375
1783168983164959500,4.42595947265625,-0.9872589111328125,-0.0343475341796875,-0.00225830078125
1783168983174939400,4.435939453125,-0.9873504638671875,-0.0337982177734375,-0.0017852783203125
1783168983184887300,4.44588720703125,-0.9870758056640625,-0.0350494384765625,-0.002288818359375
1783168983194836500,4.45583642578125,-0.98614501953125,-0.0345611572265625,-0.00238037109375
1783168983204785400,4.465785400390625,-0.9867095947265625,-0.033721923828125,-0.001953125
1783168983214764300,4.475764404296875,-0.987579345703125,-0.034820556640625,-0.002044677734375
1783168983224713500,4.48571337890625,-0.9866943359375,-0.033843994140625,-0.001617431640625
1783168983234661400,4.495661376953125,-0.9862823486328125,-0.033233642578125,-0.0027923583984375
1783168983244610600,4.505610595703125,-0.9870147705078125,-0.0334625244140625,-0.003173828125
1783168983254589400,4.51558935546875,-0.9871673583984375,-0.0330963134765625,-0.002838134765625
1783168983264538600,4.52553857421875,-0.98663330078125,-0.0330047607421875,-0.001953125
1783168983274487600,4.535487548828125,-0.9869842529296875,-0.03363037109375,-0.0020904541015625
1783168983284466400,4.545466552734375,-0.9865875244140625,-0.0346221923828125,-0.0012054443359375
1783168983294415400,4.555415283203125,-0.986907958984375,-0.0340728759765625,-0.0017547607421875
1783168983304364500,4.565364501953125,-0.9868927001953125,-0.0333404541015625,-0.0020751953125
1783168983314312400,4.5753125,-0.9873199462890625,-0.0329742431640625,-0.001251220703125
1783168983324292400,4.585292236328125,-0.986083984375,-0.0330963134765625,-0.0021820068359375
1783168983334240500,4.595240478515625,-0.986968994140625,-0.033843994140625,-0.0019073486328125
1783168983344189400,4.605189453125,-0.986846923828125,-0.03411865234375,-0.0018768310546875
1783168983354138400,4.615138427734375,-0.98797607421875,-0.032806396484375,-0.00177001953125
1783168983364117500,4.625117431640625,-0.98785400390625,-0.03375244140625,-0.0029296875
1783168983374066400,4.63506640625,-0.9868621826171875,-0.033905029296875,-0.00250244140625
1783168983384014300,4.645014404296875,-0.9871826171875,-0.0338287353515625,-0.0016021728515625
1783168983393963300,4.65496337890625,-0.9869842529296875,-0.0336761474609375,-0.0016937255859375
1783168983403942400,4.6649423828125,-0.98712158203125,-0.033843994140625,-0.0018310546875
1783168983413891600,4.6748916015625,-0.9868621826171875,-0.03509521484375,-0.001922607421875
1783168983423840500,4.684840576171875,-0.9878082275390625,-0.033538818359375,-0.0021820068359375
1783168983433819600,4.694819580078125,-0.9864959716796875,-0.0328369140625,-0.00140380859375
1783168983443768600,4.7047685546875,-0.9867401123046875,-0.0339202880859375,-0.0015869140625
1783168983453717500,4.714717529296875,-0.98760986328125,-0.0342559814453125,-0.0012359619140625
1783168983463665400,4.72466552734375,-0.9870452880859375,-0.034271240234375,-0.0027618408203125
1783168983473645600,4.7346455078125,-0.98651123046875,-0.0341796875,-0.0015716552734375
1783168983483593500,4.744593505859375,-0.9861602783203125,-0.0341796875,-0.00225830078125
1783168983493542400,4.75454248046875,-0.9855804443359375,-0.0340118408203125,-0.0027008056640625
1783168983503491300,4.7644912109375,-0.9853515625,-0.033935546875,-0.002655029296875
1783168983513470500,4.774470458984375,-0.9872283935546875,-0.0347747802734375,-0.0016326904296875
1783168983523419400,4.78441943359375,-0.98760986328125,-0.033477783203125,-0.001739501953125
1783168983533367300,4.7943671875,-0.986846923828125,-0.0343170166015625,-0.002227783203125
1783168983543347500,4.804347412109375,-0.9866180419921875,-0.0342254638671875,-0.001678466796875
1783168983553295400,4.81429541015625,-0.9863128662109375,-0.034088134765625,-0.001953125
1783168983563244300,4.824244384765625,-0.986053466796875,-0.034423828125,-0.0022125244140625
1783168983573193500,4.834193359375,-0.9871978759765625,-0.0340576171875,-0.0023651123046875
1783168983583172600,4.844172607421875,-0.9870147705078125,-0.0333404541015625,-0.0017852783203125
1783168983593121500,4.85412158203125,-0.9857025146484375,-0.0341949462890625,-0.0018768310546875
1783168983603070500,4.864070556640625,-0.9858551025390625,-0.03460693359375,-0.00115966796875
1783168983613018600,4.8740185546875,-0.9872283935546875,-0.03350830078125,-0.001861572265625
1783168983622998500,4.88399853515625,-0.98681640625,-0.0327911376953125,-0.002593994140625
1783168983632946400,4.893946533203125,-0.9867095947265625,-0.033721923828125,-0.001708984375
1783168983642895400,4.903895263671875,-0.986968994140625,-0.033935546875,-0.0011749267578125
1783168983652874500,4.91387451171875,-0.987091064453125,-0.0342559814453125,-0.0015869140625
1783168983662823400,4.923823486328125,-0.987060546875,-0.0336456298828125,-0.00286865234375
1783168983672772400,4.9337724609375,-0.9868011474609375,-0.0326385498046875,-0.0025634765625
1783168983682721300,4.94372119140625,-0.9877471923828125,-0.0333404541015625,-0.0019683837890625
1783168983692700400,4.953700439453125,-0.9873809814453125,-0.0335235595703125,-0.001800537109375
1783168983702648300,4.9636484375,-0.986968994140625,-0.0337982177734375,-0.0018768310546875
1783168983712597200,4.97359716796875,-0.9864654541015625,-0.033233642578125,-0.0018463134765625
1783168983722546400,4.98354638671875,-0.98663330078125,-0.0339202880859375,-0.0015869140625
1783168983732525300,4.993525390625,-0.98681640625,-0.0339508056640625,-0.00146484375
1783168983742474500,5.003474609375,-0.987548828125,-0.034271240234375,-0.0012664794921875
1783168983752423400,5.01342333984375,-0.9873046875,-0.0338287353515625,-0.0027618408203125
1783168983762376700,5.023376708984375,-0.98699951171875,-0.033782958984375,-0.0027313232421875
1783168983772356900,5.03335693359375,-0.9874725341796875,-0.0333099365234375,-0.002105712890625
1783168983782304800,5.0433046875,-0.9876251220703125,-0.0330047607421875,-0.0014495849609375
1783168983792253700,5.053253662109375,-0.98675537109375,-0.0332794189453125,-0.0014190673828125
1783168983802232800,5.06323291015625,-0.986846923828125,-0.034698486328125,-0.002716064453125
1783168983812181800,5.073181640625,-0.986846923828125,-0.03460693359375,-0.0018157958984375
1783168983822131000,5.083130859375,-0.9874267578125,-0.03369140625,-0.0026397705078125
1783168983832080000,5.093079833984375,-0.9867401123046875,-0.034271240234375,-0.002349853515625
1783168983842059000,5.10305908203125,-0.98724365234375,-0.0338897705078125,-0.0023193359375
1783168983852008000,5.113008056640625,-0.9865570068359375,-0.0333099365234375,-0.0018768310546875
1783168983861955800,5.122955810546875,-0.986419677734375,-0.0335845947265625,-0.0019073486328125
1783168983871904800,5.13290478515625,-0.98681640625,-0.033416748046875,-0.00286865234375
1783168983881884000,5.1428837890625,-0.9867401123046875,-0.0333251953125,-0.002685546875
1783168983891832800,5.152832763671875,-0.9868621826171875,-0.0341033935546875,-0.00164794921875
1783168983901781800,5.16278173828125,-0.9873809814453125,-0.0339202880859375,-0.001922607421875
1783168983911730000,5.17272998046875,-0.9865875244140625,-0.034393310546875,-0.00177001953125
1783168983921709800,5.182709716796875,-0.986846923828125,-0.03375244140625,-0.0024871826171875
1783168983931657700,5.19265771484375,-0.9873199462890625,-0.0324859619140625,-0.0023193359375
1783168983941606700,5.202606689453125,-0.9874114990234375,-0.0333709716796875,-0.0021820068359375
1783168983951585800,5.212585693359375,-0.98651123046875,-0.033538818359375,-0.00146484375
1783168983961534700,5.22253466796875,-0.9862213134765625,-0.03387451171875,-0.0015106201171875
1783168983971483600,5.232483642578125,-0.9870147705078125,-0.03338623046875,-0.0021209716796875
1783168983981432800,5.242432861328125,-0.9869537353515625,-0.0340118408203125,-0.0017547607421875
1783168983991412000,5.252411865234375,-0.9873504638671875,-0.033477783203125,-0.0025634765625
1783168984001361000,5.26236083984375,-0.9869537353515625,-0.0328826904296875,-0.003021240234375
1783168984011308800,5.272308837890625,-0.9873199462890625,-0.033203125,-0.002349853515625
1783168984021258000,5.282258056640625,-0.9873046875,-0.033111572265625,-0.0022125244140625
1783168984031236900,5.29223681640625,-0.987060546875,-0.0335235595703125,-0.002593994140625
1783168984041185800,5.302185791015625,-0.985809326171875,-0.0338134765625,-0.0019683837890625
1783168984051134700,5.312134765625,-0.9871063232421875,-0.0329132080078125,-0.00115966796875
1783168984061113900,5.32211376953125,-0.9877166748046875,-0.0332794189453125,-0.002044677734375
1783168984071062800,5.332062744140625,-0.9871063232421875,-0.0325927734375,-0.0022735595703125
1783168984081011000,5.342010986328125,-0.9868316650390625,-0.0333099365234375,-0.0027618408203125
1783168984090960000,5.3519599609375,-0.98651123046875,-0.0329132080078125,-0.0021209716796875
1783168984100938800,5.361938720703125,-0.9867095947265625,-0.033905029296875,-0.0015716552734375
1783168984110887700,5.3718876953125,-0.987884521484375,-0.033905029296875,-0.0018310546875
1783168984120836600,5.381836669921875,-0.987060546875,-0.0343017578125,-0.00262451171875
1783168984130786000,5.3917861328125,-0.986724853515625,-0.0337371826171875,-0.0018310546875
1783168984140764700,5.4017646484375,-0.9874267578125,-0.03399658203125,-0.00262451171875
1783168984150713900,5.4117138671875,-0.987213134765625,-0.0343475341796875,-0.0020751953125
1783168984160662000,5.421662109375,-0.9875335693359375,-0.03375244140625,-0.000762939453125
1783168984170611000,5.43161083984375,-0.98785400390625,-0.0336761474609375,-0.0019683837890625
1783168984180589800,5.44158984375,-0.9869842529296875,-0.03363037109375,-0.0029449462890625
1783168984190539000,5.4515390625,-0.9861602783203125,-0.0332794189453125,-0.001708984375
1783168984200488000,5.461488037109375,-0.986602783203125,-0.0333251953125,-0.0020904541015625
1783168984210466800,5.471466796875,-0.9864044189453125,-0.0336761474609375,-0.0029144287109375
1783168984220415700,5.481415771484375,-0.9866180419921875,-0.0338592529296875,-0.0030670166015625
1783168984230364000,5.491364013671875,-0.9873504638671875,-0.033782958984375,-0.0026397705078125
1783168984240312800,5.501312744140625,-0.986785888671875,-0.0334320068359375,-0.0021209716796875
1783168984250291700,5.511291748046875,-0.986724853515625,-0.03363037109375,-0.002197265625
1783168984260241000,5.521240966796875,-0.987548828125,-0.03375244140625,-0.001251220703125
1783168984270189800,5.53118994140625,-0.9870452880859375,-0.0340118408203125,-0.00213623046875
1783168984280138800,5.541138671875,-0.98724365234375,-0.0330352783203125,-0.0022430419921875
1783168984290117600,5.55111767578125,-0.98748779296875,-0.0325775146484375,-0.0011138916015625
1783168984300066800,5.56106689453125,-0.9876708984375,-0.0339508056640625,-0.000579833984375
1783168984310014700,5.5710146484375,-0.9871826171875,-0.033966064453125,-0.0015411376953125
1783168984319995000,5.580994873046875,-0.9873504638671875,-0.0340118408203125,-0.00146484375
1783168984329943000,5.590943115234375,-0.9871368408203125,-0.0335693359375,-0.001922607421875
1783168984339892000,5.60089208984375,-0.9875640869140625,-0.033416748046875,-0.0018157958984375
1783168984349841000,5.6108408203125,-0.9879302978515625,-0.03399658203125,-0.0018310546875
1783168984359819800,5.62081982421875,-0.9870758056640625,-0.033599853515625,-0.0029296875
1783168984369769000,5.63076904296875,-0.9862823486328125,-0.033538818359375,-0.0020751953125
1783168984379716900,5.640716796875,-0.9873504638671875,-0.033477783203125,-0.0019073486328125
1783168984389665800,5.650665771484375,-0.986480712890625,-0.0337371826171875,-0.0021514892578125
1783168984399645000,5.66064501953125,-0.987457275390625,-0.0334625244140625,-0.0011138916015625
1783168984409593900,5.67059375,-0.987152099609375,-0.03363037109375,-0.0017547607421875
1783168984419542800,5.680542724609375,-0.9872283935546875,-0.03314208984375,-0.0030975341796875
1783168984429491700,5.69049169921875,-0.987579345703125,-0.0335540771484375,-0.001983642578125
1783168984439470800,5.700470947265625,-0.987335205078125,-0.0337371826171875,-0.0021209716796875
1783168984449419800,5.710419677734375,-0.9864959716796875,-0.0340423583984375,-0.001922607421875
1783168984459367700,5.72036767578125,-0.9863128662109375,-0.033966064453125,-0.001678466796875
1783168984469347800,5.730347900390625,-0.987823486328125,-0.0346221923828125,-0.0021514892578125
1783168984479295700,5.740295654296875,-0.9867401123046875,-0.033477783203125,-0.0018157958984375
1783168984489245000,5.750244873046875,-0.9859161376953125,-0.0339508056640625,-0.0026092529296875
1783168984499193900,5.76019384765625,-0.987091064453125,-0.0333099365234375,-0.0026092529296875
1783168984509173000,5.770173095703125,-0.9869537353515625,-0.03338623046875,-0.0016021728515625
1783168984519122000,5.780121826171875,-0.9865875244140625,-0.033416748046875,-0.0020904541015625
1783168984529070800,5.79007080078125,-0.9864349365234375,-0.034210205078125,-0.001556396484375
1783168984539018800,5.800018798828125,-0.986907958984375,-0.033294677734375,-0.0015869140625
1783168984548998000,5.809997802734375,-0.9868316650390625,-0.034088134765625,-0.0018463134765625
1783168984558946800,5.81994677734375,-0.9875335693359375,-0.03472900390625,-0.0016326904296875
1783168984568895700,5.829895751953125,-0.986968994140625,-0.0344696044921875,-0.0022125244140625
1783168984578875000,5.839875,-0.986358642578125,-0.0335540771484375,-0.00244140625
1783168984588823800,5.84982373046875,-0.986785888671875,-0.033782958984375,-0.0023651123046875
1783168984598772700,5.859772705078125,-0.9872894287109375,-0.0328369140625,-0.0025634765625
1783168984608721000,5.869720947265625,-0.986572265625,-0.0333709716796875,-0.002166748046875
1783168984618700800,5.87970068359375,-0.98651123046875,-0.03338623046875,-0.0023040771484375
1783168984628648700,5.889648681640625,-0.9871978759765625,-0.03411865234375,-0.002227783203125
1783168984638597600,5.89959765625,-0.987762451171875,-0.0341033935546875,-0.0020294189453125
1783168984648546800,5.909546875,-0.9869384765625,-0.0330657958984375,-0.00152587890625
1783168984658526000,5.91952587890625,-0.9874725341796875,-0.0340728759765625,-0.0032196044921875
1783168984668475000,5.929474853515625,-0.98736572265625,-0.0342559814453125,-0.0019378662109375
1783168984678423800,5.939423828125,-0.986541748046875,-0.0337677001953125,-0.0024566650390625
1783168984688372000,5.9493720703125,-0.9868927001953125,-0.03369140625,-0.00274658203125
1783168984698351900,5.959351806640625,-0.9857940673828125,-0.033905029296875,-0.001708984375
1783168984708299800,5.9692998046875,-0.9873504638671875,-0.0344696044921875,-0.0021209716796875
1783168984718249000,5.9792490234375,-0.9874267578125,-0.03326416015625,-0.002105712890625
1783168984728227800,5.989227783203125,-0.986846923828125,-0.0340118408203125,-0.001922607421875
1783168984738176800,5.9991767578125,-0.9868621826171875,-0.033782958984375,-0.0024566650390625
1783168984748125700,6.009125732421875,-0.987213134765625,-0.03448486328125,-0.0024871826171875
1783168984758073900,6.019073974609375,-0.9867401123046875,-0.0338592529296875,-0.0025482177734375
1783168984768076300,6.029076171875,-0.98663330078125,-0.032806396484375,-0.0025482177734375
1783168984778024200,6.039024169921875,-0.986785888671875,-0.0337371826171875,-0.0015411376953125
1783168984787973000,6.04897314453125,-0.9869537353515625,-0.0335235595703125,-0.0026702880859375
1783168984797922000,6.058922119140625,-0.986175537109375,-0.033721923828125,-0.0017852783203125
1783168984807901200,6.068901123046875,-0.9876861572265625,-0.0340118408203125,-0.001953125
1783168984817850000,6.07885009765625,-0.987213134765625,-0.03369140625,-0.002044677734375
1783168984827799000,6.088799072265625,-0.9874267578125,-0.0331878662109375,-0.0020751953125
1783168984837778200,6.098778076171875,-0.9869842529296875,-0.0333099365234375,-0.0020904541015625
1783168984847727400,6.108727294921875,-0.9873504638671875,-0.0341339111328125,-0.001434326171875
1783168984857675300,6.11867529296875,-0.9866790771484375,-0.0335693359375,-0.0020599365234375
1783168984867624200,6.128624267578125,-0.9871368408203125,-0.0331878662109375,-0.003204345703125
1783168984877603300,6.138603271484375,-0.986541748046875,-0.0339508056640625,-0.002166748046875
1783168984887552300,6.14855224609375,-0.987030029296875,-0.0337371826171875,-0.0018310546875
1783168984897501200,6.158501220703125,-0.98651123046875,-0.0344390869140625,-0.00262451171875
1783168984907449300,6.168449462890625,-0.986236572265625,-0.03387451171875,-0.0026702880859375
1783168984917429200,6.17842919921875,-0.9872283935546875,-0.0339202880859375,-0.0020599365234375
1783168984927377200,6.188377197265625,-0.98675537109375,-0.032958984375,-0.001739501953125
1783168984937326000,6.198326171875,-0.9861297607421875,-0.033294677734375,-0.0021514892578125
1783168984947275300,6.208275146484375,-0.9870758056640625,-0.0340423583984375,-0.0025177001953125
1783168984957254100,6.218254150390625,-0.9868316650390625,-0.0343780517578125,-0.0012969970703125
1783168984967203000,6.228203125,-0.9863739013671875,-0.0340728759765625,-0.0019378662109375
1783168984977152000,6.238152099609375,-0.986480712890625,-0.0326995849609375,-0.0016326904296875
1783168984987131100,6.248131103515625,-0.9867401123046875,-0.033233642578125,-0.0015869140625
1783168984997080000,6.258080078125,-0.9861602783203125,-0.034210205078125,-0.0013427734375
1783168985007028200,6.2680283203125,-0.985931396484375,-0.0349578857421875,-0.0011444091796875
1783168985016977400,6.277977294921875,-0.9860076904296875,-0.0340576171875,-0.0018157958984375
1783168985026956000,6.2879560546875,-0.9851531982421875,-0.03387451171875,-0.0023193359375
1783168985036905200,6.2979052734375,-0.9869232177734375,-0.0334625244140625,-0.002166748046875
1783168985046854100,6.307854248046875,-0.987548828125,-0.0332489013671875,-0.0015411376953125
1783168985056802300,6.31780224609375,-0.9868621826171875,-0.0335235595703125,-0.0014495849609375
1783168985066782200,6.3277822265625,-0.98675537109375,-0.0333251953125,-0.00164794921875
1783168985076730400,6.33773046875,-0.9868927001953125,-0.0341796875,-0.0013427734375
1783168985086679300,6.34767919921875,-0.987213134765625,-0.0343475341796875,-0.0022125244140625
1783168985096658200,6.357658203125,-0.98724365234375,-0.033660888671875,-0.0023956298828125
1783168985106607000,6.367607177734375,-0.9875640869140625,-0.0335235595703125,-0.002288818359375
1783168985116556300,6.377556396484375,-0.9868621826171875,-0.03387451171875,-0.0022430419921875
1783168985126505200,6.387505126953125,-0.9871826171875,-0.0331268310546875,-0.0018310546875
1783168985136484000,6.397484130859375,-0.9869842529296875,-0.0339813232421875,-0.0026092529296875
1783168985146433000,6.40743310546875,-0.9869537353515625,-0.034271240234375,-0.002227783203125
1783168985156381200,6.417381103515625,-0.9858551025390625,-0.0339813232421875,-0.0027313232421875
1783168985166330000,6.427330078125,-0.98699951171875,-0.03424072265625,-0.00274658203125
1783168985176309000,6.43730908203125,-0.9875946044921875,-0.0338287353515625,-0.0013427734375
1783168985186258400,6.447258544921875,-0.9864959716796875,-0.033538818359375,-0.0016326904296875
1783168985196207400,6.457207275390625,-0.9874114990234375,-0.03466796875,-0.00250244140625
1783168985206155300,6.4671552734375,-0.9861602783203125,-0.0342864990234375,-0.0024261474609375
1783168985216135200,6.47713525390625,-0.987274169921875,-0.03369140625,-0.0024261474609375
1783168985226083300,6.487083251953125,-0.9871368408203125,-0.034088134765625,-0.00225830078125
1783168985236032300,6.4970322265625,-0.985931396484375,-0.0341033935546875,-0.0021514892578125
1783168985246011100,6.50701123046875,-0.9866180419921875,-0.0340576171875,-0.0018463134765625
1783168985255960300,6.516960205078125,-0.986663818359375,-0.033660888671875,-0.0025177001953125
1783168985265909200,6.5269091796875,-0.9867095947265625,-0.033721923828125,-0.00146484375
1783168985275858200,6.536858154296875,-0.985931396484375,-0.0339508056640625,-0.0015869140625
1783168985285837000,6.546837158203125,-0.986663818359375,-0.03326416015625,-0.002044677734375
1783168985295786200,6.5567861328125,-0.98590087890625,-0.033782958984375,-0.0023040771484375
1783168985305734100,6.566734130859375,-0.9865875244140625,-0.0333099365234375,-0.00225830078125
1783168985315683000,6.57668310546875,-0.9866485595703125,-0.0339813232421875,-0.0029296875
1783168985325662200,6.586662109375,-0.9865570068359375,-0.0337677001953125,-0.00238037109375
1783168985335611100,6.596611083984375,-0.986968994140625,-0.03338623046875,-0.0022430419921875
1783168985345560300,6.606560302734375,-0.9863128662109375,-0.0329132080078125,-0.002227783203125
1783168985355539200,6.616539306640625,-0.9866943359375,-0.033599853515625,-0.001708984375
1783168985365488400,6.62648828125,-0.9869232177734375,-0.0335235595703125,-0.0022430419921875
1783168985375436300,6.636436279296875,-0.9861602783203125,-0.0343475341796875,-0.0017242431640625
1783168985385385200,6.64638525390625,-0.9869842529296875,-0.033721923828125,-0.0018463134765625
1783168985395364400,6.6563642578125,-0.9874725341796875,-0.032318115234375,-0.00201416015625
1783168985405313300,6.666313232421875,-0.987091064453125,-0.033599853515625,-0.00225830078125
1783168985415262200,6.67626220703125,-0.9865570068359375,-0.0335235595703125,-0.0020294189453125
1783168985425211100,6.686211181640625,-0.9869232177734375,-0.033416748046875,-0.0013580322265625
1783168985435190300,6.696190185546875,-0.98699951171875,-0.0332183837890625,-0.0007171630859375
1783168985445139200,6.70613916015625,-0.9865875244140625,-0.0338897705078125,-0.0023040771484375
1783168985455087000,6.716087158203125,-0.986053466796875,-0.034088134765625,-0.0027008056640625
1783168985465036000,6.7260361328125,-0.985870361328125,-0.0331878662109375,-0.0027618408203125
1783168985475015200,6.73601513671875,-0.9863433837890625,-0.033050537109375,-0.001861572265625
1783168985484964000,6.745964111328125,-0.9870452880859375,-0.0325927734375,-0.00238037109375
1783168985494913000,6.7559130859375,-0.98699951171875,-0.03302001953125,-0.0011444091796875
1783168985504892200,6.76589208984375,-0.9861602783203125,-0.03363037109375,-0.0023040771484375
1783168985514841300,6.77584130859375,-0.9870758056640625,-0.0334014892578125,-0.0019683837890625
1783168985524790300,6.785790283203125,-0.987091064453125,-0.033843994140625,-0.001983642578125
1783168985534738200,6.79573828125,-0.9870758056640625,-0.0342254638671875,-0.0017547607421875
1783168985544718300,6.80571826171875,-0.986663818359375,-0.0339508056640625,-0.0018157958984375
1783168985554666200,6.815666259765625,-0.9864044189453125,-0.034027099609375,-0.0022735595703125
1783168985564615200,6.825615234375,-0.986297607421875,-0.0340118408203125,-0.0021820068359375
1783168985574564000,6.835564208984375,-0.9861907958984375,-0.0339202880859375,-0.001983642578125
1783168985584543200,6.845543212890625,-0.98602294921875,-0.0340423583984375,-0.0020751953125
1783168985594492200,6.8554921875,-0.987091064453125,-0.0329437255859375,-0.001251220703125
1783168985604440300,6.8654404296875,-0.9878082275390625,-0.0338134765625,-0.00189208984375
1783168985614420200,6.875420166015625,-0.9866485595703125,-0.032928466796875,-0.002197265625
1783168985624368000,6.8853681640625,-0.98681640625,-0.0341796875,-0.0019683837890625
1783168985634317000,6.895317138671875,-0.98748779296875,-0.0340576171875,-0.0016326904296875
1783168985644266200,6.905266357421875,-0.9870452880859375,-0.0334014892578125,-0.00213623046875
1783168985654245000,6.9152451171875,-0.986114501953125,-0.0337371826171875,-0.0019989013671875
1783168985664194000,6.925194091796875,-0.986297607421875,-0.033843994140625,-0.0014495849609375
1783168985674143200,6.935143310546875,-0.986785888671875,-0.0336761474609375,-0.002471923828125
1783168985684091100,6.945091064453125,-0.986297607421875,-0.0330963134765625,-0.002227783203125
1783168985694071300,6.9550712890625,-0.9869537353515625,-0.0341949462890625,-0.0013885498046875
1783168985704019200,6.965019287109375,-0.9871978759765625,-0.0360870361328125,0.0009918212890625
1783168985713968400,6.974968505859375,-0.9875335693359375,-0.03546142578125,0.000518798828125
1783168985723917300,6.984917236328125,-0.987457275390625,-0.03497314453125,-0.0016326904296875
1783168985733896200,6.994896240234375,-0.9866485595703125,-0.0334014892578125,-0.0022125244140625
1783168985743845000,7.00484521484375,-0.9872894287109375,-0.0332489013671875,-0.004638671875
1783168985753793300,7.014793212890625,-0.98681640625,-0.0332489013671875,-0.0048065185546875
1783168985763820800,7.02482080078125,-0.9874114990234375,-0.033599853515625,-0.0039520263671875
1783168985773769000,7.03476904296875,-0.9873199462890625,-0.0340118408203125,-0.002899169921875
1783168985783718000,7.0447177734375,-0.987152099609375,-0.0345458984375,-0.001129150390625
1783168985793666800,7.054666748046875,-0.9866180419921875,-0.03387451171875,-0.0018157958984375
1783168985803646000,7.06464599609375,-0.986572265625,-0.032958984375,-0.00146484375
1783168985813595000,7.074594970703125,-0.9870452880859375,-0.0325775146484375,-0.00244140625
1783168985823543800,7.084543701171875,-0.987548828125,-0.03125,-0.0036468505859375
1783168985833491700,7.09449169921875,-0.9858856201171875,-0.032073974609375,-0.0035858154296875
1783168985843472000,7.104471923828125,-0.9855804443359375,-0.0329437255859375,-0.002685546875
1783168985853419800,7.114419677734375,-0.9864959716796875,-0.033447265625,-0.0009002685546875
1783168985863368700,7.12436865234375,-0.98785400390625,-0.032806396484375,0.0008087158203125
1783168985873347800,7.134347900390625,-0.987640380859375,-0.0333709716796875,-0.001220703125
1783168985883297000,7.144297119140625,-0.987640380859375,-0.033355712890625,-0.0023040771484375
1783168985893246000,7.154245849609375,-0.9869384765625,-0.03326416015625,-0.00384521484375
1783168985903193900,7.16419384765625,-0.9869384765625,-0.03265380859375,-0.00433349609375
1783168985913174000,7.174174072265625,-0.9867706298828125,-0.0340423583984375,-0.0053863525390625
1783168985923122000,7.184121826171875,-0.9871368408203125,-0.0341644287109375,-0.0053558349609375
1783168985933070800,7.19407080078125,-0.986297607421875,-0.0321807861328125,-0.0100860595703125
1783168985943019800,7.204019775390625,-0.9854888916015625,-0.03375244140625,-0.010345458984375
1783168985952999000,7.2139990234375,-0.9882049560546875,-0.03485107421875,-0.0025177001953125
1783168985962947800,7.22394775390625,-0.9873504638671875,-0.036956787109375,0.0048675537109375
1783168985972896800,7.233896728515625,-0.9855804443359375,-0.039215087890625,0.008453369140625
1783168985982845000,7.243844970703125,-0.986541748046875,-0.0398712158203125,0.009857177734375
1783168985992824800,7.253824951171875,-0.9879150390625,-0.0364532470703125,0.0067138671875
1783168986002772700,7.263772705078125,-0.98779296875,-0.0331268310546875,-0.00213623046875
1783168986012721700,7.2737216796875,-0.986724853515625,-0.0304107666015625,-0.00885009765625
1783168986022700800,7.28370068359375,-0.98712158203125,-0.0283355712890625,-0.0140380859375
1783168986032649700,7.293649658203125,-0.9865570068359375,-0.028411865234375,-0.0142364501953125
1783168986042599000,7.303598876953125,-0.9874725341796875,-0.03155517578125,-0.007049560546875
1783168986052547000,7.313547119140625,-0.9863433837890625,-0.0352020263671875,0.002166748046875
1783168986062527000,7.32352685546875,-0.985198974609375,-0.03912353515625,0.012359619140625
1783168986072475000,7.333474853515625,-0.98687744140625,-0.0417938232421875,0.020751953125
1783168986082423800,7.343423828125,-0.9872283935546875,-0.0395965576171875,0.0182342529296875
1783168986092373000,7.353373046875,-0.9863739013671875,-0.037109375,0.010711669921875
1783168986102352000,7.363351806640625,-0.9874267578125,-0.0340118408203125,0.0005035400390625
1783168986112300800,7.37330078125,-0.9878387451171875,-0.030303955078125,-0.0125579833984375
1783168986122249700,7.383249755859375,-0.9863433837890625,-0.030242919921875,-0.019287109375
1783168986132228900,7.393228759765625,-0.9866943359375,-0.033233642578125,-0.0165252685546875
1783168986142177800,7.403177734375,-0.9873504638671875,-0.0357513427734375,-0.008636474609375
1783168986152126000,7.4131259765625,-0.9871368408203125,-0.0362701416015625,-0.00274658203125
1783168986162075000,7.423074951171875,-0.9872894287109375,-0.0355377197265625,0.00238037109375
1783168986172053800,7.4330537109375,-0.98748779296875,-0.03228759765625,0.0047149658203125
1783168986182002700,7.443002685546875,-0.98712158203125,-0.0324249267578125,0.0041046142578125
1783168986191952000,7.452951904296875,-0.98760986328125,-0.030792236328125,-0.0009002685546875
1783168986201901000,7.462901123046875,-0.9855194091796875,-0.0298004150390625,-0.00604248046875
1783168986211880000,7.4728798828125,-0.987091064453125,-0.031219482421875,-0.003204345703125
1783168986221828000,7.482828125,-0.987884521484375,-0.0318450927734375,-0.0025177001953125
1783168986231777000,7.492777099609375,-0.9873199462890625,-0.0308380126953125,-0.00390625
1783168986241726000,7.502725830078125,-0.9856414794921875,-0.0290985107421875,-0.009735107421875
1783168986251704800,7.512704833984375,-0.9846038818359375,-0.027435302734375,-0.0112762451171875
1783168986261654000,7.522654052734375,-0.986480712890625,-0.0286407470703125,-0.0077972412109375
1783168986271603000,7.53260302734375,-0.9881439208984375,-0.0295257568359375,-0.0026397705078125
1783168986281581800,7.542581787109375,-0.9866180419921875,-0.0334930419921875,0.002960205078125
1783168986291530800,7.55253076171875,-0.9864501953125,-0.0354461669921875,0.00628662109375
1783168986301479000,7.56247900390625,-0.9869537353515625,-0.0363006591796875,0.0046234130859375
1783168986311427800,7.572427734375,-0.98687744140625,-0.0364532470703125,0.0013275146484375
1783168986321406700,7.58240673828125,-0.986785888671875,-0.03668212890625,-0.000274658203125
1783168986331356000,7.59235595703125,-0.9870452880859375,-0.035400390625,-0.0046234130859375
1783168986341304800,7.602304931640625,-0.9867706298828125,-0.0352935791015625,-0.0072174072265625
1783168986351253800,7.612253662109375,-0.98760986328125,-0.035308837890625,-0.0076141357421875
1783168986361232600,7.622232666015625,-0.9868316650390625,-0.0344085693359375,-0.00762939453125
1783168986371182000,7.63218212890625,-0.98712158203125,-0.0354766845703125,-0.003936767578125
1783168986381130000,7.6421298828125,-0.9869842529296875,-0.0346832275390625,-0.000274658203125
1783168986391108900,7.65210888671875,-0.986480712890625,-0.03424072265625,0.0024871826171875
1783168986401058000,7.66205810546875,-0.98651123046875,-0.032989501953125,0.0030975341796875
1783168986411007000,7.672007080078125,-0.9871673583984375,-0.0322723388671875,0.0024261474609375
1783168986420956000,7.681955810546875,-0.9861602783203125,-0.0319671630859375,0.0000457763671875
1783168986430934800,7.691934814453125,-0.987335205078125,-0.0326385498046875,-0.0025634765625
1783168986440884000,7.701884033203125,-0.9869842529296875,-0.033416748046875,-0.0058441162109375
1783168986450832000,7.711831787109375,-0.987152099609375,-0.0323944091796875,-0.00653076171875
1783168986460780800,7.72178076171875,-0.986328125,-0.0324859619140625,-0.0067901611328125
1783168986470760000,7.731760009765625,-0.9868621826171875,-0.03173828125,-0.0062103271484375
1783168986480708900,7.741708984375,-0.9866485595703125,-0.0320281982421875,-0.0033721923828125
1783168986490657800,7.75165771484375,-0.9868927001953125,-0.03204345703125,-0.0003204345703125
1783168986500606700,7.761606689453125,-0.9870758056640625,-0.032562255859375,0.0024261474609375
1783168986510585900,7.7715859375,-0.9865875244140625,-0.0353851318359375,0.002716064453125
1783168986520534800,7.78153466796875,-0.987518310546875,-0.037017822265625,0.0006866455078125
1783168986530482700,7.791482666015625,-0.9860992431640625,-0.0363922119140625,0.0002593994140625
1783168986540462800,7.801462890625,-0.985931396484375,-0.036834716796875,-0.00274658203125
1783168986550410800,7.81141064453125,-0.987548828125,-0.035919189453125,-0.00494384765625
1783168986560360000,7.82135986328125,-0.9866790771484375,-0.033599853515625,-0.0052642822265625
1783168986570308900,7.831308837890625,-0.986297607421875,-0.0330047607421875,-0.00506591796875
1783168986580288000,7.8412880859375,-0.986175537109375,-0.03289794921875,-0.0023193359375
1783168986590237000,7.85123681640625,-0.986419677734375,-0.032379150390625,-0.000396728515625
1783168986600184800,7.861184814453125,-0.9869842529296875,-0.0321044921875,0.00054931640625
1783168986610133800,7.8711337890625,-0.987030029296875,-0.032073974609375,-0.0006561279296875
1783168986620113000,7.88111279296875,-0.9872283935546875,-0.0309906005859375,-0.00286865234375
1783168986630061800,7.891061767578125,-0.98681640625,-0.0304718017578125,-0.004058837890625
1783168986640010800,7.9010107421875,-0.9870758056640625,-0.0307464599609375,-0.0047607421875
1783168986649990000,7.910989990234375,-0.986541748046875,-0.030548095703125,-0.0055389404296875
1783168986659938800,7.920938720703125,-0.9871978759765625,-0.031005859375,-0.0025787353515625
1783168986669887700,7.9308876953125,-0.9864501953125,-0.032196044921875,-0.0005035400390625
1783168986679836000,7.9408359375,-0.9860687255859375,-0.03326416015625,-0.0002288818359375
1783168986689815800,7.95081591796875,-0.986602783203125,-0.0335235595703125,-0.0004425048828125
1783168986699763700,7.960763671875,-0.986602783203125,-0.033721923828125,-0.002227783203125
1783168986709713000,7.970712890625,-0.9875030517578125,-0.0331878662109375,-0.0035858154296875
1783168986719661800,7.980661865234375,-0.9866943359375,-0.03326416015625,-0.00750732421875
1783168986729641000,7.990640869140625,-0.9871063232421875,-0.0335235595703125,-0.0092620849609375
1783168986739590000,8.00058984375,-0.9872283935546875,-0.0341339111328125,-0.0102386474609375
1783168986749538000,8.0105380859375,-0.987335205078125,-0.03533935546875,-0.010284423828125
1783168986759487000,8.020487060546875,-0.986724853515625,-0.0364227294921875,-0.0079498291015625
1783168986769464800,8.03046484375,-0.98651123046875,-0.038604736328125,-0.002227783203125
1783168986779413800,8.040413818359376,-0.9869232177734375,-0.0400848388671875,0.00408935546875
1783168986789362700,8.05036279296875,-0.986328125,-0.041168212890625,0.0108184814453125
1783168986799341600,8.060341552734375,-0.9874725341796875,-0.04034423828125,0.0133819580078125
1783168986809290800,8.070290771484375,-0.98681640625,-0.0393218994140625,0.012786865234375
1783168986819240000,8.080239990234375,-0.987274169921875,-0.036163330078125,0.006805419921875
1783168986829187600,8.0901875,-0.98651123046875,-0.0332794189453125,-0.0024871826171875
1783168986839167700,8.100167724609374,-0.9864044189453125,-0.031005859375,-0.0100555419921875
1783168986849116000,8.110115966796876,-0.9871978759765625,-0.029388427734375,-0.012420654296875
1783168986859064800,8.12006494140625,-0.987060546875,-0.0291290283203125,-0.011505126953125
1783168986869013800,8.130013671875,-0.9863128662109375,-0.0294189453125,-0.0051727294921875
1783168986878993000,8.139992919921875,-0.9864654541015625,-0.03253173828125,0.0005950927734375
1783168986888941800,8.14994189453125,-0.98651123046875,-0.0329437255859375,0.0066986083984375
1783168986898889700,8.1598896484375,-0.9869384765625,-0.0335235595703125,0.0091705322265625
1783168986908869600,8.16986962890625,-0.986663818359375,-0.032501220703125,0.0074005126953125
1783168986918817800,8.17981787109375,-0.986572265625,-0.031768798828125,0.0042572021484375
1783168986928766700,8.1897666015625,-0.9878082275390625,-0.0313568115234375,-0.0026092529296875
1783168986938715600,8.199715576171876,-0.986572265625,-0.0316009521484375,-0.0089569091796875
1783168986948694800,8.20969482421875,-0.9861602783203125,-0.0324554443359375,-0.0128936767578125
1783168986958643700,8.219643798828125,-0.986083984375,-0.033203125,-0.012939453125
1783168986968592600,8.229592529296875,-0.9871826171875,-0.0343017578125,-0.00970458984375
1783168986978540500,8.23954052734375,-0.9869232177734375,-0.03460693359375,-0.0034027099609375
1783168986988521000,8.24952099609375,-0.987152099609375,-0.0354156494140625,0.0018768310546875
1783168986998468600,8.259468505859376,-0.9864349365234375,-0.036346435546875,0.00494384765625
1783168987008417800,8.269417724609376,-0.9855804443359375,-0.0369110107421875,0.003814697265625
1783168987018366700,8.27936669921875,-0.9866180419921875,-0.0360107421875,0.0002593994140625
1783168987028345900,8.289345947265625,-0.98663330078125,-0.0352935791015625,-0.003082275390625
1783168987038294800,8.299294677734375,-0.9866180419921875,-0.0341339111328125,-0.0080413818359375
1783168987048243700,8.30924365234375,-0.9871673583984375,-0.034393310546875,-0.0085296630859375
1783168987058222800,8.319222900390624,-0.9875030517578125,-0.03448486328125,-0.005523681640625
1783168987068170800,8.329170654296876,-0.9873046875,-0.0341644287109375,-0.0025634765625
1783168987078119700,8.33911962890625,-0.987518310546875,-0.033477783203125,0.0026397705078125
1783168987088068600,8.349068603515626,-0.98681640625,-0.033782958984375,0.0050811767578125
1783168987098047700,8.3590478515625,-0.985931396484375,-0.033233642578125,0.006103515625
1783168987107996700,8.36899658203125,-0.9874267578125,-0.032867431640625,0.005126953125
1783168987117945600,8.378945556640625,-0.9867401123046875,-0.031524658203125,0.0027618408203125
1783168987127893800,8.388893798828125,-0.986328125,-0.0306854248046875,-0.0022125244140625
1783168987137873700,8.398873779296874,-0.985626220703125,-0.0306243896484375,-0.0054473876953125
1783168987147821600,8.408821533203126,-0.9872283935546875,-0.03167724609375,-0.0064849853515625
1783168987157770800,8.418770751953126,-0.986968994140625,-0.033233642578125,-0.0078582763671875
1783168987167749600,8.42874951171875,-0.986541748046875,-0.0347747802734375,-0.0072174072265625
1783168987177698800,8.43869873046875,-0.987945556640625,-0.03387451171875,-0.005889892578125
1783168987187647700,8.448647705078125,-0.98565673828125,-0.0341644287109375,-0.0050201416015625
1783168987197596700,8.4585966796875,-0.9864044189453125,-0.03643798828125,0.00177001953125
1783168987207575800,8.468575927734374,-0.9870452880859375,-0.035675048828125,0.0027618408203125
1783168987217524700,8.478524658203124,-0.9865264892578125,-0.034698486328125,0.0017242431640625
1783168987227473000,8.488472900390626,-0.9872589111328125,-0.0356292724609375,0.0006256103515625
1783168987237421800,8.498421875,-0.986968994140625,-0.0361480712890625,-0.001861572265625
1783168987247400700,8.508400634765625,-0.987152099609375,-0.0368804931640625,-0.004364013671875
1783168987257349600,8.518349609375,-0.986663818359375,-0.0359039306640625,-0.0090789794921875
1783168987267298800,8.528298828125,-0.986907958984375,-0.0338134765625,-0.012664794921875
1783168987277246700,8.538246826171875,-0.9869842529296875,-0.0314788818359375,-0.0146484375
1783168987287226600,8.5482265625,-0.9873199462890625,-0.02935791015625,-0.01409912109375
1783168987297174800,8.5581748046875,-0.9859619140625,-0.0278778076171875,-0.011444091796875
1783168987307123700,8.568123779296876,-0.9875030517578125,-0.0272216796875,-0.00732421875
1783168987317102600,8.5781025390625,-0.9879913330078125,-0.027801513671875,-0.0064544677734375
1783168987327051500,8.588051513671875,-0.9863128662109375,-0.0272674560546875,-0.00592041015625
1783168987337001000,8.5980009765625,-0.9867706298828125,-0.02801513671875,-0.00457763671875
1783168987346950000,8.607949951171875,-0.9863128662109375,-0.0287933349609375,-0.0047454833984375
1783168987356928800,8.6179287109375,-0.98602294921875,-0.0301055908203125,-0.0022430419921875
1783168987366877700,8.627877685546874,-0.9865570068359375,-0.0314788818359375,0.0014495849609375
1783168987376825900,8.637825927734376,-0.986083984375,-0.0331878662109375,0.004241943359375
1783168987386774800,8.64777490234375,-0.9866790771484375,-0.0344390869140625,0.00762939453125
1783168987396753700,8.657753662109375,-0.9859466552734375,-0.03631591796875,0.010772705078125
1783168987406702800,8.667702880859375,-0.98638916015625,-0.0378265380859375,0.014434814453125
1783168987416651800,8.67765185546875,-0.9867401123046875,-0.0400543212890625,0.0142974853515625
1783168987426630700,8.687630615234376,-0.986724853515625,-0.0403289794921875,0.011627197265625
1783168987436579600,8.69757958984375,-0.986907958984375,-0.039794921875,0.00592041015625
1783168987446527700,8.70752783203125,-0.9865264892578125,-0.0387420654296875,-0.001495361328125
1783168987456476700,8.7174765625,-0.9864349365234375,-0.037506103515625,-0.0069732666015625
1783168987466455800,8.727455810546875,-0.9874114990234375,-0.03851318359375,-0.009765625
1783168987476404700,8.73740478515625,-0.9868927001953125,-0.0389556884765625,-0.0102996826171875
1783168987486353700,8.747353759765625,-0.98663330078125,-0.038360595703125,-0.0055389404296875
1783168987496302800,8.757302734375,-0.986572265625,-0.038848876953125,-0.0009765625
1783168987506281700,8.76728173828125,-0.987213134765625,-0.0382232666015625,0.0027008056640625
1783168987516231000,8.77723095703125,-0.987518310546875,-0.03790283203125,0.003631591796875
1783168987526178800,8.7871787109375,-0.9875946044921875,-0.0356903076171875,0.0009307861328125
1783168987536127700,8.797127685546876,-0.9879302978515625,-0.0319366455078125,-0.004547119140625
1783168987546107000,8.80710693359375,-0.9878997802734375,-0.0304412841796875,-0.0089874267578125
1783168987556055800,8.817055908203125,-0.986297607421875,-0.0276947021484375,-0.0139007568359375
1783168987566004700,8.827004638671875,-0.986419677734375,-0.0264129638671875,-0.0151519775390625
1783168987575983900,8.83698388671875,-0.9872283935546875,-0.027008056640625,-0.0128936767578125
1783168987585932800,8.846932861328124,-0.986846923828125,-0.02593994140625,-0.0081787109375
1783168987595880700,8.856880615234376,-0.9867706298828125,-0.0275115966796875,-0.0021209716796875
1783168987605829600,8.86682958984375,-0.987335205078125,-0.0289306640625,0.0027313232421875
1783168987615808800,8.876808837890625,-0.9881591796875,-0.0298004150390625,0.006622314453125
1783168987625757700,8.8867578125,-0.986572265625,-0.0315093994140625,0.0081634521484375
1783168987635706600,8.89670654296875,-0.987091064453125,-0.0338287353515625,0.008026123046875
1783168987645655600,8.906655517578125,-0.9866943359375,-0.0338897705078125,0.005645751953125
1783168987655634700,8.916634765625,-0.986572265625,-0.03558349609375,0.0012664794921875
1783168987665583900,8.926583984375,-0.9870452880859375,-0.036712646484375,-0.0015411376953125
1783168987675531500,8.936531494140626,-0.985870361328125,-0.0371856689453125,-0.0029144287109375
1783168987685512000,8.946511962890625,-0.9865875244140625,-0.0386505126953125,-0.0027923583984375
1783168987695459800,8.9564599609375,-0.9865875244140625,-0.038909912109375,-0.0012664794921875
1783168987705408800,8.96640869140625,-0.98681640625,-0.0380859375,-0.0005340576171875
1783168987715357700,8.976357666015625,-0.986053466796875,-0.0382843017578125,-0.000213623046875
1783168987725336800,8.9863369140625,-0.987823486328125,-0.03851318359375,0
1783168987735285800,8.99628564453125,-0.9752044677734375,-0.036773681640625,-0.00408935546875
1783168987745233700,9.006233642578126,-1.0000457763671875,-0.033966064453125,0.0011444091796875
1783168987755182800,9.016182861328126,-0.9899444580078125,-0.0378265380859375,0.00750732421875
1783168987765205000,9.026205078125,-0.98162841796875,-0.03741455078125,-0.0060272216796875
1783168987775154000,9.03615380859375,-0.989227294921875,-0.0340423583984375,-0.0118255615234375
1783168987785103000,9.04610302734375,-0.9844818115234375,-0.0294036865234375,-0.0159149169921875
1783168987795052000,9.056052001953125,-0.989990234375,-0.0264434814453125,-0.0174560546875
1783168987805031200,9.06603125,-0.9854888916015625,-0.027618408203125,-0.0139617919921875
1783168987814980000,9.07597998046875,-0.9860076904296875,-0.0268096923828125,-0.0059967041015625
1783168987824928000,9.085927978515626,-0.9849395751953125,-0.0328521728515625,0.003753662109375
1783168987834908000,9.095907958984375,-0.991058349609375,-0.03533935546875,0.009918212890625
1783168987844856000,9.10585595703125,-0.9828643798828125,-0.03582763671875,0.010894775390625
1783168987854805000,9.115804931640625,-0.988922119140625,-0.03802490234375,0.010711669921875
1783168987864754000,9.12575390625,-0.98699951171875,-0.03594970703125,0.005859375
1783168987874733000,9.135733154296876,-0.9860076904296875,-0.033660888671875,-0.001312255859375
1783168987884682000,9.145681884765626,-0.986968994140625,-0.033050537109375,-0.0048980712890625
1783168987894631000,9.155630859375,-0.9860382080078125,-0.0326385498046875,-0.00634765625
1783168987904578800,9.165578857421876,-0.9872283935546875,-0.0333099365234375,-0.0053863525390625
1783168987914558000,9.175557861328125,-0.9864654541015625,-0.034759521484375,-0.000732421875
1783168987924507000,9.1855068359375,-0.984588623046875,-0.036224365234375,0.0034027099609375
1783168987934456000,9.1954560546875,-0.988983154296875,-0.0357666015625,0.0064697265625
1783168987944435000,9.20543505859375,-0.9872283935546875,-0.033660888671875,0.0050201416015625
1783168987954384100,9.215384033203126,-0.9859619140625,-0.0331573486328125,0.0023193359375
1783168987964333000,9.2253330078125,-0.98681640625,-0.0315704345703125,-0.002716064453125
1783168987974281000,9.235281005859376,-0.9880218505859375,-0.0298004150390625,-0.0083160400390625
1783168987984261000,9.24526123046875,-0.987762451171875,-0.0299530029296875,-0.01275634765625
1783168987994209000,9.255208984375,-0.9866485595703125,-0.0298614501953125,-0.016845703125
1783168988004158000,9.265157958984375,-0.9864501953125,-0.03057861328125,-0.0145263671875
1783168988014107000,9.27510693359375,-0.9886322021484375,-0.031951904296875,-0.011627197265625
1783168988024086000,9.2850859375,-0.9860382080078125,-0.0312957763671875,-0.007965087890625
1783168988034035000,9.295034912109376,-0.9865570068359375,-0.03094482421875,-0.0047760009765625
1783168988043984000,9.30498388671875,-0.986907958984375,-0.03009033203125,-0.0035858154296875
1783168988053932000,9.31493212890625,-0.98626708984375,-0.0310821533203125,-0.005035400390625
1783168988063912000,9.324911865234375,-0.9852294921875,-0.0319366455078125,-0.007904052734375
1783168988073859800,9.33485986328125,-0.9871978759765625,-0.0331573486328125,-0.0077362060546875
1783168988083809000,9.34480908203125,-0.986541748046875,-0.035003662109375,-0.0042266845703125
1783168988093788000,9.354787841796876,-0.986053466796875,-0.03607177734375,-0.00140380859375
1783168988103736800,9.36473681640625,-0.98626708984375,-0.037322998046875,0.00335693359375
1783168988113686000,9.37468603515625,-0.986541748046875,-0.037994384765625,0.006622314453125
1783168988123634200,9.38463427734375,-0.98602294921875,-0.038055419921875,0.009368896484375
1783168988133614000,9.394614013671875,-0.9863739013671875,-0.039459228515625,0.0158233642578125
1783168988143562000,9.40456201171875,-0.9868011474609375,-0.0383758544921875,0.015380859375
1783168988153511200,9.41451123046875,-0.987396240234375,-0.036895751953125,0.008819580078125
1783168988163460000,9.424460205078125,-0.986083984375,-0.035980224609375,0.001861572265625
1783168988173439000,9.43443896484375,-0.9865875244140625,-0.0347900390625,-0.003570556640625
1783168988183388000,9.444387939453126,-0.9878082275390625,-0.0338134765625,-0.0096588134765625
1783168988193337000,9.454337158203124,-0.9872894287109375,-0.0334320068359375,-0.0115966796875
1783168988203316000,9.46431591796875,-0.9868927001953125,-0.033935546875,-0.0097198486328125
1783168988213265000,9.474264892578125,-0.98651123046875,-0.03436279296875,-0.0057525634765625
1783168988223213000,9.484213134765625,-0.9869384765625,-0.0347442626953125,-0.0015716552734375
1783168988233162000,9.494161865234375,-0.9868316650390625,-0.034820556640625,0.00189208984375
1783168988243140900,9.504140869140626,-0.98590087890625,-0.03375244140625,0.0019989013671875
1783168988253089800,9.51408984375,-0.9856109619140625,-0.0321044921875,-0.0010986328125
1783168988263039000,9.5240390625,-0.9862060546875,-0.031005859375,-0.0043487548828125
1783168988272987000,9.53398681640625,-0.9875030517578125,-0.0305633544921875,-0.008453369140625
1783168988282967000,9.543967041015625,-0.9868621826171875,-0.02984619140625,-0.011444091796875
1783168988292915200,9.553915283203125,-0.9866943359375,-0.029266357421875,-0.01177978515625
1783168988302864100,9.563864013671875,-0.9869384765625,-0.031494140625,-0.00811767578125
1783168988312813000,9.57381298828125,-0.98724365234375,-0.03375244140625,-0.0036163330078125
1783168988322792000,9.5837919921875,-0.986419677734375,-0.0348358154296875,0.0006866455078125
1783168988332741000,9.5937412109375,-0.9875030517578125,-0.0347747802734375,0.001922607421875
1783168988342690000,9.60368994140625,-0.980682373046875,-0.0354766845703125,0.008941650390625
1783168988352669000,9.6136689453125,-0.9925689697265625,-0.0389862060546875,0.0178985595703125
1783168988362617900,9.623617919921875,-0.991302490234375,-0.0389251708984375,0.013153076171875
1783168988372566000,9.63356591796875,-0.9817962646484375,-0.0366668701171875,0.0035858154296875
1783168988382515000,9.643514892578125,-0.99041748046875,-0.0339508056640625,-0.00433349609375
1783168988392494000,9.653494140625,-0.985992431640625,-0.03179931640625,-0.014892578125
1783168988402443000,9.663443115234376,-0.988861083984375,-0.030975341796875,-0.0196990966796875
1783168988412392000,9.673391845703126,-0.9855194091796875,-0.032958984375,-0.0178985595703125
1783168988422339800,9.68333984375,-0.987091064453125,-0.0330963134765625,-0.008544921875
1783168988432320000,9.693320068359375,-0.9859161376953125,-0.03729248046875,0.0008087158203125
1783168988442268000,9.703267822265625,-0.99029541015625,-0.0378875732421875,0.0086822509765625
1783168988452217000,9.713217041015625,-0.983917236328125,-0.037109375,0.0114288330078125
1783168988462196000,9.723196044921876,-0.9870758056640625,-0.034576416015625,0.0080718994140625
1783168988472145200,9.733145263671876,-0.987060546875,-0.032562255859375,0.0004425048828125
1783168988482094000,9.743093994140626,-0.9874267578125,-0.02960205078125,-0.00885009765625
1783168988492043000,9.75304296875,-0.9867095947265625,-0.028106689453125,-0.01611328125
1783168988502022100,9.763022216796875,-0.9851226806640625,-0.0281982421875,-0.0199127197265625
1783168988511971000,9.77297119140625,-0.9867706298828125,-0.028961181640625,-0.01861572265625
1783168988521919000,9.7829189453125,-0.9868316650390625,-0.030975341796875,-0.0088043212890625
1783168988531868000,9.792867919921875,-0.98626708984375,-0.0337677001953125,0.0013275146484375
1783168988541847000,9.802846923828126,-0.9887542724609375,-0.034820556640625,0.0102691650390625
1783168988551796000,9.8127958984375,-0.9869232177734375,-0.0356903076171875,0.015594482421875
1783168988561745000,9.822744873046876,-0.9863128662109375,-0.036346435546875,0.017333984375
1783168988571693000,9.832693115234376,-0.9865570068359375,-0.035888671875,0.0118408203125
1783168988581673000,9.8426728515625,-0.9865264892578125,-0.0356292724609375,0.004669189453125
1783168988591620900,9.852620849609375,-0.986114501953125,-0.0360260009765625,-0.002593994140625
1783168988601569800,9.86256982421875,-0.9874725341796875,-0.0351715087890625,-0.0095062255859375
1783168988611549000,9.872548828125,-0.98712158203125,-0.034576416015625,-0.0110626220703125
1783168988621498000,9.882498046875,-0.986663818359375,-0.035888671875,-0.0104522705078125
1783168988631447000,9.892447021484376,-0.9864654541015625,-0.034912109375,-0.005950927734375
1783168988641396000,9.90239599609375,-0.9872589111328125,-0.03411865234375,-0.001312255859375
1783168988651375000,9.912375,-0.986968994140625,-0.034820556640625,0.001068115234375
1783168988661324000,9.922323974609375,-0.98687744140625,-0.0337982177734375,0.0010528564453125
1783168988671272000,9.93227197265625,-0.9875030517578125,-0.033660888671875,0.000457763671875
1783168988681221000,9.94222119140625,-0.9876556396484375,-0.0336151123046875,-0.004058837890625
1783168988691200000,9.952199951171876,-0.986663818359375,-0.03228759765625,-0.0096435546875
1783168988701149000,9.96214892578125,-0.9862823486328125,-0.0323944091796875,-0.01177978515625
1783168988711097900,9.972097900390626,-0.985382080078125,-0.0319366455078125,-0.01068115234375
1783168988721047000,9.982047119140624,-0.9857330322265625,-0.0304412841796875,-0.0088653564453125
1783168988731026000,9.99202587890625,-0.9863433837890625,-0.0309600830078125,-0.004241943359375
1783168988740973800,10.001973876953125,-0.9865264892578125,-0.0316314697265625,0.000030517578125
1783168988750923000,10.011923095703125,-0.9870147705078125,-0.031951904296875,0.0059967041015625
1783168988760902000,10.02190185546875,-0.986236572265625,-0.0335540771484375,0.00885009765625
1783168988770845400,10.031845458984375,-0.9870452880859375,-0.0342864990234375,0.0070343017578125
1783168988780794400,10.04179443359375,-0.9866943359375,-0.0345001220703125,0.0038909912109375
1783168988790743300,10.051743408203125,-0.986328125,-0.0337066650390625,0.000213623046875
1783168988800722400,10.061722412109376,-0.986175537109375,-0.0351104736328125,-0.0026702880859375
1783168988810671400,10.07167138671875,-0.986846923828125,-0.0359039306640625,-0.00445556640625
1783168988820619300,10.081619384765625,-0.9862213134765625,-0.03692626953125,-0.0030670166015625
1783168988830568200,10.091568115234375,-0.98602294921875,-0.03741455078125,-0.002410888671875
1783168988840547300,10.10154736328125,-0.986419677734375,-0.03704833984375,-0.000732421875
1783168988850496300,10.111496337890625,-0.98663330078125,-0.035614013671875,0.0001678466796875
1783168988860445200,10.121445068359375,-0.987152099609375,-0.0343475341796875,-0.000579833984375
1783168988870424300,10.13142431640625,-0.98785400390625,-0.0328826904296875,-0.0033111572265625
1783168988880373200,10.141373291015626,-0.9878387451171875,-0.03253173828125,-0.0060272216796875
1783168988890322200,10.151322265625,-0.9873199462890625,-0.0318603515625,-0.0094146728515625
1783168988900270300,10.161270263671875,-0.987518310546875,-0.032501220703125,-0.011016845703125
1783168988910250500,10.17125048828125,-0.9868621826171875,-0.0336456298828125,-0.0094451904296875
1783168988920198400,10.181198486328125,-0.986907958984375,-0.033355712890625,-0.005706787109375
1783168988930147300,10.191147216796875,-0.9868927001953125,-0.0332183837890625,-0.00225830078125
1783168988940096300,10.20109619140625,-0.9865264892578125,-0.0333099365234375,-0.0011444091796875
1783168988950075400,10.211075439453126,-0.986907958984375,-0.0325469970703125,0.0000152587890625
1783168988960024300,10.2210244140625,-0.986572265625,-0.03167724609375,0.0020751953125
1783168988969972500,10.230972412109375,-0.9871673583984375,-0.0305023193359375,0.0024566650390625
1783168988979921400,10.24092138671875,-0.9864959716796875,-0.030517578125,0.000946044921875
1783168988989900300,10.250900390625,-0.985626220703125,-0.0298004150390625,0.00384521484375
1783168988999849200,10.26084912109375,-0.98724365234375,-0.032623291015625,0.0015411376953125
1783168989009798400,10.27079833984375,-0.987548828125,-0.0348663330078125,-0.00164794921875
1783168989019777300,10.28077734375,-0.98626708984375,-0.0354156494140625,-0.00469970703125
1783168989029726200,10.290726318359376,-0.98626708984375,-0.035675048828125,-0.004180908203125
1783168989039675100,10.300675048828126,-0.9857635498046875,-0.0357513427734375,-0.0019073486328125
1783168989049623300,10.310623291015625,-0.986541748046875,-0.035064697265625,0.00048828125
1783168989059603200,10.320603271484375,-0.98675537109375,-0.0349273681640625,0.002899169921875
1783168989069551000,10.330551025390625,-0.98663330078125,-0.0362548828125,0.0024261474609375
1783168989079500500,10.34050048828125,-0.986297607421875,-0.03680419921875,0.000091552734375
1783168989089449500,10.350449462890625,-0.986114501953125,-0.036163330078125,-0.003204345703125
1783168989099428400,10.360428466796876,-0.985992431640625,-0.0359344482421875,-0.006805419921875
1783168989109377300,10.370377197265626,-0.9861297607421875,-0.03472900390625,-0.0097503662109375
1783168989119325400,10.380325439453125,-0.986846923828125,-0.034210205078125,-0.0099945068359375
1783168989129305300,10.390305419921875,-0.9871368408203125,-0.033294677734375,-0.009063720703125
1783168989139253500,10.40025341796875,-0.9870758056640625,-0.033050537109375,-0.0055999755859375
1783168989149202400,10.410202392578125,-0.987640380859375,-0.03271484375,-0.0025787353515625
1783168989159151400,10.4201513671875,-0.9870758056640625,-0.031341552734375,0.00030517578125
1783168989169130200,10.430130126953125,-0.9862213134765625,-0.0322723388671875,0.001495361328125
1783168989179079200,10.4400791015625,-0.9856719970703125,-0.0310516357421875,0.00128173828125
1783168989189028400,10.4500283203125,-0.9854736328125,-0.031036376953125,0.00103759765625
1783168989198976300,10.459976318359375,-0.985748291015625,-0.0320281982421875,0.0004730224609375
1783168989208956200,10.4699560546875,-0.9871826171875,-0.03192138671875,-0.0008544921875
1783168989218904300,10.479904296875,-0.9859771728515625,-0.031890869140625,-0.0022735595703125
1783168989228853200,10.489853271484375,-0.9869232177734375,-0.0318145751953125,-0.0026092529296875
1783168989238802400,10.499802490234375,-0.986785888671875,-0.0327301025390625,-0.003173828125
1783168989248781600,10.509781494140626,-0.985748291015625,-0.0338592529296875,-0.0016021728515625
1783168989258730500,10.51973046875,-0.987030029296875,-0.0349273681640625,-0.000213623046875
1783168989268678400,10.529678466796875,-0.9861602783203125,-0.035675048828125,0.0016021728515625
1783168989278658300,10.539658203125,-0.9863128662109375,-0.036346435546875,0.001068115234375
1783168989288606500,10.5496064453125,-0.986541748046875,-0.0357513427734375,0.000213623046875
1783168989298555400,10.559555419921875,-0.9869232177734375,-0.0348968505859375,-0.0009765625
1783168989308504300,10.56950439453125,-0.9873809814453125,-0.03546142578125,-0.005340576171875
1783168989318483500,10.5794833984375,-0.9870147705078125,-0.0347900390625,-0.0085906982421875
1783168989328432400,10.589432373046876,-0.986297607421875,-0.0337982177734375,-0.009429931640625
1783168989338381300,10.59938134765625,-0.9864044189453125,-0.0330657958984375,-0.0082550048828125
1783168989348329200,10.6093291015625,-0.9864501953125,-0.03436279296875,-0.0053253173828125
1783168989358309400,10.619309326171875,-0.986083984375,-0.03521728515625,-0.0020294189453125
1783168989368257300,10.62925732421875,-0.986785888671875,-0.0347442626953125,0.00091552734375
1783168989378206200,10.639206298828125,-0.98626708984375,-0.0347137451171875,0.0016326904296875
1783168989388185300,10.649185302734375,-0.986572265625,-0.0337371826171875,0.0025482177734375
1783168989398134300,10.65913427734375,-0.987335205078125,-0.0330963134765625,0.0018768310546875
1783168989408083500,10.66908349609375,-0.987762451171875,-0.0329437255859375,-0.0002593994140625
1783168989418031000,10.679031005859375,-0.987060546875,-0.0316162109375,-0.00225830078125
1783168989428011500,10.689011474609375,-0.9866180419921875,-0.031524658203125,-0.002777099609375
1783168989437959400,10.69895947265625,-0.986785888671875,-0.0318450927734375,-0.004669189453125
1783168989447908400,10.708908447265625,-0.985992431640625,-0.0313720703125,-0.002288818359375
1783168989457857300,10.718857177734375,-0.98626708984375,-0.032867431640625,-0.000030517578125
1783168989467836400,10.72883642578125,-0.98675537109375,-0.0330810546875,0.00079345703125
1783168989477785300,10.738785400390626,-0.9871063232421875,-0.0343170166015625,0.0017547607421875
1783168989487734300,10.748734375,-0.9867095947265625,-0.034423828125,0.000579833984375
1783168989497682400,10.758682373046875,-0.9861602783203125,-0.03448486328125,-0.0019073486328125
1783168989507662300,10.768662353515625,-0.9865264892578125,-0.0345611572265625,-0.0036773681640625
1783168989517610200,10.7786103515625,-0.986358642578125,-0.0341644287109375,-0.005859375
1783168989527559200,10.78855908203125,-0.9860992431640625,-0.033355712890625,-0.006988525390625
1783168989537538300,10.798538330078125,-0.9860687255859375,-0.033233642578125,-0.0073699951171875
1783168989547487200,10.8084873046875,-0.9878082275390625,-0.0343170166015625,-0.00634765625
1783168989557436200,10.818436279296876,-0.9871826171875,-0.034515380859375,-0.00347900390625
1783168989567385300,10.82838525390625,-0.9862213134765625,-0.0341949462890625,-0.0014495849609375
1783168989577364200,10.8383642578125,-0.986663818359375,-0.0348663330078125,0.000152587890625
1783168989587312000,10.84831201171875,-0.9865264892578125,-0.0349578857421875,0.0012664794921875
1783168989597261300,10.85826123046875,-0.98681640625,-0.034942626953125,-0.0001220703125
1783168989607210500,10.86821044921875,-0.9871978759765625,-0.0336761474609375,-0.0022430419921875
1783168989617189400,10.878189453125,-0.986297607421875,-0.03228759765625,-0.0028839111328125
1783168989627138300,10.88813818359375,-0.98626708984375,-0.0319366455078125,-0.0038604736328125
1783168989637087200,10.898087158203126,-0.986419677734375,-0.032501220703125,-0.0049285888671875
1783168989647066400,10.90806640625,-0.9865570068359375,-0.033905029296875,-0.0036468505859375
1783168989657015300,10.918015380859375,-0.9865264892578125,-0.0333251953125,-0.001953125
1783168989666963500,10.92796337890625,-0.9871063232421875,-0.03350830078125,-0.0009307861328125
1783168989676912400,10.937912353515625,-0.986297607421875,-0.0331878662109375,-0.00048828125
1783168989686891300,10.947891357421875,-0.986907958984375,-0.0335235595703125,-0.0010833740234375
1783168989696840200,10.957840087890625,-0.986846923828125,-0.0325775146484375,-0.0016021728515625
1783168989706789400,10.967789306640626,-0.9857330322265625,-0.032379150390625,-0.0023956298828125
1783168989716738300,10.97773828125,-0.9854888916015625,-0.0327301025390625,-0.002960205078125
1783168989726717200,10.98771728515625,-0.9868316650390625,-0.0336761474609375,-0.002899169921875
1783168989736666400,10.997666259765625,-0.9871978759765625,-0.03448486328125,-0.0027313232421875
1783168989746614300,11.0076142578125,-0.98590087890625,-0.0345001220703125,-0.00341796875
1783168989756563500,11.0175634765625,-0.986328125,-0.03533935546875,-0.0027923583984375
1783168989766578200,11.027578125,-0.986572265625,-0.0356292724609375,-0.001953125
1783168989776527000,11.037527099609376,-0.9862060546875,-0.0335540771484375,-0.0010528564453125
1783168989786476000,11.04747607421875,-0.9875030517578125,-0.0337371826171875,-0.00054931640625
1783168989796455200,11.057455078125,-0.9873199462890625,-0.033935546875,-0.0001068115234375
1783168989806404000,11.067404052734375,-0.9866485595703125,-0.034149169921875,-0.0004119873046875
1783168989816352300,11.077352294921875,-0.9867095947265625,-0.0338287353515625,-0.0020294189453125
1783168989826301200,11.08730126953125,-0.987213134765625,-0.0347900390625,-0.002105712890625
1783168989836280000,11.097280029296876,-0.987213134765625,-0.0352020263671875,-0.002105712890625
1783168989846229200,11.107229248046876,-0.9871826171875,-0.0331878662109375,-0.00146484375
1783168989856178200,11.11717822265625,-0.986907958984375,-0.0330047607421875,-0.0018463134765625
1783168989866127400,11.12712744140625,-0.9863128662109375,-0.03302001953125,-0.002105712890625
1783168989876106200,11.137106201171875,-0.9858856201171875,-0.0325927734375,-0.00225830078125
1783168989886055200,11.14705517578125,-0.986480712890625,-0.0327606201171875,-0.0028839111328125
1783168989896003300,11.15700341796875,-0.98681640625,-0.03314208984375,-0.0029144287109375
1783168989905983200,11.166983154296876,-0.9862060546875,-0.0332794189453125,-0.0019378662109375
1783168989915931100,11.17693115234375,-0.9870452880859375,-0.03363037109375,-0.0016021728515625
1783168989925880300,11.18688037109375,-0.9876251220703125,-0.0341949462890625,-0.0009918212890625
1783168989935829200,11.196829345703126,-0.98638916015625,-0.033599853515625,-0.0023345947265625
1783168989945808100,11.20680810546875,-0.98663330078125,-0.033538818359375,-0.0023345947265625
1783168989955757000,11.216757080078125,-0.986907958984375,-0.0331878662109375,-0.0027008056640625
1783168989965705200,11.226705322265625,-0.987274169921875,-0.0338287353515625,-0.003143310546875
1783168989975654100,11.236654052734375,-0.9866180419921875,-0.033966064453125,-0.00299072265625
1783168989985633000,11.246633056640626,-0.9870758056640625,-0.0338287353515625,-0.002044677734375
1783168989995582200,11.256582275390626,-0.9871368408203125,-0.0347747802734375,-0.0002899169921875
1783168990005531400,11.266531494140626,-0.986419677734375,-0.0345306396484375,-0.000885009765625
1783168990015480300,11.276480224609376,-0.9867401123046875,-0.0336761474609375,-0.0018157958984375
1783168990025459200,11.286459228515625,-0.98681640625,-0.0335540771484375,-0.002044677734375
1783168990035408400,11.296408447265625,-0.985504150390625,-0.0331878662109375,-0.002838134765625
1783168990045356300,11.306356201171875,-0.98651123046875,-0.033782958984375,-0.0044403076171875
1783168990055336200,11.316336181640626,-0.9870758056640625,-0.033905029296875,-0.0043487548828125
1783168990065284400,11.326284423828126,-0.9859771728515625,-0.0328521728515625,-0.0029144287109375
1783168990075233300,11.3362333984375,-0.9864044189453125,-0.0338592529296875,-0.00213623046875
1783168990085182200,11.34618212890625,-0.9877166748046875,-0.0352325439453125,-0.0001373291015625
1783168990095161000,11.3561611328125,-0.9864044189453125,-0.03375244140625,-0.000213623046875
1783168990105110300,11.3661103515625,-0.986358642578125,-0.0334625244140625,-0.0016021728515625
1783168990115058200,11.37605810546875,-0.9862060546875,-0.0334930419921875,-0.001617431640625
1783168990125007000,11.386007080078125,-0.9865264892578125,-0.0333404541015625,-0.001800537109375
1783168990134986200,11.395986328125,-0.9867706298828125,-0.033416748046875,-0.0050201416015625
1783168990144935200,11.40593505859375,-0.98651123046875,-0.032989501953125,-0.004058837890625
1783168990154884000,11.415884033203126,-0.9870452880859375,-0.033721923828125,-0.0038299560546875
1783168990164863200,11.42586328125,-0.9865875244140625,-0.033203125,-0.002532958984375
1783168990174812400,11.4358125,-0.987548828125,-0.03399658203125,-0.0004730224609375
1783168990184761300,11.44576123046875,-0.9868927001953125,-0.032958984375,0.0000762939453125
1783168990194709200,11.455709228515625,-0.98681640625,-0.0344696044921875,-0.00006103515625
1783168990204689200,11.465689208984376,-0.98712158203125,-0.0340576171875,-0.0004425048828125
1783168990214637300,11.47563720703125,-0.98626708984375,-0.0330657958984375,-0.0013885498046875
1783168990224586200,11.485586181640626,-0.9861602783203125,-0.03363037109375,-0.002105712890625
1783168990234535200,11.49553515625,-0.9870147705078125,-0.033905029296875,-0.0033111572265625
1783168990244514300,11.505514404296875,-0.987030029296875,-0.0341644287109375,-0.00457763671875
1783168990254463200,11.515463134765625,-0.9869384765625,-0.0334625244140625,-0.0035400390625
1783168990264411100,11.5254111328125,-0.98663330078125,-0.03411865234375,-0.0032806396484375
1783168990274360000,11.535360107421875,-0.986083984375,-0.0342864990234375,-0.0030364990234375
1783168990284339200,11.545339111328126,-0.9864349365234375,-0.03424072265625,-0.002105712890625
1783168990294288100,11.5552880859375,-0.9868011474609375,-0.034332275390625,-0.0016632080078125
1783168990304237000,11.565237060546876,-0.986328125,-0.034515380859375,-0.0009613037109375
1783168990314216200,11.57521630859375,-0.986602783203125,-0.032867431640625,-0.0027008056640625
1783168990324165000,11.5851650390625,-0.9865570068359375,-0.033111572265625,-0.0035552978515625
1783168990334114300,11.5951142578125,-0.986541748046875,-0.0336456298828125,-0.0030364990234375
1783168990344062200,11.605062255859375,-0.98699951171875,-0.0337371826171875,-0.00244140625
1783168990354042400,11.61504248046875,-0.987030029296875,-0.0345458984375,-0.001953125
1783168990363990300,11.624990234375,-0.9864959716796875,-0.0338287353515625,-0.001617431640625
1783168990373939200,11.634939208984376,-0.986114501953125,-0.0340728759765625,-0.001953125
1783168990383888100,11.64488818359375,-0.9867401123046875,-0.03375244140625,-0.0013885498046875
1783168990393867300,11.6548671875,-0.9874267578125,-0.033111572265625,-0.00140380859375
1783168990403816200,11.664816162109375,-0.98651123046875,-0.0342559814453125,-0.0013275146484375
1783168990413765000,11.67476513671875,-0.985565185546875,-0.0341033935546875,-0.00164794921875
1783168990423744300,11.684744140625,-0.9865264892578125,-0.0334930419921875,-0.0017547607421875
1783168990433692200,11.694692138671876,-0.9873809814453125,-0.0341644287109375,-0.002532958984375
1783168990443641000,11.70464111328125,-0.9862213134765625,-0.0337066650390625,-0.00372314453125
1783168990453590300,11.71459033203125,-0.9865264892578125,-0.0337677001953125,-0.0043182373046875
1783168990463569200,11.724569091796875,-0.986602783203125,-0.0331268310546875,-0.0025482177734375
1783168990473518000,11.73451806640625,-0.9873809814453125,-0.034027099609375,-0.0014495849609375
1783168990483467000,11.744467041015625,-0.9867706298828125,-0.0342559814453125,-0.0016021728515625
1783168990493415200,11.754415283203125,-0.9862518310546875,-0.034515380859375,-0.001373291015625
1783168990503395300,11.764395263671876,-0.9841461181640625,-0.03326416015625,-0.0011138916015625
1783168990513343000,11.774343017578126,-0.9855499267578125,-0.0338592529296875,-0.0016326904296875
1783168990523292400,11.78429248046875,-0.986328125,-0.033477783203125,-0.00146484375
1783168990533241300,11.794241455078126,-0.985076904296875,-0.034912109375,-0.002044677734375
1783168990543220200,11.80422021484375,-0.9875640869140625,-0.0350494384765625,-0.0028839111328125
1783168990553169200,11.814169189453125,-0.9872589111328125,-0.0336456298828125,-0.003326416015625
1783168990563118300,11.824118408203125,-0.9876861572265625,-0.0336761474609375,-0.00384521484375
1783168990573097200,11.83409716796875,-0.986602783203125,-0.0342864990234375,-0.0045318603515625
1783168990583046100,11.844046142578126,-0.987945556640625,-0.0324554443359375,-0.0055694580078125
1783168990592994300,11.853994384765626,-0.9885406494140625,-0.0323333740234375,-0.004791259765625
1783168990602943200,11.863943115234376,-0.987701416015625,-0.0329437255859375,-0.003387451171875
1783168990612922000,11.873922119140625,-0.986846923828125,-0.0341644287109375,-0.0002593994140625
1783168990622871000,11.88387109375,-0.986907958984375,-0.03564453125,0.0022125244140625
1783168990632820200,11.8938203125,-0.9843597412109375,-0.0347137451171875,0.0033416748046875
