time,seconds_elapsed,z,y,x
1783169996775056400,0.099056396484375,-0.6895294189453125,-0.3267364501953125,-0.1268310546875
1783169996785004300,0.10900439453125,-0.6830596923828125,-0.3389434814453125,-0.111480712890625
1783169996794953500,0.118953369140625,-0.684814453125,-0.3328704833984375,-0.1204071044921875
1783169996804932400,0.128932373046875,-0.68524169921875,-0.303436279296875,-0.1416778564453125
1783169996814881300,0.13888134765625,-0.68988037109375,-0.2459716796875,-0.1642608642578125
1783169996824830200,0.148830322265625,-0.7084503173828125,-0.1776580810546875,-0.1799163818359375
1783169996834779100,0.158779052734375,-0.7298431396484375,-0.1866607666015625,-0.1835479736328125
1783169996844758300,0.16875830078125,-0.7205047607421875,-0.2123565673828125,-0.1947784423828125
1783169996854707200,0.178707275390625,-0.7094573974609375,-0.2108306884765625,-0.210723876953125
1783169996864655400,0.1886552734375,-0.734588623046875,-0.1912078857421875,-0.206787109375
1783169996874635300,0.19863525390625,-0.789825439453125,-0.177459716796875,-0.1322174072265625
1783169996884583200,0.208583251953125,-0.908905029296875,-0.212249755859375,-0.010009765625
1783169996894532400,0.218532470703125,-1.0438232421875,-0.2938079833984375,0.11895751953125
1783169996904481500,0.2284814453125,-1.15313720703125,-0.357421875,0.212310791015625
1783169996914460400,0.23846044921875,-1.2578125,-0.3969879150390625,0.228271484375
1783169996924409300,0.248409423828125,-1.3796234130859375,-0.45928955078125,0.2136993408203125
1783169996934357500,0.258357421875,-1.5663604736328125,-0.5451507568359375,0.23846435546875
1783169996944306400,0.268306396484375,-1.7738037109375,-0.6554412841796875,0.2771453857421875
1783169996954285300,0.278285400390625,-1.7360382080078125,-0.7862548828125,0.3289642333984375
1783169996964234200,0.288234130859375,-1.5882415771484375,-0.844482421875,0.3810272216796875
1783169996974183400,0.298183349609375,-1.55352783203125,-0.8916473388671875,0.4190673828125
1783169996984162300,0.308162353515625,-1.5225372314453125,-0.9822845458984375,0.4305419921875
1783169996994111200,0.318111328125,-1.4959869384765625,-0.9726715087890625,0.40008544921875
1783169997004060200,0.32806005859375,-1.5399017333984375,-0.9433746337890625,0.3636016845703125
1783169997014008300,0.33800830078125,-1.6336669921875,-0.98779296875,0.3023681640625
1783169997023988200,0.34798828125,-1.7142333984375,-0.9160003662109375,0.2552947998046875
1783169997033936400,0.357936279296875,-1.78326416015625,-0.76287841796875,0.160797119140625
1783169997043885300,0.36788525390625,-1.7877044677734375,-0.5937347412109375,0.0157318115234375
1783169997053834500,0.37783447265625,-1.6259765625,-0.4757537841796875,-0.1895751953125
1783169997063813400,0.3878134765625,-1.31976318359375,-0.3353424072265625,-0.2622833251953125
1783169997073762300,0.39776220703125,-1.0003204345703125,-0.196685791015625,-0.337371826171875
1783169997083710500,0.40771044921875,-0.7326202392578125,-0.1461334228515625,-0.365570068359375
1783169997093690400,0.4176904296875,-0.5276336669921875,-0.1355743408203125,-0.3226318359375
1783169997103638500,0.427638427734375,-0.4002227783203125,-0.1474151611328125,-0.30023193359375
1783169997113587500,0.43758740234375,-0.36505126953125,-0.116424560546875,-0.2153167724609375
1783169997123536400,0.447536376953125,-0.36920166015625,-0.1378021240234375,-0.1877288818359375
1783169997133515300,0.457515380859375,-0.3049163818359375,-0.1942901611328125,-0.118682861328125
1783169997143464400,0.46746435546875,-0.195281982421875,-0.195281982421875,-0.0410919189453125
1783169997153413400,0.477413330078125,-0.1612396240234375,-0.2182159423828125,0.0172271728515625
1783169997163361300,0.487361328125,-0.161712646484375,-0.2452239990234375,0.0770416259765625
1783169997173341200,0.497341064453125,-0.167633056640625,-0.244415283203125,0.1009674072265625
1783169997183289300,0.507289306640625,-0.1949005126953125,-0.1857147216796875,0.1027984619140625
1783169997193238300,0.51723828125,-0.198883056640625,-0.0835418701171875,0.0761566162109375
1783169997203217200,0.527217041015625,-0.1525115966796875,-0.0440673828125,0.0399627685546875
1783169997213166300,0.537166259765625,-0.0998992919921875,-0.08197021484375,0.0127716064453125
1783169997223115500,0.547115478515625,-0.0386810302734375,-0.095367431640625,-0.0045623779296875
1783169997233064400,0.557064453125,0.0013427734375,-0.030792236328125,0.010650634765625
1783169997243043300,0.567043212890625,0.0053253173828125,-0.008331298828125,0.0201873779296875
1783169997252991500,0.576991455078125,0.005157470703125,-0.0113372802734375,0.01861572265625
1783169997262940400,0.5869404296875,0.005706787109375,-0.0086669921875,0.0184783935546875
1783169997272919300,0.596919189453125,0.0059356689453125,-0.0094451904296875,0.0185546875
1783169997282868500,0.606868408203125,0.005950927734375,-0.0093994140625,0.018829345703125
1783169997292817400,0.6168173828125,0.065338134765625,-0.0371856689453125,0.0261077880859375
1783169997302766300,0.626766357421875,0.3562469482421875,-0.2189178466796875,0.096923828125
1783169997312745200,0.6367451171875,0.2687835693359375,-0.2566986083984375,0.0314788818359375
1783169997322694400,0.6466943359375,0.095794677734375,-0.1355743408203125,-0.11083984375
1783169997332642300,0.656642333984375,0.0906219482421875,-0.073333740234375,-0.201751708984375
1783169997342591200,0.66659130859375,0.103240966796875,-0.063690185546875,-0.2220306396484375
1783169997352570400,0.6765703125,-0.354644775390625,-0.5750274658203125,-0.1485137939453125
1783169997362519300,0.686519287109375,-0.738739013671875,-1.0735931396484375,-0.1292877197265625
1783169997372468200,0.69646826171875,-2.119598388671875,-0.64617919921875,-0.0179901123046875
1783169997382447400,0.706447265625,-5.846221923828125,-0.0965423583984375,1.019622802734375
1783169997392396500,0.716396484375,-3.0955963134765625,-0.4707489013671875,0.8331146240234375
1783169997402345500,0.726345458984375,-0.5929718017578125,-0.7978363037109375,0.1356353759765625
1783169997412293400,0.73629345703125,-2.018096923828125,-0.8848114013671875,0.3935394287109375
1783169997422272500,0.7462724609375,-2.241851806640625,-1.0208892822265625,0.2355499267578125
1783169997432221400,0.756221435546875,-1.87420654296875,-0.714141845703125,-0.0989990234375
1783169997442170400,0.76617041015625,-2.25128173828125,-0.2629852294921875,0.046051025390625
1783169997452119300,0.776119384765625,-2.1709747314453125,-0.473114013671875,0.12457275390625
1783169997462098400,0.786098388671875,-2.0648345947265625,-0.4376068115234375,0.0513916015625
1783169997472047400,0.79604736328125,-1.878173828125,-0.3444366455078125,0.0872344970703125
1783169997481995300,0.805995361328125,-1.6750640869140625,-0.3498687744140625,0.157440185546875
1783169997491975400,0.815975341796875,-1.5150146484375,-0.3194580078125,0.181976318359375
1783169997501923300,0.82592333984375,-1.328216552734375,-0.286468505859375,0.1233978271484375
1783169997511872300,0.835872314453125,-1.14923095703125,-0.25958251953125,0.0588226318359375
1783169997521821200,0.8458212890625,-1.03125,-0.2376708984375,0.0000152587890625
1783169997531800300,0.85580029296875,-0.945465087890625,-0.2364349365234375,-0.0941314697265625
1783169997541749200,0.865749267578125,-0.8928680419921875,-0.2226409912109375,-0.1792144775390625
1783169997551698400,0.875698486328125,-0.836456298828125,-0.1830291748046875,-0.244659423828125
1783169997561677300,0.88567724609375,-0.8056488037109375,-0.151397705078125,-0.2732696533203125
1783169997571626500,0.89562646484375,-0.8144073486328125,-0.1804351806640625,-0.2553863525390625
1783169997581574400,0.905574462890625,-0.781463623046875,-0.19342041015625,-0.21697998046875
1783169997591523300,0.9155234375,-0.7011566162109375,-0.1873626708984375,-0.1680755615234375
1783169997601502500,0.92550244140625,-0.6267547607421875,-0.2082672119140625,-0.144561767578125
1783169997611491300,0.9354912109375,-0.572174072265625,-0.247344970703125,-0.1110076904296875
1783169997621440500,0.9454404296875,-0.497955322265625,-0.275238037109375,-0.0908203125
1783169997631388400,0.955388427734375,-0.422119140625,-0.2857666015625,-0.09381103515625
1783169997641368300,0.965368408203125,-0.346893310546875,-0.295440673828125,-0.100799560546875
1783169997651316500,0.97531640625,-0.2879638671875,-0.2972412109375,-0.08721923828125
1783169997661265400,0.985265380859375,-0.2386016845703125,-0.2788848876953125,-0.0665130615234375
1783169997671244300,0.995244384765625,-0.2081756591796875,-0.26702880859375,-0.031951904296875
1783169997681193500,1.005193359375,-0.1905670166015625,-0.241058349609375,0.0061492919921875
1783169997691142400,1.015142333984375,-0.2140045166015625,-0.1927947998046875,0.0222625732421875
1783169997701091600,1.025091552734375,-0.2423553466796875,-0.1512298583984375,0.03656005859375
1783169997711070200,1.0350703125,-0.2628173828125,-0.1071929931640625,0.0501708984375
1783169997721019400,1.045019287109375,-0.2919921875,-0.0517425537109375,0.06756591796875
1783169997730967600,1.054967529296875,-0.3440093994140625,0.011322021484375,0.086212158203125
1783169997740916500,1.06491650390625,-0.385284423828125,0.0364227294921875,0.1082916259765625
1783169997750895600,1.0748955078125,-0.4422454833984375,0.051666259765625,0.1111907958984375
1783169997760844500,1.084844482421875,-0.4694366455078125,0.070404052734375,0.087158203125
1783169997770793500,1.09479345703125,-0.6136932373046875,0.0996551513671875,0.0980987548828125
1783169997780772400,1.1047724609375,-0.7661285400390625,0.0930023193359375,0.143218994140625
1783169997790721500,1.114721435546875,-0.946258544921875,0.09295654296875,0.17352294921875
1783169997800669400,1.12466943359375,-1.1949615478515625,0.0517120361328125,0.2238006591796875
1783169997810618400,1.134618408203125,-1.4271240234375,-0.019134521484375,0.3067779541015625
1783169997820597500,1.144597412109375,-1.652984619140625,-0.1252593994140625,0.4148101806640625
1783169997830546400,1.15454638671875,-2.0289459228515625,-0.2469329833984375,0.530487060546875
1783169997840495400,1.164495361328125,-2.4454498291015625,-0.262664794921875,0.60699462890625
1783169997850444300,1.1744443359375,-2.6345672607421875,-0.2870941162109375,0.4979248046875
1783169997860423400,1.18442333984375,-2.73748779296875,-0.262298583984375,0.3709259033203125
1783169997870372600,1.19437255859375,-2.8415679931640625,-0.2484283447265625,0.310699462890625
1783169997880320300,1.2043203125,-2.710906982421875,-0.34130859375,0.2387847900390625
1783169997890300400,1.214300537109375,-2.6430206298828125,-0.5002288818359375,0.2764129638671875
1783169997900248600,1.22424853515625,-2.550750732421875,-0.6359100341796875,0.311859130859375
1783169997910197500,1.234197509765625,-2.3432769775390625,-0.6942596435546875,0.233856201171875
1783169997920146400,1.244146484375,-2.1403656005859375,-0.6617889404296875,0.1336669921875
1783169997930125600,1.25412548828125,-1.9952850341796875,-0.57012939453125,0.05670166015625
1783169997940074500,1.264074462890625,-1.845550537109375,-0.477508544921875,0.0496368408203125
1783169997950022400,1.2740224609375,-1.627471923828125,-0.41204833984375,0.160400390625
1783169997959971300,1.283971435546875,-1.33026123046875,-0.3821563720703125,0.177642822265625
1783169997969950500,1.293950439453125,-1.1424102783203125,-0.3412322998046875,0.0429534912109375
1783169997979899400,1.3038994140625,-0.887786865234375,-0.20391845703125,-0.046173095703125
1783169997989848300,1.313848388671875,-0.71044921875,-0.1150970458984375,-0.1630401611328125
1783169997999827500,1.323827392578125,-0.549530029296875,-0.065399169921875,-0.292938232421875
1783169998009776400,1.3337763671875,-0.42816162109375,-0.0377197265625,-0.343353271484375
1783169998019725300,1.343725341796875,-0.3185577392578125,-0.0112762451171875,-0.3603515625
1783169998029673200,1.353673095703125,-0.18316650390625,0.0468292236328125,-0.3663787841796875
1783169998039653400,1.3636533203125,-0.0284271240234375,0.10504150390625,-0.3041839599609375
1783169998049601300,1.373601318359375,0.102142333984375,0.10809326171875,-0.183868408203125
1783169998059550500,1.383550537109375,0.20318603515625,0.0555267333984375,-0.0843353271484375
1783169998069529600,1.393529541015625,0.2990570068359375,0.004302978515625,-0.00750732421875
1783169998079478500,1.403478515625,0.3922576904296875,-0.0443115234375,0.04473876953125
1783169998089427500,1.413427490234375,0.4643096923828125,-0.07513427734375,0.0648040771484375
1783169998099375400,1.423375244140625,0.5078582763671875,-0.0904998779296875,0.08624267578125
1783169998109355500,1.43335546875,0.533538818359375,-0.078765869140625,0.1016845703125
1783169998119303400,1.443303466796875,0.519317626953125,-0.0417938232421875,0.1141357421875
1783169998129252400,1.45325244140625,0.4745941162109375,-0.0580291748046875,0.1269378662109375
1783169998139201300,1.463201171875,0.4239959716796875,-0.0427093505859375,0.1202850341796875
1783169998149180400,1.473180419921875,0.3358154296875,0.0334625244140625,0.0966796875
1783169998159129300,1.48312939453125,0.2418060302734375,0.0513916015625,0.0725555419921875
1783169998169078300,1.493078369140625,0.1488189697265625,0.0498504638671875,0.0519866943359375
1783169998179057400,1.503057373046875,0.0506744384765625,0.055572509765625,0.0212249755859375
1783169998189006300,1.51300634765625,-0.0474395751953125,0.0526885986328125,-0.0139923095703125
1783169998198954200,1.522954345703125,-0.139739990234375,0.0501861572265625,-0.044952392578125
1783169998208903400,1.5329033203125,-0.23992919921875,0.0569610595703125,-0.08892822265625
1783169998218882300,1.54288232421875,-0.375457763671875,0.0436859130859375,-0.147674560546875
1783169998228831500,1.55283154296875,-0.53106689453125,0.0401611328125,-0.2171478271484375
1783169998238780400,1.562780517578125,-0.7121429443359375,0.0347442626953125,-0.2850189208984375
1783169998248729300,1.572729248046875,-0.9762115478515625,0.03302001953125,-0.3515625
1783169998258708500,1.58270849609375,-1.2606964111328125,0.0360260009765625,-0.38641357421875
1783169998268656400,1.592656494140625,-1.574188232421875,0.0008087158203125,-0.363433837890625
1783169998278605600,1.60260546875,-1.924041748046875,-0.0905914306640625,-0.328399658203125
1783169998288584400,1.61258447265625,-2.264190673828125,-0.1827850341796875,-0.330718994140625
1783169998298533400,1.622533447265625,-2.5257110595703125,-0.2481231689453125,-0.38409423828125
1783169998308482300,1.632482421875,-2.7211761474609375,-0.2675628662109375,-0.47344970703125
1783169998318431500,1.642431396484375,-2.8501739501953125,-0.2959136962890625,-0.5660247802734375
1783169998328410400,1.652410400390625,-2.934661865234375,-0.367523193359375,-0.618255615234375
1783169998338359300,1.662359375,-2.9203033447265625,-0.45458984375,-0.6035919189453125
1783169998348307500,1.672307373046875,-2.8492431640625,-0.545074462890625,-0.5107879638671875
1783169998358256400,1.68225634765625,-2.8319091796875,-0.63531494140625,-0.381805419921875
1783169998368235300,1.6922353515625,-2.8360137939453125,-0.686798095703125,-0.27392578125
1783169998378184200,1.70218408203125,-2.794281005859375,-0.6916046142578125,-0.244964599609375
1783169998388133600,1.712133544921875,-2.6706085205078125,-0.665435791015625,-0.2971343994140625
1783169998398112500,1.722112548828125,-2.5022125244140625,-0.6385955810546875,-0.3767242431640625
1783169998408061400,1.7320615234375,-2.32366943359375,-0.6329193115234375,-0.444000244140625
1783169998418010400,1.74201025390625,-2.0772705078125,-0.62176513671875,-0.490203857421875
1783169998427958500,1.75195849609375,-1.7796173095703125,-0.596282958984375,-0.5116424560546875
1783169998437937400,1.7619375,-1.48480224609375,-0.556121826171875,-0.46832275390625
1783169998447886600,1.771886474609375,-1.214996337890625,-0.480194091796875,-0.377105712890625
1783169998457835500,1.78183544921875,-0.97320556640625,-0.39935302734375,-0.2604827880859375
1783169998467784400,1.791784423828125,-0.7578277587890625,-0.2783203125,-0.1602783203125
1783169998477763300,1.801763427734375,-0.5679473876953125,-0.160491943359375,-0.0932769775390625
1783169998487712300,1.811712158203125,-0.370086669921875,-0.05743408203125,-0.0454254150390625
1783169998497660400,1.821660400390625,-0.170318603515625,0.0439910888671875,-0.0053253173828125
1783169998507640300,1.831640380859375,0.00579833984375,0.1248016357421875,0.0338592529296875
1783169998517588500,1.84158837890625,0.14892578125,0.1670074462890625,0.085113525390625
1783169998527537400,1.851537353515625,0.266998291015625,0.1848602294921875,0.1404571533203125
1783169998537486300,1.861486328125,0.3634490966796875,0.188812255859375,0.1983184814453125
1783169998547465200,1.87146533203125,0.4285430908203125,0.1853485107421875,0.2437286376953125
1783169998557414700,1.88141455078125,0.476531982421875,0.1722259521484375,0.279296875
1783169998567363600,1.891363525390625,0.513092041015625,0.1513671875,0.3050689697265625
1783169998577311500,1.9013115234375,0.52923583984375,0.130126953125,0.3184356689453125
1783169998587291400,1.91129150390625,0.51251220703125,0.114532470703125,0.3229217529296875
1783169998597239600,1.921239501953125,0.470489501953125,0.09521484375,0.3163604736328125
1783169998607188500,1.9311884765625,0.4044647216796875,0.0933990478515625,0.2974700927734375
1783169998617177600,1.941177490234375,0.3248138427734375,0.09869384765625,0.2708282470703125
1783169998627126800,1.951126708984375,0.252471923828125,0.0989837646484375,0.243865966796875
1783169998637075700,1.96107568359375,0.1759796142578125,0.106231689453125,0.220703125
1783169998647023600,1.971023681640625,0.107635498046875,0.1114349365234375,0.2131805419921875
1783169998657003500,1.98100341796875,0.04705810546875,0.11151123046875,0.2156524658203125
1783169998666951700,1.99095166015625,-0.0136566162109375,0.1078338623046875,0.2080230712890625
1783169998676900600,2.000900634765625,-0.096221923828125,0.1071624755859375,0.1718597412109375
1783169998686879700,2.010879638671875,-0.2005462646484375,0.0977020263671875,0.131072998046875
1783169998696828700,2.02082861328125,-0.314178466796875,0.0942230224609375,0.0792694091796875
1783169998706777600,2.030777587890625,-0.4465789794921875,0.089813232421875,0.0260772705078125
1783169998716726500,2.0407265625,-0.6033172607421875,0.0741729736328125,-0.0214996337890625
1783169998726705700,2.05070556640625,-0.7784423828125,0.0540313720703125,-0.045928955078125
1783169998736654600,2.060654541015625,-0.98406982421875,0.0152435302734375,-0.0518798828125
1783169998746602500,2.0706025390625,-1.243011474609375,-0.0470733642578125,-0.0235748291015625
1783169998756551400,2.080551513671875,-1.539154052734375,-0.1332855224609375,0.0218353271484375
1783169998766530600,2.090530517578125,-1.92828369140625,-0.2015533447265625,0.02227783203125
1783169998776479500,2.1004794921875,-2.4178314208984375,-0.253173828125,-0.04656982421875
1783169998786428700,2.1104287109375,-2.874053955078125,-0.2592620849609375,-0.2080535888671875
1783169998796407800,2.12040771484375,-3.1839141845703125,-0.173187255859375,-0.4210968017578125
1783169998806356700,2.130356689453125,-3.3637847900390625,-0.048126220703125,-0.618133544921875
1783169998816304600,2.1403046875,-3.4355926513671875,0.025146484375,-0.711669921875
1783169998826253600,2.150253662109375,-3.4889373779296875,-0.03997802734375,-0.642181396484375
1783169998836232700,2.160232666015625,-3.484893798828125,-0.17706298828125,-0.45849609375
1783169998846181600,2.170181640625,-3.3478240966796875,-0.30926513671875,-0.277618408203125
1783169998856130600,2.180130615234375,-3.176666259765625,-0.4261322021484375,-0.164093017578125
1783169998866079500,2.19007958984375,-3.0160980224609375,-0.497161865234375,-0.1351318359375
1783169998876058600,2.20005859375,-2.83660888671875,-0.49493408203125,-0.1902008056640625
1783169998886007600,2.210007568359375,-2.588470458984375,-0.4330596923828125,-0.3153228759765625
1783169998895955500,2.21995556640625,-2.27362060546875,-0.3764495849609375,-0.39434814453125
1783169998905935600,2.229935546875,-1.916351318359375,-0.361114501953125,-0.3772125244140625
1783169998915883500,2.239883544921875,-1.5631256103515625,-0.387939453125,-0.287322998046875
1783169998925832400,2.24983251953125,-1.2249603271484375,-0.4658050537109375,-0.156005859375
1783169998935781400,2.259781494140625,-0.8882904052734375,-0.5865020751953125,-0.0876312255859375
1783169998945760500,2.269760498046875,-0.5539398193359375,-0.6389312744140625,-0.11151123046875
1783169998955709700,2.279709716796875,-0.2334136962890625,-0.56396484375,-0.1990966796875
1783169998965657600,2.28965771484375,0.0859832763671875,-0.44769287109375,-0.285186767578125
1783169998975606800,2.299606689453125,0.309661865234375,-0.3232269287109375,-0.3322906494140625
1783169998985585700,2.309585693359375,0.4848785400390625,-0.216064453125,-0.3030853271484375
1783169998995534600,2.31953466796875,0.6041717529296875,-0.1338958740234375,-0.232452392578125
1783169999005483500,2.3294833984375,0.6662750244140625,-0.068267822265625,-0.130859375
1783169999015462700,2.339462646484375,0.702239990234375,-0.017730712890625,-0.0579376220703125
1783169999025411600,2.34941162109375,0.7212371826171875,0.0149688720703125,0.0128936767578125
1783169999035360500,2.359360595703125,0.733123779296875,0.0427093505859375,0.07562255859375
1783169999045308700,2.36930859375,0.740447998046875,0.0649871826171875,0.1343841552734375
1783169999055288600,2.37928857421875,0.7317352294921875,0.068023681640625,0.175018310546875
1783169999065236500,2.389236572265625,0.7013092041015625,0.075164794921875,0.19769287109375
1783169999075185700,2.399185546875,0.65252685546875,0.0931854248046875,0.1993560791015625
1783169999085134600,2.409134521484375,0.585296630859375,0.12030029296875,0.19000244140625
1783169999095113500,2.419113525390625,0.5036468505859375,0.1503143310546875,0.1680908203125
1783169999105062400,2.4290625,0.41766357421875,0.1802978515625,0.14776611328125
1783169999115010600,2.439010498046875,0.3333740234375,0.190185546875,0.13946533203125
1783169999124990700,2.44899072265625,0.2562103271484375,0.189208984375,0.1325531005859375
1783169999134938400,2.4589384765625,0.1748046875,0.1797332763671875,0.1141815185546875
1783169999144887800,2.4688876953125,0.0819854736328125,0.1710662841796875,0.089691162109375
1783169999154836700,2.478836669921875,-0.02398681640625,0.150970458984375,0.0635833740234375
1783169999164815600,2.488815673828125,-0.125244140625,0.126953125,0.032012939453125
1783169999174764500,2.4987646484375,-0.2255706787109375,0.1207122802734375,-0.003326416015625
1783169999184713700,2.508713623046875,-0.3093719482421875,0.1205902099609375,-0.03643798828125
1783169999194661600,2.51866162109375,-0.41552734375,0.1009063720703125,-0.0486907958984375
1783169999204641500,2.5286416015625,-0.606353759765625,0.080474853515625,-0.035888671875
1783169999214589700,2.538589599609375,-0.8373260498046875,0.0345916748046875,0.0108795166015625
1783169999224538600,2.54853857421875,-1.1686248779296875,-0.0192718505859375,0.0352325439453125
1783169999234517500,2.558517578125,-1.601287841796875,-0.08074951171875,0.0434722900390625
1783169999244466400,2.568466552734375,-2.05194091796875,-0.162109375,0.0568695068359375
1783169999254415600,2.57841552734375,-2.6317901611328125,-0.156494140625,-0.051483154296875
1783169999264364500,2.588364501953125,-3.170196533203125,-0.052825927734375,-0.2465667724609375
1783169999274343400,2.598343505859375,-3.4459991455078125,0.0682373046875,-0.4545440673828125
1783169999284291600,2.60829150390625,-3.5305023193359375,0.1736907958984375,-0.5822906494140625
1783169999294240500,2.618240478515625,-3.53399658203125,0.1314849853515625,-0.5428466796875
1783169999304219400,2.628219482421875,-3.534881591796875,-0.0223236083984375,-0.387542724609375
1783169999314168600,2.63816845703125,-3.415863037109375,-0.1748199462890625,-0.250762939453125
1783169999324117800,2.64811767578125,-3.186737060546875,-0.3279571533203125,-0.1762542724609375
1783169999334066700,2.658066650390625,-2.9443817138671875,-0.4630584716796875,-0.104400634765625
1783169999344045600,2.668045654296875,-2.747650146484375,-0.559906005859375,-0.063018798828125
1783169999353994500,2.677994384765625,-2.5857391357421875,-0.628875732421875,-0.0775146484375
1783169999363942700,2.687942626953125,-2.4078521728515625,-0.6759490966796875,-0.1343536376953125
1783169999373891600,2.6978916015625,-2.214263916015625,-0.695220947265625,-0.1750946044921875
1783169999383870700,2.70787060546875,-2.0132598876953125,-0.698333740234375,-0.2131500244140625
1783169999393819600,2.717819580078125,-1.7859649658203125,-0.6824188232421875,-0.2838134765625
1783169999403768600,2.7277685546875,-1.5324554443359375,-0.642181396484375,-0.3465728759765625
1783169999413747500,2.73774755859375,-1.2322845458984375,-0.540130615234375,-0.3690185546875
1783169999423696600,2.747696533203125,-0.9102325439453125,-0.4043121337890625,-0.39862060546875
1783169999433645600,2.7576455078125,-0.5629425048828125,-0.29534912109375,-0.4054412841796875
1783169999443593500,2.767593505859375,-0.2003326416015625,-0.23089599609375,-0.3697357177734375
1783169999453572600,2.777572509765625,0.1013336181640625,-0.1937255859375,-0.298980712890625
1783169999463521500,2.787521484375,0.3592681884765625,-0.1615753173828125,-0.214599609375
1783169999473470700,2.797470703125,0.5523681640625,-0.1167755126953125,-0.1340179443359375
1783169999483419600,2.807419677734375,0.7037200927734375,-0.071502685546875,-0.062255859375
1783169999493398800,2.817398681640625,0.801055908203125,-0.020965576171875,-0.002044677734375
1783169999503347700,2.82734765625,0.834503173828125,0.0200042724609375,0.0515899658203125
1783169999513295600,2.837295654296875,0.84393310546875,0.0782470703125,0.0933074951171875
1783169999523275500,2.847275634765625,0.8260955810546875,0.1407623291015625,0.1303558349609375
1783169999533223700,2.8572236328125,0.7759552001953125,0.1951141357421875,0.16912841796875
1783169999543172600,2.867172607421875,0.7049560546875,0.2388916015625,0.20281982421875
1783169999553121500,2.87712158203125,0.619354248046875,0.277191162109375,0.213165283203125
1783169999563100700,2.8871005859375,0.5239105224609375,0.31634521484375,0.1861114501953125
1783169999573049600,2.897049560546875,0.4250335693359375,0.3524322509765625,0.1342620849609375
1783169999582998500,2.90699853515625,0.3424530029296875,0.3750152587890625,0.0763702392578125
1783169999592946400,2.916946533203125,0.271514892578125,0.3734588623046875,0.0387115478515625
1783169999602926600,2.926926513671875,0.192413330078125,0.361846923828125,0.0107269287109375
1783169999612908800,2.93690869140625,0.115325927734375,0.3274993896484375,-0.0249786376953125
1783169999622857700,2.946857666015625,0.0273590087890625,0.2935333251953125,-0.0669403076171875
1783169999632836900,2.9568369140625,-0.0569305419921875,0.26263427734375,-0.10589599609375
1783169999642785800,2.966785888671875,-0.1699066162109375,0.234619140625,-0.13427734375
1783169999652734700,2.976734619140625,-0.314544677734375,0.2065582275390625,-0.152984619140625
1783169999662683000,2.986682861328125,-0.5179443359375,0.15509033203125,-0.18255615234375
1783169999672662800,2.996662841796875,-0.7778167724609375,0.0651092529296875,-0.2121429443359375
1783169999682610700,3.006610595703125,-1.0897216796875,-0.0368804931640625,-0.2421875
1783169999692559600,3.0165595703125,-1.4960479736328125,-0.166168212890625,-0.2374420166015625
1783169999702508800,3.0265087890625,-1.9430084228515625,-0.2798919677734375,-0.2256317138671875
1783169999712487700,3.03648779296875,-2.443817138671875,-0.3389892578125,-0.277923583984375
1783169999722436900,3.046436767578125,-3.0191650390625,-0.3261566162109375,-0.3679656982421875
1783169999732385800,3.0563857421875,-3.407470703125,-0.242095947265625,-0.4545440673828125
1783169999742365000,3.066364990234375,-3.63604736328125,-0.1963653564453125,-0.4980621337890625
1783169999752313900,3.07631396484375,-3.7757568359375,-0.2046966552734375,-0.4372100830078125
1783169999762261800,3.08626171875,-3.784759521484375,-0.300628662109375,-0.2947998046875
1783169999772211000,3.0962109375,-3.7353057861328125,-0.4094390869140625,-0.1355438232421875
1783169999782189800,3.10618994140625,-3.6559295654296875,-0.4777679443359375,-0.024627685546875
1783169999792138800,3.116138671875,-3.626617431640625,-0.5054931640625,-0.0035858154296875
1783169999802087700,3.126087646484375,-3.5797576904296875,-0.450897216796875,-0.095733642578125
1783169999812035800,3.136035888671875,-3.408966064453125,-0.2864837646484375,-0.268768310546875
1783169999822015700,3.146015625,-3.120758056640625,-0.1501007080078125,-0.4046478271484375
1783169999831964000,3.1559638671875,-2.74444580078125,-0.127197265625,-0.4364013671875
1783169999841912800,3.165912841796875,-2.316162109375,-0.132354736328125,-0.4030303955078125
1783169999851891700,3.1758916015625,-1.8641204833984375,-0.157012939453125,-0.3318328857421875
1783169999861840600,3.185840576171875,-1.3823699951171875,-0.14947509765625,-0.2707977294921875
1783169999871789600,3.19578955078125,-0.9286041259765625,-0.044677734375,-0.265167236328125
1783169999881739000,3.205739013671875,-0.486907958984375,0.0763397216796875,-0.261627197265625
1783169999891718000,3.2157177734375,-0.0615081787109375,0.1746063232421875,-0.261932373046875
1783169999901666800,3.225666748046875,0.3123626708984375,0.2142486572265625,-0.24652099609375
1783169999911615000,3.235614990234375,0.6050872802734375,0.2111663818359375,-0.2032318115234375
1783169999921595000,3.245594970703125,0.8336334228515625,0.172393798828125,-0.1337432861328125
1783169999931542800,3.255542724609375,0.9942779541015625,0.1342620849609375,-0.04052734375
1783169999941492000,3.265491943359375,1.09454345703125,0.0991668701171875,0.049224853515625
1783169999951441000,3.27544091796875,1.1583251953125,0.0812530517578125,0.1154327392578125
1783169999961419800,3.285419677734375,1.1756134033203125,0.0936737060546875,0.166717529296875
1783169999971368700,3.29536865234375,1.124786376953125,0.1117706298828125,0.206634521484375
1783169999981316900,3.30531689453125,1.0156707763671875,0.1220550537109375,0.2362823486328125
1783169999991265800,3.315265869140625,0.873046875,0.139617919921875,0.24676513671875
1783170000001244700,3.32524462890625,0.705657958984375,0.1650390625,0.2393951416015625
1783170000011193900,3.33519384765625,0.5384521484375,0.195404052734375,0.209259033203125
1783170000021142800,3.345142822265625,0.374755859375,0.2198028564453125,0.16082763671875
1783170000031121700,3.35512158203125,0.239501953125,0.240203857421875,0.10040283203125
1783170000041070600,3.365070556640625,0.1154632568359375,0.246002197265625,0.046600341796875
1783170000051020000,3.37502001953125,-0.009490966796875,0.239410400390625,-0.0004119873046875
1783170000060967700,3.3849677734375,-0.13134765625,0.2320098876953125,-0.0394744873046875
1783170000070947800,3.39494775390625,-0.241455078125,0.2162322998046875,-0.055877685546875
1783170000080896000,3.40489599609375,-0.332275390625,0.192657470703125,-0.0627899169921875
1783170000090845000,3.414844970703125,-0.4124298095703125,0.17926025390625,-0.068145751953125
1783170000100793900,3.4247939453125,-0.467529296875,0.165130615234375,-0.07342529296875
1783170000110772700,3.434772705078125,-0.506439208984375,0.1459503173828125,-0.0831298828125
1783170000120722000,3.444721923828125,-0.5661773681640625,0.1324310302734375,-0.07659912109375
1783170000130669800,3.454669921875,-0.641143798828125,0.1245269775390625,-0.060760498046875
1783170000140649700,3.464649658203125,-0.7302398681640625,0.1222076416015625,-0.0248565673828125
1783170000150598000,3.474597900390625,-0.8889312744140625,0.1203460693359375,0.039794921875
1783170000160546800,3.484546875,-1.1386871337890625,0.130340576171875,0.1089935302734375
1783170000170495700,3.494495849609375,-1.465606689453125,0.141448974609375,0.1454925537109375
1783170000180475000,3.504474853515625,-1.8712921142578125,0.200927734375,0.1450347900390625
1783170000190423800,3.514423828125,-2.3068389892578125,0.3246307373046875,0.06878662109375
1783170000200372700,3.524372802734375,-2.718475341796875,0.494903564453125,-0.09210205078125
1783170000210320600,3.534320556640625,-3.0650177001953125,0.684112548828125,-0.2228546142578125
1783170000220300800,3.54430078125,-3.3126068115234375,0.84002685546875,-0.2833251953125
1783170000230248700,3.554248779296875,-3.4394073486328125,0.89691162109375,-0.22125244140625
1783170000240198000,3.564197998046875,-3.4701385498046875,0.8232269287109375,-0.08831787109375
1783170000250177000,3.574177001953125,-3.5020751953125,0.6431121826171875,-0.0829620361328125
1783170000260126000,3.5841259765625,-3.5391998291015625,0.438323974609375,-0.21832275390625
1783170000270075000,3.594074951171875,-3.5032806396484375,0.304107666015625,-0.458648681640625
1783170000280023800,3.60402392578125,-3.345489501953125,0.2000732421875,-0.6995086669921875
1783170000290003000,3.6140029296875,-3.03497314453125,0.0954132080078125,-0.825897216796875
1783170000299950800,3.623950927734375,-2.70574951171875,-0.07830810546875,-0.7832183837890625
1783170000309899800,3.633899658203125,-2.3281402587890625,-0.2703094482421875,-0.642486572265625
1783170000319848700,3.6438486328125,-1.9250335693359375,-0.4054718017578125,-0.4738616943359375
1783170000329827800,3.653827880859375,-1.5326995849609375,-0.442169189453125,-0.3197174072265625
1783170000339776800,3.66377685546875,-1.15692138671875,-0.3824462890625,-0.218170166015625
1783170000349725700,3.6737255859375,-0.8251800537109375,-0.265472412109375,-0.1444244384765625
1783170000359704800,3.683704833984375,-0.52154541015625,-0.1450653076171875,-0.10888671875
1783170000369653800,3.69365380859375,-0.2569732666015625,-0.0361480712890625,-0.090301513671875
1783170000379601700,3.7036015625,-0.0330810546875,0.0273590087890625,-0.0444793701171875
1783170000389550600,3.713550537109375,0.1612396240234375,0.0448150634765625,0.02703857421875
1783170000399529700,3.72352978515625,0.3085784912109375,0.0449981689453125,0.0920867919921875
1783170000409479000,3.73347900390625,0.4312896728515625,0.0366058349609375,0.136749267578125
1783170000419427800,3.743427734375,0.5163726806640625,0.01715087890625,0.1563568115234375
1783170000429376800,3.753376708984375,0.582305908203125,0.0107421875,0.1531219482421875
1783170000439356000,3.76335595703125,0.618865966796875,0.0137176513671875,0.1292724609375
1783170000449304800,3.773304931640625,0.639984130859375,0.019012451171875,0.10186767578125
1783170000459252700,3.783252685546875,0.6030120849609375,0.03521728515625,0.0785369873046875
1783170000469231900,3.79323193359375,0.5827178955078125,0.022705078125,0.09033203125
1783170000479180800,3.803180908203125,0.5396270751953125,0.127349853515625,0.0909271240234375
1783170000489129700,3.813129638671875,0.4398040771484375,0.140838623046875,0.113037109375
1783170000499078700,3.82307861328125,0.3587646484375,0.1156158447265625,0.1321258544921875
1783170000509057800,3.833057861328125,0.243377685546875,0.1473236083984375,0.144439697265625
1783170000519006700,3.8430068359375,0.14178466796875,0.1804656982421875,0.1439971923828125
1783170000528954600,3.85295458984375,0.0490875244140625,0.24481201171875,0.074951171875
1783170000538903800,3.86290380859375,-0.0477294921875,0.2688140869140625,0.0025177001953125
1783170000548882700,3.872882568359375,-0.137237548828125,0.2316436767578125,-0.0286712646484375
1783170000558831600,3.88283154296875,-0.2263031005859375,0.2404327392578125,-0.010009765625
1783170000568780800,3.89278076171875,-0.2857666015625,0.1989593505859375,-0.004852294921875
1783170000578760000,3.902760009765625,-0.260894775390625,0.1527862548828125,0.025604248046875
1783170000588708900,3.912708984375,-0.3316497802734375,0.1412506103515625,0.039947509765625
1783170000598657800,3.92265771484375,-0.338104248046875,0.114166259765625,0.043212890625
1783170000608606000,3.93260595703125,-0.42657470703125,0.1086578369140625,0.0421295166015625
1783170000618586600,3.942586669921875,-0.5991058349609375,0.113250732421875,0.03350830078125
1783170000628534500,3.952534423828125,-0.8273162841796875,0.085418701171875,0.039794921875
1783170000638483500,3.9624833984375,-1.1012725830078125,0.07464599609375,0.0206756591796875
1783170000648462600,3.972462646484375,-1.3820343017578125,0.04913330078125,0.014617919921875
1783170000658411500,3.98241162109375,-1.714599609375,-0.0114288330078125,0.0163726806640625
1783170000668360400,3.9923603515625,-2.1520538330078125,-0.065948486328125,-0.0034637451171875
1783170000678308600,4.00230859375,-2.5791778564453125,-0.0615081787109375,-0.0874481201171875
1783170000688288800,4.012288818359375,-2.928680419921875,-0.0095672607421875,-0.2255096435546875
1783170000698236400,4.022236328125,-3.1640777587890625,0.029327392578125,-0.3421783447265625
1783170000708185600,4.032185546875,-3.29833984375,0.00567626953125,-0.4028167724609375
1783170000718134500,4.042134521484375,-3.3966064453125,-0.1342926025390625,-0.3807373046875
1783170000728113700,4.05211376953125,-3.4427642822265625,-0.3026275634765625,-0.3290557861328125
1783170000738062600,4.0620625,-3.438934326171875,-0.4515228271484375,-0.254547119140625
1783170000748011500,4.072011474609375,-3.4046630859375,-0.52362060546875,-0.177703857421875
1783170000757990700,4.08199072265625,-3.3082733154296875,-0.5157318115234375,-0.1072998046875
1783170000767939600,4.091939697265625,-3.1404876708984375,-0.473907470703125,-0.0232086181640625
1783170000777887500,4.101887451171875,-2.8668670654296875,-0.4448699951171875,0.0785064697265625
1783170000787836700,4.111836669921875,-2.507568359375,-0.4953765869140625,0.1590118408203125
1783170000797815600,4.121815673828125,-2.1560516357421875,-0.6963348388671875,0.207244873046875
1783170000807764500,4.131764404296875,-1.7518463134765625,-0.9785003662109375,0.1999969482421875
1783170000817713400,4.14171337890625,-1.395751953125,-1.236419677734375,0.0250091552734375
1783170000827661600,4.15166162109375,-0.9880828857421875,-1.11529541015625,-0.23944091796875
1783170000837641500,4.161641357421875,-0.5350494384765625,-0.8096466064453125,-0.428253173828125
1783170000847589400,4.17158935546875,-0.1469879150390625,-0.6033172607421875,-0.4382781982421875
1783170000857538800,4.181538818359375,0.138275146484375,-0.332611083984375,-0.333038330078125
1783170000867517400,4.191517333984375,0.32427978515625,-0.071044921875,-0.143310546875
1783170000877466600,4.201466552734375,0.4187469482421875,0.0229339599609375,0.0299835205078125
1783170000887415600,4.21141552734375,0.4842529296875,0.086639404296875,0.1419830322265625
1783170000897364700,4.22136474609375,0.5366668701171875,0.18463134765625,0.1951751708984375
1783170000907343600,4.231343505859375,0.563720703125,0.2289276123046875,0.2213897705078125
1783170000917292500,4.24129248046875,0.6147003173828125,0.2171478271484375,0.262786865234375
1783170000927240700,4.25124072265625,0.660552978515625,0.2273406982421875,0.2810211181640625
1783170000937189600,4.261189697265625,0.6731109619140625,0.2542266845703125,0.2611846923828125
1783170000947168500,4.27116845703125,0.641571044921875,0.2817230224609375,0.203948974609375
1783170000957117400,4.281117431640625,0.5652618408203125,0.29083251953125,0.15557861328125
1783170000967066600,4.291066650390625,0.4754486083984375,0.262603759765625,0.1204071044921875
1783170000977045500,4.30104541015625,0.3815460205078125,0.2227020263671875,0.0880126953125
1783170000986994400,4.310994384765625,0.2779998779296875,0.1970367431640625,0.0456085205078125
1783170000996942600,4.320942626953125,0.17352294921875,0.1821441650390625,-0.0024261474609375
1783170001006891500,4.3308916015625,0.0485687255859375,0.171417236328125,-0.05316162109375
1783170001016870400,4.340870361328125,-0.163238525390625,0.152069091796875,-0.0764007568359375
1783170001026819600,4.350819580078125,-0.1639251708984375,0.1222686767578125,-0.1619110107421875
1783170001036768800,4.360768798828125,-0.2891998291015625,0.1298828125,-0.2169342041015625
1783170001046717700,4.3707177734375,-0.373748779296875,0.077056884765625,-0.2361297607421875
1783170001056696600,4.380696533203125,-0.4324951171875,0.054168701171875,-0.2643890380859375
1783170001066645500,4.3906455078125,-0.4875946044921875,0.0123443603515625,-0.235870361328125
1783170001076593700,4.40059375,-0.5160064697265625,-0.0265655517578125,-0.181884765625
1783170001086573600,4.410573486328125,-0.5721893310546875,-0.0770111083984375,-0.12371826171875
1783170001096521700,4.420521728515625,-0.65679931640625,-0.1068267822265625,-0.0987396240234375
1783170001106470700,4.430470703125,-0.747589111328125,-0.138671875,-0.08990478515625
1783170001116419600,4.440419677734375,-0.9146881103515625,-0.194000244140625,-0.0855255126953125
1783170001126398500,4.4503984375,-1.191436767578125,-0.2555999755859375,-0.0714111328125
1783170001136347600,4.46034765625,-1.57421875,-0.36322021484375,-0.0841522216796875
1783170001146295600,4.470295654296875,-1.9752655029296875,-0.4985504150390625,-0.0800018310546875
1783170001156244500,4.480244384765625,-2.2837066650390625,-0.6051177978515625,-0.020843505859375
1783170001166223600,4.4902236328125,-2.6650543212890625,-0.6693267822265625,0.01019287109375
1783170001176172500,4.500172607421875,-2.91534423828125,-0.6942291259765625,-0.0089874267578125
1783170001186121700,4.510121826171875,-3.0418548583984375,-0.6639556884765625,-0.0443572998046875
1783170001196100400,4.520100341796875,-3.153228759765625,-0.7108917236328125,0.005889892578125
1783170001206049800,4.5300498046875,-3.2141265869140625,-0.7975006103515625,0.0830078125
1783170001215998700,4.539998779296875,-3.096466064453125,-0.758331298828125,0.150909423828125
1783170001225946600,4.549946533203125,-2.8443450927734375,-0.710662841796875,0.2179718017578125
1783170001235926500,4.559926513671875,-2.648773193359375,-0.740234375,0.299224853515625
1783170001245874700,4.569874755859375,-2.4760894775390625,-0.76080322265625,0.341949462890625
1783170001255823600,4.57982373046875,-2.2104949951171875,-0.718963623046875,0.2929229736328125
1783170001265772500,4.5897724609375,-1.900787353515625,-0.6348876953125,0.2129058837890625
1783170001275751700,4.599751708984375,-1.5856475830078125,-0.5469512939453125,0.149810791015625
1783170001285700600,4.60970068359375,-1.2714080810546875,-0.4625701904296875,0.13348388671875
1783170001295649500,4.6196494140625,-0.9927978515625,-0.3772430419921875,0.1380462646484375
1783170001305628400,4.62962841796875,-0.7614593505859375,-0.2880401611328125,0.1388092041015625
1783170001315576600,4.63957666015625,-0.5745697021484375,-0.21356201171875,0.11358642578125
1783170001325525500,4.649525390625,-0.4322662353515625,-0.155181884765625,0.062255859375
1783170001335474400,4.659474365234375,-0.316650390625,-0.1086883544921875,-0.00872802734375
1783170001345453600,4.66945361328125,-0.2087860107421875,-0.1199798583984375,-0.0609588623046875
1783170001355402500,4.679402587890625,-0.130889892578125,-0.1105194091796875,-0.0971221923828125
1783170001365351700,4.6893515625,-0.061126708984375,-0.0640869140625,-0.12408447265625
1783170001375330600,4.69933056640625,0.0130462646484375,-0.0630340576171875,-0.1308441162109375
1783170001385279700,4.70927978515625,0.0656280517578125,-0.05010986328125,-0.13275146484375
1783170001395227600,4.7192275390625,0.111724853515625,-0.0545501708984375,-0.0945587158203125
1783170001405176600,4.729176513671875,0.1596832275390625,-0.0813751220703125,-0.0926971435546875
1783170001415155700,4.73915576171875,0.1859130859375,-0.1066436767578125,-0.0943145751953125
1783170001425104600,4.749104736328125,0.2022857666015625,-0.128570556640625,-0.0835723876953125
1783170001435053600,4.759053466796875,0.201263427734375,-0.1290740966796875,-0.0618743896484375
1783170001445002500,4.76900244140625,0.1736907958984375,-0.1208343505859375,-0.04400634765625
1783170001454981600,4.778981689453125,0.122589111328125,-0.1337432861328125,-0.0297698974609375
1783170001464930600,4.7889306640625,0.0512542724609375,-0.16229248046875,-0.0370330810546875
1783170001474878500,4.79887841796875,0.029754638671875,-0.1331939697265625,-0.0660247802734375
1783170001484857600,4.808857666015625,-0.044891357421875,-0.1041259765625,-0.0759735107421875
1783170001494806500,4.818806640625,-0.10394287109375,-0.1026458740234375,-0.093414306640625
1783170001504755500,4.82875537109375,-0.1412811279296875,-0.10162353515625,-0.0956573486328125
1783170001514704400,4.838704345703125,-0.1849517822265625,-0.0994415283203125,-0.096893310546875
1783170001524683500,4.84868359375,-0.213165283203125,-0.10882568359375,-0.1038818359375
1783170001534632700,4.8586328125,-0.239044189453125,-0.141998291015625,-0.1100311279296875
1783170001544580600,4.86858056640625,-0.2796783447265625,-0.2188873291015625,-0.10296630859375
1783170001554529800,4.87852978515625,-0.341552734375,-0.351837158203125,-0.0667572021484375
1783170001564508700,4.8885087890625,-0.470794677734375,-0.512786865234375,0.002044677734375
1783170001574457600,4.89845751953125,-0.674896240234375,-0.6439056396484375,0.0907135009765625
1783170001584406500,4.908406494140625,-0.9349212646484375,-0.7139739990234375,0.146087646484375
1783170001594385700,4.9183857421875,-1.334991455078125,-0.6730499267578125,0.132598876953125
1783170001604334600,4.92833447265625,-1.79510498046875,-0.5414276123046875,0.069427490234375
1783170001614313000,4.93831298828125,-2.1587982177734375,-0.4073028564453125,-0.0160980224609375
1783170001624260900,4.9482607421875,-2.4368743896484375,-0.240966796875,-0.0777435302734375
1783170001634240800,4.95824072265625,-2.5791473388671875,-0.0977935791015625,-0.0929412841796875
1783170001644189000,4.96818896484375,-2.5825042724609375,-0.1170654296875,-0.0290374755859375
1783170001654137900,4.978137939453125,-2.5579681396484375,-0.2871246337890625,0.118438720703125
1783170001664086800,4.988086669921875,-2.54425048828125,-0.451171875,0.2202911376953125
1783170001674066000,4.99806591796875,-2.47119140625,-0.5507659912109375,0.213958740234375
1783170001684015000,5.00801513671875,-2.399200439453125,-0.5859222412109375,0.1514129638671875
1783170001693962800,5.017962646484375,-2.3691253662109375,-0.5712738037109375,0.0777587890625
1783170001703943000,5.02794287109375,-2.308349609375,-0.4954833984375,-0.0150299072265625
1783170001713891000,5.03789111328125,-2.260284423828125,-0.38104248046875,-0.0789642333984375
1783170001723840000,5.047840087890625,-2.1910400390625,-0.28424072265625,-0.085845947265625
1783170001733789000,5.057788818359375,-2.0614471435546875,-0.2298736572265625,-0.0437164306640625
1783170001743768000,5.06776806640625,-1.8535308837890625,-0.2201690673828125,0.019683837890625
1783170001753717000,5.077717041015625,-1.6375274658203125,-0.2011260986328125,0.081268310546875
1783170001763666000,5.087666015625,-1.42999267578125,-0.195343017578125,0.1163482666015625
1783170001773613800,5.09761376953125,-1.2089080810546875,-0.222747802734375,0.098419189453125
1783170001783594000,5.107593994140625,-0.9884185791015625,-0.2684783935546875,0.041046142578125
1783170001793542000,5.1175419921875,-0.77203369140625,-0.292236328125,-0.0262451171875
1783170001803490800,5.12749072265625,-0.558807373046875,-0.3139190673828125,-0.10235595703125
1783170001813470000,5.137469970703125,-0.35968017578125,-0.33880615234375,-0.150238037109375
1783170001823419000,5.1474189453125,-0.1960601806640625,-0.3557891845703125,-0.1453399658203125
1783170001833367800,5.157367919921875,-0.076263427734375,-0.3695220947265625,-0.1060333251953125
1783170001843315700,5.167315673828125,0.0070648193359375,-0.3797454833984375,-0.0623016357421875
1783170001853295900,5.1772958984375,0.0688018798828125,-0.390899658203125,-0.01287841796875
1783170001863243800,5.187243896484375,0.1031341552734375,-0.3889617919921875,0.0248870849609375
1783170001873193000,5.19719287109375,0.129241943359375,-0.3791046142578125,0.0466461181640625
1783170001883142000,5.207141845703125,0.14837646484375,-0.3657073974609375,0.05792236328125
1783170001893121000,5.21712109375,0.153167724609375,-0.3512420654296875,0.06671142578125
1783170001903070000,5.227070068359375,0.139434814453125,-0.3347320556640625,0.06817626953125
1783170001913019000,5.237018798828125,0.124359130859375,-0.3075714111328125,0.0472259521484375
1783170001922998000,5.246998046875,0.102508544921875,-0.2747650146484375,0.0174407958984375
1783170001932947000,5.256947021484375,0.0556793212890625,-0.234619140625,-0.0041961669921875
1783170001942894800,5.266894775390625,0.0149688720703125,-0.2020416259765625,-0.02606201171875
1783170001952844000,5.276843994140625,-0.0202789306640625,-0.17132568359375,-0.0396881103515625
1783170001962823000,5.286822998046875,-0.0546722412109375,-0.137542724609375,-0.0419921875
1783170001972771800,5.296771728515625,-0.0784454345703125,-0.111846923828125,-0.04351806640625
1783170001982720800,5.306720703125,-0.1050567626953125,-0.084503173828125,-0.048248291015625
1783170001992669000,5.3166689453125,-0.13330078125,-0.0526580810546875,-0.054168701171875
1783170002002648800,5.32664892578125,-0.1687164306640625,-0.03826904296875,-0.0627593994140625
1783170002012596700,5.3365966796875,-0.21453857421875,-0.042938232421875,-0.0739288330078125
1783170002022546000,5.3465458984375,-0.26715087890625,-0.0704193115234375,-0.09326171875
1783170002032524800,5.35652490234375,-0.3235931396484375,-0.094818115234375,-0.118316650390625
1783170002042474000,5.366473876953125,-0.402862548828125,-0.11859130859375,-0.1321563720703125
1783170002052423000,5.3764228515625,-0.5269622802734375,-0.1661376953125,-0.118988037109375
1783170002062372000,5.3863720703125,-0.7165679931640625,-0.2406005859375,-0.09173583984375
1783170002072351000,5.39635107421875,-0.942230224609375,-0.345428466796875,-0.0399322509765625
1783170002082300000,5.4062998046875,-1.16217041015625,-0.495697021484375,0.0416107177734375
1783170002092248000,5.416248046875,-1.363189697265625,-0.66424560546875,0.0939483642578125
1783170002102228000,5.42622802734375,-1.6463470458984375,-0.757232666015625,0.0781707763671875
1783170002112175900,5.43617578125,-1.9218902587890625,-0.759674072265625,0.079498291015625
1783170002122124800,5.446124755859375,-2.1430511474609375,-0.724822998046875,0.0530548095703125
1783170002132074000,5.456073974609375,-2.3274078369140625,-0.609588623046875,0.0057373046875
1783170002142052900,5.466052978515625,-2.5011444091796875,-0.5489349365234375,0.004791259765625
1783170002152001800,5.476001708984375,-2.69586181640625,-0.47509765625,0.0272369384765625
1783170002161950000,5.485949951171875,-2.7510223388671875,-0.34637451171875,0.0165252685546875
1783170002171899000,5.49589892578125,-2.635162353515625,-0.2356719970703125,-0.0460357666015625
1783170002181877800,5.505877685546875,-2.4972991943359375,-0.096282958984375,-0.1274871826171875
1783170002191827000,5.515826904296875,-2.30120849609375,0.01324462890625,-0.194427490234375
1783170002201776000,5.525776123046875,-2.03082275390625,0.0563507080078125,-0.247039794921875
1783170002211754800,5.535754638671875,-1.71405029296875,0.0181121826171875,-0.2889251708984375
1783170002221704000,5.545703857421875,-1.3898162841796875,-0.087432861328125,-0.3323974609375
1783170002231652900,5.55565283203125,-1.162841796875,-0.186859130859375,-0.3722381591796875
1783170002241601000,5.56560107421875,-1.0498504638671875,-0.2297515869140625,-0.3812408447265625
1783170002251581000,5.575580810546875,-1.0289306640625,-0.223663330078125,-0.3673248291015625
1783170002261529000,5.585529052734375,-0.9554901123046875,-0.2043609619140625,-0.3443450927734375
1783170002271478000,5.59547802734375,-0.7927093505859375,-0.1967315673828125,-0.3312835693359375
1783170002281427000,5.605427001953125,-0.6751556396484375,-0.1952056884765625,-0.295257568359375
1783170002291405800,5.61540576171875,-0.5932769775390625,-0.18621826171875,-0.2288055419921875
1783170002301355000,5.62535498046875,-0.5118255615234375,-0.17669677734375,-0.15478515625
1783170002311304000,5.635303955078125,-0.4246368408203125,-0.1808319091796875,-0.081024169921875
1783170002321282800,5.64528271484375,-0.352630615234375,-0.2131500244140625,-0.0214080810546875
1783170002331231000,5.65523095703125,-0.3076934814453125,-0.2537384033203125,0.021453857421875
1783170002341180000,5.665179931640625,-0.2759857177734375,-0.285369873046875,0.0699462890625
1783170002351128800,5.67512890625,-0.2487945556640625,-0.3080291748046875,0.1093597412109375
1783170002361107700,5.685107666015625,-0.21484375,-0.3211822509765625,0.113555908203125
1783170002371057200,5.69505712890625,-0.171478271484375,-0.318267822265625,0.108184814453125
1783170002381006000,5.705006103515625,-0.1325531005859375,-0.301788330078125,0.095916748046875
1783170002390954000,5.7149541015625,-0.0941619873046875,-0.2813568115234375,0.0783233642578125
1783170002400934000,5.724933837890625,-0.058837890625,-0.255828857421875,0.066436767578125
1783170002410882000,5.734882080078125,-0.026580810546875,-0.232696533203125,0.0557098388671875
1783170002420831000,5.7448310546875,-0.0135955810546875,-0.212890625,0.0465240478515625
1783170002430809900,5.754809814453125,-0.0113677978515625,-0.201629638671875,0.040191650390625
1783170002440759000,5.764759033203125,0.0007171630859375,-0.1887969970703125,0.0386962890625
1783170002450708000,5.7747080078125,-0.0004425048828125,-0.173065185546875,0.03436279296875
1783170002460657000,5.784656982421875,-0.0145416259765625,-0.1704254150390625,0.0209808349609375
1783170002470635800,5.7946357421875,-0.031585693359375,-0.16961669921875,-0.0103607177734375
1783170002480585000,5.8045849609375,-0.0573883056640625,-0.152801513671875,-0.0413055419921875
1783170002490532900,5.814532958984375,-0.10357666015625,-0.12823486328125,-0.0764312744140625
1783170002500481800,5.824481689453125,-0.2156524658203125,-0.110687255859375,-0.1076507568359375
1783170002510461000,5.8344609375,-0.3944244384765625,-0.113067626953125,-0.1356048583984375
1783170002520409900,5.844409912109375,-0.670745849609375,-0.1429595947265625,-0.1533050537109375
1783170002530359000,5.854359130859375,-1.0360565185546875,-0.15924072265625,-0.15679931640625
1783170002540338000,5.864337890625,-1.3624267578125,-0.137176513671875,-0.1842803955078125
1783170002550287000,5.874287109375,-1.59100341796875,-0.1282958984375,-0.262359619140625
1783170002560235000,5.884235107421875,-1.8035125732421875,-0.1416778564453125,-0.3460235595703125
1783170002570184000,5.894183837890625,-2.101470947265625,-0.2389678955078125,-0.3695831298828125
1783170002580163000,5.9041630859375,-2.4557037353515625,-0.36859130859375,-0.3663787841796875
1783170002590112000,5.914112060546875,-2.57269287109375,-0.4755401611328125,-0.368621826171875
1783170002600061000,5.92406103515625,-2.562225341796875,-0.4917755126953125,-0.39447021484375
1783170002610009900,5.934009765625,-2.56207275390625,-0.4356689453125,-0.4158172607421875
1783170002620008400,5.944008544921875,-2.59149169921875,-0.4835205078125,-0.41552734375
1783170002629957400,5.953957275390625,-2.6490325927734375,-0.50421142578125,-0.3953399658203125
1783170002639905500,5.963905517578125,-2.648956298828125,-0.467010498046875,-0.379608154296875
1783170002649885700,5.9738857421875,-2.64599609375,-0.4236907958984375,-0.3754425048828125
1783170002659833300,5.983833251953125,-2.5982513427734375,-0.35589599609375,-0.3687896728515625
1783170002669782500,5.993782470703125,-2.4651031494140625,-0.273681640625,-0.3660430908203125
1783170002679731700,6.003731689453125,-2.24566650390625,-0.1764373779296875,-0.3555908203125
1783170002689710600,6.013710693359375,-1.9778594970703125,-0.081817626953125,-0.348175048828125
1783170002699659500,6.023659423828125,-1.7069854736328125,-0.0024566650390625,-0.327362060546875
1783170002709607700,6.033607666015625,-1.4488372802734375,0.054107666015625,-0.255889892578125
1783170002719556600,6.043556640625,-1.218475341796875,0.07904052734375,-0.1650543212890625
1783170002729535500,6.053535400390625,-1.015411376953125,0.062744140625,-0.08245849609375
1783170002739484700,6.063484619140625,-0.8550872802734375,0.01495361328125,-0.0243377685546875
1783170002749433600,6.07343359375,-0.71856689453125,-0.027374267578125,0.0201416015625
1783170002759412500,6.08341259765625,-0.595184326171875,-0.0420074462890625,0.0402069091796875
1783170002769361400,6.093361328125,-0.4972686767578125,-0.044189453125,0.042449951171875
1783170002779310600,6.103310546875,-0.3979034423828125,-0.0516815185546875,0.0300750732421875
1783170002789258500,6.113258544921875,-0.3148956298828125,-0.0709381103515625,0.020599365234375
1783170002799238400,6.12323828125,-0.25909423828125,-0.1114044189453125,0.0186309814453125
1783170002809186600,6.1331865234375,-0.21221923828125,-0.1639404296875,0.016754150390625
1783170002819135500,6.143135498046875,-0.182464599609375,-0.197845458984375,0.016754150390625
1783170002829084700,6.153084716796875,-0.16265869140625,-0.2266387939453125,0.0118408203125
1783170002839063600,6.1630634765625,-0.1409759521484375,-0.2637786865234375,-0.00244140625
1783170002849012700,6.1730126953125,-0.1183319091796875,-0.2954864501953125,-0.0284576416015625
1783170002858960600,6.182960693359375,-0.10546875,-0.3078765869140625,-0.05181884765625
1783170002868940500,6.1929404296875,-0.0948333740234375,-0.308624267578125,-0.0655975341796875
1783170002878888700,6.202888671875,-0.082244873046875,-0.3137664794921875,-0.0755615234375
1783170002888837600,6.212837646484375,-0.0821685791015625,-0.3125762939453125,-0.08154296875
1783170002898786600,6.22278662109375,-0.092987060546875,-0.3048248291015625,-0.0713653564453125
1783170002908765400,6.232765380859375,-0.105560302734375,-0.3059844970703125,-0.046234130859375
1783170002918714600,6.242714599609375,-0.1442413330078125,-0.3000030517578125,-0.0319976806640625
1783170002928663600,6.25266357421875,-0.1962890625,-0.2929534912109375,-0.021728515625
1783170002938611500,6.262611572265625,-0.2783203125,-0.287750244140625,-0.024169921875
1783170002948591400,6.27259130859375,-0.4339752197265625,-0.27606201171875,-0.0334930419921875
1783170002958539500,6.28253955078125,-0.63958740234375,-0.2507476806640625,-0.04095458984375
1783170002968488400,6.292488525390625,-0.7840118408203125,-0.21539306640625,-0.0605926513671875
1783170002978467600,6.302467529296875,-0.8702239990234375,-0.2029876708984375,-0.0944061279296875
1783170002988416500,6.31241650390625,-0.930999755859375,-0.1969146728515625,-0.12042236328125
1783170002998365700,6.32236572265625,-0.9741973876953125,-0.219879150390625,-0.108917236328125
1783170003008313600,6.332313720703125,-1.02392578125,-0.2913665771484375,-0.0414581298828125
1783170003018293500,6.34229345703125,-1.09735107421875,-0.3839263916015625,0.060028076171875
1783170003028241700,6.35224169921875,-1.156768798828125,-0.48272705078125,0.184722900390625
1783170003038190600,6.362190673828125,-1.1603851318359375,-0.5970306396484375,0.2879180908203125
1783170003048169700,6.372169677734375,-1.1670684814453125,-0.6987762451171875,0.3707275390625
1783170003058118700,6.38211865234375,-1.1984100341796875,-0.7953033447265625,0.437896728515625
1783170003068067600,6.392067626953125,-1.25732421875,-0.86541748046875,0.481658935546875
1783170003078016500,6.4020166015625,-1.2823638916015625,-0.8521881103515625,0.451751708984375
1783170003087995600,6.41199560546875,-1.26776123046875,-0.849517822265625,0.3736114501953125
1783170003097944600,6.421944580078125,-1.3590240478515625,-0.895294189453125,0.3461456298828125
1783170003107892500,6.431892578125,-1.4274139404296875,-0.8587646484375,0.2985076904296875
1783170003117841400,6.44184130859375,-1.3188018798828125,-0.723663330078125,0.1668548583984375
1783170003127820500,6.451820556640625,-1.1859283447265625,-0.5490875244140625,0.0132904052734375
1783170003137769500,6.46176953125,-1.0701751708984375,-0.374664306640625,-0.1033935546875
1783170003147718400,6.471718505859375,-1.060699462890625,-0.230560302734375,-0.1763153076171875
1783170003157697500,6.481697509765625,-1.1486663818359375,-0.1210784912109375,-0.2243499755859375
1783170003167646700,6.491646728515625,-1.244476318359375,-0.04644775390625,-0.299652099609375
1783170003177594400,6.501594482421875,-1.4185638427734375,0.0307464599609375,-0.419158935546875
1783170003187543600,6.51154345703125,-1.55316162109375,0.178619384765625,-0.546051025390625
1783170003197522700,6.521522705078125,-1.600067138671875,0.3434906005859375,-0.6545562744140625
1783170003207471600,6.5314716796875,-1.5899658203125,0.4210662841796875,-0.64691162109375
1783170003217420500,6.541420654296875,-1.5679779052734375,0.301361083984375,-0.5735931396484375
1783170003227369500,6.551369384765625,-1.59576416015625,0.1033935546875,-0.42962646484375
1783170003237348600,6.5613486328125,-1.471435546875,0.139312744140625,-0.288818359375
1783170003247297500,6.571297607421875,-1.2894134521484375,0.1511993408203125,-0.2083282470703125
1783170003257245400,6.581245361328125,-1.1444854736328125,0.05035400390625,-0.15936279296875
1783170003267225600,6.5912255859375,-0.97967529296875,-0.0459747314453125,-0.1073150634765625
1783170003277173500,6.601173583984375,-0.8441162109375,-0.1422119140625,-0.0633697509765625
1783170003287122400,6.611122314453125,-0.735321044921875,-0.234161376953125,-0.0328521728515625
1783170003297071400,6.6210712890625,-0.620697021484375,-0.3026885986328125,-0.0237274169921875
1783170003307050500,6.631050537109375,-0.5269927978515625,-0.333343505859375,-0.0428009033203125
1783170003316999400,6.64099951171875,-0.446807861328125,-0.34954833984375,-0.0609588623046875
1783170003326948600,6.650948486328125,-0.38958740234375,-0.37091064453125,-0.073211669921875
1783170003336896800,6.660896728515625,-0.3574371337890625,-0.3943328857421875,-0.069305419921875
1783170003346875400,6.67087548828125,-0.361663818359375,-0.4024810791015625,-0.0608978271484375
1783170003356824600,6.680824462890625,-0.405609130859375,-0.3964385986328125,-0.0460052490234375
1783170003366773500,6.6907734375,-0.453033447265625,-0.379058837890625,-0.0415802001953125
1783170003376752600,6.700752685546875,-0.5023956298828125,-0.3458251953125,-0.042816162109375
1783170003386701600,6.71070166015625,-0.5709075927734375,-0.3003387451171875,-0.02105712890625
1783170003396650500,6.720650390625,-0.63330078125,-0.26959228515625,0.0085601806640625
1783170003406598700,6.7305986328125,-0.69952392578125,-0.2483673095703125,0.046539306640625
1783170003416578600,6.74057861328125,-0.7925872802734375,-0.2169036865234375,0.0894317626953125
1783170003426526500,6.7505263671875,-0.8991546630859375,-0.193450927734375,0.10980224609375
1783170003436475400,6.760475341796875,-0.978729248046875,-0.1815948486328125,0.093017578125
1783170003446424600,6.770424560546875,-1.022796630859375,-0.1558074951171875,0.0654449462890625
1783170003456403500,6.780403564453125,-1.0476531982421875,-0.1534881591796875,0.0398406982421875
1783170003466352400,6.790352294921875,-1.1637725830078125,-0.185577392578125,0.0577850341796875
1783170003476301300,6.80030126953125,-1.1942596435546875,-0.223846435546875,0.1246185302734375
1783170003486280400,6.810280517578125,-1.05072021484375,-0.2993927001953125,0.1204833984375
1783170003496229600,6.820229736328125,-0.9428253173828125,-0.4053802490234375,0.1511077880859375
1783170003506177500,6.830177490234375,-0.8798980712890625,-0.5257415771484375,0.2583465576171875
1783170003516126700,6.840126708984375,-0.8244171142578125,-0.64178466796875,0.3462066650390625
1783170003526105600,6.850105712890625,-0.813873291015625,-0.709930419921875,0.4072418212890625
1783170003536054500,6.860054443359375,-0.80230712890625,-0.781768798828125,0.4644927978515625
1783170003546003500,6.87000341796875,-0.6904754638671875,-0.826141357421875,0.4610137939453125
1783170003555951600,6.87995166015625,-0.59808349609375,-0.84417724609375,0.4246368408203125
1783170003565931500,6.889931640625,-0.5926361083984375,-0.86566162109375,0.4084930419921875
1783170003575879700,6.899879638671875,-0.60418701171875,-0.8521575927734375,0.36993408203125
1783170003585828600,6.90982861328125,-0.7093658447265625,-0.8302764892578125,0.3036041259765625
1783170003595807500,6.919807373046875,-0.8871002197265625,-0.758758544921875,0.209075927734375
1783170003605756400,6.92975634765625,-1.084442138671875,-0.63238525390625,0.0504608154296875
1783170003615727000,6.93972705078125,-1.240447998046875,-0.431549072265625,-0.1836090087890625
1783170003625676000,6.949676025390625,-1.3747406005859375,-0.1825714111328125,-0.4426422119140625
1783170003635655200,6.9596552734375,-1.4203948974609375,0.0759124755859375,-0.6480255126953125
1783170003645604000,6.96960400390625,-1.42340087890625,0.2728729248046875,-0.75543212890625
1783170003655552300,6.97955224609375,-1.48406982421875,0.3076171875,-0.732208251953125
1783170003665501200,6.989501220703125,-1.5302276611328125,0.2361907958984375,-0.6014862060546875
1783170003675480000,6.99947998046875,-1.518463134765625,0.210845947265625,-0.5099029541015625
1783170003685429000,7.009428955078125,-1.4638671875,0.1929473876953125,-0.429412841796875
1783170003695378200,7.019378173828125,-1.35150146484375,0.149810791015625,-0.336944580078125
1783170003705357000,7.029357177734375,-1.2413787841796875,0.077667236328125,-0.2852935791015625
1783170003715306200,7.03930615234375,-1.1571502685546875,0.0128173828125,-0.222991943359375
1783170003725254100,7.049254150390625,-1.07806396484375,-0.01995849609375,-0.1627655029296875
1783170003735203300,7.059203369140625,-0.9675140380859375,-0.0677642822265625,-0.1383056640625
1783170003745182200,7.06918212890625,-0.8588104248046875,-0.1145477294921875,-0.1190338134765625
1783170003755131100,7.079131103515625,-0.7755126953125,-0.1475677490234375,-0.105316162109375
1783170003765080300,7.089080322265625,-0.6930389404296875,-0.176971435546875,-0.091888427734375
1783170003775029200,7.099029296875,-0.6204071044921875,-0.199493408203125,-0.0753631591796875
1783170003785008000,7.109008056640625,-0.559722900390625,-0.2158660888671875,-0.0583038330078125
1783170003794957000,7.11895703125,-0.502349853515625,-0.2373199462890625,-0.038055419921875
1783170003804905200,7.1289052734375,-0.4569854736328125,-0.258636474609375,-0.0106353759765625
1783170003814885000,7.138885009765625,-0.4204559326171875,-0.273681640625,0.01239013671875
1783170003824833300,7.148833251953125,-0.4046783447265625,-0.27105712890625,0.02642822265625
1783170003834782200,7.1587822265625,-0.4128570556640625,-0.265777587890625,0.04718017578125
1783170003844731100,7.168731201171875,-0.4368896484375,-0.248382568359375,0.0619964599609375
1783170003854710000,7.1787099609375,-0.4653472900390625,-0.2147979736328125,0.05914306640625
1783170003864659000,7.188658935546875,-0.503509521484375,-0.1956329345703125,0.060333251953125
1783170003874607000,7.198607177734375,-0.5342864990234375,-0.1790618896484375,0.066009521484375
1783170003884556000,7.20855615234375,-0.58709716796875,-0.1641387939453125,0.082275390625
1783170003894535200,7.21853515625,-0.6369781494140625,-0.14703369140625,0.0918426513671875
1783170003904484400,7.228484375,-0.6793060302734375,-0.1488494873046875,0.087677001953125
1783170003914433300,7.238433349609375,-0.7388916015625,-0.155120849609375,0.097625732421875
1783170003924412200,7.248412109375,-0.7887420654296875,-0.163848876953125,0.1103668212890625
1783170003934361300,7.258361328125,-0.847076416015625,-0.210693359375,0.1226806640625
1783170003944310300,7.268310302734375,-0.94439697265625,-0.26654052734375,0.1360015869140625
1783170003954258200,7.278258056640625,-1.076171875,-0.2930145263671875,0.13458251953125
1783170003964238000,7.288238037109375,-1.177703857421875,-0.301544189453125,0.0921630859375
1783170003974186200,7.298186279296875,-1.2133331298828125,-0.308319091796875,0.01226806640625
1783170003984135200,7.30813525390625,-1.2295074462890625,-0.3195648193359375,-0.05194091796875
1783170003994084000,7.318083984375,-1.2611846923828125,-0.357940673828125,-0.04571533203125
1783170004004063200,7.328063232421875,-1.3261260986328125,-0.4111328125,-0.020172119140625
1783170004014012200,7.33801220703125,-1.4195556640625,-0.4380645751953125,-0.0090484619140625
1783170004023960000,7.3479599609375,-1.4689483642578125,-0.4614105224609375,0.0238189697265625
1783170004033940000,7.35793994140625,-1.48162841796875,-0.4886016845703125,0.0788421630859375
1783170004043888000,7.36788818359375,-1.4810638427734375,-0.5131072998046875,0.1531524658203125
1783170004053837000,7.377837158203125,-1.5110626220703125,-0.5569000244140625,0.2521820068359375
1783170004063786200,7.3877861328125,-1.6083526611328125,-0.55474853515625,0.3048553466796875
1783170004073765400,7.397765380859375,-1.6481170654296875,-0.4903564453125,0.2977752685546875
1783170004083714300,7.40771435546875,-1.5891876220703125,-0.423492431640625,0.2291717529296875
1783170004093663200,7.417663330078125,-1.5274505615234375,-0.34283447265625,0.1622314453125
1783170004103642000,7.42764208984375,-1.4244842529296875,-0.2419281005859375,0.119964599609375
1783170004113591300,7.43759130859375,-1.301177978515625,-0.1627197265625,0.0892333984375
1783170004123539200,7.447539306640625,-1.205535888671875,-0.117584228515625,0.0657806396484375
1783170004133488000,7.457488037109375,-1.116119384765625,-0.0950927734375,0.056182861328125
1783170004143467300,7.46746728515625,-1.0425567626953125,-0.0910797119140625,0.0357208251953125
1783170004153416200,7.477416259765625,-0.9857635498046875,-0.093841552734375,0.003204345703125
1783170004163365000,7.487365234375,-0.9441680908203125,-0.1054229736328125,-0.02728271484375
1783170004173314000,7.49731396484375,-0.912261962890625,-0.134735107421875,-0.050689697265625
1783170004183293200,7.507293212890625,-0.9127960205078125,-0.18695068359375,-0.0826263427734375
1783170004193241000,7.517240966796875,-0.9460906982421875,-0.2246856689453125,-0.1504974365234375
1783170004203190000,7.52718994140625,-0.942108154296875,-0.2041473388671875,-0.2305450439453125
1783170004213169200,7.537169189453125,-0.8965301513671875,-0.167449951171875,-0.3070526123046875
1783170004223118000,7.5471181640625,-0.828033447265625,-0.166748046875,-0.34710693359375
1783170004233067300,7.5570673828125,-0.7440032958984375,-0.187103271484375,-0.3133392333984375
1783170004243016200,7.56701611328125,-0.6619720458984375,-0.21759033203125,-0.2390899658203125
1783170004252995300,7.576995361328125,-0.588897705078125,-0.2570953369140625,-0.1611328125
1783170004262944300,7.5869443359375,-0.53228759765625,-0.283660888671875,-0.0941619873046875
1783170004272892200,7.59689208984375,-0.4638519287109375,-0.3029327392578125,-0.0591888427734375
1783170004282841000,7.606841064453125,-0.4104461669921875,-0.3044586181640625,-0.045074462890625
1783170004292820200,7.6168203125,-0.3826751708984375,-0.2948760986328125,-0.048919677734375
1783170004302769200,7.62676904296875,-0.38690185546875,-0.2931976318359375,-0.0484619140625
1783170004312718000,7.636718017578125,-0.3993988037109375,-0.2990875244140625,-0.04620361328125
1783170004322697200,7.646697265625,-0.4122161865234375,-0.2971343994140625,-0.04058837890625
1783170004332646100,7.656646240234375,-0.43365478515625,-0.2835540771484375,-0.029205322265625
1783170004342595000,7.666594970703125,-0.439422607421875,-0.2703704833984375,-0.0150146484375
1783170004352543200,7.676543212890625,-0.458251953125,-0.2520294189453125,-0.0083465576171875
1783170004362522000,7.686522216796875,-0.4875335693359375,-0.2352752685546875,-0.008880615234375
1783170004372471000,7.696470947265625,-0.5172882080078125,-0.2156829833984375,-0.0001983642578125
1783170004382420000,7.706419921875,-0.56396484375,-0.199310302734375,-0.000152587890625
1783170004392369200,7.716369140625,-0.6112518310546875,-0.178741455078125,-0.0019683837890625
1783170004402348300,7.726348388671875,-0.642730712890625,-0.164703369140625,-0.005645751953125
1783170004412297200,7.736297119140625,-0.668243408203125,-0.1671600341796875,-0.00506591796875
1783170004422245400,7.746245361328125,-0.6867218017578125,-0.1826171875,0.0185546875
1783170004432225300,7.756225341796875,-0.6588897705078125,-0.2119903564453125,0.0770111083984375
1783170004442173200,7.766173095703125,-0.6204986572265625,-0.2772216796875,0.1549835205078125
1783170004452122000,7.7761220703125,-0.5836639404296875,-0.3434906005859375,0.2496490478515625
1783170004462071300,7.7860712890625,-0.5609283447265625,-0.4175262451171875,0.344635009765625
1783170004472050200,7.79605029296875,-0.5556640625,-0.524383544921875,0.4596099853515625
1783170004481999000,7.8059990234375,-0.580902099609375,-0.6373443603515625,0.5805511474609375
1783170004491948000,7.815947998046875,-0.5880889892578125,-0.81390380859375,0.7034912109375
1783170004501896200,7.825896240234375,-0.7104034423828125,-0.9796295166015625,0.77484130859375
1783170004511876000,7.8358759765625,-1.1029205322265625,-0.9912109375,0.7629852294921875
1783170004521824000,7.845823974609375,-1.592864990234375,-0.901824951171875,0.63916015625
1783170004531773200,7.855773193359375,-2.01953125,-0.7560272216796875,0.30859375
1783170004541752000,7.865751953125,-2.3366546630859375,-0.490753173828125,-0.1936492919921875
1783170004551701000,7.875700927734375,-2.305908203125,-0.0662689208984375,-0.751495361328125
1783170004561650200,7.885650146484375,-2.1285858154296875,0.4996795654296875,-1.19781494140625
1783170004571598000,7.89559814453125,-1.96600341796875,0.645965576171875,-1.14501953125
1783170004581578200,7.905578125,-1.84356689453125,0.3936920166015625,-0.7224578857421875
1783170004591526100,7.915526123046875,-1.6255645751953125,0.2879486083984375,-0.326873779296875
1783170004601475300,7.925475341796875,-1.4486236572265625,0.251861572265625,-0.161468505859375
1783170004611424300,7.93542431640625,-1.4421539306640625,0.1957550048828125,-0.1367034912109375
1783170004621442600,7.945442626953125,-1.478515625,0.159637451171875,-0.1287384033203125
1783170004631391500,7.9553916015625,-1.4948577880859375,0.1535797119140625,-0.2412261962890625
1783170004641340400,7.96534033203125,-1.44403076171875,0.1606903076171875,-0.3651123046875
1783170004651319600,7.975319580078125,-1.3475189208984375,0.16900634765625,-0.44085693359375
1783170004661268500,7.9852685546875,-1.1969757080078125,0.1350555419921875,-0.4155731201171875
1783170004671216400,7.99521630859375,-1.044036865234375,0.0503387451171875,-0.2897186279296875
1783170004681165600,8.00516552734375,-0.904205322265625,-0.0552215576171875,-0.181365966796875
1783170004691144400,8.01514453125,-0.7653656005859375,-0.1614227294921875,-0.081268310546875
1783170004701093400,8.02509326171875,-0.63311767578125,-0.238067626953125,-0.0061187744140625
1783170004711042300,8.035042236328126,-0.528350830078125,-0.29595947265625,0.0167999267578125
1783170004720990500,8.044990478515626,-0.4329071044921875,-0.3399505615234375,0.024444580078125
1783170004730970400,8.054970458984375,-0.3651580810546875,-0.3619842529296875,0.0205535888671875
1783170004740918300,8.064918212890625,-0.3055267333984375,-0.3861541748046875,0.019805908203125
1783170004750867500,8.074867431640625,-0.252166748046875,-0.39630126953125,0.028533935546875
1783170004760846300,8.084846435546876,-0.204254150390625,-0.404998779296875,0.0493927001953125
1783170004770795300,8.094795166015626,-0.1549224853515625,-0.418304443359375,0.0695343017578125
1783170004780744400,8.104744384765626,-0.1349639892578125,-0.4238433837890625,0.089324951171875
1783170004790693600,8.114693603515626,-0.1436004638671875,-0.4075469970703125,0.0987396240234375
1783170004800672500,8.124672607421875,-0.136383056640625,-0.4034576416015625,0.093109130859375
1783170004810621400,8.134621337890625,-0.167236328125,-0.3856964111328125,0.060302734375
1783170004820569600,8.144569580078125,-0.2286529541015625,-0.3423309326171875,0.02655029296875
1783170004830518500,8.1545185546875,-0.2498626708984375,-0.3097686767578125,-0.003631591796875
1783170004840497400,8.164497314453126,-0.276092529296875,-0.2800750732421875,-0.0272674560546875
1783170004850446300,8.1744462890625,-0.31500244140625,-0.240234375,-0.043548583984375
1783170004860395500,8.1843955078125,-0.3470611572265625,-0.2169036865234375,-0.0430145263671875
1783170004870374400,8.19437451171875,-0.3901519775390625,-0.2113037109375,-0.03057861328125
1783170004880323300,8.2043232421875,-0.462066650390625,-0.230865478515625,-0.008392333984375
1783170004890271500,8.214271484375,-0.600250244140625,-0.2340087890625,0.0154571533203125
1783170004900220400,8.224220458984375,-0.7540130615234375,-0.2453765869140625,0.033416748046875
1783170004910199300,8.23419921875,-0.873138427734375,-0.2808990478515625,0.049102783203125
1783170004920148500,8.2441484375,-1.043365478515625,-0.2997589111328125,0.057342529296875
1783170004930097400,8.254097412109376,-1.2201690673828125,-0.2695465087890625,0.05853271484375
1783170004940046600,8.264046630859376,-1.3517913818359375,-0.276519775390625,0.06256103515625
1783170004950025500,8.274025390625,-1.447418212890625,-0.324981689453125,0.0850067138671875
1783170004959974400,8.283974365234375,-1.5722503662109375,-0.4482879638671875,0.200653076171875
1783170004969922600,8.293922607421875,-1.834869384765625,-0.506591796875,0.2594757080078125
1783170004979902500,8.30390234375,-2.1302337646484375,-0.4727020263671875,0.17999267578125
1783170004989850600,8.3138505859375,-2.45111083984375,-0.4561004638671875,-0.00653076171875
1783170004999799600,8.323799560546876,-2.68450927734375,-0.3901519775390625,-0.2127838134765625
1783170005009748500,8.33374853515625,-2.743438720703125,-0.2177581787109375,-0.44659423828125
1783170005019727400,8.343727294921875,-2.6940460205078125,0.0001678466796875,-0.646148681640625
1783170005029676500,8.353676513671875,-2.5697784423828125,0.153717041015625,-0.7173004150390625
1783170005039624400,8.36362451171875,-2.455291748046875,0.1937103271484375,-0.6754913330078125
1783170005049573400,8.373573486328125,-2.3886566162109375,0.119476318359375,-0.5294189453125
1783170005059552500,8.383552490234376,-2.2781829833984375,0.0749053955078125,-0.3821868896484375
1783170005069501400,8.39350146484375,-2.037811279296875,0.061279296875,-0.3115081787109375
1783170005079450400,8.403450439453126,-1.771942138671875,0.011749267578125,-0.272064208984375
1783170005089429500,8.413429443359375,-1.5161895751953125,-0.0260009765625,-0.24163818359375
1783170005099378400,8.42337841796875,-1.30352783203125,-0.0687408447265625,-0.253265380859375
1783170005109327600,8.43332763671875,-1.1244659423828125,-0.123016357421875,-0.279083251953125
1783170005119275500,8.443275634765625,-0.969207763671875,-0.1889801025390625,-0.280029296875
1783170005129255400,8.45325537109375,-0.8553924560546875,-0.2668914794921875,-0.2510528564453125
1783170005139203600,8.46320361328125,-0.75225830078125,-0.333648681640625,-0.20086669921875
1783170005149152500,8.473152587890626,-0.6424407958984375,-0.3666229248046875,-0.1509857177734375
1783170005159101400,8.483101318359376,-0.5417938232421875,-0.37518310546875,-0.107696533203125
1783170005169080600,8.49308056640625,-0.4697418212890625,-0.3762359619140625,-0.0516357421875
1783170005179029500,8.503029541015625,-0.4176177978515625,-0.3762969970703125,0.0167388916015625
1783170005188978400,8.512978515625,-0.3807830810546875,-0.3667449951171875,0.069000244140625
1783170005198957600,8.52295751953125,-0.3549346923828125,-0.3486175537109375,0.096405029296875
1783170005208905500,8.532905517578126,-0.3309326171875,-0.3170928955078125,0.1095428466796875
1783170005218854400,8.5428544921875,-0.3013916015625,-0.288421630859375,0.112396240234375
1783170005228803300,8.55280322265625,-0.27166748046875,-0.2668304443359375,0.108123779296875
1783170005238782500,8.562782470703125,-0.2376251220703125,-0.2447052001953125,0.1059722900390625
1783170005248731400,8.5727314453125,-0.194244384765625,-0.216217041015625,0.1037750244140625
1783170005258680300,8.582680419921875,-0.1579437255859375,-0.1853485107421875,0.095306396484375
1783170005268659500,8.592659423828126,-0.1235504150390625,-0.1715545654296875,0.0966796875
1783170005278608600,8.602608642578126,-0.09307861328125,-0.1719512939453125,0.1031951904296875
1783170005288556500,8.612556640625,-0.0688323974609375,-0.164276123046875,0.0969085693359375
1783170005298505500,8.62250537109375,-0.042816162109375,-0.159576416015625,0.0734710693359375
1783170005308484600,8.632484619140625,-0.02349853515625,-0.1637115478515625,0.050079345703125
1783170005318433500,8.64243359375,-0.0137176513671875,-0.17266845703125,0.0283660888671875
1783170005328382500,8.652382568359375,-0.0124664306640625,-0.1704864501953125,-0.0010833740234375
1783170005338331400,8.662331298828125,-0.0135498046875,-0.1648712158203125,-0.026641845703125
1783170005348310500,8.672310546875,-0.01312255859375,-0.15191650390625,-0.0494537353515625
1783170005358259500,8.682259521484376,-0.0124969482421875,-0.1312103271484375,-0.059326171875
1783170005368207400,8.692207275390626,-0.0207977294921875,-0.1167144775390625,-0.05645751953125
1783170005378186500,8.7021865234375,-0.0516204833984375,-0.1107025146484375,-0.0605316162109375
1783170005388135400,8.712135498046875,-0.1176300048828125,-0.09613037109375,-0.062652587890625
1783170005398084400,8.72208447265625,-0.1981964111328125,-0.11175537109375,-0.0655975341796875
1783170005408033300,8.732033203125,-0.4054107666015625,-0.155853271484375,-0.047149658203125
1783170005418012400,8.742012451171876,-0.7013702392578125,-0.1662445068359375,-0.0093841552734375
1783170005427961300,8.75196142578125,-0.8898468017578125,-0.2004241943359375,0.0514678955078125
1783170005437909200,8.7619091796875,-1.0339202880859375,-0.3017578125,0.1487579345703125
1783170005447858700,8.771858642578126,-1.3706512451171875,-0.3989715576171875,0.2237701416015625
1783170005457837300,8.78183740234375,-1.7630462646484375,-0.461883544921875,0.310821533203125
1783170005467786500,8.791786376953125,-2.0077056884765625,-0.51568603515625,0.3734283447265625
1783170005477735400,8.8017353515625,-2.1502227783203125,-0.5125274658203125,0.375091552734375
1783170005487714600,8.811714599609376,-2.253631591796875,-0.5020751953125,0.33831787109375
1783170005497663500,8.82166357421875,-2.34619140625,-0.4989471435546875,0.3326416015625
1783170005507612400,8.8316123046875,-2.4272918701171875,-0.53143310546875,0.3275604248046875
1783170005517560600,8.841560546875,-2.593536376953125,-0.522735595703125,0.247222900390625
1783170005527540500,8.85154052734375,-2.705108642578125,-0.4515838623046875,0.209930419921875
1783170005537488400,8.86148828125,-2.5834808349609375,-0.34515380859375,0.123443603515625
1783170005547437300,8.871437255859375,-2.373626708984375,-0.2252044677734375,-0.067413330078125
1783170005557386500,8.881386474609375,-2.125946044921875,-0.1297760009765625,-0.1898651123046875
1783170005567365400,8.891365478515626,-1.859222412109375,-0.0865020751953125,-0.240875244140625
1783170005577314300,8.901314208984376,-1.591461181640625,-0.0631103515625,-0.2287445068359375
1783170005587262500,8.911262451171876,-1.3254241943359375,-0.0337982177734375,-0.1994476318359375
1783170005597242400,8.921242431640625,-1.096954345703125,-0.0214996337890625,-0.1388702392578125
1783170005607190300,8.931190185546875,-0.920166015625,-0.043792724609375,-0.054656982421875
1783170005617136000,8.94113623046875,-0.783111572265625,-0.1614837646484375,0.032135009765625
1783170005627085300,8.951085205078124,-0.7194671630859375,-0.3544158935546875,0.09027099609375
1783170005637064200,8.961064208984375,-0.7078094482421875,-0.4542999267578125,0.1022796630859375
1783170005647013000,8.97101318359375,-0.685272216796875,-0.4241180419921875,0.0619659423828125
1783170005656962000,8.980962158203125,-0.6463623046875,-0.3833770751953125,-0.0086212158203125
1783170005666910200,8.99091015625,-0.588134765625,-0.378021240234375,-0.0630645751953125
1783170005676890000,9.00089013671875,-0.536041259765625,-0.379180908203125,-0.0613555908203125
1783170005686838300,9.01083837890625,-0.482269287109375,-0.4003753662109375,-0.0109405517578125
1783170005696787200,9.020787109375,-0.4209136962890625,-0.429473876953125,0.0646209716796875
1783170005706766000,9.03076611328125,-0.335784912109375,-0.4617919921875,0.13275146484375
1783170005716715000,9.040715087890625,-0.246337890625,-0.4874114990234375,0.1872711181640625
1783170005726664200,9.050664306640625,-0.1796875,-0.4886474609375,0.225555419921875
1783170005736612000,9.060612060546875,-0.1299591064453125,-0.4703216552734375,0.2363433837890625
1783170005746592300,9.07059228515625,-0.0924072265625,-0.44464111328125,0.2251434326171875
1783170005756540200,9.0805400390625,-0.065460205078125,-0.408538818359375,0.203765869140625
1783170005766489300,9.0904892578125,-0.0518341064453125,-0.3604736328125,0.179931640625
1783170005776438300,9.100438232421874,-0.05303955078125,-0.3123779296875,0.146331787109375
1783170005786417200,9.110417236328125,-0.069732666015625,-0.2700653076171875,0.1143798828125
1783170005796366300,9.120366455078125,-0.1079864501953125,-0.2427520751953125,0.0749359130859375
1783170005806315300,9.130315185546875,-0.1477813720703125,-0.2177886962890625,0.03045654296875
1783170005816294100,9.140294189453124,-0.1914825439453125,-0.190216064453125,-0.0133056640625
1783170005826243000,9.1502431640625,-0.2483367919921875,-0.17181396484375,-0.047943115234375
1783170005836191200,9.160191162109374,-0.3322296142578125,-0.1594390869140625,-0.0638275146484375
1783170005846140200,9.17014013671875,-0.4602508544921875,-0.14990234375,-0.06695556640625
1783170005856119000,9.180119140625,-0.65728759765625,-0.144683837890625,-0.0749969482421875
1783170005866068200,9.190068115234375,-0.8850250244140625,-0.119720458984375,-0.0817413330078125
1783170005876017200,9.20001708984375,-1.119384765625,-0.099151611328125,-0.0949859619140625
1783170005885965000,9.209965087890625,-1.310699462890625,-0.1058349609375,-0.11322021484375
1783170005895945000,9.219945068359374,-1.5068206787109375,-0.14459228515625,-0.085968017578125
1783170005905893000,9.22989306640625,-1.892486572265625,-0.2862091064453125,-0.006683349609375
1783170005915842000,9.239842041015624,-2.2880096435546875,-0.5204010009765625,0.1403045654296875
1783170005925821200,9.2498212890625,-2.58172607421875,-0.6416015625,0.224853515625
1783170005935770400,9.259770263671875,-2.739959716796875,-0.7143402099609375,0.2483978271484375
1783170005945719300,9.26971923828125,-2.8459625244140625,-0.78570556640625,0.24322509765625
1783170005955668200,9.279668212890625,-3.046234130859375,-0.637939453125,0.180999755859375
1783170005965647000,9.289647216796874,-3.2021331787109375,-0.6082916259765625,0.1543731689453125
1783170005975596300,9.29959619140625,-3.2318267822265625,-0.57464599609375,0.060638427734375
1783170005985544200,9.309544189453124,-3.0446319580078125,-0.422393798828125,-0.041748046875
1783170005995493000,9.3194931640625,-2.760406494140625,-0.30328369140625,-0.08441162109375
1783170006005472300,9.32947216796875,-2.5001068115234375,-0.291290283203125,-0.0603790283203125
1783170006015421200,9.339421142578125,-2.234222412109375,-0.3178558349609375,0.039794921875
1783170006025370000,9.3493701171875,-1.9312591552734375,-0.3300628662109375,0.1179962158203125
1783170006035349200,9.359349365234374,-1.6065216064453125,-0.331512451171875,0.1501312255859375
1783170006045298200,9.369298095703124,-1.288116455078125,-0.326141357421875,0.164886474609375
1783170006055246000,9.37924609375,-0.9808197021484375,-0.2974853515625,0.1539154052734375
1783170006065195000,9.389195068359374,-0.685394287109375,-0.250274658203125,0.109893798828125
1783170006075174100,9.399174072265625,-0.429046630859375,-0.1666717529296875,0.00836181640625
1783170006085123000,9.409123046875,-0.2303924560546875,-0.0988922119140625,-0.1114044189453125
1783170006095072300,9.419072265625,-0.02557373046875,-0.0721435546875,-0.20770263671875
1783170006105021200,9.429021240234375,0.158599853515625,-0.0765533447265625,-0.238433837890625
1783170006115000300,9.439000244140624,0.2938690185546875,-0.080047607421875,-0.1851806640625
1783170006124949200,9.44894921875,0.4098358154296875,-0.1006927490234375,-0.117767333984375
1783170006134897200,9.458897216796874,0.5075225830078125,-0.1408233642578125,-0.0688934326171875
1783170006144877300,9.468877197265625,0.551605224609375,-0.1829376220703125,-0.060791015625
1783170006154825200,9.4788251953125,0.5588836669921875,-0.2237091064453125,-0.0609283447265625
1783170006164774100,9.488774169921875,0.5440673828125,-0.235809326171875,-0.07373046875
1783170006174723000,9.49872314453125,0.5040740966796875,-0.22235107421875,-0.1106414794921875
1783170006184702200,9.5087021484375,0.43328857421875,-0.2133331298828125,-0.1317901611328125
1783170006194651100,9.518651123046874,0.351776123046875,-0.1932830810546875,-0.1494598388671875
1783170006204600000,9.52860009765625,0.269134521484375,-0.15802001953125,-0.1609954833984375
1783170006214548200,9.53854833984375,0.1876373291015625,-0.1385650634765625,-0.15338134765625
1783170006224527000,9.548527099609375,0.10040283203125,-0.1157379150390625,-0.1436920166015625
1783170006234476000,9.55847607421875,0.0156402587890625,-0.0756683349609375,-0.129364013671875
1783170006244425000,9.568425048828125,-0.0432586669921875,-0.0612640380859375,-0.1042022705078125
1783170006254404000,9.578404052734374,-0.0866241455078125,-0.0306549072265625,-0.0689697265625
1783170006264353300,9.588353271484374,-0.1204833984375,0.0037841796875,-0.0311279296875
1783170006274302200,9.59830224609375,-0.1432647705078125,0.00592041015625,-0.0028076171875
1783170006284250400,9.60825048828125,-0.1585845947265625,0.0318145751953125,0.0073699951171875
1783170006294230300,9.618230224609375,-0.1815948486328125,0.0366973876953125,0.01239013671875
1783170006304178200,9.62817822265625,-0.198394775390625,0.0423431396484375,0.0050811767578125
1783170006314127000,9.638127197265625,-0.2368927001953125,0.046783447265625,0.0236358642578125
1783170006324076300,9.648076171875,-0.280548095703125,-0.0023040771484375,0.0552215576171875
1783170006334055200,9.65805517578125,-0.370147705078125,-0.082366943359375,0.0965423583984375
1783170006344004000,9.668004150390624,-0.525054931640625,-0.1651763916015625,0.1502532958984375
1783170006353953000,9.677953125,-0.73968505859375,-0.258514404296875,0.1778717041015625
1783170006363932200,9.68793212890625,-0.9470367431640625,-0.339630126953125,0.17236328125
1783170006373881000,9.697881103515625,-1.1048126220703125,-0.4180755615234375,0.2389984130859375
1783170006383829000,9.7078291015625,-1.359832763671875,-0.592864990234375,0.3699188232421875
1783170006393778200,9.717778076171875,-1.765228271484375,-0.767303466796875,0.4531402587890625
1783170006403757000,9.727757080078124,-2.32421875,-0.8086090087890625,0.3809661865234375
1783170006413706000,9.7377060546875,-2.8247222900390625,-0.7652740478515625,0.18951416015625
1783170006423655200,9.7476552734375,-3.0980682373046875,-0.59375,-0.09698486328125
1783170006433603000,9.75760302734375,-3.257843017578125,-0.2414703369140625,-0.37115478515625
1783170006443583200,9.767583251953125,-3.2830657958984375,-0.1823272705078125,-0.408172607421875
1783170006453531400,9.777531494140625,-3.1674652099609375,-0.237396240234375,-0.3253021240234375
1783170006463480300,9.787480224609375,-2.8756561279296875,-0.211090087890625,-0.193206787109375
1783170006473459200,9.797459228515624,-2.55450439453125,-0.3067169189453125,-0.022552490234375
1783170006483408100,9.807408203125,-2.2071075439453125,-0.4791107177734375,0.122802734375
1783170006493357000,9.817357177734374,-1.8266754150390625,-0.62042236328125,0.2125396728515625
1783170006503306200,9.82730615234375,-1.4761199951171875,-0.6890411376953125,0.2407989501953125
1783170006513285000,9.83728515625,-1.240936279296875,-0.6783905029296875,0.2464752197265625
1783170006523234000,9.847234130859375,-1.1027679443359375,-0.623504638671875,0.238616943359375
1783170006533182200,9.85718212890625,-0.9942474365234375,-0.572296142578125,0.238525390625
1783170006543131100,9.867131103515625,-0.9429168701171875,-0.4819793701171875,0.2217559814453125
1783170006553110000,9.877110107421874,-0.88995361328125,-0.391754150390625,0.1741943359375
1783170006563059200,9.88705908203125,-0.813140869140625,-0.3311767578125,0.0930633544921875
1783170006573008100,9.897008056640624,-0.7180023193359375,-0.26678466796875,0.007049560546875
1783170006582987000,9.906987060546875,-0.630157470703125,-0.2289886474609375,-0.0475616455078125
1783170006592936200,9.916936279296875,-0.560455322265625,-0.239227294921875,-0.032501220703125
1783170006602884000,9.926884033203125,-0.488861083984375,-0.2823486328125,0.0272064208984375
1783170006612833300,9.936833251953125,-0.426727294921875,-0.3146820068359375,0.062591552734375
1783170006622836500,9.94683642578125,-0.3775634765625,-0.3359375,0.073822021484375
1783170006632785700,9.95678564453125,-0.3478851318359375,-0.3390350341796875,0.0602569580078125
1783170006642734600,9.966734619140626,-0.3258209228515625,-0.327667236328125,0.06463623046875
1783170006652713500,9.97671337890625,-0.305389404296875,-0.31854248046875,0.0613555908203125
1783170006662662400,9.986662353515625,-0.299224853515625,-0.313934326171875,0.0372161865234375
1783170006672611600,9.996611572265625,-0.28887939453125,-0.2918243408203125,0.0297393798828125
1783170006682559500,10.0065595703125,-0.262451171875,-0.2535400390625,0.0381622314453125
1783170006692539600,10.01653955078125,-0.25775146484375,-0.22705078125,0.0322113037109375
1783170006702487600,10.026487548828126,-0.264801025390625,-0.2192840576171875,0.0305633544921875
1783170006712436700,10.036436767578126,-0.27288818359375,-0.221282958984375,0.04132080078125
1783170006722385700,10.0463857421875,-0.277618408203125,-0.22772216796875,0.0557098388671875
1783170006732364500,10.056364501953125,-0.280670166015625,-0.206085205078125,0.0717010498046875
1783170006742313700,10.066313720703125,-0.2891998291015625,-0.1541290283203125,0.07232666015625
1783170006752261600,10.07626171875,-0.268341064453125,-0.133819580078125,0.0813751220703125
1783170006762241500,10.086241455078126,-0.24945068359375,-0.268585205078125,0.0758209228515625
1783170006772189700,10.096189697265626,-0.2914886474609375,-0.496856689453125,0.0057830810546875
1783170006782138600,10.106138671875,-0.3150634765625,-0.3494873046875,-0.0930023193359375
1783170006792087600,10.116087646484376,-0.2971343994140625,0.0413818359375,-0.11419677734375
1783170006802066700,10.126066650390625,-0.2339019775390625,0.2890167236328125,-0.0971221923828125
1783170006812015600,10.136015625,-0.1997833251953125,0.344390869140625,0.0321807861328125
1783170006821964500,10.145964599609375,-0.2967529296875,0.1847991943359375,0.17755126953125
1783170006831912400,10.155912353515625,-0.456451416015625,-0.08843994140625,0.1917572021484375
1783170006841892600,10.165892578125,-0.577545166015625,-0.2460479736328125,0.1074066162109375
1783170006851840500,10.175840576171876,-0.866851806640625,-0.134368896484375,-0.07958984375
1783170006861789400,10.18578955078125,-1.303131103515625,0.0687713623046875,-0.301971435546875
1783170006871768600,10.1957685546875,-1.618743896484375,0.0746917724609375,-0.307647705078125
1783170006881717800,10.2057177734375,-2.11419677734375,-0.197662353515625,-0.085784912109375
1783170006891666700,10.215666748046875,-2.7507171630859375,-0.5755615234375,0.266571044921875
1783170006901614600,10.225614501953125,-3.0675048828125,-0.7700347900390625,0.4558563232421875
1783170006911594800,10.2355947265625,-3.1819305419921875,-0.6241912841796875,0.443115234375
1783170006921542700,10.245542724609376,-3.24920654296875,-0.307037353515625,0.455108642578125
1783170006931491600,10.25549169921875,-3.2008819580078125,-0.1782379150390625,0.5248870849609375
1783170006941440500,10.2654404296875,-3.124908447265625,-0.15155029296875,0.5503692626953125
1783170006951419600,10.275419677734375,-2.8897552490234375,-0.1744842529296875,0.621246337890625
1783170006961368600,10.28536865234375,-2.55224609375,-0.2358856201171875,0.723114013671875
1783170006971317500,10.2953173828125,-2.395477294921875,-0.2666778564453125,0.70196533203125
1783170006981296600,10.305296630859376,-2.189910888671875,-0.2733612060546875,0.542388916015625
1783170006991245600,10.31524560546875,-1.90008544921875,-0.2552490234375,0.39404296875
1783170007001193500,10.325193359375,-1.6203460693359375,-0.2657623291015625,0.2852630615234375
1783170007011142400,10.335142333984376,-1.38897705078125,-0.3073577880859375,0.1501617431640625
1783170007021121500,10.34512158203125,-1.1957855224609375,-0.384552001953125,0.0800933837890625
1783170007031070500,10.355070556640625,-1.0465087890625,-0.5895843505859375,0.09320068359375
1783170007041019600,10.36501953125,-0.94879150390625,-0.8238372802734375,0.1191253662109375
1783170007050967800,10.3749677734375,-0.8253936767578125,-0.7890777587890625,0.0692291259765625
1783170007060947700,10.38494775390625,-0.5907440185546875,-0.465118408203125,-0.0535736083984375
1783170007070895600,10.3948955078125,-0.346405029296875,-0.196136474609375,-0.1490478515625
1783170007080844500,10.404844482421876,-0.1729583740234375,-0.032501220703125,-0.2056427001953125
1783170007090823700,10.41482373046875,-0.01318359375,-0.008056640625,-0.1455535888671875
1783170007100772600,10.424772705078125,0.12884521484375,-0.0110626220703125,-0.0238037109375
1783170007110721500,10.434721435546875,0.2144317626953125,-0.0045166015625,0.063751220703125
1783170007120670500,10.44467041015625,0.250946044921875,-0.0113067626953125,0.1658782958984375
1783170007130649600,10.454649658203126,0.2560882568359375,-0.024017333984375,0.26873779296875
1783170007140598500,10.4645986328125,0.2172698974609375,-0.0328216552734375,0.3049468994140625
1783170007150546400,10.47454638671875,0.1584625244140625,-0.008148193359375,0.3019561767578125
1783170007160495600,10.48449560546875,0.077880859375,0.001800537109375,0.264862060546875
1783170007170474500,10.494474609375,0.03070068359375,-0.0156402587890625,0.20166015625
1783170007180423400,10.50442333984375,0.021331787109375,0.00408935546875,0.1265869140625
1783170007190372400,10.514372314453125,-0.0000152587890625,0.0494232177734375,0.048004150390625
1783170007200351500,10.5243515625,-0.019500732421875,0.0583343505859375,0.011474609375
1783170007210300700,10.53430078125,-0.037872314453125,0.04559326171875,-0.02587890625
1783170007220249600,10.54424951171875,-0.0596466064453125,0.04278564453125,-0.0428009033203125
1783170007230197800,10.55419775390625,-0.077362060546875,0.0106964111328125,-0.021331787109375
1783170007240176600,10.5641767578125,-0.100830078125,-0.01513671875,0.0312652587890625
1783170007250125600,10.57412548828125,-0.12261962890625,-0.0660400390625,0.0662994384765625
1783170007260074500,10.584074462890625,-0.09613037109375,-0.0598602294921875,0.0514678955078125
1783170007270023700,10.594023681640625,-0.1454620361328125,0.00665283203125,0.0737457275390625
1783170007280002600,10.60400244140625,-0.1634674072265625,-0.0150604248046875,0.087738037109375
1783170007289951500,10.613951416015626,-0.193634033203125,-0.0424041748046875,0.1004638671875
1783170007299899600,10.623899658203126,-0.2812652587890625,-0.1027679443359375,0.1384429931640625
1783170007309879600,10.633879638671875,-0.3713531494140625,-0.1821441650390625,0.1505279541015625
1783170007319827500,10.643827392578125,-0.492584228515625,-0.265045166015625,0.1547088623046875
1783170007329776600,10.653776611328125,-0.6741180419921875,-0.372344970703125,0.1348419189453125
1783170007339725600,10.6637255859375,-0.928558349609375,-0.4152679443359375,0.103668212890625
1783170007349704400,10.673704345703126,-1.20660400390625,-0.5045928955078125,0.0853424072265625
1783170007359653400,10.6836533203125,-1.582794189453125,-0.664459228515625,0.1649322509765625
1783170007369602600,10.6936025390625,-2.133544921875,-0.8990020751953125,0.2685394287109375
1783170007379550700,10.70355078125,-2.5875396728515625,-0.96759033203125,0.2980804443359375
1783170007389530600,10.713530517578125,-2.7348480224609375,-0.90667724609375,0.2263946533203125
1783170007399478800,10.723478759765625,-2.77032470703125,-0.8202972412109375,0.1445465087890625
1783170007409427700,10.733427734375,-2.8412628173828125,-0.6942291259765625,0.0519866943359375
1783170007419406600,10.743406494140626,-2.95184326171875,-0.6345977783203125,-0.01397705078125
1783170007429355500,10.75335546875,-2.9557647705078125,-0.6188201904296875,-0.0566558837890625
1783170007439304700,10.7633046875,-2.8256683349609375,-0.5723114013671875,-0.0798187255859375
1783170007449252600,10.773252685546876,-2.6834259033203125,-0.514739990234375,-0.092742919921875
1783170007459232500,10.783232421875,-2.595947265625,-0.4763641357421875,-0.1417388916015625
1783170007469180700,10.7931806640625,-2.4637298583984375,-0.4352569580078125,-0.1945648193359375
1783170007479129600,10.803129638671875,-2.1908416748046875,-0.3583526611328125,-0.2798309326171875
1783170007489078500,10.81307861328125,-1.89190673828125,-0.3139495849609375,-0.28924560546875
1783170007499057400,10.823057373046876,-1.5421295166015625,-0.3668212890625,-0.23199462890625
1783170007509006600,10.833006591796876,-1.2555999755859375,-0.37725830078125,-0.1672821044921875
1783170007518955500,10.84295556640625,-0.9895782470703125,-0.328125,-0.1099395751953125
1783170007528934400,10.852934326171875,-0.7395172119140625,-0.2756805419921875,-0.095733642578125
1783170007538883600,10.862883544921875,-0.552398681640625,-0.1889495849609375,-0.1002960205078125
1783170007548831700,10.872831787109375,-0.3955230712890625,-0.103302001953125,-0.093536376953125
1783170007558780700,10.88278076171875,-0.269683837890625,-0.04815673828125,-0.06890869140625
1783170007568759600,10.892759521484376,-0.18310546875,-0.0273284912109375,-0.0178070068359375
1783170007578708700,10.902708740234376,-0.119049072265625,-0.068206787109375,0.0496826171875
1783170007588657700,10.91265771484375,-0.067291259765625,-0.098052978515625,0.1073455810546875
1783170007598605600,10.92260546875,-0.00994873046875,-0.127685546875,0.1581268310546875
1783170007608585500,10.93258544921875,0.042449951171875,-0.170867919921875,0.168426513671875
1783170007618567700,10.942567626953124,0.087554931640625,-0.1744842529296875,0.1490631103515625
1783170007628516600,10.9525166015625,0.1384735107421875,-0.1814727783203125,0.12164306640625
1783170007638495700,10.962495849609375,0.176116943359375,-0.207855224609375,0.0906829833984375
1783170007648444700,10.972444580078125,0.20147705078125,-0.217010498046875,0.056243896484375
1783170007658393600,10.9823935546875,0.2159271240234375,-0.2137908935546875,0.023773193359375
1783170007668342500,10.992342529296875,0.2063751220703125,-0.2156524658203125,0.00506591796875
1783170007678321700,11.00232177734375,0.1746368408203125,-0.218505859375,0.0021820068359375
1783170007688270600,11.0122705078125,0.1260833740234375,-0.210479736328125,-0.0003662109375
1783170007698218500,11.022218505859374,0.0814208984375,-0.18316650390625,-0.0047607421875
1783170007708167700,11.032167724609375,0.0293121337890625,-0.1494903564453125,-0.0074920654296875
1783170007718146600,11.042146484375,-0.032135009765625,-0.1199188232421875,-0.0037689208984375
1783170007728095700,11.052095703125,-0.0830841064453125,-0.1007232666015625,0.00799560546875
1783170007738044700,11.062044677734375,-0.0957794189453125,-0.1032257080078125,0.0255126953125
1783170007748023800,11.07202392578125,-0.1101531982421875,-0.0884552001953125,0.0332489013671875
1783170007757972700,11.08197265625,-0.153900146484375,-0.05841064453125,0.042877197265625
1783170007767920600,11.091920654296874,-0.1829833984375,-0.053375244140625,0.041534423828125
1783170007777869800,11.101869873046875,-0.2134857177734375,-0.059295654296875,0.0217742919921875
1783170007787848700,11.1118486328125,-0.2507171630859375,-0.04742431640625,0.0124359130859375
1783170007797797600,11.121797607421875,-0.305572509765625,-0.05242919921875,0.0414276123046875
1783170007807746600,11.13174658203125,-0.40667724609375,-0.061309814453125,0.035858154296875
1783170007817695700,11.14169580078125,-0.626434326171875,-0.0386962890625,0.0090179443359375
1783170007827674600,11.151674560546875,-0.9079742431640625,-0.0397491455078125,-0.0234222412109375
1783170007837623600,11.16162353515625,-1.184478759765625,-0.1138763427734375,-0.0207672119140625
1783170007847571700,11.17157177734375,-1.4841156005859375,-0.1899261474609375,0.0112762451171875
1783170007857551600,11.181551513671875,-1.729034423828125,-0.3225555419921875,0.011962890625
1783170007867499500,11.19149951171875,-1.95477294921875,-0.4586029052734375,-0.0142364501953125
1783170007877448400,11.201448486328125,-2.3114471435546875,-0.5301513671875,0.0011749267578125
1783170007887398000,11.21139794921875,-2.75848388671875,-0.586669921875,0.0036773681640625
1783170007897376800,11.221376708984375,-3.0735931396484375,-0.6421661376953125,-0.019561767578125
1783170007907325700,11.23132568359375,-3.219573974609375,-0.56793212890625,-0.067352294921875
1783170007917273900,11.24127392578125,-3.331512451171875,-0.5356597900390625,-0.086639404296875
1783170007927222800,11.251222900390625,-3.511383056640625,-0.5437774658203125,-0.060272216796875
1783170007937201700,11.26120166015625,-3.6537628173828125,-0.425384521484375,-0.1666259765625
1783170007947150600,11.271150634765625,-3.651336669921875,-0.276123046875,-0.360748291015625
1783170007957099800,11.281099853515625,-3.4074249267578125,-0.1373138427734375,-0.5082550048828125
1783170007967078700,11.29107861328125,-2.9965057373046875,-0.021759033203125,-0.6166534423828125
1783170007977027600,11.301027587890625,-2.58807373046875,-0.0108489990234375,-0.58367919921875
1783170007986976500,11.3109765625,-2.160888671875,-0.1003570556640625,-0.3939666748046875
1783170007996924700,11.320924560546874,-1.656158447265625,-0.1791534423828125,-0.2100982666015625
1783170008006904600,11.330904541015625,-1.2300567626953125,-0.2447509765625,-0.0345916748046875
1783170008016852700,11.340852783203125,-0.9308013916015625,-0.29876708984375,0.1328277587890625
1783170008026801700,11.3508017578125,-0.6822357177734375,-0.41400146484375,0.23297119140625
1783170008036750600,11.36075048828125,-0.41656494140625,-0.51055908203125,0.23724365234375
1783170008046729500,11.3707294921875,-0.1622314453125,-0.4376220703125,0.1485137939453125
1783170008056678700,11.3806787109375,0.00238037109375,-0.3265380859375,0.032073974609375
1783170008066626600,11.39062646484375,0.1092071533203125,-0.2735748291015625,-0.0272979736328125
1783170008076606700,11.400606689453125,0.137603759765625,-0.24993896484375,-0.0595550537109375
1783170008086555000,11.410554931640625,0.141510009765625,-0.2392425537109375,-0.033416748046875
1783170008096503800,11.42050390625,0.1531219482421875,-0.2680206298828125,0.010101318359375
1783170008106452700,11.43045263671875,0.18017578125,-0.3195648193359375,0.0412750244140625
1783170008116431600,11.440431640625,0.22723388671875,-0.34716796875,0.0713348388671875
1783170008126380800,11.450380859375,0.2699127197265625,-0.33172607421875,0.0867767333984375
1783170008136329700,11.460329833984375,0.2454071044921875,-0.31707763671875,0.09271240234375
1783170008146277600,11.470277587890624,0.239532470703125,-0.3366546630859375,0.1014862060546875
1783170008156257500,11.480257568359375,0.231201171875,-0.309906005859375,0.0812835693359375
1783170008166205700,11.490205810546875,0.176788330078125,-0.2475433349609375,0.0510711669921875
1783170008176154600,11.500154541015625,0.1005706787109375,-0.18505859375,0.04486083984375
1783170008186133500,11.510133544921874,0.038909912109375,-0.124298095703125,0.035491943359375
1783170008196082700,11.520082763671875,-0.0489501953125,-0.077667236328125,0.045867919921875
1783170008206031600,11.530031494140625,-0.062591552734375,-0.0588226318359375,0.0438232421875
1783170008215980800,11.539980712890625,-0.069580078125,-0.0069580078125,0.03076171875
1783170008225959700,11.549959716796875,-0.13177490234375,0.032257080078125,0.0673370361328125
1783170008235908900,11.559908935546876,-0.1468048095703125,0.0401458740234375,0.090423583984375
1783170008245856800,11.569856689453125,-0.150299072265625,0.0407257080078125,0.0976715087890625
1783170008255835600,11.579835693359374,-0.1419830322265625,0.0286407470703125,0.1003265380859375
1783170008265784800,11.589784912109375,-0.1355133056640625,0.0154876708984375,0.0987701416015625
1783170008275733800,11.599733642578125,-0.152069091796875,0.013763427734375,0.08624267578125
1783170008285682700,11.6096826171875,-0.1541748046875,0.0091552734375,0.0673370361328125
1783170008295661600,11.61966162109375,-0.1798095703125,-0.01861572265625,0.035888671875
1783170008305610800,11.62961083984375,-0.2559661865234375,-0.040252685546875,-0.03033447265625
1783170008315558700,11.63955859375,-0.3808746337890625,-0.071990966796875,-0.08355712890625
1783170008325507600,11.649507568359375,-0.580322265625,-0.13995361328125,-0.1142120361328125
1783170008335486700,11.65948681640625,-0.7379608154296875,-0.236907958984375,-0.1134185791015625
1783170008345435600,11.669435546875,-0.8694305419921875,-0.341522216796875,-0.0972900390625
1783170008355384600,11.679384521484375,-1.049560546875,-0.4438629150390625,-0.0302276611328125
1783170008365363700,11.68936376953125,-1.325531005859375,-0.6362762451171875,0.087066650390625
1783170008375312600,11.699312744140625,-1.7100982666015625,-0.8722381591796875,0.1718292236328125
1783170008385261800,11.70926171875,-2.0578765869140625,-0.8761749267578125,0.156036376953125
1783170008395209500,11.71920947265625,-2.3200836181640625,-0.7107086181640625,0.085662841796875
1783170008405189600,11.729189697265625,-2.54437255859375,-0.5829925537109375,-0.0247344970703125
1783170008415137800,11.7391376953125,-2.7730712890625,-0.4305419921875,-0.170013427734375
1783170008425086700,11.749086669921875,-2.94964599609375,-0.2357635498046875,-0.2934417724609375
1783170008435035600,11.75903564453125,-3.0265960693359375,-0.08563232421875,-0.3542938232421875
1783170008445014800,11.769014892578125,-3.0380859375,-0.0032806396484375,-0.3406219482421875
1783170008454963700,11.778963623046875,-2.99658203125,0.0124053955078125,-0.248931884765625
1783170008464911600,11.78891162109375,-2.9051666259765625,-0.048614501953125,-0.1622772216796875
1783170008474891800,11.798891845703125,-2.7033538818359375,-0.1166229248046875,-0.16455078125
1783170008484839700,11.808839599609374,-2.407501220703125,-0.1805877685546875,-0.22381591796875
1783170008494788600,11.81878857421875,-2.134246826171875,-0.2117919921875,-0.247283935546875
1783170008504737500,11.828737548828125,-1.8834686279296875,-0.1763763427734375,-0.2312164306640625
1783170008514716700,11.838716552734375,-1.5629425048828125,-0.2084503173828125,-0.167083740234375
1783170008524665600,11.84866552734375,-1.245819091796875,-0.31964111328125,-0.0959320068359375
1783170008534614500,11.858614501953125,-1.035858154296875,-0.3675384521484375,0.0176239013671875
1783170008544562700,11.868562744140625,-0.9041595458984375,-0.36126708984375,0.1277923583984375
1783170008554542800,11.87854296875,-0.7940673828125,-0.346923828125,0.126129150390625
1783170008564490500,11.888490478515624,-0.649810791015625,-0.3101959228515625,0.060150146484375
1783170008574439700,11.898439697265625,-0.541351318359375,-0.2756195068359375,0.00482177734375
1783170008584418800,11.908418701171875,-0.479339599609375,-0.2759552001953125,-0.0316925048828125
1783170008594367700,11.91836767578125,-0.3849945068359375,-0.279296875,-0.0585479736328125
1783170008604316700,11.928316650390625,-0.2854461669921875,-0.297393798828125,-0.05731201171875
1783170008614264800,11.938264892578125,-0.2567138671875,-0.3016357421875,-0.01971435546875
1783170008624247600,11.94824755859375,-0.2625732421875,-0.27679443359375,0.016693115234375
1783170008634195500,11.958195556640625,-0.273956298828125,-0.26629638671875,0.0312347412109375
1783170008644144600,11.96814453125,-0.2703094482421875,-0.261566162109375,0.034149169921875
1783170008654093600,11.978093505859375,-0.251678466796875,-0.2728118896484375,0.0298614501953125
1783170008664072400,11.988072509765624,-0.2254791259765625,-0.2785797119140625,0.0160675048828125
1783170008674021400,11.998021484375,-0.1953887939453125,-0.236602783203125,0.0019073486328125
1783170008683970600,12.007970458984374,-0.1918792724609375,-0.1914215087890625,-0.0089263916015625
1783170008693949400,12.017949462890625,-0.18304443359375,-0.17364501953125,-0.0224761962890625
1783170008703898400,12.0278984375,-0.19598388671875,-0.138824462890625,-0.0205535888671875
1783170008713846500,12.037846435546875,-0.2125701904296875,-0.09405517578125,-0.003570556640625
1783170008723795700,12.047795654296875,-0.2311553955078125,-0.07916259765625,0.02508544921875
1783170008733774300,12.0577744140625,-0.2587127685546875,-0.077392578125,0.0435943603515625
1783170008743723500,12.0677236328125,-0.260528564453125,-0.0764617919921875,0.053619384765625
1783170008753672700,12.077672607421874,-0.2429962158203125,-0.0601959228515625,0.0421600341796875
1783170008763620600,12.08762060546875,-0.237274169921875,-0.0190582275390625,0.0093231201171875
1783170008773600500,12.0976005859375,-0.2548675537109375,0.0041961669921875,-0.0133056640625
1783170008783548700,12.107548583984375,-0.267486572265625,0.008270263671875,-0.05517578125
1783170008793497600,12.11749755859375,-0.2902679443359375,-0.002227783203125,-0.06884765625
1783170008803476500,12.1274765625,-0.32049560546875,-0.066558837890625,-0.0322723388671875
1783170008813425700,12.13742578125,-0.525360107421875,-0.174713134765625,0.0157012939453125
1783170008823374600,12.14737451171875,-0.8407135009765625,-0.2286529541015625,-0.055908203125
1783170008833323500,12.157323486328124,-0.778778076171875,-0.1586761474609375,-0.0578155517578125
1783170008843302400,12.167302490234375,-0.924224853515625,-0.296539306640625,-0.04888916015625
1783170008853251600,12.17725146484375,-1.1030426025390625,-0.4507904052734375,0.1658172607421875
1783170008863199500,12.187199462890625,-1.346893310546875,-0.5684967041015625,0.24383544921875
1783170008873148400,12.1971484375,-1.49786376953125,-0.3780517578125,0.0729217529296875
