time,seconds_elapsed,z,y,x
1783152007554356000,0.13135595703125,0.0597381591796875,0.1512451171875,-0.14019775390625
1783152007573655300,0.1506552734375,0.0597381591796875,0.1512451171875,-0.14019775390625
1783152007583349800,0.160349853515625,0.0597381591796875,0.1512451171875,-0.14019775390625
1783152007593054500,0.170054443359375,0.4983367919921875,0.115203857421875,-0.316131591796875
1783152007602789600,0.17978955078125,0.50567626953125,0.118865966796875,-0.3399505615234375
1783152007612524800,0.18952490234375,0.50994873046875,0.1139678955078125,-0.350341796875
1783152007622229200,0.199229248046875,0.50567626953125,0.112152099609375,-0.3454437255859375
1783152007631964400,0.20896435546875,0.4934539794921875,0.1090850830078125,-0.330169677734375
1783152007641668900,0.2186689453125,0.476959228515625,0.0926055908203125,-0.314300537109375
1783152007651373600,0.22837353515625,0.466583251953125,0.0657196044921875,-0.2978057861328125
1783152007661078300,0.238078369140625,0.466583251953125,0.048614501953125,-0.28131103515625
1783152007670782700,0.24778271484375,0.472686767578125,0.040069580078125,-0.2642059326171875
1783152007680518000,0.257517822265625,0.4842987060546875,0.019287109375,-0.250152587890625
1783152007690222300,0.267222412109375,0.50384521484375,-0.0106353759765625,-0.2367095947265625
1783152007699927000,0.276927001953125,0.5252227783203125,-0.040557861328125,-0.2226715087890625
1783152007709631700,0.2866318359375,0.539886474609375,-0.06561279296875,-0.2110595703125
1783152007719366700,0.29636669921875,0.5514984130859375,-0.07904052734375,-0.2024993896484375
1783152007729071400,0.3060712890625,0.5588226318359375,-0.0857696533203125,-0.1970062255859375
1783152007738806500,0.315806640625,0.5612640380859375,-0.0894317626953125,-0.1933441162109375
1783152007748511000,0.325510986328125,0.5582122802734375,-0.0888214111328125,-0.1872406005859375
1783152007758215700,0.335215576171875,0.550872802734375,-0.0814971923828125,-0.176849365234375
1783152007767950600,0.34495068359375,0.548431396484375,-0.0625457763671875,-0.1585235595703125
1783152007777655300,0.3546552734375,0.5514984130859375,-0.0497283935546875,-0.13165283203125
1783152007787360000,0.364360107421875,0.5600433349609375,-0.0503387451171875,-0.099884033203125
1783152007797064400,0.374064453125,0.5691986083984375,-0.0570526123046875,-0.06689453125
1783152007806799600,0.383799560546875,0.5826416015625,-0.0637664794921875,-0.034515380859375
1783152007816504000,0.393504150390625,0.5936431884765625,-0.0613250732421875,-0.00335693359375
1783152007826208800,0.403208740234375,0.5918121337890625,-0.044219970703125,0.0149688720703125
1783152007835913500,0.41291357421875,0.5630950927734375,-0.033843994140625,0.00823974609375
1783152007845648400,0.4226484375,0.50445556640625,-0.0601043701171875,-0.040008544921875
1783152007855353000,0.43235302734375,0.4354248046875,-0.1199798583984375,-0.1310272216796875
1783152007865057500,0.4420576171875,0.3749542236328125,-0.174346923828125,-0.251373291015625
1783152007874762200,0.45176220703125,0.3480682373046875,-0.2006072998046875,-0.3900299072265625
1783152007884467000,0.461467041015625,0.35540771484375,-0.167633056640625,-0.5232086181640625
1783152007894201900,0.471201904296875,0.36944580078125,-0.0924835205078125,-0.6331634521484375
1783152007903906600,0.480906494140625,0.3889923095703125,0.0040283203125,-0.7101287841796875
1783152007913611000,0.490611083984375,0.425048828125,0.108489990234375,-0.7357940673828125
1783152007923315700,0.500315673828125,0.469024658203125,0.192779541015625,-0.71075439453125
1783152007933051000,0.51005078125,0.50140380859375,0.2514190673828125,-0.6349945068359375
1783152007942755300,0.51975537109375,0.50445556640625,0.2795257568359375,-0.5238189697265625
1783152007952460000,0.5294599609375,0.4794158935546875,0.253265380859375,-0.397979736328125
1783152007962164500,0.53916455078125,0.4397125244140625,0.182403564453125,-0.27642822265625
1783152007971869200,0.548869140625,0.399993896484375,0.1042022705078125,-0.1682891845703125
1783152007981604400,0.558604248046875,0.36822509765625,0.046173095703125,-0.0797119140625
1783152007991308800,0.568308837890625,0.3468475341796875,0.0235748291015625,-0.0137481689453125
1783152008001013500,0.578013427734375,0.3358612060546875,0.0302886962890625,0.0314483642578125
1783152008010718000,0.587718017578125,0.330963134765625,0.048004150390625,0.057708740234375
1783152008020453000,0.597453125,0.330352783203125,0.0748748779296875,0.0699310302734375
1783152008030188300,0.607188232421875,0.326690673828125,0.117645263671875,0.08154296875
1783152008039892700,0.616892822265625,0.3144683837890625,0.1671295166015625,0.0949859619140625
1783152008049597400,0.626597412109375,0.2906494140625,0.2056121826171875,0.1059722900390625
1783152008059302100,0.63630224609375,0.249114990234375,0.2092742919921875,0.1053619384765625
1783152008069037000,0.646037109375,0.1910858154296875,0.184234619140625,0.0968170166015625
1783152008078741800,0.65574169921875,0.1232757568359375,0.1371917724609375,0.0870361328125
1783152008088446200,0.6654462890625,0.0566864013671875,0.07305908203125,0.0833740234375
1783152008098151000,0.67515087890625,-0.0050048828125,0.0272369384765625,0.0894775390625
1783152008107886000,0.684885986328125,-0.0660858154296875,0.0150146484375,0.1041412353515625
1783152008117590500,0.694590576171875,-0.121673583984375,0.007080078125,0.121246337890625
1783152008127295200,0.704295166015625,-0.15771484375,0.00830078125,0.1420135498046875
1783152008136999700,0.713999755859375,-0.1766510009765625,0.0327301025390625,0.16217041015625
1783152008146734800,0.72373486328125,-0.183380126953125,0.0760955810546875,0.16033935546875
1783152008156439600,0.733439453125,-0.1790924072265625,0.1066436767578125,0.1322479248046875
1783152008166144000,0.74314404296875,-0.1681060791015625,0.108489990234375,0.0858154296875
1783152008175848700,0.7528486328125,-0.1534423828125,0.08099365234375,0.0326690673828125
1783152008185553200,0.76255322265625,-0.1485595703125,0.054107666015625,-0.0210723876953125
1783152008195288300,0.772288330078125,-0.1534423828125,0.0376129150390625,-0.0736083984375
1783152008204993000,0.781992919921875,-0.1571044921875,0.015625,-0.1499786376953125
1783152008214697500,0.791697509765625,-0.1436614990234375,0.00830078125,-0.254425048828125
1783152008224402200,0.801402099609375,-0.1076202392578125,-0.0234527587890625,-0.3582763671875
1783152008234137300,0.811137451171875,-0.0679168701171875,-0.07659912109375,-0.4419708251953125
1783152008243841800,0.820841796875,-0.031890869140625,-0.0937042236328125,-0.4908294677734375
1783152008253546500,0.83054638671875,-0.001953125,-0.06439208984375,-0.5048828125
1783152008263251000,0.8402509765625,-0.07159423828125,0.1475830078125,-0.4932708740234375
1783152008272955600,0.84995556640625,-0.1332855224609375,0.2471466064453125,-0.43280029296875
1783152008282690800,0.85969091796875,-0.07952880859375,-0.0930938720703125,-0.390655517578125
1783152008292395300,0.869395263671875,0.0230865478515625,-0.2769775390625,-0.3656005859375
1783152008302100000,0.879099853515625,0.1483154296875,-0.2397003173828125,-0.322235107421875
1783152008311835000,0.8888349609375,0.2087860107421875,-0.1731109619140625,-0.28863525390625
1783152008321570000,0.898570068359375,0.1550445556640625,-0.156005859375,-0.2635955810546875
1783152008331274800,0.908274658203125,0.001708984375,-0.2390899658203125,-0.242218017578125
1783152008370123500,0.94712353515625,-0.7502593994140625,0.3852081298828125,0.0949859619140625
1783152008379828200,0.956828125,-0.7288818359375,0.5037078857421875,0.0931396484375
1783152008389532700,0.96653271484375,-0.65130615234375,0.52508544921875,0.042449951171875
1783152008399237400,0.9762373046875,-0.5608978271484375,0.562957763671875,-0.037567138671875
1783152008408972500,0.98597265625,-0.474761962890625,0.621612548828125,-0.13531494140625
1783152008418677000,0.995677001953125,-0.3880157470703125,0.66131591796875,-0.253814697265625
1783152008428381700,1.005381591796875,-0.2884368896484375,0.64910888671875,-0.388214111328125
1783152008438086100,1.015086181640625,-0.1742095947265625,0.5843505859375,-0.5225982666015625
1783152008447821300,1.0248212890625,-0.07891845703125,0.478057861328125,-0.6576080322265625
1783152008457526000,1.034526123046875,-0.027008056640625,0.30517578125,-0.761444091796875
1783152008467230500,1.04423046875,0.009033203125,0.1292572021484375,-0.793212890625
1783152008476935200,1.05393505859375,0.0188140869140625,0.0137939453125,-0.7742767333984375
1783152008486639600,1.0636396484375,-0.0001220703125,-0.035675048828125,-0.72601318359375
1783152008496374800,1.073374755859375,-0.0172271728515625,-0.0142974853515625,-0.6417236328125
1783152008506079500,1.08307958984375,-0.037384033203125,0.1115264892578125,-0.5238189697265625
1783152008515784000,1.092783935546875,-0.0648651123046875,0.2856292724609375,-0.3827056884765625
1783152008525488600,1.102488525390625,-0.1027374267578125,0.4151458740234375,-0.248931884765625
1783152008535223600,1.1122236328125,-0.1259613037109375,0.471954345703125,-0.14141845703125
1783152008544928300,1.12192822265625,-0.1290130615234375,0.479278564453125,-0.0626068115234375
1783152008554633000,1.131633056640625,-0.117401123046875,0.4456787109375,-0.0106964111328125
1783152008564337400,1.14133740234375,-0.1070098876953125,0.36688232421875,0.00762939453125
1783152008574042000,1.1510419921875,-0.1015167236328125,0.2563018798828125,-0.0094757080078125
1783152008583777000,1.160777099609375,-0.0978546142578125,0.1432952880859375,-0.0449066162109375
1783152008593481700,1.170481689453125,-0.0960235595703125,0.039459228515625,-0.0913238525390625
1783152008603217000,1.180216796875,-0.0941925048828125,-0.0436248779296875,-0.14202880859375
1783152008612921300,1.18992138671875,-0.07769775390625,-0.07598876953125,-0.1896820068359375
1783152008622656500,1.199656494140625,-0.0404510498046875,-0.041168212890625,-0.2232666015625
1783152008632361200,1.209361328125,0.0188140869140625,0.051055908203125,-0.2330474853515625
1783152008642065700,1.219065673828125,0.096405029296875,0.191558837890625,-0.2061614990234375
1783152008651770400,1.228770263671875,0.1690826416015625,0.3473358154296875,-0.14630126953125
1783152008661505300,1.23850537109375,0.21307373046875,0.4298095703125,-0.07177734375
1783152008671210000,1.2482099609375,0.22039794921875,0.36260986328125,-0.0113067626953125
1783152008690619100,1.267619140625,0.1574859619140625,-0.0521697998046875,0.0241241455078125
1783152008700323800,1.27732373046875,0.117767333984375,-0.258636474609375,0.0216827392578125
1783152008710058800,1.287058837890625,0.08599853515625,-0.4315185546875,0.0149688720703125
1783152008719763500,1.296763427734375,0.06951904296875,-0.546356201171875,0.0167999267578125
1783152008729468200,1.30646826171875,0.07562255859375,-0.572021484375,0.033905029296875
1783152008739172600,1.316172607421875,0.104949951171875,-0.50421142578125,0.0638275146484375
1783152008748907800,1.32590771484375,0.1513671875,-0.3740997314453125,0.1035308837890625
1783152008758612200,1.3356123046875,0.2014617919921875,-0.20672607421875,0.1407928466796875
1783152008768317000,1.34531689453125,0.246063232421875,-0.027740478515625,0.16217041015625
1783152008778021600,1.355021728515625,0.2845458984375,0.118255615234375,0.15728759765625
1783152008787726000,1.36472607421875,0.321197509765625,0.2159881591796875,0.129180908203125
1783152008797461200,1.374461181640625,0.3560028076171875,0.2923583984375,0.0888671875
1783152008807165700,1.384165771484375,0.388397216796875,0.36383056640625,0.050384521484375
1783152008816870400,1.393870361328125,0.420166015625,0.4236907958984375,0.0235137939453125
1783152008826575000,1.4035751953125,0.4525299072265625,0.4444580078125,0.00579833984375
1783152008836310000,1.41331005859375,0.4861297607421875,0.4206390380859375,-0.00152587890625
1783152008846014700,1.4230146484375,0.5227813720703125,0.3882598876953125,0.00823974609375
1783152008855719200,1.43271923828125,0.5588226318359375,0.37664794921875,0.047332763671875
1783152008865424000,1.442423828125,0.5875244140625,0.3888702392578125,0.115753173828125
1783152008875128300,1.45212841796875,0.6046295166015625,0.3986358642578125,0.1994476318359375
1783152008884863500,1.461863525390625,0.5966949462890625,0.37115478515625,0.2837371826171875
1783152008894598700,1.4715986328125,0.563720703125,0.3076171875,0.3533782958984375
1783152008904303400,1.481303466796875,0.50933837890625,0.2196502685546875,0.3967437744140625
1783152008914007800,1.4910078125,0.4384765625,0.123748779296875,0.402862548828125
1783152008923743000,1.500742919921875,0.36212158203125,0.0376129150390625,0.3631439208984375
1783152008933447400,1.510447509765625,0.296142578125,-0.032012939453125,0.2764129638671875
1783152008943152000,1.520152099609375,0.243621826171875,-0.0851593017578125,0.14935302734375
1783152008952856800,1.52985693359375,0.2014617919921875,-0.109588623046875,-0.00518798828125
1783152008962591700,1.539591796875,0.1654205322265625,-0.0943145751953125,-0.1640167236328125
1783152008972296400,1.54929638671875,0.13671875,-0.0436248779296875,-0.3069610595703125
1783152008982001000,1.5590009765625,0.112884521484375,0.0205078125,-0.42852783203125
1783152008991705600,1.56870556640625,0.096405029296875,0.0644989013671875,-0.5244293212890625
1783152009001410300,1.578410400390625,0.08477783203125,0.08465576171875,-0.5861358642578125
1783152009011145200,1.588145263671875,0.07623291015625,0.0999298095703125,-0.611785888671875
1783152009020850000,1.597849853515625,0.0701141357421875,0.113372802734375,-0.611785888671875
1783152009030554400,1.607554443359375,0.06829833984375,0.126190185546875,-0.5959014892578125
1783152009040259000,1.617259033203125,0.07440185546875,0.1488037109375,-0.5641326904296875
1783152009049994200,1.626994140625,0.0951690673828125,0.1732330322265625,-0.5238189697265625
1783152009059698700,1.63669873046875,0.1251068115234375,0.1781158447265625,-0.4835052490234375
1783152009069403400,1.6464033203125,0.1672515869140625,0.1695709228515625,-0.4425811767578125
1783152009079107800,1.65610791015625,0.2112274169921875,0.1561279296875,-0.393707275390625
1783152009088812500,1.6658125,0.242401123046875,0.1310882568359375,-0.3405609130859375
1783152009098547700,1.675547607421875,0.254608154296875,0.08831787109375,-0.2990264892578125
1783152009108252200,1.685252197265625,0.252166748046875,0.0186920166015625,-0.27886962890625
1783152009117956900,1.694956787109375,0.241180419921875,-0.06866455078125,-0.2758026123046875
1783152009127661300,1.704661376953125,0.22833251953125,-0.156005859375,-0.28436279296875
1783152009137396500,1.714396484375,0.21978759765625,-0.21343994140625,-0.2990264892578125
1783152009147101200,1.72410107421875,0.21795654296875,-0.2293243408203125,-0.316131591796875
1783152009156805600,1.7338056640625,0.22161865234375,-0.2311553955078125,-0.3350677490234375
1783152009166510300,1.74351025390625,0.23077392578125,-0.2256622314453125,-0.3472747802734375
1783152009176245500,1.75324560546875,0.241180419921875,-0.20672607421875,-0.3423919677734375
1783152009185980400,1.76298046875,0.250335693359375,-0.1987762451171875,-0.314910888671875
1783152009195685000,1.77268505859375,0.249114990234375,-0.21405029296875,-0.2672576904296875
1783152009205389600,1.7823896484375,0.2344512939453125,-0.244598388671875,-0.206787109375
1783152009215094300,1.79209423828125,0.20941162109375,-0.2861328125,-0.14019775390625
1783152009224829400,1.801829345703125,0.175811767578125,-0.323394775390625,-0.0760498046875
1783152009234534000,1.811533935546875,0.135498046875,-0.3441619873046875,-0.0161895751953125
1783152009244238600,1.821238525390625,0.0970001220703125,-0.3398895263671875,0.0314483642578125
1783152009253943000,1.830943115234375,0.06463623046875,-0.3056793212890625,0.0668792724609375
1783152009263678200,1.84067822265625,0.0267486572265625,-0.252532958984375,0.0858154296875
1783152009273383000,1.8503828125,-0.0172271728515625,-0.21282958984375,0.077880859375
1783152009283087400,1.86008740234375,-0.0520477294921875,-0.190216064453125,0.049774169921875
1783152009292792000,1.8697919921875,-0.0734100341796875,-0.1651763916015625,0.01190185546875
1783152009302496500,1.87949658203125,-0.07891845703125,-0.1352386474609375,-0.025970458984375
1783152009312231700,1.889231689453125,-0.07708740234375,-0.0918731689453125,-0.0485687255859375
1783152009331640800,1.908640869140625,-0.0557098388671875,0.041290283203125,-0.0137481689453125
1783152009341345500,1.918345458984375,-0.0508270263671875,0.09564208984375,0.040008544921875
1783152009351080700,1.928080810546875,-0.0496063232421875,0.1420745849609375,0.114532470703125
1783152009360785200,1.93778515625,-0.0605926513671875,0.1652984619140625,0.197601318359375
1783152009370489900,1.94748974609375,-0.08013916015625,0.1549072265625,0.2788543701171875
1783152009380194300,1.9571943359375,-0.0990753173828125,0.1231536865234375,0.3552093505859375
1783152009389899000,1.96689892578125,-0.110076904296875,0.08099365234375,0.4181365966796875
1783152009399634200,1.97663427734375,-0.1039581298828125,0.0284576416015625,0.4615020751953125
1783152009419043300,1.996043212890625,-0.0276031494140625,-0.06622314453125,0.4969329833984375
1783152009428747800,2.005747802734375,0.043853759765625,-0.0821075439453125,0.5128173828125
1783152009438483000,2.01548291015625,0.1251068115234375,-0.07537841796875,0.5402984619140625
1783152009448187600,2.025187744140625,0.2032928466796875,-0.06622314453125,0.58184814453125
1783152009457922600,2.034922607421875,0.2723236083984375,-0.036895751953125,0.635589599609375
1783152009467627300,2.044627197265625,0.328521728515625,0.052886962890625,0.699127197265625
1783152009477362400,2.054362548828125,0.3773956298828125,0.1781158447265625,0.771209716796875
1783152009487067000,2.06406689453125,0.429931640625,0.23431396484375,0.845733642578125
1783152009496771600,2.073771484375,0.4879608154296875,0.182403564453125,0.8891143798828125
1783152009506476000,2.08347607421875,0.538665771484375,-0.0601043701171875,0.8579559326171875
1783152009516180700,2.0931806640625,0.5667572021484375,-0.5188751220703125,0.699127197265625
1783152009525916000,2.102916015625,0.5576019287109375,-0.9996337890625,0.43768310546875
1783152009535620400,2.112620361328125,0.50140380859375,-1.22930908203125,0.1792755126953125
1783152009545325000,2.122324951171875,0.4079437255859375,-1.1627349853515625,-0.0106964111328125
1783152009555029500,2.132029541015625,0.2967529296875,-0.9110565185546875,-0.1346893310546875
1783152009564764700,2.1417646484375,0.21063232421875,-0.6013336181640625,-0.209228515625
1783152009574469400,2.151469482421875,0.183135986328125,-0.3484344482421875,-0.2605438232421875
1783152009584173800,2.161173828125,0.22222900390625,-0.1615142822265625,-0.29168701171875
1783152009593878500,2.17087841796875,0.3126373291015625,-0.0094146728515625,-0.29046630859375
1783152009603583000,2.1805830078125,0.4219818115234375,0.0950469970703125,-0.2581024169921875
1783152009613318100,2.190318115234375,0.51300048828125,0.1390228271484375,-0.2049407958984375
1783152009623022800,2.20002294921875,0.57470703125,0.1341400146484375,-0.13958740234375
1783152009632727300,2.209727294921875,0.606475830078125,0.0950469970703125,-0.070556640625
1783152009642432000,2.219431884765625,0.619903564453125,0.014404296875,-0.00213623046875
1783152009652167000,2.2291669921875,0.613189697265625,-0.0863800048828125,0.058929443359375
1783152009661871600,2.23887158203125,0.5704193115234375,-0.1975555419921875,0.0943756103515625
1783152009671576300,2.248576416015625,0.4928436279296875,-0.319122314453125,0.083984375
1783152009681280800,2.25828076171875,0.398773193359375,-0.4192962646484375,0.027191162109375
1783152009690985500,2.2679853515625,0.3083648681640625,-0.4327392578125,-0.0540618896484375
1783152009700720400,2.277720458984375,0.22467041015625,-0.3459930419921875,-0.14202880859375
1783152009710425000,2.287425048828125,0.150146484375,-0.1999969482421875,-0.2244873046875
1783152009720129800,2.2971298828125,0.0908966064453125,-0.0283355712890625,-0.29656982421875
1783152009729834200,2.306834228515625,0.037750244140625,0.1378021240234375,-0.3564453125
1783152009739569400,2.3165693359375,-0.0208892822265625,0.2679290771484375,-0.4016571044921875
1783152009749304600,2.3263046875,-0.08502197265625,0.3503875732421875,-0.4370880126953125
1783152009759009000,2.336009033203125,-0.1424407958984375,0.3961944580078125,-0.462127685546875
1783152009768713700,2.345713623046875,-0.185211181640625,0.406585693359375,-0.4798431396484375
1783152009778448600,2.35544873046875,-0.21636962890625,0.37115478515625,-0.4865570068359375
1783152009788153300,2.3651533203125,-0.22552490234375,0.3112945556640625,-0.4804534912109375
1783152009797858000,2.374858154296875,-0.2084197998046875,0.2422637939453125,-0.461517333984375
1783152009807562500,2.3845625,-0.1687164306640625,0.1768951416015625,-0.42974853515625
1783152009817267200,2.39426708984375,-0.116790771484375,0.15185546875,-0.3778228759765625
1783152009827002000,2.404002197265625,-0.07037353515625,0.1701812744140625,-0.3094024658203125
1783152009836706800,2.413706787109375,-0.033721923828125,0.2007293701171875,-0.2440338134765625
1783152009846411500,2.42341162109375,-0.0025634765625,0.22393798828125,-0.1933441162109375
1783152009856116000,2.433115966796875,0.0261383056640625,0.2440948486328125,-0.1634063720703125
1783152009865851100,2.44285107421875,0.048126220703125,0.262420654296875,-0.1554718017578125
1783152009875555600,2.4525556640625,0.0640106201171875,0.260589599609375,-0.171966552734375
1783152009885260300,2.46226025390625,0.0792999267578125,0.2465362548828125,-0.2171630859375
1783152009894965000,2.471965087890625,0.110443115234375,0.2361602783203125,-0.2745819091796875
1783152009904700000,2.481699951171875,0.1696929931640625,0.2349395751953125,-0.330169677734375
1783152009914404600,2.491404541015625,0.248504638671875,0.2434844970703125,-0.382110595703125
1783152009924109000,2.501109130859375,0.329742431640625,0.261810302734375,-0.43524169921875
1783152009933813800,2.510813720703125,0.403656005859375,0.2880706787109375,-0.4810638427734375
1783152009943518500,2.5205185546875,0.472686767578125,0.335723876953125,-0.4981689453125
1783152009953253400,2.53025341796875,0.538665771484375,0.404144287109375,-0.4865570068359375
1783152009962958000,2.5399580078125,0.5893707275390625,0.4579010009765625,-0.461517333984375
1783152009972662500,2.54966259765625,0.6315155029296875,0.4670562744140625,-0.4346466064453125
1783152009982367200,2.5593671875,0.6681671142578125,0.4322509765625,-0.404693603515625
1783152009992102400,2.569102294921875,0.7005462646484375,0.3784942626953125,-0.3668212890625
1783152010001806800,2.578806884765625,0.7304840087890625,0.338775634765625,-0.319183349609375
1783152010011511600,2.588511474609375,0.761627197265625,0.3125152587890625,-0.2581024169921875
1783152010021216000,2.598216064453125,0.78912353515625,0.2838134765625,-0.1884613037109375
1783152010030951200,2.607951171875,0.8019561767578125,0.265472412109375,-0.1200408935546875
1783152010040686300,2.617686279296875,0.79217529296875,0.263641357421875,-0.0626068115234375
1783152010050390800,2.627390869140625,0.759185791015625,0.2813568115234375,-0.0143585205078125
1783152010060095500,2.637095458984375,0.707275390625,0.327178955078125,0.0247344970703125
1783152010069800200,2.64680029296875,0.6406707763671875,0.3913116455078125,0.0558929443359375
1783152010079535000,2.65653515625,0.56982421875,0.470123291015625,0.0797119140625
1783152010089239800,2.66623974609375,0.50079345703125,0.5709075927734375,0.0968170166015625
1783152010098944300,2.6759443359375,0.4506988525390625,0.690643310546875,0.119415283203125
1783152010108649000,2.68564892578125,0.427490234375,0.842742919921875,0.16033935546875
1783152010118353700,2.695353759765625,0.4366455078125,0.9997406005859375,0.2104339599609375
1783152010128088600,2.705088623046875,0.472076416015625,1.0736541748046875,0.2458648681640625
1783152010137793300,2.714793212890625,0.5148468017578125,1.01806640625,0.2452545166015625
1783152010147497700,2.724497802734375,0.5478363037109375,0.837249755859375,0.2049407958984375
1783152010157202400,2.734202392578125,0.5576019287109375,0.52142333984375,0.115142822265625
1783152010166937600,2.7439375,0.5301055908203125,0.115814208984375,-0.0143585205078125
1783152010176642000,2.75364208984375,0.469024658203125,-0.1951141357421875,-0.14935302734375
1783152010186346800,2.7633466796875,0.407318115234375,-0.2787933349609375,-0.246490478515625
1783152010196051200,2.77305126953125,0.36212158203125,-0.1596832275390625,-0.2745819091796875
1783152010205786400,2.782786376953125,0.330352783203125,0.1035919189453125,-0.2208251953125
1783152010215491000,2.792490966796875,0.3004302978515625,0.4597320556640625,-0.0943756103515625
1783152010225195500,2.802195556640625,0.2619476318359375,0.8201446533203125,0.0632171630859375
1783152010234900200,2.811900146484375,0.22222900390625,1.0699920654296875,0.2110443115234375
1783152010244604700,2.821604736328125,0.1923065185546875,1.170166015625,0.327117919921875
1783152010254339800,2.83133984375,0.1690826416015625,1.1585693359375,0.405303955078125
1783152010264044500,2.84104443359375,0.1470947265625,1.054718017578125,0.4346160888671875
1783152010273749000,2.8507490234375,0.1244964599609375,0.8622894287109375,0.3985748291015625
1783152010283453700,2.86045361328125,0.106170654296875,0.617340087890625,0.30450439453125
1783152010293188900,2.87018896484375,0.0957794189453125,0.36260986328125,0.1713409423828125
1783152010302893300,2.879893310546875,0.0890655517578125,0.1292572021484375,0.01068115234375
1783152010312628500,2.88962841796875,0.08477783203125,-0.0607147216796875,-0.169525146484375
1783152010322333000,2.8993330078125,0.07867431640625,-0.1993865966796875,-0.355224609375
1783152010332037600,2.90903759765625,0.06463623046875,-0.260467529296875,-0.5219879150390625
1783152010341772800,2.918772705078125,0.0530242919921875,-0.2256622314453125,-0.649658203125
1783152010351477200,2.928477294921875,0.0524139404296875,-0.110198974609375,-0.71990966796875
1783152010361182000,2.938181884765625,0.0591278076171875,0.050445556640625,-0.7376251220703125
1783152010370886400,2.947886474609375,0.0597381591796875,0.2104949951171875,-0.72479248046875
1783152010380621600,2.95762158203125,0.0572967529296875,0.338165283203125,-0.676544189453125
1783152010390326300,2.967326171875,0.06707763671875,0.4322509765625,-0.5843048095703125
1783152010400030700,2.97703076171875,0.102508544921875,0.5299835205078125,-0.454193115234375
1783152010409735400,2.9867353515625,0.1654205322265625,0.6423797607421875,-0.313079833984375
1783152010419470600,2.996470703125,0.250946044921875,0.7236175537109375,-0.182952880859375
1783152010429175000,3.006175048828125,0.3456268310546875,0.768218994140625,-0.0675048828125
1783152010438879700,3.015879638671875,0.4439849853515625,0.79327392578125,0.042449951171875
1783152010448584200,3.025584228515625,0.5337677001953125,0.7871551513671875,0.1383514404296875
1783152010458289000,3.035288818359375,0.6009674072265625,0.73828125,0.2104339599609375
1783152010468024000,3.045024169921875,0.64617919921875,0.66131591796875,0.261138916015625
1783152010477728500,3.054728515625,0.6718292236328125,0.5666351318359375,0.28924560546875
1783152010487433200,3.06443310546875,0.6797637939453125,0.452392578125,0.29840087890625
1783152010497137700,3.0741376953125,0.6651153564453125,0.3247222900390625,0.2880096435546875
1783152010506872800,3.083872802734375,0.6241912841796875,0.2007293701171875,0.255035400390625
1783152010516577500,3.09357763671875,0.5606536865234375,0.08160400390625,0.1970062255859375
1783152010526282000,3.103281982421875,0.4855194091796875,-0.030181884765625,0.117584228515625
1783152010535986700,3.112986572265625,0.4109954833984375,-0.112030029296875,0.028411865234375
1783152010545691100,3.122691162109375,0.3389129638671875,-0.1639556884765625,-0.068115234375
1783152010555426300,3.13242626953125,0.2729339599609375,-0.2073211669921875,-0.169525146484375
1783152010565131000,3.142131103515625,0.21551513671875,-0.2311553955078125,-0.2648162841796875
1783152010574835500,3.15183544921875,0.1641998291015625,-0.2256622314453125,-0.3423919677734375
1783152010584540200,3.1615400390625,0.1183929443359375,-0.20855712890625,-0.4040985107421875
1783152010594275000,3.171275146484375,0.0792999267578125,-0.1938934326171875,-0.457855224609375
1783152010604010200,3.18101025390625,0.0542449951171875,-0.185333251953125,-0.50732421875
1783152010613715000,3.19071484375,0.0511932373046875,-0.173736572265625,-0.5476531982421875
1783152010623419400,3.20041943359375,0.06463623046875,-0.166412353515625,-0.56964111328125
1783152010633124000,3.2101240234375,0.08599853515625,-0.1633453369140625,-0.5665740966796875
1783152010642859300,3.219859375,0.110443115234375,-0.1517486572265625,-0.534210205078125
1783152010652563700,3.229563720703125,0.1312103271484375,-0.15478515625,-0.4755706787109375
1783152010662268400,3.239268310546875,0.14404296875,-0.1957244873046875,-0.402252197265625
1783152010671972900,3.248972900390625,0.1470947265625,-0.2641448974609375,-0.325897216796875
1783152010681708000,3.2587080078125,0.1544189453125,-0.3368377685546875,-0.247711181640625
1783152010691412700,3.268412841796875,0.1733551025390625,-0.4162445068359375,-0.1670684814453125
1783152010701117200,3.2781171875,0.1935272216796875,-0.5164337158203125,-0.0931549072265625
1783152010710822000,3.28782177734375,0.2002410888671875,-0.617218017578125,-0.026580810546875
1783152010720556800,3.297556884765625,0.1959686279296875,-0.7033538818359375,0.0302276611328125
1783152010730261500,3.307261474609375,0.192901611328125,-0.7485504150390625,0.0797119140625
1783152010739966200,3.31696630859375,0.192901611328125,-0.7332916259765625,0.124908447265625
1783152010749670700,3.326670654296875,0.1996307373046875,-0.6679229736328125,0.1652374267578125
1783152010759375400,3.336375244140625,0.21429443359375,-0.5549163818359375,0.201263427734375
1783152010769110300,3.3461103515625,0.2356719970703125,-0.405242919921875,0.2354736328125
1783152010778815000,3.35581494140625,0.2607269287109375,-0.256195068359375,0.270294189453125
1783152010788519700,3.365519775390625,0.2900390625,-0.1407470703125,0.30450439453125
1783152010798224100,3.37522412109375,0.325469970703125,-0.106536865234375,0.332611083984375
1783152010807959300,3.384959228515625,0.35540771484375,-0.1871795654296875,0.328338623046875
1783152010817663700,3.394663818359375,0.36700439453125,-0.3765411376953125,0.2794647216796875
1783152010827368400,3.404368408203125,0.3474578857421875,-0.6532745361328125,0.186004638671875
1783152010837073200,3.4140732421875,0.2729339599609375,-0.9916839599609375,0.043060302734375
1783152010846777600,3.423777587890625,0.1623687744140625,-1.3050689697265625,-0.14752197265625
1783152010856512800,3.4335126953125,0.0597381591796875,-1.4559478759765625,-0.3594970703125
1783152010866217200,3.44321728515625,-0.0147857666015625,-1.3508758544921875,-0.5452117919921875
1783152010875922000,3.452921875,-0.0520477294921875,-1.01123046875,-0.6514892578125
1783152010885657000,3.462656982421875,-0.030059814453125,-0.50421142578125,-0.6313323974609375
1783152010895392000,3.47239208984375,0.036529541015625,0.0608367919921875,-0.4871673583984375
1783152010905096700,3.4820966796875,0.112274169921875,0.548919677734375,-0.258697509765625
1783152010914801400,3.491801513671875,0.180084228515625,0.8525238037109375,0.0180206298828125
1783152010924505900,3.501505859375,0.2332305908203125,0.95086669921875,0.327117919921875
1783152010934210600,3.51121044921875,0.2802734375,0.8922271728515625,0.6575927734375
1783152010943945500,3.520945556640625,0.327301025390625,0.7126312255859375,0.985015869140625
1783152010953650200,3.530650146484375,0.37432861328125,0.4542388916015625,1.2910614013671875
1783152010963355000,3.54035498046875,0.420166015625,0.1634674072265625,1.553741455078125
1783152010973059300,3.550059326171875,0.4598541259765625,-0.1260833740234375,1.7461700439453125
1783152010982794500,3.55979443359375,0.4922332763671875,-0.390594482421875,1.850006103515625
1783152011021643300,3.598643310546875,0.388397216796875,-0.93243408203125,1.636810302734375
1783152011031348000,3.608347900390625,0.293701171875,-0.9147186279296875,1.5152435302734375
1783152011041052400,3.618052490234375,0.182525634765625,-0.856689453125,1.37109375
1783152011050757000,3.627757080078125,0.0603485107421875,-0.7638397216796875,1.201873779296875
1783152011060461800,3.6374619140625,-0.0734100341796875,-0.65509033203125,1.0015106201171875
1783152011070196700,3.64719677734375,-0.21942138671875,-0.536590576171875,0.779144287109375
1783152011079901400,3.6569013671875,-0.36907958984375,-0.398529052734375,0.544586181640625
1783152011089606000,3.66660595703125,-0.5181427001953125,-0.242767333984375,0.29779052734375
1783152011099310600,3.676310546875,-0.65496826171875,-0.07965087890625,0.0369415283203125
1783152011109045800,3.686045654296875,-0.7569732666015625,0.09442138671875,-0.2306060791015625
1783152011118750200,3.695750244140625,-0.8156280517578125,0.2868499755859375,-0.4914398193359375
1783152011128455000,3.705454833984375,-0.839447021484375,0.475616455078125,-0.7370147705078125
1783152011138159400,3.715159423828125,-0.839447021484375,0.6429901123046875,-0.9605865478515625
1783152011147864000,3.724864013671875,-0.8162384033203125,0.79510498046875,-1.14813232421875
1783152011157599200,3.73459912109375,-0.766143798828125,0.9258270263671875,-1.29229736328125
1783152011167303700,3.7443037109375,-0.6830596923828125,1.0186767578125,-1.393096923828125
1783152011177038800,3.754038818359375,-0.5792236328125,1.051666259765625,-1.4529571533203125
1783152011186743600,3.76374365234375,-0.4662017822265625,1.0034027099609375,-1.476776123046875
1783152011196478500,3.773478515625,-0.3556365966796875,0.8775634765625,-1.466400146484375
1783152011206183200,3.78318310546875,-0.252410888671875,0.691864013671875,-1.4181365966796875
1783152011215887600,3.7928876953125,-0.1589508056640625,0.475006103515625,-1.329559326171875
1783152011225592300,3.80259228515625,-0.0721893310546875,0.2471466064453125,-1.2043304443359375
1783152011235327500,3.812327392578125,0.0121002197265625,0.0272369384765625,-1.050994873046875
1783152011245032000,3.822031982421875,0.0927276611328125,-0.182281494140625,-0.8878936767578125
1783152011254736600,3.831736572265625,0.1690826416015625,-0.36798095703125,-0.7364044189453125
1783152011264441000,3.841441162109375,0.2375030517578125,-0.50177001953125,-0.608123779296875
1783152011274145800,3.851145751953125,0.2998199462890625,-0.5811767578125,-0.5079345703125
1783152011283881000,3.860880859375,0.35662841796875,-0.6215057373046875,-0.43890380859375
1783152011293585400,3.87058544921875,0.402435302734375,-0.6379852294921875,-0.4028778076171875
1783152011303290000,3.8802900390625,0.43115234375,-0.6288299560546875,-0.393707275390625
1783152011312994600,3.88999462890625,0.4415283203125,-0.5897369384765625,-0.401031494140625
1783152011322729700,3.899729736328125,0.437255859375,-0.5133819580078125,-0.407135009765625
1783152011332434400,3.909434326171875,0.420166015625,-0.396087646484375,-0.401031494140625
1783152011351843600,3.928843505859375,0.3865509033203125,-0.1572265625,-0.3411712646484375
1783152011361548000,3.938548095703125,0.37188720703125,-0.101043701171875,-0.29534912109375
1783152011371283200,3.948283203125,0.3560028076171875,-0.0906524658203125,-0.243438720703125
1783152011380988000,3.95798779296875,0.3450164794921875,-0.107757568359375,-0.1921234130859375
1783152011390692400,3.9676923828125,0.3413543701171875,-0.1480712890625,-0.14813232421875
1783152011400397000,3.97739697265625,0.3401336669921875,-0.2048797607421875,-0.1145477294921875
1783152011410132200,3.98713232421875,0.3364715576171875,-0.254364013671875,-0.0955963134765625
1783152011419836700,3.996836669921875,0.319976806640625,-0.2824554443359375,-0.0845947265625
1783152011429541400,4.006541259765625,0.2906494140625,-0.2861328125,-0.0736083984375
1783152011439245800,4.016245849609375,0.253387451171875,-0.250701904296875,-0.0540618896484375
1783152011448981000,4.02598095703125,0.21612548828125,-0.1541900634765625,-0.0210723876953125
1783152011458716200,4.035716064453125,0.175811767578125,-0.0020904541015625,0.0167999267578125
1783152011468420600,4.045420654296875,0.1305999755859375,0.183013916015625,0.050384521484375
1783152011478125300,4.055125244140625,0.08111572265625,0.395599365234375,0.0772705078125
1783152011487829800,4.064829833984375,0.032257080078125,0.627716064453125,0.1029205322265625
1783152011497565000,4.07456494140625,-0.0062408447265625,0.870849609375,0.1377410888671875
1783152011507269600,4.08426953125,-0.0263824462890625,1.0987091064453125,0.1688995361328125
1783152011516974000,4.09397412109375,-0.043487548828125,1.23248291015625,0.15972900390625
1783152011526678800,4.1036787109375,-0.0666961669921875,1.1762847900390625,0.1029205322265625
1783152011536414000,4.1134140625,-0.119842529296875,0.8677978515625,-0.00518798828125
1783152011546118400,4.123118408203125,-0.22247314453125,0.330230712890625,-0.1579132080078125
1783152011555823000,4.132822998046875,-0.3531951904296875,-0.2024383544921875,-0.3112335205078125
1783152011565527600,4.142527587890625,-0.4686431884765625,-0.4852752685546875,-0.4028778076171875
1783152011575232300,4.152232177734375,-0.554168701171875,-0.4858856201171875,-0.399810791015625
1783152011584967400,4.161967529296875,-0.5938720703125,-0.2317657470703125,-0.29168701171875
1783152011594671900,4.171671875,-0.5590667724609375,0.1995086669921875,-0.098663330078125
1783152011604376600,4.18137646484375,-0.4576568603515625,0.6656036376953125,0.132843017578125
1783152011614081000,4.1910810546875,-0.338531494140625,1.02783203125,0.3680419921875
1783152011623816200,4.200816162109375,-0.2407989501953125,1.197052001953125,0.58795166015625
1783152011633521000,4.21052099609375,-0.1748199462890625,1.1610107421875,0.7913665771484375
1783152011643225300,4.220225341796875,-0.1412200927734375,0.9954681396484375,0.9984588623046875
1783152011652930000,4.229929931640625,-0.1326751708984375,0.7718963623046875,1.2140960693359375
1783152011662665000,4.2396650390625,-0.1320648193359375,0.4927215576171875,1.416290283203125
1783152011672369700,4.24936962890625,-0.1387786865234375,0.1365814208984375,1.5647430419921875
1783152011682074400,4.259074462890625,-0.1662750244140625,-0.2775726318359375,1.630706787109375
1783152011691778800,4.26877880859375,-0.22125244140625,-0.688690185546875,1.6148223876953125
1783152011701483500,4.2784833984375,-0.3104400634765625,-1.0179595947265625,1.5329742431640625
1783152011711218400,4.288218505859375,-0.4252777099609375,-1.22503662109375,1.410186767578125
1783152011720923100,4.297923095703125,-0.541961669921875,-1.3136138916015625,1.261749267578125
1783152011730627800,4.3076279296875,-0.6427459716796875,-1.2891845703125,1.1016845703125
1783152011740332300,4.317332275390625,-0.7136077880859375,-1.1670074462890625,0.93798828125
1783152011750067500,4.3270673828125,-0.7557525634765625,-0.9855804443359375,0.7809906005859375
1783152011759802600,4.336802734375,-0.7722625732421875,-0.79193115234375,0.647216796875
1783152011769507000,4.346507080078125,-0.775299072265625,-0.6257781982421875,0.543975830078125
1783152011779211800,4.356211669921875,-0.7771453857421875,-0.5237579345703125,0.470672607421875
1783152011788916200,4.365916259765625,-0.7863006591796875,-0.4883270263671875,0.4169158935546875
1783152011798651400,4.3756513671875,-0.8101348876953125,-0.50360107421875,0.37353515625
1783152011808356000,4.385356201171875,-0.840667724609375,-0.531097412109375,0.3454437255859375
1783152011818060500,4.395060546875,-0.8760986328125,-0.5506439208984375,0.327117919921875
1783152011827765200,4.40476513671875,-0.907867431640625,-0.5604095458984375,0.3087921142578125
1783152011837500200,4.414500244140625,-0.93536376953125,-0.5524749755859375,0.28924560546875
1783152011847204900,4.424204833984375,-0.964691162109375,-0.5237579345703125,0.269073486328125
1783152011856909600,4.43390966796875,-0.9964447021484375,-0.49383544921875,0.2537994384765625
1783152011866614000,4.443614013671875,-1.0367584228515625,-0.464508056640625,0.2452545166015625
1783152011876318700,4.453318603515625,-1.08380126953125,-0.4498443603515625,0.228759765625
1783152011886053600,4.4630537109375,-1.133270263671875,-0.4510650634765625,0.192718505859375
1783152011895758300,4.47275830078125,-1.1797027587890625,-0.4498443603515625,0.1334686279296875
1783152011905463000,4.482463134765625,-1.2194061279296875,-0.4290771484375,0.052825927734375
1783152011915167500,4.49216748046875,-1.255462646484375,-0.394256591796875,-0.0424652099609375
1783152011924902700,4.501902587890625,-1.2805023193359375,-0.36553955078125,-0.1499786376953125
1783152011934607000,4.511607177734375,-1.2884368896484375,-0.35516357421875,-0.2635955810546875
1783152011954016500,4.5310166015625,-1.22613525390625,-0.36065673828125,-0.4902191162109375
1783152011963751400,4.54075146484375,-1.16015625,-0.3728790283203125,-0.5897979736328125
1783152011973456100,4.5504560546875,-1.08441162109375,-0.3698272705078125,-0.670440673828125
1783152011983160600,4.56016064453125,-0.9994964599609375,-0.35455322265625,-0.71990966796875
1783152011992865300,4.569865234375,-0.907257080078125,-0.3484344482421875,-0.7406768798828125
1783152012002569700,4.57956982421875,-0.8131866455078125,-0.3710479736328125,-0.7443389892578125
1783152012012305000,4.589304931640625,-0.724609375,-0.4186859130859375,-0.740081787109375
1783152012031744800,4.608744873046875,-0.5932769775390625,-0.4602203369140625,-0.72052001953125
1783152012041449200,4.61844921875,-0.5627288818359375,-0.4461822509765625,-0.7125701904296875
1783152012051184400,4.628184326171875,-0.545623779296875,-0.4138031005859375,-0.6991424560546875
1783152012060888800,4.637888916015625,-0.5297393798828125,-0.36004638671875,-0.671661376953125
1783152012070593500,4.647593505859375,-0.50225830078125,-0.30078125,-0.6258392333984375
1783152012080298200,4.65729833984375,-0.4625396728515625,-0.258636474609375,-0.56842041015625
1783152012090002700,4.667002685546875,-0.408172607421875,-0.2335968017578125,-0.5054931640625
1783152012099737900,4.67673779296875,-0.3428192138671875,-0.22137451171875,-0.4431915283203125
1783152012109442300,4.6864423828125,-0.270111083984375,-0.2293243408203125,-0.384552001953125
1783152012119147000,4.69614697265625,-0.197418212890625,-0.258026123046875,-0.3320159912109375
1783152012128851700,4.705851806640625,-0.126556396484375,-0.3001861572265625,-0.28680419921875
1783152012138586600,4.715586669921875,-0.0605926513671875,-0.323394775390625,-0.2415924072265625
1783152012148291300,4.725291259765625,-0.0013427734375,-0.289794921875,-0.185394287109375
1783152012157995800,4.734995849609375,0.046905517578125,-0.21893310546875,-0.1169891357421875
1783152012167700500,4.744700439453125,0.0841827392578125,-0.156005859375,-0.043060302734375
1783152012177435600,4.754435546875,0.1214447021484375,-0.101043701171875,0.037567138671875
1783152012187140000,4.76414013671875,0.1709136962890625,-0.035675048828125,0.130401611328125
1783152012196844800,4.7738447265625,0.22833251953125,0.0272369384765625,0.22998046875
1783152012206549200,4.78354931640625,0.2808685302734375,0.08038330078125,0.3203887939453125
1783152012216254000,4.79325390625,0.321197509765625,0.126190185546875,0.3936920166015625
1783152012225989000,4.802989013671875,0.3474578857421875,0.198272705078125,0.4499053955078125
1783152012235693600,4.812693603515625,0.37066650390625,0.267303466796875,0.4865570068359375
1783152012245398300,4.822398193359375,0.3798370361328125,0.22271728515625,0.4737091064453125
1783152012255102700,4.832102783203125,0.35662841796875,0.0657196044921875,0.3912506103515625
1783152012264838000,4.841837890625,0.3083648681640625,-0.0961456298828125,0.2501373291015625
1783152012274542600,4.85154248046875,0.248504638671875,-0.1993865966796875,0.0791015625
1783152012284247000,4.8612470703125,0.181304931640625,-0.255584716796875,-0.109039306640625
1783152012293951700,4.87095166015625,0.108612060546875,-0.261688232421875,-0.3094024658203125
1783152012303656200,4.88065625,0.0487518310546875,-0.20550537109375,-0.5097808837890625
1783152012313391400,4.890391357421875,0.0169830322265625,-0.0912628173828125,-0.680206298828125
1783152012323126500,4.90012646484375,0.0194244384765625,0.0626678466796875,-0.793212890625
1783152012332831000,4.9098310546875,0.0475311279296875,0.2501983642578125,-0.835357666015625
1783152012342535700,4.91953564453125,0.105560302734375,0.482330322265625,-0.7981109619140625
1783152012352270800,4.929270751953125,0.1990203857421875,0.7138519287109375,-0.682037353515625
1783152012361975300,4.938975341796875,0.318756103515625,0.8677978515625,-0.5091552734375
1783152012371680000,4.948679931640625,0.4445953369140625,0.8903961181640625,-0.3094024658203125
1783152012381384400,4.958384521484375,0.5588226318359375,0.7792205810546875,-0.112701416015625
1783152012391119600,4.96811962890625,0.6571807861328125,0.5929107666015625,0.0723724365234375
1783152012400824300,4.97782421875,0.7286376953125,0.36322021484375,0.2379302978515625
1783152012410528800,4.98752880859375,0.764068603515625,0.117645263671875,0.3759765625
1783152012420233500,4.9972333984375,0.757965087890625,-0.1230316162109375,0.479217529296875
1783152012429938000,5.00693798828125,0.712158203125,-0.35760498046875,0.5390777587890625
1783152012449377800,5.026377685546875,0.5301055908203125,-0.745513916015625,0.5274810791015625
1783152012459082200,5.036082275390625,0.401214599609375,-0.826141357421875,0.475555419921875
1783152012468787000,5.045786865234375,0.251556396484375,-0.827972412109375,0.3973541259765625
1783152012478522000,5.055522216796875,0.0951690673828125,-0.755889892578125,0.2898406982421875
1783152012488226600,5.0652265625,-0.0575408935546875,-0.613555908203125,0.15728759765625
1783152012497931300,5.07493115234375,-0.193756103515625,-0.443115234375,0.00152587890625
1783152012507635700,5.0846357421875,-0.3031005859375,-0.2916259765625,-0.1615753173828125
1783152012517340400,5.09434033203125,-0.3922882080078125,-0.1621246337890625,-0.316131591796875
1783152012527075600,5.10407568359375,-0.480255126953125,-0.06805419921875,-0.4438018798828125
1783152012536780000,5.113780029296875,-0.5724945068359375,-0.013702392578125,-0.5287017822265625
1783152012546484700,5.123484619140625,-0.66107177734375,0.015625,-0.56842041015625
1783152012556189200,5.133189208984375,-0.7441558837890625,0.0278472900390625,-0.5794219970703125
1783152012565924400,5.14292431640625,-0.8162384033203125,0.0296783447265625,-0.57879638671875
1783152012575629000,5.152629150390625,-0.873046875,0.038848876953125,-0.5782012939453125
1783152012585333500,5.16233349609375,-0.911529541015625,0.0620574951171875,-0.5782012939453125
1783152012595038200,5.1720380859375,-0.9280242919921875,0.09686279296875,-0.57330322265625
1783152012604773000,5.181773193359375,-0.9298553466796875,0.1347503662109375,-0.5586395263671875
1783152012624213000,5.201212890625,-0.902984619140625,0.1732330322265625,-0.506103515625
1783152012633917400,5.21091748046875,-0.8748779296875,0.1316986083984375,-0.4767913818359375
1783152012643622100,5.2206220703125,-0.835784912109375,0.0608367919921875,-0.4419708251953125
1783152012653357300,5.230357421875,-0.7899627685546875,-0.0081939697265625,-0.397369384765625
1783152012663061800,5.240061767578125,-0.7337646484375,-0.0900421142578125,-0.35400390625
1783152012672766500,5.249766357421875,-0.65740966796875,-0.181060791015625,-0.3075714111328125
1783152012682471000,5.259470947265625,-0.5670013427734375,-0.2690277099609375,-0.255035400390625
1783152012692206000,5.2692060546875,-0.480255126953125,-0.392425537109375,-0.1976165771484375
1783152012701910800,5.278910888671875,-0.410003662109375,-0.531097412109375,-0.1194305419921875
1783152012711615200,5.288615234375,-0.37518310546875,-0.6245574951171875,-0.0149688720703125
1783152012721320000,5.29831982421875,-0.3825225830078125,-0.677703857421875,0.0931396484375
1783152012731024400,5.3080244140625,-0.4185638427734375,-0.685028076171875,0.1780548095703125
1783152012740759600,5.317759521484375,-0.4588775634765625,-0.6324920654296875,0.2257080078125
1783152012750464300,5.32746435546875,-0.466827392578125,-0.58544921875,0.2330322265625
1783152012760168700,5.337168701171875,-0.398406982421875,-0.64471435546875,0.179901123046875
1783152012769873400,5.346873291015625,-0.3477020263671875,-0.65386962890625,0.1029205322265625
1783152012779608300,5.3566083984375,-0.3177642822265625,-0.5298614501953125,0.0229034423828125
1783152012789313000,5.36631298828125,-0.1320648193359375,-0.2739105224609375,-0.0491790771484375
1783152012799017700,5.376017822265625,0.0701141357421875,-0.22015380859375,-0.1542510986328125
1783152012808722200,5.38572216796875,0.0908966064453125,-0.49749755859375,-0.28497314453125
1783152012818427000,5.395427001953125,0.08355712890625,-0.587890625,-0.350341796875
1783152012828161800,5.405161865234375,0.111663818359375,-0.4589996337890625,-0.314300537109375
1783152012837866500,5.414866455078125,0.1562652587890625,-0.2812347412109375,-0.2061614990234375
1783152012847571200,5.4245712890625,0.184967041015625,-0.1327972412109375,-0.040008544921875
1783152012857275600,5.434275634765625,0.20819091796875,0.1078643798828125,0.1853790283203125
1783152012867010800,5.4440107421875,0.2796478271484375,0.550750732421875,0.4657745361328125
1783152012876715300,5.45371533203125,0.3767852783203125,1.0321197509765625,0.7510528564453125
1783152012886420000,5.463419921875,0.4458160400390625,1.3357086181640625,0.983795166015625
1783152012896155100,5.473155029296875,0.473297119140625,1.4420166015625,1.1517791748046875
1783152012905890000,5.48289013671875,0.4806365966796875,1.3650360107421875,1.2513580322265625
1783152012915594800,5.4925947265625,0.473907470703125,1.0602264404296875,1.2537994384765625
1783152012925299500,5.502299560546875,0.4506988525390625,0.51837158203125,1.121246337890625
1783152012935004000,5.51200390625,0.4568023681640625,-0.0564422607421875,0.8603973388671875
1783152012944708600,5.52170849609375,0.5618743896484375,-0.393646240234375,0.556182861328125
1783152012954443500,5.531443603515625,0.747589111328125,-0.36614990234375,0.2947235107421875
1783152012964148200,5.541148193359375,0.9534454345703125,-0.0503387451171875,0.1023101806640625
1783152012973853000,5.55085302734375,1.1397552490234375,0.409637451171875,-0.0125274658203125
1783152012983557400,5.560557373046875,1.2979736328125,0.8800201416015625,-0.0558929443359375
1783152012993292500,5.57029248046875,1.4293060302734375,1.2563018798828125,-0.0449066162109375
1783152013002997000,5.5799970703125,1.5349884033203125,1.5006561279296875,0.00579833984375
1783152013012701700,5.58970166015625,1.6082916259765625,1.627105712890625,0.0931396484375
1783152013022406400,5.599406494140625,1.64556884765625,1.66009521484375,0.2086029052734375
1783152013032110800,5.60911083984375,1.64801025390625,1.5434112548828125,0.3301544189453125
1783152013041846000,5.618845947265625,1.6315155029296875,1.2831878662109375,0.4346160888671875
1783152013051550500,5.628550537109375,1.618072509765625,0.977752685546875,0.5128173828125
1783152013061255200,5.638255126953125,1.621124267578125,0.696746826171875,0.557403564453125
1783152013070959900,5.6479599609375,1.64678955078125,0.51287841796875,0.559234619140625
1783152013080694800,5.65769482421875,1.684661865234375,0.4298095703125,0.5238037109375
1783152013090399500,5.6673994140625,1.7298583984375,0.4188079833984375,0.467010498046875
1783152013100104000,5.67710400390625,1.7707977294921875,0.4615631103515625,0.403472900390625
1783152013109808600,5.68680859375,1.7793426513671875,0.5324249267578125,0.341156005859375
1783152013119513000,5.69651318359375,1.7378082275390625,0.6057281494140625,0.28924560546875
1783152013129248300,5.706248291015625,1.64862060546875,0.66314697265625,0.2495269775390625
1783152013138953000,5.715952880859375,1.5276641845703125,0.689422607421875,0.2177734375
1783152013158362000,5.735362060546875,1.2759857177734375,0.696746826171875,0.1768341064453125
1783152013168097300,5.74509716796875,1.1739654541015625,0.66741943359375,0.14935302734375
1783152013177832200,5.754832275390625,1.0951690673828125,0.626495361328125,0.1053619384765625
1783152013187537000,5.764536865234375,1.038360595703125,0.626495361328125,0.044891357421875
1783152013197241600,5.77424169921875,0.998046875,0.66314697265625,-0.028411865234375
1783152013206976500,5.7839765625,0.972381591796875,0.687591552734375,-0.1133270263671875
1783152013216681200,5.79368115234375,0.9619903564453125,0.7034759521484375,-0.2000579833984375
1783152013226385700,5.8033857421875,0.9821624755859375,0.694305419921875,-0.27276611328125
1783152013245795000,5.822795166015625,1.1336517333984375,0.5379180908203125,-0.28497314453125
1783152013255530000,5.832530029296875,1.14404296875,0.404144287109375,-0.2098388671875
1783152013265234700,5.842234619140625,1.08660888671875,0.21783447265625,-0.171966552734375
1783152013274939100,5.851939208984375,1.0670623779296875,0.0363922119140625,-0.14813232421875
1783152013284643800,5.861643798828125,1.07501220703125,-0.07965087890625,-0.109039306640625
1783152013294379000,5.87137890625,1.07928466796875,-0.1682281494140625,-0.0748291015625
1783152013304083500,5.88108349609375,1.08355712890625,-0.2360382080078125,-0.0662841796875
1783152013313788200,5.8907880859375,1.08172607421875,-0.2958984375,-0.0901031494140625
1783152013323492600,5.90049267578125,1.0518035888671875,-0.36676025390625,-0.1499786376953125
1783152013333227800,5.910227783203125,0.9949798583984375,-0.4174652099609375,-0.2257080078125
1783152013342932500,5.919932373046875,0.93450927734375,-0.4162445068359375,-0.2984161376953125
1783152013352637000,5.929636962890625,0.8764801025390625,-0.3783721923828125,-0.3741607666015625
1783152013362341600,5.939341552734375,0.8349456787109375,-0.28369140625,-0.4370880126953125
1783152013372046000,5.949046142578125,0.817840576171875,-0.1273040771484375,-0.473114013671875
1783152013381781200,5.95878125,0.8172149658203125,0.0345611572265625,-0.4774017333984375
1783152013391486000,5.96848583984375,0.8159942626953125,0.1420745849609375,-0.454193115234375
1783152013401190400,5.9781904296875,0.8050079345703125,0.184844970703125,-0.4181365966796875
1783152013410895000,5.98789501953125,0.79095458984375,0.1561279296875,-0.394927978515625
1783152013420630300,5.99763037109375,0.7720184326171875,0.0736541748046875,-0.319183349609375
1783152013430334700,6.007334716796875,0.7335357666015625,-0.030792236328125,-0.1982269287109375
1783152013440039400,6.017039306640625,0.6626739501953125,-0.1260833740234375,-0.0772705078125
1783152013449744000,6.026743896484375,0.5844879150390625,-0.184112548828125,0.056488037109375
1783152013459448600,6.036448486328125,0.535614013671875,-0.186553955078125,0.193939208984375
1783152013469183700,6.046183837890625,0.5203399658203125,-0.1627349853515625,0.324676513671875
1783152013478918700,6.055918701171875,0.538665771484375,-0.102264404296875,0.44195556640625
1783152013488623400,6.065623291015625,0.5740966796875,-0.013702392578125,0.5335845947265625
1783152013498327800,6.075327880859375,0.5960845947265625,-0.0234527587890625,0.5635223388671875
1783152013508032500,6.085032470703125,0.5832672119140625,-0.181060791015625,0.5042572021484375
1783152013517767700,6.094767578125,0.536834716796875,-0.392425537109375,0.36376953125
1783152013537176800,6.1141767578125,0.3419647216796875,-0.57080078125,-0.0626068115234375
1783152013546881300,6.12388134765625,0.21368408203125,-0.468780517578125,-0.311859130859375
1783152013556616400,6.133616455078125,0.106781005859375,-0.2904052734375,-0.5677947998046875
1783152013566321200,6.143321044921875,0.0579071044921875,-0.06317138671875,-0.8036041259765625
1783152013576025600,6.153025634765625,0.07440185546875,0.183624267578125,-0.9960174560546875
1783152013585730300,6.162730224609375,0.1373138427734375,0.4224700927734375,-1.1243133544921875
1783152013595465500,6.172465576171875,0.22467041015625,0.6680450439453125,-1.1762237548828125
1783152013605170000,6.182169921875,0.321807861328125,0.9026031494140625,-1.1573028564453125
1783152013614874600,6.19187451171875,0.4183197021484375,1.1090850830078125,-1.0986480712890625
1783152013624579000,6.2015791015625,0.5349884033203125,1.2801361083984375,-1.0009002685546875
1783152013634314200,6.211314208984375,0.65777587890625,1.336944580078125,-0.8787384033203125
1783152013644019000,6.22101904296875,0.7659149169921875,1.23797607421875,-0.755340576171875
1783152013653723400,6.230723388671875,0.8563079833984375,1.048004150390625,-0.639892578125
1783152013663428000,6.240427978515625,0.9564971923828125,0.8207550048828125,-0.5207672119140625
1783152013673132500,6.250132568359375,1.07806396484375,0.556854248046875,-0.3900299072265625
1783152013682867700,6.25986767578125,1.21734619140625,0.2844085693359375,-0.238555908203125
1783152013692572400,6.269572509765625,1.3456268310546875,0.045562744140625,-0.0583343505859375
1783152013702276900,6.27927685546875,1.4287109375,-0.1578521728515625,0.1298065185546875
1783152013711981600,6.288981689453125,1.4683990478515625,-0.3374481201171875,0.3179473876953125
1783152013721716500,6.298716552734375,1.469024658203125,-0.4810028076171875,0.5354156494140625
1783152013731421200,6.308421142578125,1.4213714599609375,-0.5604095458984375,0.780364990234375
1783152013741126000,6.3181259765625,1.3108062744140625,-0.569580078125,1.01312255859375
1783152013750860800,6.32786083984375,1.1593017578125,-0.545745849609375,1.2269134521484375
1783152013760596000,6.337595947265625,0.998046875,-0.5268096923828125,1.4010162353515625
1783152013770300700,6.34730078125,0.8502044677734375,-0.5261993408203125,1.5293121337890625
1783152013780005000,6.357005126953125,0.7237548828125,-0.5298614501953125,1.6062774658203125
1783152013789709800,6.366709716796875,0.616241455078125,-0.5170440673828125,1.625213623046875
1783152013799414300,6.376414306640625,0.5282745361328125,-0.4797821044921875,1.5824432373046875
1783152013809149400,6.3861494140625,0.4561920166015625,-0.4192962646484375,1.479217529296875
1783152013818854100,6.395854248046875,0.397552490234375,-0.3380584716796875,1.3258819580078125
1783152013828558600,6.40555859375,0.3492889404296875,-0.20855712890625,1.1389617919921875
1783152013838263300,6.41526318359375,0.3120269775390625,-0.0509490966796875,0.9312591552734375
1783152013847998200,6.424998291015625,0.28271484375,0.0950469970703125,0.7137908935546875
1783152013857703000,6.434702880859375,0.2582855224609375,0.22821044921875,0.5005950927734375
1783152013877112000,6.454112060546875,0.1709136962890625,0.4566802978515625,0.1340789794921875
1783152013886816800,6.463816650390625,0.104949951171875,0.5220489501953125,-0.00823974609375
1783152013896551700,6.4735517578125,0.0450897216796875,0.546478271484375,-0.12921142578125
1783152013906256400,6.48325634765625,0.0010986328125,0.549530029296875,-0.2348785400390625
1783152013915961000,6.492961181640625,-0.0190582275390625,0.548309326171875,-0.327728271484375
1783152013925665500,6.50266552734375,-0.0239410400390625,0.5360870361328125,-0.4169158935546875
1783152013935400700,6.512400634765625,-0.0099029541015625,0.5281524658203125,-0.5115966796875
1783152013945105200,6.522105224609375,0.0224761962890625,0.540374755859375,-0.6246185302734375
1783152013954809900,6.531809814453125,0.06463623046875,0.558074951171875,-0.7852783203125
1783152013964514600,6.5415146484375,0.109832763671875,0.5654144287109375,-1.00030517578125
1783152013974219000,6.551218994140625,0.1660308837890625,0.5434112548828125,-1.251983642578125
1783152013983954200,6.5609541015625,0.21978759765625,0.484161376953125,-1.543365478515625
1783152013993658600,6.57065869140625,0.28759765625,0.44140625,-1.832305908203125
1783152014003363300,6.58036328125,0.37066650390625,0.4591217041015625,-2.036956787109375
1783152014013067800,6.59006787109375,0.4403076171875,0.51593017578125,-2.1371307373046875
1783152014022803000,6.599802978515625,0.4525299072265625,0.5324249267578125,-2.15484619140625
1783152014032538000,6.6095380859375,0.37554931640625,0.5880126953125,-2.090087890625
1783152014042242800,6.619242919921875,0.3150787353515625,0.9001617431640625,-1.86102294921875
1783152014051947300,6.628947265625,0.3798370361328125,0.9013824462890625,-1.545196533203125
1783152014061682400,6.638682373046875,0.4384765625,0.6423797607421875,-1.260528564453125
1783152014071387000,6.648386962890625,0.469635009765625,0.407196044921875,-1.0528411865234375
1783152014081091600,6.658091552734375,0.466583251953125,0.2789154052734375,-0.8701934814453125
1783152014090796300,6.66779638671875,0.3865509033203125,0.3100738525390625,-0.672882080078125
1783152014100500700,6.677500732421875,0.2442169189453125,0.4346923828125,-0.4816741943359375
1783152014110236000,6.68723583984375,0.178253173828125,0.5360870361328125,-0.320404052734375
1783152014119940400,6.6969404296875,0.2240753173828125,0.5000457763671875,-0.2024993896484375
1783152014129645000,6.70664501953125,0.3437957763671875,0.36138916015625,-0.1188201904296875
1783152014139349800,6.716349853515625,0.464752197265625,0.2025604248046875,-0.0571136474609375
1783152014149084700,6.726084716796875,0.530731201171875,0.1432952880859375,0.0155792236328125
1783152014158789400,6.735789306640625,0.550872802734375,0.22943115234375,0.1273651123046875
1783152014168493800,6.745493896484375,0.550872802734375,0.400482177734375,0.2770233154296875
1783152014178198500,6.755198486328125,0.545989990234375,0.551971435546875,0.4511260986328125
1783152014187903200,6.7649033203125,0.537445068359375,0.6295623779296875,0.627655029296875
1783152014197638100,6.77463818359375,0.5221710205078125,0.65643310546875,0.78955078125
1783152014207342800,6.7843427734375,0.4958953857421875,0.7230224609375,0.9306488037109375
1783152014217047300,6.79404736328125,0.464752197265625,0.8629150390625,1.0442657470703125
1783152014226752000,6.803751953125,0.4183197021484375,0.94537353515625,1.118194580078125
1783152014236487200,6.813487060546875,0.3535614013671875,0.8177032470703125,1.130401611328125
1783152014246191600,6.823191650390625,0.283935546875,0.4236907958984375,1.056488037109375
1783152014255896300,6.832896240234375,0.21917724609375,-0.1456298828125,0.8994903564453125
1783152014265600800,6.842600830078125,0.1721343994140625,-0.64349365234375,0.7089080810546875
1783152014275336000,6.8523359375,0.1672515869140625,-0.8517913818359375,0.5415191650390625
1783152014285040600,6.86204052734375,0.241180419921875,-0.7412261962890625,0.44256591796875
1783152014294745000,6.8717451171875,0.3492889404296875,-0.4168548583984375,0.4309539794921875
1783152014304449800,6.88144970703125,0.4354248046875,0.015625,0.510986328125
1783152014314154200,6.891154296875,0.50140380859375,0.4560699462890625,0.6667633056640625
1783152014323889400,6.900889404296875,0.548431396484375,0.81097412109375,0.87384033203125
1783152014333624600,6.91062451171875,0.5557708740234375,0.981414794921875,1.0962066650390625
1783152014343329000,6.9203291015625,0.5172882080078125,0.917266845703125,1.2935028076171875
1783152014353033700,6.93003369140625,0.4525299072265625,0.697357177734375,1.44622802734375
1783152014362769000,6.939768798828125,0.384735107421875,0.4310302734375,1.561676025390625
1783152014372473300,6.949473388671875,0.320587158203125,0.1634674072265625,1.622772216796875
1783152014382178000,6.959177978515625,0.255828857421875,-0.1291351318359375,1.58428955078125
1783152014391882500,6.968882568359375,0.2008514404296875,-0.43701171875,1.4352264404296875
1783152014401587200,6.978587158203125,0.1641998291015625,-0.7106781005859375,1.195159912109375
1783152014411322400,6.988322265625,0.1470947265625,-0.902496337890625,0.903778076171875
1783152014421026800,6.99802685546875,0.147705078125,-0.9868011474609375,0.6087188720703125
1783152014430731500,7.0077314453125,0.1965789794921875,-0.93670654296875,0.3564300537109375
1783152014440436000,7.01743603515625,0.3059234619140625,-0.765655517578125,0.15606689453125
1783152014450171100,7.027171142578125,0.3358612060546875,-0.6587677001953125,-0.00518798828125
1783152014459875800,7.036875732421875,0.281494140625,-0.6049957275390625,-0.1200408935546875
1783152014469580300,7.046580322265625,0.178863525390625,-0.50360107421875,-0.1634063720703125
1783152014479285000,7.056284912109375,0.06707763671875,-0.3099517822265625,-0.13165283203125
1783152014489020200,7.066020263671875,-0.0190582275390625,-0.0588836669921875,-0.040008544921875
1783152014498724600,7.075724609375,-0.0917510986328125,0.187286376953125,0.077880859375
1783152014508429300,7.08542919921875,-0.1497802734375,0.36260986328125,0.198822021484375
1783152014518133800,7.0951337890625,-0.1827545166015625,0.44873046875,0.30267333984375
1783152014527838500,7.10483837890625,-0.1766510009765625,0.4633941650390625,0.3741455078125
1783152014537573600,7.11457373046875,-0.1296234130859375,0.437744140625,0.414459228515625
1783152014547278000,7.124278076171875,-0.0624237060546875,0.405364990234375,0.43524169921875
1783152014556982800,7.133982666015625,0.0157623291015625,0.37420654296875,0.44073486328125
1783152014566687200,7.143687255859375,0.1018829345703125,0.341827392578125,0.43768310546875
1783152014586127000,7.163127197265625,0.256439208984375,0.3192291259765625,0.4187469482421875
1783152014595831600,7.17283154296875,0.2820892333984375,0.3888702392578125,0.3936920166015625
1783152014605566700,7.182566650390625,0.3059234619140625,0.50494384765625,0.3753662109375
1783152014615302000,7.192302001953125,0.36456298828125,0.5287628173828125,0.37353515625
1783152014625006300,7.20200634765625,0.3853302001953125,0.555633544921875,0.3442230224609375
1783152014634711000,7.2117109375,0.3749542236328125,0.628936767578125,0.2782440185546875
1783152014644415500,7.22141552734375,0.3798370361328125,0.6381072998046875,0.2018890380859375
1783152014654120200,7.2311201171875,0.37188720703125,0.558074951171875,0.1041412353515625
1783152014663855400,7.24085546875,0.330963134765625,0.467681884765625,-0.00579833984375
1783152014673559800,7.250559814453125,0.2717132568359375,0.4212493896484375,-0.0845947265625
1783152014683264500,7.260264404296875,0.20697021484375,0.37359619140625,-0.1298065185546875
1783152014692969000,7.269968994140625,0.1623687744140625,0.2447052001953125,-0.14935302734375
1783152014702704000,7.2797041015625,0.114105224609375,-0.0515594482421875,-0.178680419921875
1783152014712408800,7.289408935546875,0.0230865478515625,-0.4577789306640625,-0.246490478515625
1783152014722113300,7.29911328125,-0.0214996337890625,-0.5726318359375,-0.2984161376953125
1783152014731818000,7.30881787109375,0.06341552734375,-0.2268829345703125,-0.29534912109375
1783152014741522400,7.3185224609375,0.21429443359375,0.16162109375,-0.28558349609375
1783152014751257600,7.328257568359375,0.3040924072265625,0.2886962890625,-0.316131591796875
1783152014760962300,7.33796240234375,0.3474578857421875,0.3186187744140625,-0.3350677490234375
1783152014770666800,7.347666748046875,0.3364715576171875,0.3186187744140625,-0.3356781005859375
1783152014780371500,7.357371337890625,0.3089752197265625,0.263641357421875,-0.3051300048828125
1783152014790106400,7.3671064453125,0.2900390625,0.1707916259765625,-0.2654266357421875
1783152014799811000,7.37681103515625,0.281494140625,0.040679931640625,-0.2312164306640625
1783152014809515800,7.386515869140625,0.2723236083984375,-0.110198974609375,-0.2171630859375
1783152014819220200,7.39622021484375,0.283935546875,-0.2696380615234375,-0.187835693359375
1783152014828925000,7.405925048828125,0.329132080078125,-0.3423309326171875,-0.13958740234375
1783152014838659800,7.415659912109375,0.3865509033203125,-0.29345703125,-0.0827789306640625
1783152014848364500,7.425364501953125,0.422607421875,-0.1859588623046875,-0.027191162109375
1783152014858069200,7.4350693359375,0.4433746337890625,-0.0478973388671875,0.043060302734375
1783152014867773700,7.444773681640625,0.4513092041015625,0.07855224609375,0.1273651123046875
1783152014877508900,7.4545087890625,0.4329833984375,0.07977294921875,0.1853790283203125
1783152014887213300,7.46421337890625,0.398773193359375,-0.0588836669921875,0.1701202392578125
1783152014896948500,7.473948486328125,0.3786163330078125,-0.2433624267578125,0.0735931396484375
1783152014906653200,7.483653076171875,0.3798370361328125,-0.4089202880859375,-0.0882720947265625
1783152014916388000,7.49338818359375,0.3914337158203125,-0.545745849609375,-0.3106231689453125
1783152014926092800,7.5030927734375,0.393890380859375,-0.6062164306640625,-0.5891876220703125
1783152014935797500,7.512797607421875,0.393890380859375,-0.5298614501953125,-0.899505615234375
1783152014945502000,7.522501953125,0.399993896484375,-0.291015625,-1.187835693359375
1783152014955206700,7.53220654296875,0.395111083984375,0.055328369140625,-1.4163055419921875
1783152014964941600,7.541941650390625,0.3792266845703125,0.4236907958984375,-1.5555877685546875
1783152014974646300,7.551646240234375,0.3523406982421875,0.760894775390625,-1.58551025390625
1783152014984351000,7.56135107421875,0.321197509765625,1.02783203125,-1.4889984130859375
1783152014994055400,7.571055419921875,0.2869873046875,1.198272705078125,-1.2751922607421875
1783152015003790600,7.58079052734375,0.248504638671875,1.23492431640625,-0.974029541015625
1783152015013495000,7.5904951171875,0.2075653076171875,1.09442138671875,-0.6282806396484375
1783152015023199700,7.60019970703125,0.172760009765625,0.7920379638671875,-0.28314208984375
1783152015032904400,7.609904541015625,0.1599273681640625,0.410858154296875,0.0290069580078125
1783152015042639400,7.619639404296875,0.176422119140625,0.0241851806640625,0.2849578857421875
1783152015052344000,7.629343994140625,0.21368408203125,-0.3032379150390625,0.477996826171875
1783152015062048500,7.639048583984375,0.248504638671875,-0.546966552734375,0.6111602783203125
1783152015071753200,7.648753173828125,0.252777099609375,-0.6734161376953125,0.688751220703125
1783152015081458000,7.6584580078125,0.2289581298828125,-0.675262451171875,0.7076873779296875
1783152015091192800,7.66819287109375,0.185577392578125,-0.611724853515625,0.6661376953125
1783152015100897500,7.6778974609375,0.1275482177734375,-0.50421142578125,0.58184814453125
1783152015110602000,7.68760205078125,0.0518035888671875,-0.36187744140625,0.4737091064453125
1783152015120306700,7.697306640625,-0.038604736328125,-0.21527099609375,0.3594818115234375
1783152015130041900,7.707041748046875,-0.1363372802734375,-0.0894317626953125,0.256256103515625
1783152015139746300,7.716746337890625,-0.2401885986328125,0.0034027099609375,0.1701202392578125
1783152015149451000,7.726450927734375,-0.3428192138671875,0.051055908203125,0.1023101806640625
1783152015159155500,7.736155517578125,-0.431396484375,0.056549072265625,0.053436279296875
1783152015168860200,7.745860107421875,-0.4955291748046875,0.0370025634765625,0.0210723876953125
1783152015178595300,7.75559521484375,-0.5334014892578125,0.00830078125,0.00396728515625
1783152015188330200,7.765330322265625,-0.550506591796875,-0.016143798828125,-0.00335693359375
1783152015198035000,7.775034912109375,-0.552947998046875,-0.033233642578125,-0.0064239501953125
1783152015207739600,7.78473974609375,-0.545013427734375,-0.0491180419921875,-0.0094757080078125
1783152015217474600,7.794474609375,-0.5346221923828125,-0.0552215576171875,-0.0113067626953125
1783152015227179300,7.80417919921875,-0.5285186767578125,-0.0594940185546875,-0.0137481689453125
1783152015236883700,7.8138837890625,-0.5303497314453125,-0.06805419921875,-0.0210723876953125
1783152015246588400,7.82358837890625,-0.5346221923828125,-0.06866455078125,-0.030853271484375
1783152015256293000,7.833293212890625,-0.5382843017578125,-0.0582733154296875,-0.0449066162109375
1783152015266028000,7.843028076171875,-0.537689208984375,-0.042999267578125,-0.0662841796875
1783152015275732700,7.852732666015625,-0.5303497314453125,-0.018585205078125,-0.0968170166015625
1783152015285437200,7.862437255859375,-0.51873779296875,0.0186920166015625,-0.13531494140625
1783152015295142000,7.872141845703125,-0.50225830078125,0.0577850341796875,-0.176849365234375
1783152015304877000,7.881876953125,-0.483306884765625,0.08770751953125,-0.2177734375
1783152015314581500,7.89158154296875,-0.4662017822265625,0.1066436767578125,-0.254425048828125
1783152015324286200,7.9012861328125,-0.446044921875,0.112152099609375,-0.28131103515625
1783152015343725800,7.920725830078125,-0.3819122314453125,0.1035919189453125,-0.29290771484375
1783152015363135000,7.940135009765625,-0.3043212890625,0.118865966796875,-0.2733612060546875
1783152015372839700,7.949839599609375,-0.2719573974609375,0.1090850830078125,-0.2733612060546875
1783152015382544100,7.959544189453125,-0.2401885986328125,0.119476318359375,-0.2690887451171875
1783152015392279300,7.969279296875,-0.21270751953125,0.162841796875,-0.251373291015625
1783152015401984000,7.97898388671875,-0.1968231201171875,0.22027587890625,-0.2244873046875
1783152015411688400,7.9886884765625,-0.188262939453125,0.2850341796875,-0.1909027099609375
1783152015421393200,7.99839306640625,-0.178497314453125,0.36444091796875,-0.1530303955078125
1783152015431128300,8.00812841796875,-0.1656494140625,0.4291839599609375,-0.1169891357421875
1783152015440832800,8.017832763671874,-0.149169921875,0.4530181884765625,-0.101104736328125
1783152015450537500,8.027537353515624,-0.1284027099609375,0.4371337890625,-0.111480712890625
1783152015460242000,8.037241943359374,-0.1063995361328125,0.3949737548828125,-0.14263916015625
1783152015469977000,8.04697705078125,-0.08258056640625,0.337554931640625,-0.1902923583984375
1783152015479712300,8.056712158203124,-0.0593719482421875,0.2764739990234375,-0.2428131103515625
1783152015489416700,8.066416748046874,-0.035552978515625,0.2184295654296875,-0.29534912109375
1783152015499121400,8.076121337890624,-0.0129547119140625,0.1683502197265625,-0.347900390625
1783152015508825900,8.085825927734374,0.0047607421875,0.1329193115234375,-0.399810791015625
1783152015518561000,8.09556103515625,0.0243072509765625,0.1341400146484375,-0.43402099609375
1783152015528265700,8.105265625,0.036529541015625,0.1756744384765625,-0.4486846923828125
1783152015537970200,8.11497021484375,0.037139892578125,0.23553466796875,-0.4517364501953125
1783152015547675000,8.1246748046875,0.0285797119140625,0.3607635498046875,-0.4444122314453125
1783152015557379300,8.13437939453125,0.0163726806640625,0.555633544921875,-0.42791748046875
1783152015567114500,8.144114501953124,-0.0105133056640625,0.631378173828125,-0.4395294189453125
1783152015576819200,8.153819091796874,-0.0624237060546875,0.400482177734375,-0.5323638916015625
1783152015586523600,8.163523681640624,-0.115570068359375,-0.0607147216796875,-0.7089080810546875
1783152015596228400,8.173228271484374,-0.116790771484375,-0.49139404296875,-0.9190521240234375
1783152015605963500,8.182963623046875,-0.07586669921875,-0.7387847900390625,-1.1004791259765625
1783152015615668000,8.19266796875,-0.0441131591796875,-0.7693328857421875,-1.2018890380859375
1783152015625372700,8.20237255859375,-0.037384033203125,-0.576904296875,-1.195770263671875
1783152015635077000,8.2120771484375,-0.0465545654296875,-0.190216064453125,-1.0791015625
1783152015644812300,8.221812255859374,-0.0581512451171875,0.30029296875,-0.8665313720703125
1783152015654517000,8.23151708984375,-0.0599822998046875,0.768218994140625,-0.58245849609375
1783152015664221400,8.241221435546874,-0.047149658203125,1.0987091064453125,-0.261138916015625
1783152015673926100,8.250926025390624,-0.0092926025390625,1.2459259033203125,0.0680999755859375
1783152015683661000,8.2606611328125,0.0450897216796875,1.22698974609375,0.3753662109375
1783152015693365800,8.27036572265625,0.104949951171875,1.0590057373046875,0.633148193359375
1783152015703070500,8.280070556640625,0.1617584228515625,0.7902069091796875,0.8219146728515625
1783152015712775000,8.28977490234375,0.21978759765625,0.486602783203125,0.9288177490234375
1783152015722479600,8.299479736328125,0.2833251953125,0.190948486328125,0.9569091796875
1783152015732214500,8.309214599609374,0.35906982421875,-0.0491180419921875,0.913543701171875
1783152015741919200,8.318919189453124,0.4439849853515625,-0.20550537109375,0.8109130859375
1783152015751654400,8.328654296875,0.5227813720703125,-0.2757415771484375,0.6673583984375
1783152015761358800,8.33835888671875,0.5899810791015625,-0.2763519287109375,0.5115966796875
1783152015771094000,8.348093994140624,0.64312744140625,-0.2305450439453125,0.3814697265625
1783152015780798700,8.357798828125,0.676727294921875,-0.1474609375,0.30938720703125
1783152015790503200,8.367503173828124,0.686492919921875,-0.0540008544921875,0.2935028076171875
1783152015800208000,8.377207763671874,0.679168701171875,0.0333404541015625,0.327117919921875
1783152015809912300,8.386912353515624,0.65411376953125,0.1048126220703125,0.3918609619140625
1783152015819647500,8.3966474609375,0.616851806640625,0.1268157958984375,0.469451904296875
1783152015829352200,8.406352294921875,0.5704193115234375,0.08648681640625,0.542755126953125
1783152015839056600,8.416056640625,0.5209503173828125,0.0034027099609375,0.6038360595703125
1783152015848761300,8.42576123046875,0.476959228515625,-0.0918731689453125,0.644775390625
1783152015858496300,8.435496337890624,0.4476470947265625,-0.187774658203125,0.6624755859375
1783152015868201000,8.445200927734374,0.4366455078125,-0.2671966552734375,0.65576171875
1783152015877905700,8.45490576171875,0.4439849853515625,-0.316070556640625,0.620330810546875
1783152015887610000,8.464610107421874,0.4439849853515625,-0.3466033935546875,0.5635223388671875
1783152015897345300,8.47434521484375,0.4287109375,-0.324615478515625,0.508544921875
1783152015907049700,8.4840498046875,0.4445953369140625,-0.316070556640625,0.43280029296875
1783152015916754400,8.49375439453125,0.4781951904296875,-0.3075103759765625,0.3454437255859375
1783152015926459100,8.503459228515625,0.4904022216796875,-0.2659759521484375,0.263580322265625
1783152015936163600,8.51316357421875,0.472686767578125,-0.253143310546875,0.190277099609375
1783152015945898800,8.522898681640624,0.4415283203125,-0.2665863037109375,0.120635986328125
1783152015955603200,8.532603271484374,0.404876708984375,-0.2855224609375,0.0613861083984375
1783152015965308000,8.542307861328124,0.37432861328125,-0.322174072265625,0.0222930908203125
1783152015975012400,8.552012451171874,0.3492889404296875,-0.35577392578125,-0.00030517578125
1783152015984747500,8.56174755859375,0.320587158203125,-0.3777618408203125,-0.00823974609375
1783152015994452200,8.5714521484375,0.28271484375,-0.402191162109375,-0.00274658203125
1783152016004156700,8.58115673828125,0.2356719970703125,-0.4107513427734375,0.0167999267578125
1783152016013861400,8.590861328125,0.182525634765625,-0.3820343017578125,0.042449951171875
1783152016023565800,8.60056591796875,0.1208343505859375,-0.324005126953125,0.0619964599609375
1783152016033301000,8.610301025390624,0.0585174560546875,-0.2781982421875,0.0595550537109375
1783152016043036200,8.6200361328125,0.00537109375,-0.2635345458984375,0.0302276611328125
1783152016052740900,8.629740966796875,-0.025787353515625,-0.2610931396484375,-0.0216827392578125
1783152016062445300,8.6394453125,-0.029449462890625,-0.2403106689453125,-0.0809326171875
1783152016072180500,8.649180419921874,-0.0111236572265625,-0.2018280029296875,-0.13287353515625
1783152016081885000,8.658885009765624,0.0218658447265625,-0.1731109619140625,-0.172576904296875
1783152016091589600,8.668589599609374,0.06463623046875,-0.173736572265625,-0.1994476318359375
1783152016101294300,8.67829443359375,0.109222412109375,-0.20916748046875,-0.2122802734375
1783152016111029200,8.688029296875,0.1470947265625,-0.2733001708984375,-0.2086181640625
1783152016120734000,8.69773388671875,0.174591064453125,-0.35150146484375,-0.184783935546875
1783152016130438400,8.7074384765625,0.187408447265625,-0.4199066162109375,-0.14019775390625
1783152016140143000,8.71714306640625,0.183135986328125,-0.4767303466796875,-0.0809326171875
1783152016149847800,8.726847900390625,0.1672515869140625,-0.5249786376953125,-0.0180206298828125
1783152016159582700,8.736582763671874,0.146484375,-0.5543060302734375,0.0393829345703125
1783152016169287400,8.746287353515624,0.1293792724609375,-0.546966552734375,0.0833740234375
1783152016178991900,8.755991943359374,0.1244964599609375,-0.5097198486328125,0.115753173828125
1783152016188696600,8.765696533203124,0.1305999755859375,-0.443115234375,0.1450653076171875
1783152016198431700,8.775431640625,0.1397705078125,-0.3282928466796875,0.1756134033203125
1783152016208136200,8.78513623046875,0.1416015625,-0.1963348388671875,0.2043304443359375
1783152016217841000,8.7948408203125,0.1348724365234375,-0.168853759765625,0.2055511474609375
1783152016227545300,8.80454541015625,0.1238861083984375,-0.2861328125,0.1475067138671875
1783152016237280500,8.814280517578124,0.108612060546875,-0.44189453125,0.033294677734375
1783152016246985200,8.823985107421874,0.0805206298828125,-0.5536956787109375,-0.1230926513671875
1783152016256689700,8.833689697265624,0.0261383056640625,-0.6312713623046875,-0.324066162109375
1783152016266394400,8.843394287109374,-0.050201416015625,-0.675262451171875,-0.5598602294921875
1783152016276098800,8.853098876953124,-0.1296234130859375,-0.63739013671875,-0.8011627197265625
1783152016285834000,8.862833984375,-0.1968231201171875,-0.4846649169921875,-1.01068115234375
1783152016295538700,8.87253857421875,-0.2450714111328125,-0.20672607421875,-1.15362548828125
1783152016305243100,8.8822431640625,-0.265838623046875,0.1793365478515625,-1.2024993896484375
1783152016314947800,8.89194775390625,-0.2407989501953125,0.6320037841796875,-1.13775634765625
1783152016324683000,8.90168310546875,-0.1571044921875,1.0681610107421875,-0.963043212890625
1783152016334418000,8.91141796875,-0.034332275390625,1.3509979248046875,-0.70709228515625
1783152016344122600,8.92112255859375,0.106170654296875,1.3894805908203125,-0.41632080078125
1783152016353827000,8.9308271484375,0.2393341064453125,1.198272705078125,-0.1255340576171875
1783152016363531800,8.94053173828125,0.3474578857421875,0.843963623046875,0.1450653076171875
1783152016373267000,8.950266845703124,0.4189300537109375,0.406585693359375,0.3827056884765625
1783152016382971400,8.959971435546874,0.4452056884765625,-0.0258941650390625,0.5757293701171875
1783152016392676000,8.969676025390624,0.4164886474609375,-0.3753204345703125,0.7119598388671875
1783152016402380500,8.979380615234374,0.3370819091796875,-0.5915679931640625,0.7822113037109375
1783152016412115700,8.98911572265625,0.2277374267578125,-0.6941986083984375,0.780364990234375
1783152016421820400,8.9988203125,0.111663818359375,-0.7113037109375,0.7180633544921875
1783152016431524900,9.00852490234375,0.009033203125,-0.6367645263671875,0.622161865234375
1783152016441229600,9.0182294921875,-0.07159423828125,-0.4858856201171875,0.5177001953125
1783152016450964700,9.02796484375,-0.1314544677734375,-0.3001861572265625,0.4193572998046875
1783152016460669200,9.037669189453124,-0.1735992431640625,-0.1163177490234375,0.333831787109375
1783152016470374000,9.047373779296874,-0.2035369873046875,0.0260162353515625,0.259918212890625
1783152016480078300,9.057078369140624,-0.22735595703125,0.1115264892578125,0.195159912109375
1783152016489783000,9.066782958984374,-0.2511749267578125,0.1347503662109375,0.1340789794921875
1783152016499518200,9.076518310546875,-0.2750091552734375,0.1115264892578125,0.0748138427734375
1783152016509222700,9.08622265625,-0.3006591796875,0.07427978515625,0.0198516845703125
1783152016518927400,9.09592724609375,-0.331207275390625,0.0266265869140625,-0.032073974609375
1783152016528631800,9.1056318359375,-0.3617401123046875,-0.0155181884765625,-0.0852203369140625
1783152016538367000,9.115366943359374,-0.3837432861328125,-0.046661376953125,-0.14508056640625
1783152016548071700,9.12507177734375,-0.3861846923828125,-0.0637664794921875,-0.2080078125
1783152016557776100,9.134776123046874,-0.36541748046875,-0.0594940185546875,-0.2672576904296875
1783152016567480800,9.144480712890624,-0.331207275390625,-0.022857666015625,-0.3100128173828125
1783152016577185300,9.154185302734374,-0.2890625,0.041900634765625,-0.330169677734375
1783152016596625200,9.173625244140625,-0.2169647216796875,0.1549072265625,-0.3063507080078125
1783152016606329600,9.18332958984375,-0.1992645263671875,0.183624267578125,-0.2678680419921875
1783152016616064800,9.193064697265624,-0.196197509765625,0.188507080078125,-0.2226715087890625
1783152016625800000,9.202800048828125,-0.198638916015625,0.1549072265625,-0.185394287109375
1783152016635504400,9.21250439453125,-0.193756103515625,0.09564208984375,-0.1634063720703125
1783152016645209000,9.222208984375,-0.1778717041015625,0.0370025634765625,-0.1524200439453125
1783152016654913500,9.23191357421875,-0.1510009765625,-0.0094146728515625,-0.1536407470703125
1783152016664640800,9.241640869140625,-0.114959716796875,-0.030792236328125,-0.1682891845703125
1783152016674345500,9.251345458984375,-0.07525634765625,-0.014923095703125,-0.1909027099609375
1783152016684050000,9.2610498046875,-0.034332275390625,0.0254058837890625,-0.218994140625
1783152016693754600,9.270754638671875,0.0059814453125,0.0773162841796875,-0.247100830078125
1783152016703459000,9.280458984375,0.040191650390625,0.1408538818359375,-0.262359619140625
1783152016713194200,9.2901943359375,0.06951904296875,0.2043914794921875,-0.257476806640625
1783152016722899000,9.29989892578125,0.0939483642578125,0.2526397705078125,-0.2281646728515625
1783152016732603400,9.309603271484375,0.114105224609375,0.2972412109375,-0.171966552734375
1783152016742308000,9.31930810546875,0.1269378662109375,0.3479461669921875,-0.0968170166015625
1783152016752043000,9.32904296875,0.1324310302734375,0.3882598876953125,-0.0180206298828125
1783152016761747700,9.338747802734375,0.1336517333984375,0.404754638671875,0.049163818359375
1783152016771452400,9.348452392578125,0.1293792724609375,0.37359619140625,0.09130859375
1783152016781156900,9.358156982421875,0.118988037109375,0.2899169921875,0.0992584228515625
1783152016800596500,9.377596435546875,0.0908966064453125,0.07672119140625,0.0247344970703125
1783152016810301200,9.38730126953125,0.07989501953125,-0.0020904541015625,-0.035736083984375
1783152016820006000,9.397005859375,0.07501220703125,-0.040557861328125,-0.0992584228515625
1783152016829710300,9.40671044921875,0.07623291015625,-0.019805908203125,-0.1524200439453125
1783152016839445500,9.416445556640625,0.07806396484375,0.08770751953125,-0.178070068359375
1783152016849150000,9.42614990234375,0.06951904296875,0.29541015625,-0.1621856689453125
1783152016858854700,9.435854736328125,0.0450897216796875,0.472564697265625,-0.1237030029296875
1783152016868559400,9.445559326171875,0.0182037353515625,0.414520263671875,-0.1206512451171875
1783152016878294300,9.455294189453125,-0.0208892822265625,0.1280364990234375,-0.1902923583984375
1783152016887999000,9.4649990234375,-0.0685272216796875,-0.1969451904296875,-0.3008575439453125
1783152016897734100,9.474734130859375,-0.0996856689453125,-0.400970458984375,-0.394317626953125
1783152016907438600,9.4844384765625,-0.123504638671875,-0.462066650390625,-0.4438018798828125
1783152016917143300,9.494143310546875,-0.1412200927734375,-0.391204833984375,-0.4517364501953125
1783152016926878500,9.50387841796875,-0.1338958740234375,-0.178009033203125,-0.4181365966796875
1783152016936583000,9.5135830078125,-0.07525634765625,0.1475830078125,-0.330780029296875
1783152016946287600,9.52328759765625,0.034088134765625,0.4945526123046875,-0.1915130615234375
1783152016955992000,9.532991943359375,0.1721343994140625,0.7834930419921875,-0.0088653564453125
1783152016965727200,9.542727294921875,0.2991943359375,0.9545440673828125,0.191497802734375
1783152016975431700,9.552431640625,0.394500732421875,0.987518310546875,0.3839263916015625
1783152016985136400,9.562136474609375,0.461700439453125,0.906890869140625,0.555572509765625
1783152016994841000,9.571841064453125,0.51544189453125,0.7480621337890625,0.695465087890625
1783152017004576000,9.581575927734375,0.5563812255859375,0.52020263671875,0.7864837646484375
1783152017014280700,9.59128076171875,0.5869293212890625,0.22637939453125,0.8103179931640625
1783152017023985200,9.600985107421875,0.6046295166015625,-0.101043701171875,0.759002685546875
1783152017033689900,9.61068994140625,0.615631103515625,-0.394256591796875,0.6349945068359375
1783152017043394600,9.62039453125,0.6296844482421875,-0.5903472900390625,0.45050048828125
1783152017062834200,9.639834228515625,0.682830810546875,-0.609893798828125,0.083984375
1783152017072538600,9.64953857421875,0.709716796875,-0.4803924560546875,-0.040008544921875
1783152017082243300,9.659243408203125,0.7286376953125,-0.3038482666015625,-0.1194305419921875
1783152017091978500,9.668978515625,0.7371978759765625,-0.0961456298828125,-0.14752197265625
1783152017101683000,9.678682861328125,0.7317047119140625,0.1139678955078125,-0.1273651123046875
1783152017111387600,9.6883876953125,0.7042083740234375,0.2838134765625,-0.070556640625
1783152017121092000,9.698092041015625,0.65899658203125,0.36505126953125,-0.00152587890625
1783152017130827300,9.7078271484375,0.607696533203125,0.341827392578125,0.0613861083984375
1783152017140532000,9.717531982421875,0.5630950927734375,0.2361602783203125,0.1065826416015625
1783152017150236400,9.727236328125,0.530731201171875,0.1029815673828125,0.1310272216796875
1783152017159941000,9.736941162109375,0.51544189453125,-0.0057525634765625,0.1383514404296875
1783152017169645600,9.7466455078125,0.5172882080078125,-0.07171630859375,0.1346893310546875
1783152017179380700,9.756380615234375,0.531951904296875,-0.110198974609375,0.120635986328125
1783152017218260200,9.79526025390625,0.5539398193359375,-0.022857666015625,-0.0479583740234375
1783152017227964700,9.804964599609375,0.544158935546875,0.0150146484375,-0.0833740234375
1783152017237669400,9.81466943359375,0.5313262939453125,0.0254058837890625,-0.104156494140625
1783152017247373800,9.824373779296875,0.51666259765625,0.0174560546875,-0.1108856201171875
1783152017257078500,9.83407861328125,0.50018310546875,-0.014923095703125,-0.105377197265625
1783152017266813700,9.843813720703125,0.4849090576171875,-0.0601043701171875,-0.0894927978515625
1783152017276518100,9.85351806640625,0.470245361328125,-0.102264404296875,-0.065673828125
1783152017286222800,9.863222900390625,0.4500885009765625,-0.1352386474609375,-0.038787841796875
1783152017295927300,9.87292724609375,0.42138671875,-0.1480712890625,-0.0149688720703125
1783152017305662500,9.882662353515625,0.3877716064453125,-0.1401214599609375,0.00091552734375
1783152017315367200,9.8923671875,0.3511199951171875,-0.1266937255859375,0.00579833984375
1783152017325071600,9.902071533203125,0.316925048828125,-0.105926513671875,-0.00518798828125
1783152017334776300,9.9117763671875,0.2869873046875,-0.0863800048828125,-0.028411865234375
1783152017344511500,9.921511474609375,0.262542724609375,-0.0894317626953125,-0.0583343505859375
1783152017354216000,9.9312158203125,0.2429962158203125,-0.1187591552734375,-0.0992584228515625
1783152017363920600,9.940920654296875,0.2320098876953125,-0.1584625244140625,-0.13958740234375
1783152017373625000,9.950625,0.2338409423828125,-0.20977783203125,-0.1670684814453125
1783152017383329800,9.960329833984375,0.246063232421875,-0.2818603515625,-0.174407958984375
1783152017393065000,9.97006494140625,0.2717132568359375,-0.3722686767578125,-0.1682891845703125
1783152017402769400,9.979769287109375,0.3120269775390625,-0.4840545654296875,-0.1573028564453125
1783152017412474000,9.98947412109375,0.3688507080078125,-0.5830078125,-0.13043212890625
1783152017422178600,9.999178466796875,0.4366455078125,-0.611724853515625,-0.0766754150390625
1783152017441618400,10.018618408203125,0.542327880859375,-0.4834442138671875,0.1059722900390625
1783152017451323000,10.028322998046875,0.544769287109375,-0.331329345703125,0.22021484375
1783152017461027600,10.038027587890625,0.49896240234375,-0.167633056640625,0.3228302001953125
1783152017470762500,10.047762451171875,0.425048828125,-0.1291351318359375,0.3717041015625
1783152017480497700,10.05749755859375,0.3450164794921875,-0.261688232421875,0.329559326171875
1783152017490202400,10.067202392578125,0.264984130859375,-0.469390869140625,0.186614990234375
1783152017499906800,10.07690673828125,0.181304931640625,-0.6294403076171875,-0.039398193359375
1783152017509611500,10.086611572265625,0.08477783203125,-0.6966400146484375,-0.3136749267578125
1783152017519346700,10.0963466796875,-0.0141754150390625,-0.6599884033203125,-0.5971221923828125
1783152017529051100,10.106051025390625,-0.0929718017578125,-0.50665283203125,-0.8500213623046875
1783152017538755800,10.115755859375,-0.1332855224609375,-0.258636474609375,-1.029632568359375
1783152017548460300,10.125460205078125,-0.1351165771484375,0.0614471435546875,-1.1029205322265625
1783152017558195500,10.135195556640625,-0.0984649658203125,0.4371337890625,-1.0491790771484375
1783152017567900200,10.144900146484375,-0.030059814453125,0.833587646484375,-0.8756866455078125
1783152017577604600,10.1546044921875,0.0518035888671875,1.172607421875,-0.609954833984375
1783152017587309300,10.164309326171875,0.1251068115234375,1.36566162109375,-0.3032989501953125
1783152017597013800,10.174013671875,0.181915283203125,1.3583221435546875,-0.0064239501953125
1783152017606749000,10.1837490234375,0.22344970703125,1.1768951416015625,0.2525787353515625
1783152017616453600,10.19345361328125,0.260101318359375,0.8849029541015625,0.4621124267578125
1783152017635862800,10.21286279296875,0.36273193359375,0.181793212890625,0.7168426513671875
1783152017645597700,10.22259765625,0.4140472412109375,-0.1315765380859375,0.766326904296875
1783152017655302400,10.232302490234375,0.434814453125,-0.36248779296875,0.773040771484375
1783152017665007000,10.242007080078125,0.4109954833984375,-0.478546142578125,0.7473907470703125
1783152017674711600,10.251711669921875,0.3468475341796875,-0.465728759765625,0.700347900390625
1783152017684446700,10.26144677734375,0.255828857421875,-0.35150146484375,0.6429290771484375
1783152017694151200,10.271151123046875,0.152587890625,-0.1945037841796875,0.5757293701171875
1783152017703855900,10.28085595703125,0.043243408203125,-0.041778564453125,0.5005950927734375
1783152017713560600,10.290560546875,-0.0642547607421875,0.08770751953125,0.4266815185546875
1783152017723265000,10.30026513671875,-0.1662750244140625,0.1811676025390625,0.362548828125
1783152017733000200,10.310000244140625,-0.261566162109375,0.22515869140625,0.30938720703125
1783152017742704600,10.31970458984375,-0.343414306640625,0.21783447265625,0.262359619140625
1783152017752439800,10.329439697265625,-0.406341552734375,0.1732330322265625,0.2208251953125
1783152017762144500,10.33914453125,-0.4472808837890625,0.110931396484375,0.1817169189453125
1783152017771879700,10.348879638671875,-0.470489501953125,0.0327301025390625,0.1414031982421875
1783152017781584100,10.358584228515625,-0.478424072265625,-0.06317138671875,0.1023101806640625
1783152017791288800,10.368288818359375,-0.474761962890625,-0.143798828125,0.0680999755859375
1783152017800993300,10.3779931640625,-0.466827392578125,-0.1987762451171875,0.043060302734375
1783152017810698000,10.387697998046875,-0.4582672119140625,-0.2384796142578125,0.0167999267578125
1783152017820433200,10.39743310546875,-0.4497222900390625,-0.2665863037109375,-0.0143585205078125
1783152017830137600,10.4071376953125,-0.446044921875,-0.2794189453125,-0.0552825927734375
1783152017839842300,10.41684228515625,-0.438720703125,-0.2794189453125,-0.098663330078125
1783152017849546800,10.426546630859375,-0.4271087646484375,-0.2769775390625,-0.13287353515625
1783152017859282000,10.436281982421875,-0.4185638427734375,-0.2751312255859375,-0.1634063720703125
1783152017868986400,10.445986328125,-0.405731201171875,-0.2751312255859375,-0.2073822021484375
1783152017878691000,10.455691162109375,-0.3806915283203125,-0.284912109375,-0.27520751953125
1783152017888395800,10.465395751953125,-0.3556365966796875,-0.2879638671875,-0.3698883056640625
1783152017898130700,10.475130615234375,-0.336700439453125,-0.260467529296875,-0.4865570068359375
1783152017907835400,10.48483544921875,-0.3147125244140625,-0.1871795654296875,-0.6185150146484375
1783152017917539800,10.494539794921875,-0.295166015625,-0.099212646484375,-0.751678466796875
1783152017927244500,10.50424462890625,-0.268890380859375,0.0021820068359375,-0.8524627685546875
1783152017936949200,10.51394921875,-0.22857666015625,0.118255615234375,-0.904998779296875
1783152017956388900,10.533388916015625,-0.1839752197265625,0.36810302734375,-0.85980224609375
1783152017966093300,10.54309326171875,-0.21270751953125,0.5263214111328125,-0.7333526611328125
1783152017975798000,10.552798095703125,-0.178497314453125,0.4212493896484375,-0.5928497314453125
1783152017985533200,10.562533203125,-0.1619873046875,0.253265380859375,-0.4835052490234375
1783152017995237600,10.572237548828125,-0.1076202392578125,0.115814208984375,-0.3717193603515625
1783152018004942300,10.5819423828125,-0.0190582275390625,-0.0521697998046875,-0.28314208984375
1783152018014646800,10.591646728515625,0.0536346435546875,-0.1694488525390625,-0.2000579833984375
1783152018024382000,10.6013818359375,0.100067138671875,-0.20672607421875,-0.117584228515625
1783152018034086700,10.611086669921875,0.1196136474609375,-0.1951141357421875,-0.038787841796875
1783152018043821800,10.62082177734375,0.116546630859375,-0.1609039306640625,0.038787841796875
1783152018053526300,10.6305263671875,0.097625732421875,-0.0918731689453125,0.131622314453125
1783152018063231000,10.64023095703125,0.07196044921875,0.00830078125,0.255035400390625
1783152018072966000,10.6499658203125,0.043853759765625,0.1139678955078125,0.413848876953125
1783152018082670600,10.659670654296875,0.0163726806640625,0.2123260498046875,0.6062774658203125
1783152018092375000,10.669375,-0.0086822509765625,0.338165283203125,0.8206939697265625
1783152018102079700,10.679079833984375,-0.031280517578125,0.581298828125,1.0418243408203125
1783152018111815000,10.68881494140625,-0.0441131591796875,0.94903564453125,1.265411376953125
1783152018121519400,10.698519287109375,-0.041046142578125,1.3265533447265625,1.4608917236328125
1783152018131224000,10.70822412109375,-0.039215087890625,1.5122528076171875,1.5684051513671875
1783152018150633200,10.72763330078125,-0.1345062255859375,0.3784942626953125,1.2397613525390625
1783152018160368400,10.737368408203125,-0.2334747314453125,-0.8884429931640625,0.798095703125
1783152018170072800,10.74707275390625,-0.328155517578125,-1.85791015625,0.346038818359375
1783152018179777500,10.756777587890625,-0.37396240234375,-2.1761627197265625,-0.0119171142578125
1783152018189482000,10.76648193359375,-0.36419677734375,-1.93548583984375,-0.251983642578125
1783152018199217200,10.776217041015625,-0.2969970703125,-1.2977294921875,-0.394317626953125
1783152018208921900,10.785921875,-0.2145233154296875,-0.35028076171875,-0.4438018798828125
1783152018218626300,10.795626220703125,-0.1338958740234375,0.7376861572265625,-0.4108123779296875
1783152018228331000,10.8053310546875,-0.0673065185546875,1.7480621337890625,-0.3081817626953125
1783152018238066200,10.815066162109375,-0.0166168212890625,2.44873046875,-0.174407958984375
1783152018247770600,10.8247705078125,0.0200347900390625,2.6936798095703125,-0.0583343505859375
1783152018257475300,10.834475341796875,0.031036376953125,2.5128631591796875,0.0216827392578125
1783152018267179800,10.8441796875,0.0194244384765625,2.0418853759765625,0.0735931396484375
1783152018276884500,10.853884521484375,-0.0105133056640625,1.4328460693359375,0.1010894775390625
1783152018286619600,10.86361962890625,-0.028228759765625,0.80426025390625,0.092529296875
1783152018296324000,10.873323974609375,0.00048828125,0.2483673095703125,0.056488037109375
1783152018306028800,10.88302880859375,0.0542449951171875,-0.182281494140625,0.00213623046875
1783152018315733200,10.892733154296875,0.1226654052734375,-0.466339111328125,-0.0546722412109375
1783152018344908000,10.921907958984375,0.3431854248046875,-0.57568359375,-0.0748291015625
1783152018354612700,10.93161279296875,0.408538818359375,-0.4266357421875,-0.00274658203125
1783152018364348000,10.941347900390625,0.4592437744140625,-0.248870849609375,0.1029205322265625
1783152018374052400,10.95105224609375,0.4885711669921875,-0.07843017578125,0.22998046875
1783152018383757000,10.960757080078125,0.4910125732421875,0.0602264404296875,0.3509368896484375
1783152018393461500,10.97046142578125,0.472686767578125,0.1622467041015625,0.44195556640625
1783152018403166200,10.980166259765625,0.4409332275390625,0.2098846435546875,0.479827880859375
1783152018412901400,10.9899013671875,0.4177093505859375,0.197052001953125,0.45172119140625
1783152018422605800,10.999605712890625,0.4152679443359375,0.1494140625,0.367431640625
1783152018432310500,11.009310546875,0.4354248046875,0.08404541015625,0.2531890869140625
1783152018442015000,11.019014892578125,0.472076416015625,0.0125732421875,0.1352996826171875
1783152018451750100,11.028750244140625,0.5172882080078125,-0.018585205078125,0.0369415283203125
1783152018461454800,11.038454833984375,0.5618743896484375,-0.0020904541015625,-0.032684326171875
1783152018471159300,11.0481591796875,0.5918121337890625,0.0296783447265625,-0.0791168212890625
1783152018480864000,11.057864013671875,0.5960845947265625,0.047393798828125,-0.106597900390625
1783152018490599200,11.06759912109375,0.5716552734375,0.044342041015625,-0.1133270263671875
1783152018500303600,11.0773037109375,0.5215606689453125,0.0272369384765625,-0.104766845703125
1783152018510008300,11.08700830078125,0.460479736328125,-0.0088043212890625,-0.0870513916015625
1783152018519712800,11.096712646484375,0.402435302734375,-0.06317138671875,-0.0595703125
1783152018529417500,11.10641748046875,0.35418701171875,-0.1187591552734375,-0.0198516845703125
1783152018539152400,11.11615234375,0.3120269775390625,-0.143798828125,0.025970458984375
1783152018548857000,11.125857177734375,0.2668304443359375,-0.1150970458984375,0.0656585693359375
1783152018558561800,11.135561767578125,0.20697021484375,-0.0497283935546875,0.0858154296875
1783152018568266200,11.145266357421875,0.13671875,0.0315093994140625,0.0693206787109375
1783152018578001400,11.15500146484375,0.07745361328125,0.110931396484375,0.0125274658203125
1783152018587705900,11.164705810546875,0.0554656982421875,0.189727783203125,-0.0766754150390625
1783152018607115300,11.184115234375,0.07684326171875,0.259368896484375,-0.3075714111328125
1783152018616850200,11.19385009765625,0.0866241455078125,0.192169189453125,-0.4370880126953125
1783152018626585300,11.20358544921875,0.108001708984375,0.0651092529296875,-0.543365478515625
1783152018636290000,11.2132900390625,0.1446533203125,-0.0833282470703125,-0.5959014892578125
1783152018645994500,11.222994384765625,0.180084228515625,-0.2311553955078125,-0.5910186767578125
1783152018655699200,11.23269921875,0.1984100341796875,-0.35577392578125,-0.5323638916015625
1783152018665434400,11.242434326171875,0.192901611328125,-0.455963134765625,-0.42852783203125
1783152018675138800,11.252138916015625,0.1715240478515625,-0.533538818359375,-0.28985595703125
1783152018684843500,11.261843505859375,0.1495361328125,-0.5799560546875,-0.13165283203125
1783152018694548000,11.2715478515625,0.1336517333984375,-0.5933990478515625,0.0198516845703125
1783152018704283100,11.281283203125,0.1208343505859375,-0.5701904296875,0.1401824951171875
1783152018713987800,11.29098779296875,0.106781005859375,-0.531707763671875,0.22509765625
1783152018723692300,11.3006923828125,0.0927276611328125,-0.50299072265625,0.2880096435546875
1783152018733397000,11.31039697265625,0.0854034423828125,-0.4852752685546875,0.3430023193359375
1783152018743101400,11.320101318359375,0.08477783203125,-0.455963134765625,0.3949127197265625
1783152018752836600,11.329836669921875,0.06951904296875,-0.4241943359375,0.43768310546875
1783152018762541000,11.339541015625,0.0108642578125,-0.4425201416015625,0.44317626953125
1783152018772245800,11.349245849609375,-0.0954132080078125,-0.532318115234375,0.3906402587890625
1783152018781950500,11.358950439453125,-0.2407989501953125,-0.6215057373046875,0.2812957763671875
1783152018791685400,11.368685302734375,-0.409393310546875,-0.6343231201171875,0.1310272216796875
1783152018801390000,11.37839013671875,-0.5950927734375,-0.5634613037109375,-0.0552825927734375
1783152018811094500,11.388094482421875,-0.770416259765625,-0.4528961181640625,-0.27398681640625
1783152018820799200,11.39779931640625,-0.8993072509765625,-0.327667236328125,-0.4896087646484375
1783152018830504000,11.40750390625,-0.9610137939453125,-0.176788330078125,-0.647216796875
1783152018840238800,11.41723876953125,-0.9536895751953125,-0.018585205078125,-0.71441650390625
1783152018849943600,11.426943603515625,-0.871826171875,0.1646881103515625,-0.680206298828125
1783152018859648000,11.43664794921875,-0.7423248291015625,0.37359619140625,-0.5549774169921875
1783152018869352700,11.446352783203125,-0.5993804931640625,0.5654144287109375,-0.3631591796875
1783152018879087900,11.456087890625,-0.478424072265625,0.682708740234375,-0.12921142578125
1783152018888792300,11.465792236328125,-0.3898468017578125,0.694305419921875,0.123687744140625
1783152018898527500,11.475527587890625,-0.336700439453125,0.6032867431640625,0.3527679443359375
1783152018908232200,11.485232177734375,-0.3238677978515625,0.418182373046875,0.5042572021484375
1783152018917967000,11.494967041015625,-0.3073883056640625,0.187286376953125,0.5629119873046875
1783152018927671800,11.504671875,-0.256072998046875,-0.021026611328125,0.5659637451171875
1783152018937376500,11.51437646484375,-0.1717681884765625,-0.181060791015625,0.556793212890625
1783152018947081000,11.5240810546875,-0.08380126953125,-0.289794921875,0.546417236328125
1783152018956785700,11.53378564453125,-0.0050048828125,-0.3484344482421875,0.5250244140625
1783152018966520600,11.5435205078125,0.0487518310546875,-0.3466033935546875,0.4902191162109375
1783152018976225300,11.553225341796875,0.07318115234375,-0.29345703125,0.4499053955078125
1783152018985929700,11.5629296875,0.06951904296875,-0.21221923828125,0.413238525390625
1783152018995634400,11.572634521484375,0.036529541015625,-0.1383056640625,0.3796539306640625
1783152019005369600,11.58236962890625,-0.0160064697265625,-0.0894317626953125,0.3454437255859375
1783152019015074000,11.592073974609375,-0.07403564453125,-0.0613250732421875,0.30694580078125
1783152019024778800,11.60177880859375,-0.1290130615234375,-0.0588836669921875,0.259307861328125
1783152019034483200,11.611483154296875,-0.1729888916015625,-0.07415771484375,0.2092132568359375
1783152019044218400,11.62121826171875,-0.196197509765625,-0.0888214111328125,0.16705322265625
1783152019053923000,11.630923095703125,-0.2035369873046875,-0.0912628173828125,0.1346893310546875
1783152019063627500,11.64062744140625,-0.188262939453125,-0.0937042236328125,0.111480712890625
1783152019073332200,11.650332275390625,-0.1448822021484375,-0.0985870361328125,0.0937652587890625
1783152019083036700,11.66003662109375,-0.08135986328125,-0.112030029296875,0.075439453125
1783152019092771800,11.669771728515625,-0.0037841796875,-0.1303558349609375,0.048553466796875
1783152019102476500,11.6794765625,0.07623291015625,-0.1431884765625,0.0161895751953125
1783152019112181000,11.689180908203125,0.1422119140625,-0.1370849609375,-0.0106964111328125
1783152019121885700,11.6988857421875,0.179473876953125,-0.107757568359375,-0.025970458984375
1783152019131620900,11.708620849609375,0.184356689453125,-0.07171630859375,-0.037567138671875
1783152019141325300,11.7183251953125,0.1648101806640625,-0.0521697998046875,-0.0565032958984375
1783152019151030000,11.728030029296875,0.1287689208984375,-0.07476806640625,-0.0864410400390625
1783152019160734500,11.737734375,0.0915069580078125,-0.1334228515625,-0.1273651123046875
1783152019170439200,11.747439208984375,0.0597381591796875,-0.1963348388671875,-0.178680419921875
1783152019180174300,11.75717431640625,0.038360595703125,-0.2390899658203125,-0.2360992431640625
1783152019189909200,11.7669091796875,0.038970947265625,-0.246429443359375,-0.28558349609375
1783152019199614000,11.776614013671875,0.06341552734375,-0.21832275390625,-0.321624755859375
1783152019209318400,11.786318359375,0.108612060546875,-0.1694488525390625,-0.3466644287109375
1783152019219053600,11.796053466796875,0.1635894775390625,-0.114471435546875,-0.3650054931640625
1783152019228758300,11.80575830078125,0.22100830078125,-0.06439208984375,-0.3698883056640625
1783152019238462700,11.815462646484375,0.2753753662109375,-0.0283355712890625,-0.347900390625
1783152019248167400,11.82516748046875,0.3162994384765625,-0.0130767822265625,-0.2978057861328125
1783152019257902600,11.834902587890625,0.3395233154296875,-0.0234527587890625,-0.2391510009765625
1783152019267607000,11.84460693359375,0.3511199951171875,-0.06683349609375,-0.1884613037109375
1783152019277311700,11.854311767578125,0.35540771484375,-0.143798828125,-0.14630126953125
1783152019296721000,11.873720947265625,0.324249267578125,-0.1920623779296875,-0.095001220703125
1783152019306456000,11.8834560546875,0.2698822021484375,-0.0564422607421875,-0.099884033203125
1783152019316160500,11.893160400390625,0.1935272216796875,0.194610595703125,-0.1206512451171875
1783152019325865200,11.902865234375,0.116546630859375,0.51226806640625,-0.14691162109375
1783152019335569700,11.912569580078125,0.06341552734375,0.8231964111328125,-0.1664581298828125
1783152019345304800,11.922304931640625,0.038970947265625,1.045562744140625,-0.1646270751953125
1783152019355009500,11.932009521484375,0.035308837890625,1.1402435302734375,-0.13714599609375
1783152019364714000,11.9417138671875,0.043243408203125,1.121917724609375,-0.093780517578125
1783152019374418700,11.951418701171875,0.0530242919921875,1.0376129150390625,-0.044281005859375
1783152019384153900,11.96115380859375,0.050567626953125,0.9294891357421875,0.00579833984375
1783152019393858300,11.9708583984375,0.031036376953125,0.8225860595703125,0.057708740234375
1783152019403563000,11.98056298828125,-0.00439453125,0.7718963623046875,0.113922119140625
1783152019413267500,11.990267333984375,-0.0508270263671875,0.8567962646484375,0.1743927001953125
1783152019422972200,11.99997216796875,-0.1033477783203125,1.0706024169921875,0.2446441650390625
1783152019432707000,12.00970703125,-0.1473236083984375,1.264862060546875,0.3197784423828125
1783152019442411800,12.019411865234375,-0.1754302978515625,1.2996826171875,0.3643646240234375
1783152019452116500,12.029116455078125,-0.1931610107421875,1.1872711181640625,0.30694580078125
1783152019461821000,12.038821044921875,-0.1687164306640625,1.0040130615234375,0.1377410888671875
1783152019471556000,12.04855615234375,-0.09051513671875,0.7859344482421875,-0.0595703125
1783152019481291300,12.058291259765625,-0.0184478759765625,0.5758056640625,-0.2031097412109375
1783152019490995700,12.06799560546875,-0.0416717529296875,0.52142333984375,-0.116363525390625
1783152019510404900,12.08740478515625,-0.330596923828125,0.5281524658203125,0.1774444580078125
1783152019520140000,12.09714013671875,-0.336090087890625,0.5342559814453125,0.29595947265625
1783152019529844700,12.1068447265625,-0.30126953125,0.5709075927734375,0.45538330078125
1783152019539549200,12.116549072265625,-0.3073883056640625,0.620391845703125,0.626434326171875
1783152019549254000,12.12625390625,-0.3238677978515625,0.6093902587890625,0.756561279296875
1783152019558989000,12.135989013671875,-0.2823333740234375,0.5929107666015625,0.833526611328125
1783152019568693500,12.145693603515625,-0.1980438232421875,0.6069488525390625,0.8628387451171875
1783152019578398200,12.155398193359375,-0.122283935546875,0.5806884765625,0.8500213623046875
1783152019588102700,12.1651025390625,-0.0960235595703125,0.468902587890625,0.8194732666015625
1783152019597837800,12.174837890625,-0.1399993896484375,0.2440948486328125,0.7773284912109375
