time,seconds_elapsed,z,y,x
1783168956174738000,0.090738037109375,-0.98565673828125,-0.0321197509765625,-0.0112457275390625
1783168956184686800,0.100686767578125,-0.986083984375,-0.03277587890625,-0.01007080078125
1783168956194666000,0.110666015625,-0.9863739013671875,-0.0326995849609375,-0.01055908203125
1783168956204615000,0.120614990234375,-0.9864501953125,-0.0323333740234375,-0.0116729736328125
1783168956214562800,0.130562744140625,-0.9860992431640625,-0.031036376953125,-0.0127716064453125
1783168956224511700,0.14051171875,-0.986358642578125,-0.0302276611328125,-0.0143890380859375
1783168956234491000,0.150490966796875,-0.9860992431640625,-0.0306396484375,-0.01495361328125
1783168956244439800,0.160439697265625,-0.9860076904296875,-0.0297088623046875,-0.01434326171875
1783168956254388700,0.170388671875,-0.9866180419921875,-0.030029296875,-0.01336669921875
1783168956264367900,0.180367919921875,-0.986328125,-0.031097412109375,-0.0123748779296875
1783168956274316800,0.19031689453125,-0.985748291015625,-0.0316314697265625,-0.010955810546875
1783168956284266000,0.200265869140625,-0.9864044189453125,-0.0307769775390625,-0.0108795166015625
1783168956294214000,0.2102138671875,-0.9859466552734375,-0.031219482421875,-0.011260986328125
1783168956304192800,0.22019287109375,-0.9862518310546875,-0.0306396484375,-0.012298583984375
1783168956314142000,0.230141845703125,-0.9860992431640625,-0.0303497314453125,-0.0140380859375
1783168956324091000,0.2400908203125,-0.9867095947265625,-0.0295867919921875,-0.013275146484375
1783168956334039800,0.250039794921875,-0.9873809814453125,-0.03021240234375,-0.0128173828125
1783168956344019000,0.26001904296875,-0.9870758056640625,-0.0313873291015625,-0.0128631591796875
1783168956353967900,0.2699677734375,-0.98626708984375,-0.0315399169921875,-0.011871337890625
1783168956363916000,0.279916015625,-0.9878692626953125,-0.0316009521484375,-0.01214599609375
1783168956373896000,0.28989599609375,-0.988555908203125,-0.032073974609375,-0.0119171142578125
1783168956383843800,0.29984375,-0.9855499267578125,-0.0317840576171875,-0.0111236572265625
1783168956393792800,0.309792724609375,-0.9846649169921875,-0.031463623046875,-0.0096435546875
1783168956403742000,0.319741943359375,-0.988433837890625,-0.0316619873046875,-0.0093841552734375
1783168956413720800,0.329720947265625,-0.98675537109375,-0.0319671630859375,-0.0065765380859375
1783168956423669800,0.339669677734375,-0.985076904296875,-0.0321502685546875,0.0084228515625
1783168956433618700,0.34961865234375,-0.9871826171875,-0.03399658203125,0.0829620361328125
1783168956443566800,0.35956689453125,-0.9832305908203125,-0.0370330810546875,0.120697021484375
1783168956453547000,0.369547119140625,-0.98724365234375,-0.0363006591796875,0.07177734375
1783168956463494700,0.37949462890625,-0.987030029296875,-0.03558349609375,0.048065185546875
1783168956473444000,0.389444091796875,-0.9853973388671875,-0.0397796630859375,0.0420684814453125
1783168956483393000,0.39939306640625,-0.98602294921875,-0.0384979248046875,0.026458740234375
1783168956493372000,0.409371826171875,-0.9868621826171875,-0.034210205078125,-0.0208740234375
1783168956503320800,0.41932080078125,-0.9871978759765625,-0.03350830078125,-0.0573577880859375
1783168956513269000,0.42926904296875,-0.986724853515625,-0.0317535400390625,-0.065765380859375
1783168956523249000,0.439248779296875,-0.985870361328125,-0.030364990234375,-0.0625762939453125
1783168956533196800,0.44919677734375,-0.9866180419921875,-0.03045654296875,-0.059814453125
1783168956543146000,0.45914599609375,-0.9871063232421875,-0.0272369384765625,-0.0644683837890625
1783168956553095000,0.469094970703125,-0.9869537353515625,-0.0266265869140625,-0.0659027099609375
1783168956563073800,0.47907373046875,-0.9868621826171875,-0.023681640625,-0.068328857421875
1783168956573022700,0.489022705078125,-0.9872894287109375,-0.0225067138671875,-0.06854248046875
1783168956582972000,0.498971923828125,-0.9864044189453125,-0.0240936279296875,-0.0529632568359375
1783168956592919800,0.508919921875,-0.98565673828125,-0.0270538330078125,-0.0447998046875
1783168956602899700,0.518899658203125,-0.985260009765625,-0.030120849609375,-0.0238037109375
1783168956612847900,0.528847900390625,-0.985626220703125,-0.0312042236328125,-0.0078582763671875
1783168956622796800,0.538796875,-0.9857177734375,-0.0315399169921875,-0.0086212158203125
1783168956632775700,0.548775634765625,-0.9851226806640625,-0.0328521728515625,-0.0074005126953125
1783168956642724900,0.558724853515625,-0.986358642578125,-0.03253173828125,-0.006927490234375
1783168956652674000,0.568674072265625,-0.9856109619140625,-0.0310516357421875,-0.0061798095703125
1783168956662622000,0.5786220703125,-0.9846343994140625,-0.0312347412109375,-0.0087127685546875
1783168956672601900,0.588601806640625,-0.985992431640625,-0.0300750732421875,-0.008148193359375
1783168956682550000,0.598550048828125,-0.9886322021484375,-0.029998779296875,-0.0093231201171875
1783168956692499000,0.6084990234375,-0.9878997802734375,-0.0302581787109375,-0.00994873046875
1783168956702447900,0.61844775390625,-0.98681640625,-0.0306396484375,-0.0103759765625
1783168956712427000,0.628427001953125,-0.985809326171875,-0.030517578125,-0.009765625
1783168956722376000,0.6383759765625,-0.9859161376953125,-0.03057861328125,-0.0098114013671875
1783168956732333300,0.648333251953125,-0.985595703125,-0.031005859375,-0.010101318359375
1783168956742312400,0.6583125,-0.9862060546875,-0.0312957763671875,-0.0107879638671875
1783168956752261400,0.668261474609375,-0.985931396484375,-0.0325164794921875,-0.0105133056640625
1783168956762209500,0.67820947265625,-0.986114501953125,-0.0326385498046875,-0.0103912353515625
1783168956772158700,0.68815869140625,-0.9855804443359375,-0.03179931640625,-0.010955810546875
1783168956782137300,0.698137451171875,-0.9850616455078125,-0.0318145751953125,-0.0124664306640625
1783168956792086500,0.70808642578125,-0.986602783203125,-0.0314178466796875,-0.0130615234375
1783168956802035500,0.718035400390625,-0.98602294921875,-0.03125,-0.0129852294921875
1783168956811983600,0.727983642578125,-0.9851837158203125,-0.0307464599609375,-0.01190185546875
1783168956821963500,0.737963623046875,-0.9856109619140625,-0.0294647216796875,-0.011444091796875
1783168956831911700,0.74791162109375,-0.9867706298828125,-0.0295562744140625,-0.0106048583984375
1783168956841860600,0.757860595703125,-0.98724365234375,-0.031036376953125,-0.009674072265625
1783168956851839500,0.767839599609375,-0.985504150390625,-0.032135009765625,-0.0089111328125
1783168956861788400,0.777788330078125,-0.9857330322265625,-0.03143310546875,-0.0094146728515625
1783168956871737600,0.787737548828125,-0.9861297607421875,-0.0305633544921875,-0.0091552734375
1783168956881686500,0.7976865234375,-0.9864959716796875,-0.0309600830078125,-0.0089263916015625
1783168956891665400,0.80766552734375,-0.9857330322265625,-0.031005859375,-0.0093994140625
1783168956901614300,0.8176142578125,-0.9859771728515625,-0.030029296875,-0.009674072265625
1783168956911562500,0.8275625,-0.986328125,-0.0306549072265625,-0.009368896484375
1783168956921511400,0.837511474609375,-0.9866180419921875,-0.030853271484375,-0.0097198486328125
1783168956931490300,0.847490234375,-0.98590087890625,-0.031005859375,-0.0103607177734375
1783168956941439500,0.857439453125,-0.985687255859375,-0.0317535400390625,-0.010345458984375
1783168956951388700,0.867388671875,-0.9861602783203125,-0.0313873291015625,-0.0108642578125
1783168956961367600,0.877367431640625,-0.9858245849609375,-0.0319061279296875,-0.010955810546875
1783168956971316500,0.88731640625,-0.986572265625,-0.0317840576171875,-0.011627197265625
1783168956981264600,0.8972646484375,-0.9867401123046875,-0.030670166015625,-0.01153564453125
1783168956991213600,0.907213623046875,-0.9859466552734375,-0.03118896484375,-0.011444091796875
1783168957001192400,0.9171923828125,-0.985198974609375,-0.0305938720703125,-0.0117645263671875
1783168957011141600,0.9271416015625,-0.98681640625,-0.0317535400390625,-0.01226806640625
1783168957021090600,0.937090576171875,-0.9856719970703125,-0.0316619873046875,-0.0115966796875
1783168957031039500,0.94703955078125,-0.985443115234375,-0.0312347412109375,-0.0102691650390625
1783168957041018400,0.957018310546875,-0.9855804443359375,-0.031005859375,-0.0096435546875
1783168957050967600,0.966967529296875,-0.9867706298828125,-0.0304412841796875,-0.009796142578125
1783168957060915500,0.97691552734375,-0.98681640625,-0.0296478271484375,-0.0101470947265625
1783168957070864400,0.986864501953125,-0.9860382080078125,-0.0295257568359375,-0.0093994140625
1783168957080843500,0.996843505859375,-0.9862060546875,-0.030914306640625,-0.008331298828125
1783168957090792400,1.00679248046875,-0.9862823486328125,-0.0310211181640625,-0.0086517333984375
1783168957100741600,1.01674169921875,-0.9864044189453125,-0.0304718017578125,-0.009765625
1783168957110720500,1.026720458984375,-0.98626708984375,-0.0298919677734375,-0.0099639892578125
1783168957120669700,1.036669677734375,-0.986053466796875,-0.0308685302734375,-0.010955810546875
1783168957130617600,1.04661767578125,-0.986968994140625,-0.0310821533203125,-0.01092529296875
1783168957140566500,1.05656640625,-0.9868011474609375,-0.031097412109375,-0.01055908203125
1783168957150545700,1.066545654296875,-0.98529052734375,-0.0313262939453125,-0.0101165771484375
1783168957160494600,1.07649462890625,-0.986053466796875,-0.0307159423828125,-0.010467529296875
1783168957170443500,1.086443603515625,-0.9859466552734375,-0.0315399169921875,-0.01165771484375
1783168957180392400,1.096392333984375,-0.9853973388671875,-0.0324249267578125,-0.01171875
1783168957190371600,1.10637158203125,-0.9867401123046875,-0.0322113037109375,-0.01123046875
1783168957200320500,1.116320556640625,-0.985443115234375,-0.0320587158203125,-0.0110626220703125
1783168957210268400,1.126268310546875,-0.985443115234375,-0.0318450927734375,-0.0109100341796875
1783168957220248600,1.13624853515625,-0.9867706298828125,-0.031646728515625,-0.0110626220703125
1783168957230196500,1.146196533203125,-0.985626220703125,-0.03204345703125,-0.010772705078125
1783168957240145400,1.1561455078125,-0.985260009765625,-0.0310821533203125,-0.0095367431640625
1783168957250094300,1.16609423828125,-0.98681640625,-0.0313262939453125,-0.0108489990234375
1783168957260073500,1.176073486328125,-0.9863739013671875,-0.031707763671875,-0.0112457275390625
1783168957270022400,1.1860224609375,-0.986114501953125,-0.0308990478515625,-0.0101470947265625
1783168957279971600,1.1959716796875,-0.9868927001953125,-0.0305633544921875,-0.0107574462890625
1783168957289919500,1.20591943359375,-0.98541259765625,-0.0305633544921875,-0.010162353515625
1783168957299899600,1.215899658203125,-0.98583984375,-0.0313873291015625,-0.009124755859375
1783168957309847600,1.22584765625,-0.986236572265625,-0.03118896484375,-0.00946044921875
1783168957319796500,1.23579638671875,-0.9859771728515625,-0.0311126708984375,-0.0099029541015625
1783168957329775600,1.245775634765625,-0.98529052734375,-0.0296630859375,-0.0104217529296875
1783168957339724500,1.255724609375,-0.9859619140625,-0.03057861328125,-0.0104827880859375
1783168957349673500,1.265673583984375,-0.9863128662109375,-0.031524658203125,-0.0105743408203125
1783168957359621600,1.27562158203125,-0.986541748046875,-0.030792236328125,-0.0113677978515625
1783168957369601500,1.2856015625,-0.9865570068359375,-0.0305328369140625,-0.0115966796875
1783168957379549400,1.295549560546875,-0.9860992431640625,-0.0309600830078125,-0.0108795166015625
1783168957389498400,1.305498291015625,-0.987091064453125,-0.0302581787109375,-0.0105133056640625
1783168957399447600,1.315447509765625,-0.986541748046875,-0.031219482421875,-0.0107421875
1783168957409426400,1.325426513671875,-0.986175537109375,-0.0319671630859375,-0.0093536376953125
1783168957419375400,1.335375244140625,-0.987152099609375,-0.0317840576171875,-0.009979248046875
1783168957429324300,1.34532421875,-0.9861907958984375,-0.0325469970703125,-0.010040283203125
1783168957439272400,1.3552724609375,-0.9859771728515625,-0.032745361328125,-0.0100555419921875
1783168957449252600,1.365252685546875,-0.9860992431640625,-0.03173828125,-0.0102081298828125
1783168957459200500,1.375200439453125,-0.9856719970703125,-0.0307769775390625,-0.0101470947265625
1783168957469149700,1.385149658203125,-0.986663818359375,-0.031585693359375,-0.010162353515625
1783168957479128600,1.395128662109375,-0.9862823486328125,-0.03118896484375,-0.010406494140625
1783168957489077500,1.405077392578125,-0.9871673583984375,-0.03082275390625,-0.010528564453125
1783168957499026400,1.4150263671875,-0.98675537109375,-0.0311431884765625,-0.010772705078125
1783168957508974600,1.424974609375,-0.9864349365234375,-0.031646728515625,-0.0092315673828125
1783168957518954500,1.43495458984375,-0.986663818359375,-0.031158447265625,-0.009735107421875
1783168957528902700,1.444902587890625,-0.986053466796875,-0.031585693359375,-0.0107421875
1783168957538851600,1.4548515625,-0.987396240234375,-0.030670166015625,-0.009765625
1783168957548800500,1.464800537109375,-0.9873199462890625,-0.030548095703125,-0.0099639892578125
1783168957558779400,1.474779296875,-0.9865264892578125,-0.0315704345703125,-0.01080322265625
1783168957568728300,1.484728271484375,-0.987030029296875,-0.0304107666015625,-0.0117950439453125
1783168957578677500,1.494677490234375,-0.9860687255859375,-0.0304107666015625,-0.0109100341796875
1783168957588656400,1.504656494140625,-0.98687744140625,-0.0313568115234375,-0.0099029541015625
1783168957598605300,1.514605224609375,-0.987579345703125,-0.03131103515625,-0.01092529296875
1783168957608553500,1.524553466796875,-0.9864654541015625,-0.0314788818359375,-0.0101318359375
1783168957618502700,1.534502685546875,-0.9862823486328125,-0.0311279296875,-0.0100555419921875
1783168957628481500,1.5444814453125,-0.9856719970703125,-0.031951904296875,-0.0106201171875
1783168957638430700,1.5544306640625,-0.985687255859375,-0.0313873291015625,-0.0101776123046875
1783168957648379600,1.564379638671875,-0.986419677734375,-0.030792236328125,-0.0103759765625
1783168957658327600,1.57432763671875,-0.986724853515625,-0.031219482421875,-0.0107421875
1783168957668307500,1.584307373046875,-0.9866485595703125,-0.0307464599609375,-0.010284423828125
1783168957678255600,1.594255615234375,-0.9854583740234375,-0.0312042236328125,-0.010986328125
1783168957688204500,1.60420458984375,-0.986785888671875,-0.030609130859375,-0.0102081298828125
1783168957698183400,1.614183349609375,-0.987518310546875,-0.03094482421875,-0.01025390625
1783168957708132600,1.624132568359375,-0.9857940673828125,-0.0317840576171875,-0.0103302001953125
1783168957718081500,1.63408154296875,-0.98651123046875,-0.031768798828125,-0.0108184814453125
1783168957728030500,1.644030517578125,-0.986541748046875,-0.0323944091796875,-0.01055908203125
1783168957738042000,1.6540419921875,-0.987030029296875,-0.03173828125,-0.01025390625
1783168957747991000,1.663990966796875,-0.986083984375,-0.030670166015625,-0.0102386474609375
1783168957757939200,1.673939208984375,-0.9857330322265625,-0.03057861328125,-0.0105743408203125
1783168957767888100,1.68388818359375,-0.986480712890625,-0.030731201171875,-0.0106201171875
1783168957777867000,1.693866943359375,-0.987030029296875,-0.0306549072265625,-0.0101470947265625
1783168957787816000,1.70381591796875,-0.987091064453125,-0.0311279296875,-0.0108184814453125
1783168957797765000,1.71376513671875,-0.9862213134765625,-0.0309906005859375,-0.0099945068359375
1783168957807713000,1.723713134765625,-0.987213134765625,-0.0312957763671875,-0.0098419189453125
1783168957817693000,1.73369287109375,-0.9875946044921875,-0.031341552734375,-0.010406494140625
1783168957827641000,1.74364111328125,-0.9857177734375,-0.03106689453125,-0.01025390625
1783168957837590000,1.753590087890625,-0.9864349365234375,-0.03167724609375,-0.0101318359375
1783168957847569000,1.76356884765625,-0.98712158203125,-0.03094482421875,-0.0096893310546875
1783168957857518000,1.77351806640625,-0.987030029296875,-0.0312652587890625,-0.010284423828125
1783168957867467000,1.783467041015625,-0.985687255859375,-0.031463623046875,-0.0110015869140625
1783168957877416000,1.793416015625,-0.986541748046875,-0.0314788818359375,-0.0112762451171875
1783168957887394800,1.803394775390625,-0.9865570068359375,-0.0308685302734375,-0.0113677978515625
1783168957897344000,1.813343994140625,-0.986419677734375,-0.03009033203125,-0.0109100341796875
1783168957907292000,1.8232919921875,-0.986358642578125,-0.03118896484375,-0.0103302001953125
1783168957917241000,1.833240966796875,-0.987274169921875,-0.03131103515625,-0.009765625
1783168957927220200,1.84322021484375,-0.9876861572265625,-0.031829833984375,-0.0105743408203125
1783168957937169200,1.853169189453125,-0.9857330322265625,-0.031097412109375,-0.010833740234375
1783168957947118000,1.8631181640625,-0.9867401123046875,-0.0309600830078125,-0.010467529296875
1783168957957097000,1.873096923828125,-0.9876556396484375,-0.0309906005859375,-0.010711669921875
1783168957967046100,1.883046142578125,-0.98712158203125,-0.030975341796875,-0.0105133056640625
1783168957976994000,1.892994140625,-0.986663818359375,-0.0306854248046875,-0.01007080078125
1783168957986943000,1.90294287109375,-0.9860992431640625,-0.0304107666015625,-0.01092529296875
1783168957996922000,1.912922119140625,-0.9862213134765625,-0.03082275390625,-0.0105133056640625
1783168958006871000,1.92287109375,-0.98626708984375,-0.030792236328125,-0.01068115234375
1783168958016820000,1.932820068359375,-0.98663330078125,-0.0323486328125,-0.010406494140625
1783168958026769000,1.942768798828125,-0.987091064453125,-0.0310211181640625,-0.009796142578125
1783168958036748000,1.952748046875,-0.9864349365234375,-0.0308074951171875,-0.0096588134765625
1783168958046697000,1.962697021484375,-0.9874420166015625,-0.0307159423828125,-0.0098114013671875
1783168958056644900,1.972644775390625,-0.9873199462890625,-0.0306396484375,-0.010650634765625
1783168958066625000,1.982625,-0.9866180419921875,-0.0313720703125,-0.0104522705078125
1783168958076573000,1.992572998046875,-0.9865264892578125,-0.03125,-0.0104522705078125
1783168958086522000,2.002522216796875,-0.98675537109375,-0.0313873291015625,-0.0101318359375
1783168958096471000,2.012470947265625,-0.9857177734375,-0.0303955078125,-0.0107421875
1783168958106450200,2.0224501953125,-0.986968994140625,-0.0310211181640625,-0.010528564453125
1783168958116399000,2.032399169921875,-0.9872283935546875,-0.031158447265625,-0.0103912353515625
1783168958126348000,2.04234814453125,-0.9867095947265625,-0.0312042236328125,-0.0096893310546875
1783168958136296000,2.0522958984375,-0.986328125,-0.03155517578125,-0.011199951171875
1783168958146275000,2.062275146484375,-0.9871063232421875,-0.03045654296875,-0.01104736328125
1783168958156224000,2.07222412109375,-0.987091064453125,-0.0301666259765625,-0.0101165771484375
1783168958166173000,2.0821728515625,-0.9868011474609375,-0.0306549072265625,-0.0105133056640625
1783168958176121900,2.092121826171875,-0.98602294921875,-0.0313568115234375,-0.0111846923828125
1783168958186101000,2.10210107421875,-0.9863433837890625,-0.031951904296875,-0.0097503662109375
1783168958196050000,2.1120498046875,-0.9869232177734375,-0.031829833984375,-0.0094451904296875
1783168958205997800,2.121997802734375,-0.9875946044921875,-0.031005859375,-0.0107421875
1783168958215978000,2.13197802734375,-0.9871063232421875,-0.030548095703125,-0.011016845703125
1783168958225926000,2.14192578125,-0.98681640625,-0.031524658203125,-0.01068115234375
1783168958235874800,2.151874755859375,-0.9863128662109375,-0.0312957763671875,-0.01019287109375
1783168958245824000,2.161823974609375,-0.98663330078125,-0.03228759765625,-0.0100860595703125
1783168958255803100,2.17180322265625,-0.9865875244140625,-0.030975341796875,-0.0104827880859375
1783168958265752000,2.181751953125,-0.9867095947265625,-0.0316925048828125,-0.0104522705078125
1783168958275701000,2.191700927734375,-0.98736572265625,-0.0315093994140625,-0.009979248046875
1783168958285649200,2.201649169921875,-0.98681640625,-0.0317535400390625,-0.0093231201171875
1783168958295629000,2.211629150390625,-0.986358642578125,-0.031402587890625,-0.0105743408203125
1783168958305577000,2.221576904296875,-0.986663818359375,-0.0309295654296875,-0.0104217529296875
1783168958315526000,2.23152587890625,-0.987060546875,-0.031585693359375,-0.01068115234375
1783168958325505000,2.241505126953125,-0.9875335693359375,-0.0308380126953125,-0.0110321044921875
1783168958335454000,2.251453857421875,-0.987060546875,-0.0312652587890625,-0.0101165771484375
1783168958345403000,2.26140283203125,-0.98577880859375,-0.0309906005859375,-0.0103302001953125
1783168958355351000,2.27135107421875,-0.9864044189453125,-0.0316162109375,-0.0105438232421875
1783168958365331000,2.2813310546875,-0.98681640625,-0.0311279296875,-0.0103759765625
1783168958375278800,2.29127880859375,-0.986297607421875,-0.0304718017578125,-0.0104827880859375
1783168958385228000,2.30122802734375,-0.98675537109375,-0.03082275390625,-0.00921630859375
1783168958395177200,2.31117724609375,-0.9869232177734375,-0.031341552734375,-0.0096282958984375
1783168958405155800,2.32115576171875,-0.9866180419921875,-0.0311279296875,-0.010986328125
1783168958415105000,2.33110498046875,-0.9866790771484375,-0.0307464599609375,-0.0109405517578125
1783168958425054000,2.341053955078125,-0.98663330078125,-0.0306396484375,-0.0109710693359375
1783168958435033000,2.351033203125,-0.9867401123046875,-0.030364990234375,-0.0096282958984375
1783168958444982000,2.36098193359375,-0.986572265625,-0.0305938720703125,-0.0098724365234375
1783168958454930200,2.37093017578125,-0.986541748046875,-0.03143310546875,-0.0101776123046875
1783168958464879000,2.380879150390625,-0.986724853515625,-0.031097412109375,-0.010650634765625
1783168958474858000,2.39085791015625,-0.98675537109375,-0.0311431884765625,-0.0104522705078125
1783168958484807000,2.400806884765625,-0.98638916015625,-0.0315704345703125,-0.010528564453125
1783168958494756000,2.410756103515625,-0.9873199462890625,-0.0313720703125,-0.0107879638671875
1783168958504704000,2.4207041015625,-0.986236572265625,-0.03179931640625,-0.0095672607421875
1783168958514684000,2.430683837890625,-0.986541748046875,-0.03094482421875,-0.010955810546875
1783168958524632000,2.440632080078125,-0.986480712890625,-0.0307769775390625,-0.010894775390625
1783168958534581000,2.4505810546875,-0.986358642578125,-0.0312347412109375,-0.0110015869140625
1783168958544530000,2.460530029296875,-0.9862823486328125,-0.03070068359375,-0.0107421875
1783168958554508800,2.4705087890625,-0.9875640869140625,-0.0314178466796875,-0.0107574462890625
1783168958564458000,2.4804580078125,-0.987335205078125,-0.0312042236328125,-0.0107574462890625
1783168958574407200,2.4904072265625,-0.987060546875,-0.0311737060546875,-0.010711669921875
1783168958584386000,2.500385986328125,-0.98785400390625,-0.03131103515625,-0.009002685546875
1783168958594335000,2.5103349609375,-0.9870147705078125,-0.0312042236328125,-0.010406494140625
1783168958604283100,2.520283203125,-0.98699951171875,-0.0314788818359375,-0.0095367431640625
1783168958614232000,2.530232177734375,-0.9864501953125,-0.0305633544921875,-0.010589599609375
1783168958624211200,2.540211181640625,-0.9873199462890625,-0.0302276611328125,-0.0103912353515625
1783168958634160000,2.55016015625,-0.98724365234375,-0.0306549072265625,-0.009735107421875
1783168958644109000,2.560109130859375,-0.986785888671875,-0.0316619873046875,-0.01080322265625
1783168958654057000,2.570056884765625,-0.987091064453125,-0.030303955078125,-0.0101470947265625
1783168958664036900,2.580036865234375,-0.9869232177734375,-0.0305633544921875,-0.010009765625
1783168958673985000,2.589985107421875,-0.98773193359375,-0.0304107666015625,-0.0104827880859375
1783168958683934000,2.599933837890625,-0.98828125,-0.030364990234375,-0.010589599609375
1783168958693913000,2.6099130859375,-0.9871826171875,-0.0309295654296875,-0.010040283203125
1783168958703862000,2.619862060546875,-0.9870452880859375,-0.0313568115234375,-0.0107574462890625
1783168958713811000,2.62981103515625,-0.98687744140625,-0.0310821533203125,-0.0099945068359375
1783168958723759900,2.639759765625,-0.9871978759765625,-0.0314483642578125,-0.010162353515625
1783168958733739000,2.649739013671875,-0.9870452880859375,-0.0323638916015625,-0.0102081298828125
1783168958743712800,2.659712646484375,-0.986572265625,-0.0322723388671875,-0.0111083984375
1783168958753660700,2.66966064453125,-0.9871826171875,-0.0308837890625,-0.0093841552734375
1783168958763609600,2.679609619140625,-0.9871673583984375,-0.0308685302734375,-0.0099334716796875
1783168958773588700,2.689588623046875,-0.985809326171875,-0.03057861328125,-0.009796142578125
1783168958783537700,2.69953759765625,-0.9864044189453125,-0.0311431884765625,-0.0100860595703125
1783168958793486600,2.709486572265625,-0.9868316650390625,-0.031097412109375,-0.0098724365234375
1783168958803465700,2.7194658203125,-0.9864044189453125,-0.030609130859375,-0.0098419189453125
1783168958813414700,2.72941455078125,-0.986602783203125,-0.030914306640625,-0.0101318359375
1783168958823362600,2.739362548828125,-0.9862823486328125,-0.0307464599609375,-0.0110626220703125
1783168958833311500,2.7493115234375,-0.9861907958984375,-0.0305938720703125,-0.0106964111328125
1783168958843290600,2.75929052734375,-0.9870147705078125,-0.03094482421875,-0.010101318359375
1783168958853239600,2.769239501953125,-0.98736572265625,-0.0315704345703125,-0.0107421875
1783168958863188700,2.779188720703125,-0.9875946044921875,-0.0311279296875,-0.009796142578125
1783168958873137700,2.7891376953125,-0.986968994140625,-0.0315399169921875,-0.01055908203125
1783168958883116800,2.79911669921875,-0.98626708984375,-0.031219482421875,-0.010589599609375
1783168958893065700,2.809065673828125,-0.986358642578125,-0.03082275390625,-0.0091552734375
1783168958903013600,2.819013671875,-0.9870758056640625,-0.031158447265625,-0.010040283203125
1783168958912962600,2.828962646484375,-0.987030029296875,-0.030548095703125,-0.0098419189453125
1783168958922941700,2.838941650390625,-0.98614501953125,-0.0307464599609375,-0.0104522705078125
1783168958932890600,2.848890625,-0.9873199462890625,-0.0321044921875,-0.0101470947265625
1783168958942839600,2.858839599609375,-0.9869842529296875,-0.03143310546875,-0.0094146728515625
1783168958952818700,2.868818603515625,-0.9873199462890625,-0.03179931640625,-0.00994873046875
1783168958962767600,2.878767578125,-0.9880523681640625,-0.03192138671875,-0.0106048583984375
1783168958972716500,2.888716552734375,-0.987823486328125,-0.0314178466796875,-0.010894775390625
1783168958982664700,2.898664794921875,-0.9876556396484375,-0.0306243896484375,-0.010528564453125
1783168958992643600,2.9086435546875,-0.9874725341796875,-0.031494140625,-0.0101776123046875
1783168959002592500,2.918592529296875,-0.98675537109375,-0.03082275390625,-0.0110931396484375
1783168959012541400,2.92854150390625,-0.9864349365234375,-0.031280517578125,-0.0108795166015625
1783168959022490600,2.93849072265625,-0.98687744140625,-0.0314483642578125,-0.01043701171875
1783168959032469800,2.9484697265625,-0.98724365234375,-0.030242919921875,-0.0110321044921875
1783168959042418700,2.958418701171875,-0.9862213134765625,-0.030975341796875,-0.0102691650390625
1783168959052366800,2.968366943359375,-0.9860382080078125,-0.031097412109375,-0.0100250244140625
1783168959062346800,2.9783466796875,-0.9870758056640625,-0.0311126708984375,-0.00994873046875
1783168959072294700,2.988294677734375,-0.9873046875,-0.031494140625,-0.01025390625
1783168959082243600,2.99824365234375,-0.9864959716796875,-0.031585693359375,-0.010467529296875
1783168959092192800,3.00819287109375,-0.9868927001953125,-0.03076171875,-0.010711669921875
1783168959102171600,3.018171630859375,-0.9863433837890625,-0.0306854248046875,-0.0103912353515625
1783168959112120600,3.02812060546875,-0.986083984375,-0.031097412109375,-0.010772705078125
1783168959122069500,3.038069580078125,-0.9868621826171875,-0.03125,-0.009765625
1783168959132017700,3.048017578125,-0.9879608154296875,-0.0314788818359375,-0.010528564453125
1783168959141997600,3.05799755859375,-0.9871063232421875,-0.0309600830078125,-0.011077880859375
1783168959151945500,3.067945556640625,-0.9864654541015625,-0.0310516357421875,-0.0110321044921875
1783168959161894700,3.077894775390625,-0.9869232177734375,-0.0307769775390625,-0.0106353759765625
1783168959171873500,3.08787353515625,-0.9866180419921875,-0.03167724609375,-0.0103607177734375
1783168959181822500,3.097822509765625,-0.987091064453125,-0.0308837890625,-0.0103912353515625
1783168959191771600,3.107771728515625,-0.98699951171875,-0.029998779296875,-0.010955810546875
1783168959201719600,3.117719482421875,-0.9866790771484375,-0.0318450927734375,-0.0098876953125
1783168959211699700,3.12769970703125,-0.9865570068359375,-0.031707763671875,-0.0100860595703125
1783168959221647600,3.137647705078125,-0.98651123046875,-0.0306243896484375,-0.0107269287109375
1783168959231596800,3.1475966796875,-0.9857635498046875,-0.0299530029296875,-0.009246826171875
1783168959241545700,3.157545654296875,-0.98626708984375,-0.0303955078125,-0.0096435546875
1783168959251524600,3.167524658203125,-0.9862213134765625,-0.0308685302734375,-0.0102386474609375
1783168959261473500,3.1774736328125,-0.9864654541015625,-0.030609130859375,-0.010986328125
1783168959271422700,3.187422607421875,-0.9866943359375,-0.0308837890625,-0.010406494140625
1783168959281370600,3.19737060546875,-0.987335205078125,-0.030914306640625,-0.0111846923828125
1783168959291350500,3.2073505859375,-0.987457275390625,-0.030487060546875,-0.010650634765625
1783168959301298700,3.217298583984375,-0.9874114990234375,-0.0316925048828125,-0.010101318359375
1783168959311247600,3.22724755859375,-0.98736572265625,-0.0306549072265625,-0.0106964111328125
1783168959321226500,3.2372265625,-0.9868011474609375,-0.03094482421875,-0.0098724365234375
1783168959331175700,3.24717578125,-0.9866180419921875,-0.0313873291015625,-0.0107574462890625
1783168959341124600,3.25712451171875,-0.986785888671875,-0.031219482421875,-0.00982666015625
1783168959351072500,3.267072509765625,-0.9873046875,-0.03125,-0.009552001953125
1783168959361052700,3.277052734375,-0.9869384765625,-0.030426025390625,-0.0101776123046875
1783168959371000600,3.28700048828125,-0.98675537109375,-0.0305023193359375,-0.0110015869140625
1783168959380949800,3.29694970703125,-0.9872589111328125,-0.0312347412109375,-0.0105133056640625
1783168959390898700,3.306898681640625,-0.988037109375,-0.0309600830078125,-0.0099945068359375
1783168959400877800,3.3168779296875,-0.9867401123046875,-0.0316925048828125,-0.0089569091796875
1783168959410826800,3.32682666015625,-0.9870758056640625,-0.0308074951171875,-0.0104827880859375
1783168959420775700,3.336775634765625,-0.9869842529296875,-0.0306396484375,-0.0103912353515625
1783168959430754600,3.346754638671875,-0.9867706298828125,-0.0307464599609375,-0.0095977783203125
1783168959440703700,3.356703857421875,-0.986846923828125,-0.03082275390625,-0.0102081298828125
1783168959450651600,3.366651611328125,-0.987060546875,-0.03082275390625,-0.009735107421875
1783168959460600600,3.3766005859375,-0.98748779296875,-0.031829833984375,-0.0102081298828125
1783168959470579700,3.386579833984375,-0.9863128662109375,-0.0319366455078125,-0.0107269287109375
1783168959480528600,3.396528564453125,-0.9861907958984375,-0.0309600830078125,-0.0101165771484375
1783168959490477600,3.4064775390625,-0.98712158203125,-0.0317230224609375,-0.01031494140625
1783168959500425500,3.416425537109375,-0.987091064453125,-0.03070068359375,-0.0102386474609375
1783168959510405600,3.426405517578125,-0.987060546875,-0.031768798828125,-0.01068115234375
1783168959520353500,3.436353515625,-0.98681640625,-0.0316162109375,-0.0105438232421875
1783168959530302500,3.446302490234375,-0.9868011474609375,-0.0309906005859375,-0.0101165771484375
1783168959540281600,3.456281494140625,-0.985992431640625,-0.031524658203125,-0.0109100341796875
1783168959550230800,3.466230712890625,-0.986541748046875,-0.0307159423828125,-0.010894775390625
1783168959560179700,3.4761796875,-0.9871978759765625,-0.0309600830078125,-0.010650634765625
1783168959570128600,3.486128662109375,-0.9873046875,-0.0316314697265625,-0.01019287109375
1783168959580107800,3.496107666015625,-0.9867401123046875,-0.031341552734375,-0.010101318359375
1783168959590056700,3.506056640625,-0.9868927001953125,-0.030426025390625,-0.01043701171875
1783168959600004600,3.516004638671875,-0.9881744384765625,-0.0302886962890625,-0.0111236572265625
1783168959609953500,3.52595361328125,-0.98748779296875,-0.0314483642578125,-0.009735107421875
1783168959619932700,3.5359326171875,-0.9872283935546875,-0.03094482421875,-0.0097503662109375
1783168959629881600,3.545881591796875,-0.9868621826171875,-0.0315093994140625,-0.009674072265625
1783168959639830500,3.55583056640625,-0.9862060546875,-0.0314788818359375,-0.010162353515625
1783168959649778700,3.56577880859375,-0.986053466796875,-0.0316162109375,-0.0098876953125
1783168959659758600,3.575758544921875,-0.986328125,-0.0312042236328125,-0.0110015869140625
1783168959669706500,3.58570654296875,-0.986480712890625,-0.0301055908203125,-0.0111083984375
1783168959679655400,3.595655517578125,-0.987060546875,-0.031036376953125,-0.0108642578125
1783168959689634600,3.605634521484375,-0.98663330078125,-0.03216552734375,-0.0102386474609375
1783168959699583500,3.61558349609375,-0.9865264892578125,-0.0315704345703125,-0.01025390625
1783168959709532700,3.62553271484375,-0.9870758056640625,-0.0311431884765625,-0.011260986328125
1783168959719481600,3.635481689453125,-0.98724365234375,-0.0314483642578125,-0.010711669921875
1783168959729460700,3.645460693359375,-0.987518310546875,-0.031402587890625,-0.0110626220703125
1783168959739436800,3.655436767578125,-0.98699951171875,-0.03094482421875,-0.0101776123046875
1783168959749385000,3.665385009765625,-0.9873046875,-0.0299530029296875,-0.0110931396484375
1783168959759334000,3.675333984375,-0.9874420166015625,-0.0307159423828125,-0.010498046875
1783168959769312800,3.685312744140625,-0.98651123046875,-0.030914306640625,-0.0099334716796875
1783168959779262000,3.695261962890625,-0.9875335693359375,-0.031280517578125,-0.009979248046875
1783168959789211000,3.7052109375,-0.987457275390625,-0.0311737060546875,-0.0101165771484375
1783168959799189800,3.715189697265625,-0.986846923828125,-0.0312957763671875,-0.0105743408203125
1783168959809138700,3.725138671875,-0.9864959716796875,-0.0308074951171875,-0.0103759765625
1783168959819087600,3.735087646484375,-0.98681640625,-0.031036376953125,-0.01031494140625
1783168959829035800,3.745035888671875,-0.9870147705078125,-0.0310211181640625,-0.0103759765625
1783168959839014700,3.7550146484375,-0.9871368408203125,-0.0305633544921875,-0.0095062255859375
1783168959848963800,3.7649638671875,-0.9873199462890625,-0.030975341796875,-0.0096588134765625
1783168959858912800,3.774912841796875,-0.986419677734375,-0.031890869140625,-0.01031494140625
1783168959868862000,3.784862060546875,-0.986328125,-0.0308990478515625,-0.009735107421875
1783168959878840600,3.794840576171875,-0.9867095947265625,-0.030364990234375,-0.010009765625
1783168959888790000,3.8047900390625,-0.987640380859375,-0.0304412841796875,-0.0097503662109375
1783168959898738000,3.814738037109375,-0.9861602783203125,-0.0317535400390625,-0.0100860595703125
1783168959908717800,3.8247177734375,-0.9864959716796875,-0.0311431884765625,-0.00970458984375
1783168959918666000,3.834666015625,-0.9878997802734375,-0.030426025390625,-0.0099639892578125
1783168959928615000,3.844614990234375,-0.987640380859375,-0.0307769775390625,-0.0099639892578125
1783168959938563800,3.854563720703125,-0.9866180419921875,-0.031646728515625,-0.0093841552734375
1783168959948542700,3.864542724609375,-0.986663818359375,-0.0316009521484375,-0.010650634765625
1783168959958492000,3.874491943359375,-0.9872283935546875,-0.030975341796875,-0.0105438232421875
1783168959968440800,3.88444091796875,-0.987091064453125,-0.0311126708984375,-0.01055908203125
1783168959978388700,3.894388671875,-0.986236572265625,-0.031494140625,-0.010162353515625
1783168959988368600,3.90436865234375,-0.986083984375,-0.03094482421875,-0.0110626220703125
1783168959998316800,3.91431689453125,-0.9869384765625,-0.0314788818359375,-0.0106201171875
1783168960008265700,3.924265625,-0.987274169921875,-0.03167724609375,-0.0108184814453125
1783168960018214700,3.934214599609375,-0.98687744140625,-0.0306396484375,-0.0105438232421875
1783168960028193800,3.94419384765625,-0.986053466796875,-0.030517578125,-0.0101470947265625
1783168960038142700,3.954142822265625,-0.986602783203125,-0.0318145751953125,-0.01019287109375
1783168960048090600,3.964090576171875,-0.9870147705078125,-0.031005859375,-0.010223388671875
1783168960058070800,3.97407080078125,-0.987060546875,-0.03009033203125,-0.0102386474609375
1783168960068019000,3.98401904296875,-0.9872894287109375,-0.0310211181640625,-0.0093231201171875
1783168960077968000,3.9939677734375,-0.98663330078125,-0.0318145751953125,-0.0106201171875
1783168960087916800,4.003916748046875,-0.9869842529296875,-0.0319671630859375,-0.010528564453125
1783168960097896000,4.01389599609375,-0.9871673583984375,-0.0312652587890625,-0.010772705078125
1783168960107844900,4.023844970703125,-0.9869842529296875,-0.0316009521484375,-0.0096588134765625
1783168960117793800,4.033793701171875,-0.98553466796875,-0.0312652587890625,-0.010284423828125
1783168960127741700,4.04374169921875,-0.9869232177734375,-0.0316162109375,-0.0100860595703125
1783168960137721900,4.053721923828125,-0.9874725341796875,-0.0314483642578125,-0.009796142578125
1783168960147669800,4.063669677734375,-0.9865264892578125,-0.0303955078125,-0.010650634765625
1783168960157618700,4.07361865234375,-0.986663818359375,-0.0316162109375,-0.010467529296875
1783168960167597800,4.083597900390625,-0.9864654541015625,-0.0317230224609375,-0.0114593505859375
1783168960177546800,4.093546630859375,-0.9862823486328125,-0.0310516357421875,-0.0103302001953125
1783168960187495700,4.10349560546875,-0.98687744140625,-0.03094482421875,-0.010894775390625
1783168960197443800,4.11344384765625,-0.986541748046875,-0.030609130859375,-0.0115203857421875
1783168960207423700,4.123423828125,-0.98663330078125,-0.0307464599609375,-0.0107421875
1783168960217371600,4.13337158203125,-0.98724365234375,-0.03070068359375,-0.0099029541015625
1783168960227320800,4.14332080078125,-0.9861297607421875,-0.0316619873046875,-0.0092010498046875
1783168960237269800,4.153269775390625,-0.9869537353515625,-0.0316162109375,-0.01025390625
1783168960247249000,4.163248779296875,-0.9855499267578125,-0.0313262939453125,-0.0111541748046875
1783168960257197800,4.17319775390625,-0.9866790771484375,-0.031036376953125,-0.0095672607421875
1783168960267146800,4.183146728515625,-0.9869537353515625,-0.0316925048828125,-0.0089569091796875
1783168960277126000,4.1931259765625,-0.987396240234375,-0.030517578125,-0.010009765625
1783168960287074800,4.20307470703125,-0.9868927001953125,-0.030792236328125,-0.010345458984375
1783168960297022700,4.213022705078125,-0.98687744140625,-0.031402587890625,-0.010589599609375
1783168960306972000,4.222971923828125,-0.9868927001953125,-0.0313720703125,-0.0101776123046875
1783168960316950800,4.23295068359375,-0.9868927001953125,-0.0309295654296875,-0.0106048583984375
1783168960326899700,4.242899658203125,-0.9866485595703125,-0.0311126708984375,-0.0105133056640625
1783168960336848600,4.2528486328125,-0.9860687255859375,-0.0314788818359375,-0.0103912353515625
1783168960346796800,4.262796875,-0.986541748046875,-0.030853271484375,-0.0106658935546875
1783168960356776700,4.272776611328125,-0.98626708984375,-0.0321807861328125,-0.010162353515625
1783168960366724600,4.282724609375,-0.9876708984375,-0.0310821533203125,-0.010711669921875
1783168960376673800,4.292673828125,-0.987396240234375,-0.0306396484375,-0.0096588134765625
1783168960386652700,4.302652587890625,-0.986358642578125,-0.0307769775390625,-0.0096588134765625
1783168960396601900,4.312601806640625,-0.986572265625,-0.030853271484375,-0.010406494140625
1783168960406550800,4.32255078125,-0.986724853515625,-0.031036376953125,-0.0103912353515625
1783168960416500000,4.3325,-0.9873046875,-0.0315399169921875,-0.0107879638671875
1783168960426478800,4.342478759765625,-0.9864501953125,-0.0315093994140625,-0.0100250244140625
1783168960436427800,4.352427734375,-0.9864654541015625,-0.031280517578125,-0.0101776123046875
1783168960446376000,4.3623759765625,-0.9869232177734375,-0.03118896484375,-0.0107574462890625
1783168960456324900,4.372324951171875,-0.987213134765625,-0.031219482421875,-0.010589599609375
1783168960466303700,4.3823037109375,-0.9864501953125,-0.03057861328125,-0.0103912353515625
1783168960476252700,4.392252685546875,-0.9868316650390625,-0.0309295654296875,-0.0096893310546875
1783168960486201900,4.402201904296875,-0.9856719970703125,-0.0305023193359375,-0.010772705078125
1783168960496149800,4.412149658203125,-0.9875946044921875,-0.030975341796875,-0.0101165771484375
1783168960506129700,4.422129638671875,-0.98675537109375,-0.0306549072265625,-0.0100860595703125
1783168960516077800,4.432077880859375,-0.987335205078125,-0.0311431884765625,-0.009674072265625
1783168960526026800,4.44202685546875,-0.98687744140625,-0.0317840576171875,-0.0105133056640625
1783168960536005600,4.452005615234375,-0.986297607421875,-0.0323333740234375,-0.0101318359375
1783168960545954800,4.461954833984375,-0.986663818359375,-0.0308837890625,-0.0110015869140625
1783168960555904000,4.471904052734375,-0.987091064453125,-0.0307769775390625,-0.0106353759765625
1783168960565853000,4.48185302734375,-0.987762451171875,-0.0316925048828125,-0.0103302001953125
1783168960575831800,4.491831787109375,-0.9868316650390625,-0.03125,-0.010284423828125
1783168960585780700,4.50178076171875,-0.987396240234375,-0.0308074951171875,-0.01031494140625
1783168960595729000,4.51172900390625,-0.986297607421875,-0.03082275390625,-0.010040283203125
1783168960605677800,4.521677734375,-0.985931396484375,-0.0308685302734375,-0.0097808837890625
1783168960615657000,4.531656982421875,-0.9861297607421875,-0.0308074951171875,-0.00994873046875
1783168960625606000,4.54160595703125,-0.986724853515625,-0.0316009521484375,-0.00994873046875
1783168960635554800,4.551554931640625,-0.9868927001953125,-0.0309295654296875,-0.0100555419921875
1783168960645533700,4.56153369140625,-0.9864349365234375,-0.030792236328125,-0.01092529296875
1783168960655483000,4.57148291015625,-0.987274169921875,-0.030975341796875,-0.0102996826171875
1783168960665430800,4.5814306640625,-0.98663330078125,-0.0311737060546875,-0.0092010498046875
1783168960675379700,4.591379638671875,-0.986968994140625,-0.0309295654296875,-0.009857177734375
1783168960685358800,4.60135888671875,-0.986602783203125,-0.0306243896484375,-0.0104827880859375
1783168960695307800,4.611307861328125,-0.9869842529296875,-0.0303497314453125,-0.010162353515625
1783168960705256700,4.621256591796875,-0.9862060546875,-0.03070068359375,-0.009765625
1783168960715206000,4.631205810546875,-0.986419677734375,-0.0310516357421875,-0.009674072265625
1783168960725185000,4.64118505859375,-0.9875030517578125,-0.031463623046875,-0.010284423828125
1783168960735134000,4.651134033203125,-0.9868927001953125,-0.031829833984375,-0.0096588134765625
1783168960745096400,4.661096435546875,-0.9869537353515625,-0.03155517578125,-0.0098724365234375
1783168960755076400,4.671076416015625,-0.9865264892578125,-0.0316619873046875,-0.010498046875
1783168960765024500,4.6810244140625,-0.986663818359375,-0.0314178466796875,-0.0099029541015625
1783168960774973400,4.690973388671875,-0.9866485595703125,-0.0316162109375,-0.011199951171875
1783168960784922600,4.700922607421875,-0.98699951171875,-0.0310821533203125,-0.0104217529296875
1783168960794901500,4.710901611328125,-0.98687744140625,-0.0309600830078125,-0.010162353515625
1783168960804850700,4.7208505859375,-0.9871826171875,-0.03094482421875,-0.010589599609375
1783168960814799600,4.730799560546875,-0.9866180419921875,-0.030792236328125,-0.010650634765625
1783168960824747500,4.74074755859375,-0.9868621826171875,-0.0312042236328125,-0.0100860595703125
1783168960834727400,4.7507275390625,-0.9876861572265625,-0.032012939453125,-0.0107879638671875
1783168960844675600,4.760675537109375,-0.986724853515625,-0.031280517578125,-0.01025390625
1783168960854624500,4.77062451171875,-0.9866943359375,-0.0301666259765625,-0.009735107421875
1783168960864573400,4.780573486328125,-0.9867095947265625,-0.031097412109375,-0.0099639892578125
1783168960874552600,4.790552490234375,-0.9869537353515625,-0.0312042236328125,-0.01025390625
1783168960884501500,4.80050146484375,-0.9850616455078125,-0.0310821533203125,-0.009735107421875
1783168960894449400,4.810449462890625,-0.9894561767578125,-0.034423828125,-0.0052490234375
1783168960904429300,4.82042919921875,-0.9875335693359375,-0.0328521728515625,-0.006988525390625
1783168960914377500,4.83037744140625,-0.98681640625,-0.029541015625,-0.0135650634765625
1783168960924326400,4.840326416015625,-0.9853668212890625,-0.0275726318359375,-0.0160369873046875
1783168960934275300,4.850275390625,-0.987213134765625,-0.02801513671875,-0.0157318115234375
1783168960944254500,4.86025439453125,-0.9873046875,-0.0306854248046875,-0.013519287109375
1783168960954203600,4.87020361328125,-0.987030029296875,-0.0328369140625,-0.0077056884765625
1783168960964152600,4.880152587890625,-0.9865264892578125,-0.03515625,-0.00482177734375
1783168960974100500,4.8901005859375,-0.987884521484375,-0.035552978515625,-0.0045013427734375
1783168960984080600,4.90008056640625,-0.987060546875,-0.03338623046875,-0.00689697265625
1783168960994028500,4.910028564453125,-0.986724853515625,-0.0301361083984375,-0.0102691650390625
1783168961003977500,4.9199775390625,-0.9862518310546875,-0.0282440185546875,-0.013824462890625
1783168961013956600,4.92995654296875,-0.9869232177734375,-0.0269775390625,-0.016082763671875
1783168961023905500,4.939905517578125,-0.987335205078125,-0.026885986328125,-0.0164031982421875
1783168961033854500,4.9498544921875,-0.9871673583984375,-0.029296875,-0.014434814453125
1783168961043802600,4.959802734375,-0.9869384765625,-0.0313720703125,-0.0110321044921875
1783168961053782500,4.969782470703125,-0.9864654541015625,-0.032196044921875,-0.0085906982421875
1783168961063730400,4.97973046875,-0.986114501953125,-0.03326416015625,-0.0056610107421875
1783168961073679400,4.989679443359375,-0.9864654541015625,-0.0335845947265625,-0.00531005859375
1783168961083628500,4.999628662109375,-0.98638916015625,-0.033233642578125,-0.0055084228515625
1783168961093607400,5.009607421875,-0.9864654541015625,-0.0321502685546875,-0.00982666015625
1783168961103556400,5.019556396484375,-0.986785888671875,-0.030364990234375,-0.01263427734375
1783168961113505500,5.029505615234375,-0.98724365234375,-0.029022216796875,-0.0140533447265625
1783168961123484700,5.039484619140625,-0.9877471923828125,-0.02923583984375,-0.013946533203125
1783168961133433600,5.04943359375,-0.9867401123046875,-0.0314483642578125,-0.011566162109375
1783168961143381500,5.059381591796875,-0.9860687255859375,-0.0324249267578125,-0.00958251953125
1783168961153330700,5.06933056640625,-0.9860076904296875,-0.033233642578125,-0.007720947265625
1783168961163309600,5.0793095703125,-0.98651123046875,-0.03302001953125,-0.0066375732421875
1783168961173258500,5.089258544921875,-0.9874725341796875,-0.032928466796875,-0.0073394775390625
1783168961183207400,5.09920751953125,-0.9870758056640625,-0.0311279296875,-0.008941650390625
1783168961193155600,5.109155517578125,-0.986419677734375,-0.02978515625,-0.0104827880859375
1783168961203135500,5.119135498046875,-0.986114501953125,-0.029998779296875,-0.011566162109375
1783168961213083400,5.12908349609375,-0.9868927001953125,-0.030731201171875,-0.0117950439453125
1783168961223032600,5.139032470703125,-0.9876556396484375,-0.031524658203125,-0.011962890625
1783168961232981500,5.1489814453125,-0.9871978759765625,-0.032135009765625,-0.011932373046875
1783168961242960400,5.15896044921875,-0.986297607421875,-0.032379150390625,-0.0107269287109375
1783168961252909300,5.168909423828125,-0.9869384765625,-0.0330810546875,-0.0086517333984375
1783168961262858500,5.1788583984375,-0.987060546875,-0.032684326171875,-0.0087890625
1783168961272837400,5.18883740234375,-0.98681640625,-0.032012939453125,-0.008270263671875
1783168961282786600,5.19878662109375,-0.9860687255859375,-0.03131103515625,-0.0096893310546875
1783168961292734700,5.208734619140625,-0.9868621826171875,-0.0302276611328125,-0.01116943359375
1783168961302683600,5.21868359375,-0.98760986328125,-0.029510498046875,-0.0124359130859375
1783168961312662500,5.22866259765625,-0.9868316650390625,-0.0297698974609375,-0.0129241943359375
1783168961322611500,5.238611572265625,-0.9871978759765625,-0.029998779296875,-0.0120849609375
1783168961332560600,5.248560546875,-0.9860992431640625,-0.030303955078125,-0.010009765625
1783168961342508500,5.258508544921875,-0.98638916015625,-0.03131103515625,-0.0098724365234375
1783168961352488400,5.268488525390625,-0.9864349365234375,-0.0307159423828125,-0.0111541748046875
1783168961362436600,5.2784365234375,-0.987152099609375,-0.0294189453125,-0.0131072998046875
1783168961372385500,5.288385498046875,-0.9879608154296875,-0.028961181640625,-0.0146026611328125
1783168961382364400,5.298364501953125,-0.9867706298828125,-0.03070068359375,-0.0137786865234375
1783168961392313600,5.308313720703125,-0.9867095947265625,-0.03204345703125,-0.0110931396484375
1783168961402262500,5.318262451171875,-0.9868011474609375,-0.0326080322265625,-0.009674072265625
1783168961412211500,5.32821142578125,-0.986785888671875,-0.0338897705078125,-0.0068359375
1783168961422190300,5.3381904296875,-0.9874267578125,-0.035003662109375,-0.0070953369140625
1783168961432139500,5.348139404296875,-0.9868011474609375,-0.03338623046875,-0.0077056884765625
1783168961442087400,5.35808740234375,-0.986541748046875,-0.0323638916015625,-0.00872802734375
1783168961452036600,5.36803662109375,-0.9871063232421875,-0.0294952392578125,-0.0098419189453125
1783168961462015500,5.378015380859375,-0.9868011474609375,-0.02947998046875,-0.0107879638671875
1783168961471964700,5.387964599609375,-0.9870147705078125,-0.028656005859375,-0.00982666015625
1783168961481913600,5.39791357421875,-0.9862060546875,-0.0283050537109375,-0.010284423828125
1783168961491892500,5.407892578125,-0.985809326171875,-0.0300445556640625,-0.0082855224609375
1783168961501841700,5.417841552734375,-0.9864654541015625,-0.0311737060546875,-0.0065460205078125
1783168961511789600,5.42778955078125,-0.9869232177734375,-0.0318603515625,-0.0059051513671875
1783168961521738500,5.437738525390625,-0.98602294921875,-0.032867431640625,-0.006011962890625
1783168961531717600,5.447717529296875,-0.9861907958984375,-0.03265380859375,-0.007293701171875
1783168961541666600,5.45766650390625,-0.9867706298828125,-0.032073974609375,-0.0084991455078125
1783168961551615500,5.467615478515625,-0.987152099609375,-0.0305328369140625,-0.0120849609375
1783168961561564400,5.477564453125,-0.987091064453125,-0.030059814453125,-0.0135955810546875
1783168961571543600,5.48754345703125,-0.9863128662109375,-0.03009033203125,-0.0135650634765625
1783168961581492500,5.497492431640625,-0.9862823486328125,-0.0308685302734375,-0.0145721435546875
1783168961591440400,5.5074404296875,-0.987396240234375,-0.031890869140625,-0.013580322265625
1783168961601389300,5.517389404296875,-0.985870361328125,-0.03131103515625,-0.014373779296875
1783168961611368400,5.527368408203125,-0.9852752685546875,-0.0326690673828125,-0.0123291015625
1783168961621317600,5.537317626953125,-0.987457275390625,-0.032623291015625,-0.0106964111328125
1783168961631266600,5.5472666015625,-0.9869842529296875,-0.0315399169921875,-0.01153564453125
1783168961641245700,5.55724560546875,-0.9855804443359375,-0.03173828125,-0.0112762451171875
1783168961651194600,5.567194580078125,-0.9871826171875,-0.0313568115234375,-0.009979248046875
1783168961661143600,5.5771435546875,-0.9871826171875,-0.03240966796875,-0.0104522705078125
1783168961671091500,5.587091552734375,-0.987091064453125,-0.0331878662109375,-0.01031494140625
1783168961681070600,5.597070556640625,-0.9861907958984375,-0.033416748046875,-0.0101776123046875
1783168961691019500,5.60701953125,-0.9859619140625,-0.031982421875,-0.010894775390625
1783168961700968400,5.616968505859375,-0.9865570068359375,-0.0309600830078125,-0.01025390625
1783168961710917400,5.62691748046875,-0.98675537109375,-0.0311431884765625,-0.008819580078125
1783168961720896500,5.636896484375,-0.9869537353515625,-0.0305633544921875,-0.00885009765625
1783168961730845400,5.646845458984375,-0.98687744140625,-0.0304412841796875,-0.008331298828125
1783168961740803800,5.656803955078125,-0.98626708984375,-0.029449462890625,-0.0084381103515625
1783168961750783700,5.66678369140625,-0.9868011474609375,-0.0299224853515625,-0.0094757080078125
1783168961760731600,5.676731689453125,-0.9866485595703125,-0.0307464599609375,-0.009490966796875
1783168961770680600,5.6866806640625,-0.9866485595703125,-0.03009033203125,-0.0095367431640625
1783168961780629800,5.696629638671875,-0.9875030517578125,-0.0290069580078125,-0.0095672607421875
1783168961790608600,5.706608642578125,-0.9870147705078125,-0.02972412109375,-0.010284423828125
1783168961800557600,5.7165576171875,-0.987335205078125,-0.029144287109375,-0.011962890625
1783168961810506500,5.726506591796875,-0.987060546875,-0.0290985107421875,-0.00994873046875
1783168961820454700,5.73645458984375,-0.985565185546875,-0.029449462890625,-0.010894775390625
1783168961830434600,5.7464345703125,-0.987396240234375,-0.0301361083984375,-0.0105743408203125
1783168961840382500,5.756382568359375,-0.9868316650390625,-0.030120849609375,-0.011138916015625
1783168961850332000,5.766331787109375,-0.9878082275390625,-0.0307769775390625,-0.0115814208984375
1783168961860310800,5.776310791015625,-0.9866180419921875,-0.0308837890625,-0.011749267578125
1783168961870259700,5.786259765625,-0.9870147705078125,-0.0316162109375,-0.013885498046875
1783168961880208600,5.796208740234375,-0.9875335693359375,-0.0326995849609375,-0.0118560791015625
1783168961890156800,5.80615673828125,-0.9871063232421875,-0.0326080322265625,-0.010223388671875
1783168961900136700,5.81613671875,-0.9861907958984375,-0.03265380859375,-0.010345458984375
1783168961910084600,5.826084716796875,-0.9873046875,-0.0330047607421875,-0.010040283203125
1783168961920033800,5.83603369140625,-0.98773193359375,-0.0335540771484375,-0.0094146728515625
1783168961929982700,5.845982666015625,-0.9870758056640625,-0.03289794921875,-0.0109710693359375
1783168961939961600,5.855961669921875,-0.98638916015625,-0.032012939453125,-0.0115203857421875
1783168961949910500,5.86591064453125,-0.986907958984375,-0.0317840576171875,-0.0115509033203125
1783168961959859700,5.875859619140625,-0.985687255859375,-0.030914306640625,-0.0122528076171875
1783168961969807600,5.8858076171875,-0.987091064453125,-0.0313568115234375,-0.0099639892578125
1783168961979787500,5.89578759765625,-0.987030029296875,-0.0320587158203125,-0.0081024169921875
1783168961989735700,5.905735595703125,-0.9861297607421875,-0.03204345703125,-0.0077362060546875
1783168961999684600,5.9156845703125,-0.986175537109375,-0.03173828125,-0.00750732421875
1783168962009663500,5.92566357421875,-0.987060546875,-0.030731201171875,-0.0093994140625
1783168962019612700,5.93561279296875,-0.9865875244140625,-0.028839111328125,-0.0113372802734375
1783168962029561900,5.945561767578125,-0.9871826171875,-0.02978515625,-0.0118865966796875
1783168962039509800,5.955509765625,-0.987518310546875,-0.028411865234375,-0.011260986328125
1783168962049489700,5.96548974609375,-0.9865875244140625,-0.029632568359375,-0.011474609375
1783168962059437800,5.975437744140625,-0.9869537353515625,-0.0300750732421875,-0.010284423828125
1783168962069386800,5.98538671875,-0.9864654541015625,-0.030426025390625,-0.0088958740234375
1783168962079335700,5.995335693359375,-0.9859771728515625,-0.0302581787109375,-0.0103759765625
1783168962089314800,6.005314697265625,-0.9858551025390625,-0.030853271484375,-0.0100860595703125
1783168962099263700,6.015263671875,-0.9858856201171875,-0.0316314697265625,-0.009521484375
1783168962109212700,6.025212646484375,-0.9876251220703125,-0.0319976806640625,-0.010101318359375
1783168962119191600,6.035191650390625,-0.9869537353515625,-0.03118896484375,-0.01129150390625
1783168962129140700,6.045140625,-0.9877471923828125,-0.0315704345703125,-0.0115814208984375
1783168962139088600,6.055088623046875,-0.9867095947265625,-0.0314788818359375,-0.0108642578125
1783168962149037600,6.06503759765625,-0.986236572265625,-0.0317230224609375,-0.010528564453125
1783168962159016700,6.0750166015625,-0.9859619140625,-0.0319976806640625,-0.0098724365234375
1783168962168965600,6.084965576171875,-0.9861297607421875,-0.031402587890625,-0.0099029541015625
1783168962178914800,6.094914794921875,-0.9871368408203125,-0.03094482421875,-0.0099029541015625
1783168962188862500,6.104862548828125,-0.9862823486328125,-0.0305023193359375,-0.01080322265625
1783168962198843000,6.1148427734375,-0.9864044189453125,-0.030242919921875,-0.011138916015625
1783168962208790800,6.124790771484375,-0.98699951171875,-0.030914306640625,-0.0115814208984375
1783168962218739700,6.13473974609375,-0.9870758056640625,-0.031494140625,-0.01055908203125
1783168962228718800,6.14471875,-0.987030029296875,-0.0325927734375,-0.0099029541015625
1783168962238667800,6.154667724609375,-0.9872283935546875,-0.032440185546875,-0.0085601806640625
1783168962248616700,6.16461669921875,-0.986724853515625,-0.0323028564453125,-0.0094146728515625
1783168962258565600,6.174565673828125,-0.986907958984375,-0.032440185546875,-0.010589599609375
1783168962268544800,6.184544677734375,-0.987884521484375,-0.0314178466796875,-0.0097808837890625
1783168962278493700,6.19449365234375,-0.9869232177734375,-0.0308990478515625,-0.0099945068359375
1783168962288441600,6.204441650390625,-0.986541748046875,-0.030426025390625,-0.010101318359375
1783168962298390500,6.214390625,-0.986724853515625,-0.029998779296875,-0.0109405517578125
1783168962308369700,6.22436962890625,-0.9869232177734375,-0.0299530029296875,-0.0098724365234375
1783168962318318600,6.234318603515625,-0.987396240234375,-0.031890869140625,-0.0083465576171875
1783168962328267500,6.244267578125,-0.986541748046875,-0.033172607421875,-0.008148193359375
1783168962338216700,6.254216796875,-0.986328125,-0.032470703125,-0.0081634521484375
1783168962348195800,6.26419580078125,-0.985870361328125,-0.0320281982421875,-0.0084381103515625
1783168962358143500,6.2741435546875,-0.98687744140625,-0.0314788818359375,-0.0102691650390625
1783168962368092700,6.2840927734375,-0.9874267578125,-0.03033447265625,-0.01123046875
1783168962378071800,6.29407177734375,-0.98663330078125,-0.03045654296875,-0.011016845703125
1783168962388020700,6.304020751953125,-0.9862060546875,-0.0305633544921875,-0.0107421875
1783168962397969700,6.3139697265625,-0.9864501953125,-0.0308685302734375,-0.0110015869140625
1783168962407918600,6.323918701171875,-0.986907958984375,-0.0323638916015625,-0.0101165771484375
1783168962417897700,6.333897705078125,-0.987335205078125,-0.0319366455078125,-0.010467529296875
1783168962427846700,6.3438466796875,-0.98736572265625,-0.031341552734375,-0.010711669921875
1783168962437794600,6.353794677734375,-0.985992431640625,-0.030731201171875,-0.010650634765625
1783168962447743700,6.36374365234375,-0.98681640625,-0.030548095703125,-0.0108795166015625
1783168962457722600,6.37372265625,-0.986083984375,-0.0303497314453125,-0.010833740234375
1783168962467671600,6.383671630859375,-0.9860687255859375,-0.030975341796875,-0.0106353759765625
1783168962477620500,6.393620361328125,-0.9875640869140625,-0.0318450927734375,-0.0097808837890625
1783168962487599600,6.403599609375,-0.9872283935546875,-0.0320892333984375,-0.0087738037109375
1783168962497548500,6.413548583984375,-0.987548828125,-0.0323638916015625,-0.00885009765625
1783168962507497700,6.423497802734375,-0.9869842529296875,-0.0318145751953125,-0.0095672607421875
1783168962517445600,6.433445556640625,-0.9862060546875,-0.0311737060546875,-0.009124755859375
1783168962527424500,6.443424560546875,-0.9876251220703125,-0.0304718017578125,-0.0100555419921875
1783168962537373700,6.453373779296875,-0.9868927001953125,-0.0303955078125,-0.0105743408203125
1783168962547322600,6.463322509765625,-0.9864654541015625,-0.03033447265625,-0.010345458984375
1783168962557271800,6.473271728515625,-0.98675537109375,-0.032257080078125,-0.0107879638671875
1783168962567250700,6.483250732421875,-0.986785888671875,-0.0323638916015625,-0.010589599609375
1783168962577199600,6.49319970703125,-0.9864501953125,-0.030914306640625,-0.0093536376953125
1783168962587147800,6.503147705078125,-0.986846923828125,-0.031494140625,-0.0097198486328125
1783168962597127700,6.513127685546875,-0.9866790771484375,-0.0309600830078125,-0.00909423828125
1783168962607075600,6.52307568359375,-0.9873809814453125,-0.03143310546875,-0.0095062255859375
1783168962617024800,6.533024658203125,-0.986602783203125,-0.030914306640625,-0.0113372802734375
1783168962626973700,6.5429736328125,-0.98675537109375,-0.0313262939453125,-0.011077880859375
1783168962636952600,6.55295263671875,-0.98681640625,-0.0313873291015625,-0.01141357421875
1783168962646901500,6.562901611328125,-0.986663818359375,-0.03082275390625,-0.0104522705078125
1783168962656850700,6.5728505859375,-0.986663818359375,-0.0301361083984375,-0.009796142578125
1783168962666798600,6.582798583984375,-0.986663818359375,-0.0306854248046875,-0.0096282958984375
1783168962676778500,6.592778564453125,-0.98675537109375,-0.0301055908203125,-0.0101470947265625
1783168962686726700,6.6027265625,-0.9856719970703125,-0.0308990478515625,-0.010284423828125
1783168962696675800,6.61267578125,-0.9866485595703125,-0.0313568115234375,-0.01025390625
1783168962706624800,6.622624755859375,-0.9865875244140625,-0.030975341796875,-0.010223388671875
1783168962716603600,6.632603759765625,-0.9867401123046875,-0.0317535400390625,-0.009765625
1783168962726552800,6.642552734375,-0.9868927001953125,-0.0322265625,-0.0098419189453125
1783168962736500700,6.652500732421875,-0.986724853515625,-0.03125,-0.01080322265625
1783168962746526500,6.6625263671875,-0.9864044189453125,-0.031890869140625,-0.0101470947265625
1783168962756474400,6.672474365234375,-0.985992431640625,-0.0315093994140625,-0.0088653564453125
1783168962766423600,6.682423583984375,-0.986541748046875,-0.0313568115234375,-0.0089874267578125
1783168962776372500,6.69237255859375,-0.9871826171875,-0.032257080078125,-0.0093536376953125
1783168962786351400,6.702351318359375,-0.9874114990234375,-0.0318450927734375,-0.0101470947265625
1783168962796300500,6.712300537109375,-0.98724365234375,-0.032470703125,-0.011474609375
1783168962806249700,6.722249755859375,-0.9870452880859375,-0.0314788818359375,-0.01141357421875
1783168962816197600,6.73219775390625,-0.9857940673828125,-0.03009033203125,-0.011322021484375
1783168962826177500,6.742177490234375,-0.9873504638671875,-0.0306243896484375,-0.0114593505859375
1783168962836125700,6.752125732421875,-0.9871063232421875,-0.0301361083984375,-0.011871337890625
1783168962846074600,6.76207470703125,-0.9871826171875,-0.028839111328125,-0.011962890625
1783168962856053500,6.772053466796875,-0.9864654541015625,-0.0278472900390625,-0.01165771484375
1783168962866002400,6.78200244140625,-0.9868927001953125,-0.0286712646484375,-0.01165771484375
1783168962875951600,6.79195166015625,-0.9874114990234375,-0.0295562744140625,-0.0095367431640625
1783168962885899500,6.8018994140625,-0.9875335693359375,-0.031402587890625,-0.0085601806640625
1783168962895879400,6.81187939453125,-0.9877471923828125,-0.0307464599609375,-0.00897216796875
1783168962905827600,6.82182763671875,-0.9883880615234375,-0.02972412109375,-0.0091552734375
1783168962915776500,6.831776611328125,-0.98760986328125,-0.029388427734375,-0.0102996826171875
1783168962925725400,6.841725341796875,-0.9874725341796875,-0.0259857177734375,-0.013763427734375
1783168962935704600,6.85170458984375,-0.9883270263671875,-0.0224151611328125,-0.0186920166015625
1783168962945653500,6.861653564453125,-0.9872589111328125,-0.01849365234375,-0.0223846435546875
1783168962955602700,6.871602783203125,-0.9866943359375,-0.01690673828125,-0.0229949951171875
1783168962965581600,6.88158154296875,-0.985076904296875,-0.019744873046875,-0.020172119140625
1783168962975530800,6.89153076171875,-0.9855804443359375,-0.025482177734375,-0.013641357421875
1783168962985478700,6.901478759765625,-0.9853057861328125,-0.033843994140625,-0.0039215087890625
1783168962995427600,6.911427490234375,-0.9855804443359375,-0.044952392578125,0.0105743408203125
1783168963005406700,6.92140673828125,-0.9864349365234375,-0.05340576171875,0.0198974609375
1783168963015355600,6.931355712890625,-0.9857177734375,-0.05389404296875,0.0168304443359375
1783168963025304600,6.9413046875,-0.986480712890625,-0.046478271484375,0.0055999755859375
1783168963035252500,6.95125244140625,-0.9872589111328125,-0.03515625,-0.0095672607421875
1783168963045232600,6.961232666015625,-0.9869842529296875,-0.025543212890625,-0.0241546630859375
1783168963055180500,6.9711806640625,-0.9874114990234375,-0.0190582275390625,-0.03436279296875
1783168963065129500,6.98112939453125,-0.9862823486328125,-0.0204315185546875,-0.0342254638671875
1783168963075078400,6.991078369140625,-0.9860992431640625,-0.0268707275390625,-0.025360107421875
1783168963085057500,7.0010576171875,-0.987548828125,-0.0364837646484375,-0.0132293701171875
1783168963095006500,7.01100634765625,-0.98663330078125,-0.0440216064453125,-0.0014190673828125
1783168963104955400,7.020955322265625,-0.9860687255859375,-0.0473785400390625,0.006256103515625
1783168963114934500,7.0309345703125,-0.9864349365234375,-0.04498291015625,0.0073394775390625
1783168963124883700,7.0408837890625,-0.987548828125,-0.0396270751953125,0.0007476806640625
1783168963134831600,7.05083154296875,-0.9867706298828125,-0.030120849609375,-0.0088348388671875
1783168963144780500,7.060780517578125,-0.986297607421875,-0.02288818359375,-0.0181884765625
1783168963154759700,7.070759765625,-0.98626708984375,-0.017669677734375,-0.0266571044921875
1783168963164708600,7.08070849609375,-0.987091064453125,-0.016021728515625,-0.0285797119140625
1783168963174657500,7.090657470703125,-0.987335205078125,-0.0195770263671875,-0.0229339599609375
1783168963184606500,7.1006064453125,-0.9868621826171875,-0.0233306884765625,-0.0139923095703125
1783168963194585600,7.110585693359375,-0.986236572265625,-0.0283050537109375,-0.0048980712890625
1783168963204533500,7.120533447265625,-0.9874114990234375,-0.032623291015625,0.0019073486328125
1783168963214482400,7.130482421875,-0.9874267578125,-0.0347137451171875,0.0044403076171875
1783168963224461600,7.140461669921875,-0.9873199462890625,-0.0340118408203125,0.0029296875
1783168963234410500,7.150410400390625,-0.98712158203125,-0.0316619873046875,-0.0021209716796875
1783168963244359400,7.160359375,-0.9870147705078125,-0.0294189453125,-0.00811767578125
1783168963254308400,7.170308349609375,-0.9866790771484375,-0.0291748046875,-0.014617919921875
1783168963264287500,7.18028759765625,-0.9868621826171875,-0.0313568115234375,-0.0163421630859375
1783168963274236400,7.190236328125,-0.9864654541015625,-0.032928466796875,-0.015838623046875
1783168963284184600,7.2001845703125,-0.9869232177734375,-0.0358428955078125,-0.0130615234375
1783168963294133800,7.2101337890625,-0.9867401123046875,-0.0389404296875,-0.0096282958984375
1783168963304112400,7.2201123046875,-0.9869537353515625,-0.0380401611328125,-0.006500244140625
1783168963314061600,7.2300615234375,-0.9864959716796875,-0.0372161865234375,-0.00604248046875
1783168963324010500,7.240010498046875,-0.9869232177734375,-0.035888671875,-0.0067901611328125
1783168963333989600,7.24998974609375,-0.9880218505859375,-0.0322723388671875,-0.0100555419921875
1783168963343938600,7.2599384765625,-0.9872589111328125,-0.0296783447265625,-0.0143585205078125
1783168963353887500,7.269887451171875,-0.986602783203125,-0.0286407470703125,-0.0174560546875
1783168963363835600,7.279835693359375,-0.986419677734375,-0.02813720703125,-0.0179290771484375
1783168963373814500,7.289814453125,-0.986236572265625,-0.0290679931640625,-0.0172576904296875
1783168963383763500,7.299763427734375,-0.9864044189453125,-0.0297088623046875,-0.014495849609375
1783168963393712600,7.309712646484375,-0.98760986328125,-0.030181884765625,-0.01043701171875
1783168963403661600,7.31966162109375,-0.986297607421875,-0.02923583984375,-0.0078277587890625
1783168963413640400,7.329640380859375,-0.9866790771484375,-0.027496337890625,-0.0053253173828125
1783168963423589400,7.33958935546875,-0.9873199462890625,-0.0256500244140625,-0.005126953125
1783168963433537500,7.34953759765625,-0.9865570068359375,-0.025238037109375,-0.005523681640625
1783168963443486500,7.359486572265625,-0.9873199462890625,-0.0262908935546875,-0.00714111328125
1783168963453465300,7.36946533203125,-0.9863128662109375,-0.0277862548828125,-0.0081939697265625
1783168963463414500,7.37941455078125,-0.98699951171875,-0.0306854248046875,-0.0092315673828125
1783168963473363700,7.38936376953125,-0.987213134765625,-0.034576416015625,-0.0095672607421875
1783168963483342600,7.399342529296875,-0.9866180419921875,-0.0360107421875,-0.0092620849609375
1783168963493291500,7.40929150390625,-0.9867095947265625,-0.0358734130859375,-0.008880615234375
1783168963503240700,7.41924072265625,-0.98675537109375,-0.0354766845703125,-0.0079345703125
1783168963513188600,7.429188720703125,-0.9871673583984375,-0.034576416015625,-0.0088958740234375
1783168963523168500,7.43916845703125,-0.986785888671875,-0.0328216552734375,-0.00994873046875
1783168963533116700,7.44911669921875,-0.9869537353515625,-0.03192138671875,-0.0101165771484375
1783168963543065600,7.459065673828125,-0.986541748046875,-0.03070068359375,-0.0123748779296875
1783168963553014500,7.4690146484375,-0.9865875244140625,-0.0316314697265625,-0.0151214599609375
1783168963562993400,7.478993408203125,-0.9861907958984375,-0.0315093994140625,-0.0160675048828125
1783168963572942600,7.488942626953125,-0.9866180419921875,-0.0323028564453125,-0.0161590576171875
1783168963582890500,7.498890380859375,-0.9867401123046875,-0.031768798828125,-0.0155792236328125
1783168963592870400,7.508870361328125,-0.9864959716796875,-0.0318756103515625,-0.013702392578125
1783168963602818600,7.518818603515625,-0.9864959716796875,-0.0322418212890625,-0.01190185546875
1783168963612767500,7.528767578125,-0.9870452880859375,-0.0311431884765625,-0.009124755859375
1783168963622716700,7.538716552734375,-0.98736572265625,-0.02923583984375,-0.0090789794921875
1783168963632695600,7.548695556640625,-0.9867401123046875,-0.027801513671875,-0.00775146484375
1783168963642644700,7.558644775390625,-0.9873199462890625,-0.0274505615234375,-0.008514404296875
1783168963652593700,7.56859375,-0.9860382080078125,-0.02801513671875,-0.0094757080078125
1783168963662541600,7.57854150390625,-0.9866790771484375,-0.0287322998046875,-0.0090484619140625
1783168963672521500,7.588521484375,-0.986907958984375,-0.0289306640625,-0.00836181640625
1783168963682469600,7.5984697265625,-0.9862823486328125,-0.030609130859375,-0.0080108642578125
1783168963692418600,7.60841845703125,-0.9859771728515625,-0.0327606201171875,-0.006561279296875
1783168963702397700,7.618397705078125,-0.986480712890625,-0.03363037109375,-0.0070648193359375
1783168963712346600,7.6283466796875,-0.9871826171875,-0.0333251953125,-0.006927490234375
1783168963722295600,7.638295654296875,-0.9873046875,-0.033660888671875,-0.005706787109375
1783168963732243500,7.648243408203125,-0.98663330078125,-0.033721923828125,-0.008697509765625
1783168963742231800,7.658231689453125,-0.9869842529296875,-0.0321044921875,-0.010955810546875
1783168963752180000,7.668179931640625,-0.9869384765625,-0.0325469970703125,-0.01226806640625
1783168963762129000,7.67812890625,-0.9865875244140625,-0.033111572265625,-0.014862060546875
1783168963772077800,7.688077880859375,-0.9859619140625,-0.0312042236328125,-0.01513671875
1783168963782056700,7.698056640625,-0.9868621826171875,-0.0313568115234375,-0.0150146484375
1783168963792006000,7.708005859375,-0.9871826171875,-0.0314483642578125,-0.0147247314453125
1783168963801954800,7.717954833984375,-0.9864654541015625,-0.03179931640625,-0.01275634765625
1783168963811902700,7.72790283203125,-0.9866180419921875,-0.03179931640625,-0.0098419189453125
1783168963821882600,7.737882568359375,-0.9867401123046875,-0.0323028564453125,-0.009521484375
1783168963831830800,7.747830810546875,-0.9875030517578125,-0.032196044921875,-0.008270263671875
1783168963841779700,7.75777978515625,-0.9869232177734375,-0.03033447265625,-0.0085906982421875
1783168963851758600,7.767758544921875,-0.986846923828125,-0.030487060546875,-0.010162353515625
1783168963861707800,7.777707763671875,-0.9877777099609375,-0.029937744140625,-0.0112762451171875
1783168963871656700,7.78765673828125,-0.9864044189453125,-0.0279541015625,-0.0113677978515625
1783168963881604600,7.7976044921875,-0.9864501953125,-0.0274505615234375,-0.01129150390625
1783168963891584800,7.807584716796875,-0.987060546875,-0.028167724609375,-0.0098724365234375
1783168963901532700,7.81753271484375,-0.9872283935546875,-0.0300140380859375,-0.00701904296875
1783168963911481900,7.82748193359375,-0.986480712890625,-0.032440185546875,-0.005828857421875
1783168963921430800,7.8374306640625,-0.9868316650390625,-0.0330657958984375,-0.004913330078125
1783168963931410000,7.847409912109375,-0.98687744140625,-0.033355712890625,-0.0067291259765625
1783168963941358800,7.85735888671875,-0.9863433837890625,-0.0335693359375,-0.0090179443359375
1783168963951307800,7.867307861328125,-0.9859771728515625,-0.0330352783203125,-0.0111083984375
1783168963961286700,7.87728662109375,-0.9865570068359375,-0.031341552734375,-0.013427734375
1783168963971235800,7.88723583984375,-0.98651123046875,-0.0303955078125,-0.0149688720703125
1783168963981183700,7.897183837890625,-0.9867095947265625,-0.0300445556640625,-0.0152130126953125
1783168963991132700,7.907132568359375,-0.9873809814453125,-0.0290679931640625,-0.01422119140625
1783168964001111800,7.91711181640625,-0.9867095947265625,-0.03057861328125,-0.0134735107421875
1783168964011060700,7.927060791015625,-0.9862518310546875,-0.0318450927734375,-0.01104736328125
1783168964021009700,7.937009765625,-0.9862823486328125,-0.03338623046875,-0.0103912353515625
1783168964030957800,7.946957763671875,-0.9869232177734375,-0.0330810546875,-0.009033203125
1783168964040937700,7.956937744140625,-0.987091064453125,-0.031494140625,-0.0094146728515625
1783168964050885600,7.9668857421875,-0.987579345703125,-0.031158447265625,-0.010406494140625
1783168964060834600,7.97683447265625,-0.986541748046875,-0.0300140380859375,-0.0118255615234375
1783168964070813700,7.986813720703125,-0.98736572265625,-0.028411865234375,-0.013031005859375
1783168964080763000,7.996762939453125,-0.9867095947265625,-0.028564453125,-0.0120849609375
1783168964090711800,8.0067119140625,-0.9866180419921875,-0.028717041015625,-0.0096893310546875
1783168964100660700,8.01666064453125,-0.986968994140625,-0.0297393798828125,-0.0084228515625
1783168964110639900,8.026639892578125,-0.9870452880859375,-0.030517578125,-0.0069122314453125
1783168964120588800,8.0365888671875,-0.986328125,-0.0325164794921875,-0.0059814453125
1783168964130536700,8.04653662109375,-0.987091064453125,-0.0340118408203125,-0.005401611328125
1783168964140486000,8.05648583984375,-0.986328125,-0.0328826904296875,-0.0069122314453125
1783168964150464800,8.06646484375,-0.9868316650390625,-0.0316314697265625,-0.0097198486328125
1783168964160413700,8.07641357421875,-0.986053466796875,-0.03076171875,-0.0116424560546875
1783168964170362600,8.086362548828125,-0.9871978759765625,-0.0300750732421875,-0.013458251953125
1783168964180311600,8.0963115234375,-0.9873809814453125,-0.0299224853515625,-0.0136566162109375
1783168964190290700,8.106290771484375,-0.986663818359375,-0.0300445556640625,-0.0135650634765625
1783168964200239600,8.116239501953125,-0.986083984375,-0.03057861328125,-0.011627197265625
1783168964210187800,8.126187744140625,-0.9872894287109375,-0.03173828125,-0.0103302001953125
1783168964220166700,8.136166748046875,-0.9871978759765625,-0.0326690673828125,-0.0089111328125
1783168964230115600,8.146115478515625,-0.9867095947265625,-0.0325164794921875,-0.0091552734375
1783168964240064800,8.156064697265625,-0.9869537353515625,-0.0320281982421875,-0.010040283203125
1783168964250014000,8.166013916015626,-0.986328125,-0.032318115234375,-0.01104736328125
1783168964259992800,8.175992919921875,-0.986724853515625,-0.0315399169921875,-0.0119781494140625
1783168964269941800,8.185941650390625,-0.9877777099609375,-0.0304107666015625,-0.010955810546875
1783168964279890000,8.195889892578125,-0.9871978759765625,-0.029876708984375,-0.01141357421875
1783168964289838800,8.2058388671875,-0.9863128662109375,-0.0301055908203125,-0.01092529296875
1783168964299817700,8.215817626953125,-0.9865875244140625,-0.0305938720703125,-0.0100555419921875
1783168964309766700,8.2257666015625,-0.9874725341796875,-0.031158447265625,-0.0078582763671875
1783168964319715800,8.2357158203125,-0.9871978759765625,-0.0311431884765625,-0.0068817138671875
1783168964329694700,8.24569482421875,-0.9877777099609375,-0.0306396484375,-0.0063323974609375
1783168964339643600,8.2556435546875,-0.9868621826171875,-0.0310211181640625,-0.0072479248046875
1783168964349592600,8.265592529296875,-0.986907958984375,-0.030975341796875,-0.0093841552734375
1783168964359540700,8.275540771484375,-0.9864501953125,-0.031158447265625,-0.010711669921875
1783168964369520600,8.285520751953126,-0.986846923828125,-0.03033447265625,-0.011474609375
1783168964379468800,8.29546875,-0.986480712890625,-0.030731201171875,-0.01177978515625
1783168964389417700,8.305417724609375,-0.9874725341796875,-0.0308380126953125,-0.0116119384765625
1783168964399367000,8.315366943359376,-0.98712158203125,-0.0308837890625,-0.0109710693359375
1783168964409345800,8.325345703125,-0.986328125,-0.031463623046875,-0.01116943359375
1783168964419294700,8.335294677734375,-0.9868011474609375,-0.03131103515625,-0.010467529296875
1783168964429243000,8.345242919921875,-0.98687744140625,-0.0320892333984375,-0.0105438232421875
1783168964439222800,8.355222900390626,-0.9866943359375,-0.0313720703125,-0.0101470947265625
1783168964449171000,8.3651708984375,-0.9861297607421875,-0.0303192138671875,-0.0109710693359375
1783168964459119900,8.375119873046875,-0.9869232177734375,-0.0313568115234375,-0.0115814208984375
1783168964469068800,8.38506884765625,-0.98712158203125,-0.031463623046875,-0.0119476318359375
1783168964479047700,8.395047607421875,-0.9876251220703125,-0.031341552734375,-0.0117950439453125
1783168964488996900,8.404996826171875,-0.98712158203125,-0.0315399169921875,-0.0103302001953125
1783168964498945800,8.41494580078125,-0.986846923828125,-0.0312652587890625,-0.0108642578125
1783168964508893700,8.424893798828125,-0.9861297607421875,-0.030670166015625,-0.0092315673828125
1783168964518873600,8.43487353515625,-0.98663330078125,-0.0311279296875,-0.0080108642578125
1783168964528821800,8.44482177734375,-0.9866180419921875,-0.0308837890625,-0.00823974609375
1783168964538770700,8.454770751953125,-0.987213134765625,-0.0303955078125,-0.0090789794921875
1783168964548719600,8.4647197265625,-0.9869537353515625,-0.029693603515625,-0.0091705322265625
1783168964558698800,8.47469873046875,-0.987030029296875,-0.0308074951171875,-0.009796142578125
1783168964568648000,8.48464794921875,-0.9865570068359375,-0.030670166015625,-0.01055908203125
1783168964578595600,8.494595703125,-0.985809326171875,-0.0306854248046875,-0.0109405517578125
1783168964588575700,8.50457568359375,-0.9874725341796875,-0.0314483642578125,-0.0117034912109375
1783168964598524000,8.51452392578125,-0.9876251220703125,-0.032440185546875,-0.010711669921875
1783168964608472800,8.524472900390625,-0.9862213134765625,-0.0310821533203125,-0.010498046875
1783168964618421800,8.534421875,-0.98638916015625,-0.0317230224609375,-0.010467529296875
1783168964628401000,8.54440087890625,-0.9884033203125,-0.0315399169921875,-0.009796142578125
1783168964638349800,8.554349853515625,-0.986907958984375,-0.031494140625,-0.01104736328125
1783168964648298800,8.564298828125,-0.9864349365234375,-0.0309295654296875,-0.010528564453125
1783168964658246700,8.57424658203125,-0.9869537353515625,-0.03118896484375,-0.0097198486328125
1783168964668226800,8.584226806640626,-0.98687744140625,-0.0319366455078125,-0.010589599609375
1783168964678174700,8.5941748046875,-0.987091064453125,-0.03228759765625,-0.0104827880859375
1783168964688123600,8.60412353515625,-0.9873504638671875,-0.0319061279296875,-0.0110321044921875
1783168964698102800,8.614102783203125,-0.987213134765625,-0.0322723388671875,-0.01031494140625
1783168964708051700,8.6240517578125,-0.986114501953125,-0.031463623046875,-0.009765625
1783168964718000600,8.634000732421875,-0.98687744140625,-0.031646728515625,-0.009674072265625
1783168964727948500,8.643948486328124,-0.9871368408203125,-0.0320281982421875,-0.009674072265625
1783168964737929000,8.653928955078126,-0.9866485595703125,-0.0314788818359375,-0.009979248046875
1783168964747905300,8.6639052734375,-0.9864501953125,-0.0307464599609375,-0.0103912353515625
1783168964757854200,8.673854248046876,-0.98748779296875,-0.030364990234375,-0.009246826171875
1783168964767803100,8.68380322265625,-0.987335205078125,-0.0299224853515625,-0.010498046875
1783168964777782300,8.6937822265625,-0.9869842529296875,-0.0302581787109375,-0.0109710693359375
1783168964787731200,8.703731201171875,-0.9869537353515625,-0.0310211181640625,-0.0103759765625
1783168964797680000,8.71368017578125,-0.9866485595703125,-0.03070068359375,-0.0109100341796875
1783168964807659300,8.7236591796875,-0.9871978759765625,-0.0306549072265625,-0.0101318359375
1783168964817608400,8.7336083984375,-0.9871978759765625,-0.031646728515625,-0.0100250244140625
1783168964827556400,8.743556396484376,-0.9864501953125,-0.03143310546875,-0.0103607177734375
1783168964837505300,8.75350537109375,-0.986175537109375,-0.03118896484375,-0.010498046875
1783168964847484400,8.763484375,-0.986663818359375,-0.0309906005859375,-0.010894775390625
1783168964857433300,8.773433349609375,-0.9863128662109375,-0.03082275390625,-0.0101776123046875
1783168964867382300,8.78338232421875,-0.9866790771484375,-0.0309600830078125,-0.010589599609375
1783168964877330200,8.793330078125,-0.9872589111328125,-0.03173828125,-0.0099334716796875
1783168964887310300,8.803310302734374,-0.9864501953125,-0.031585693359375,-0.0101470947265625
1783168964897258200,8.81325830078125,-0.9871826171875,-0.03167724609375,-0.0096435546875
1783168964907207200,8.823207275390626,-0.986175537109375,-0.0313262939453125,-0.0103607177734375
1783168964917156000,8.833156005859376,-0.987213134765625,-0.0323486328125,-0.01007080078125
1783168964927135200,8.84313525390625,-0.985931396484375,-0.030914306640625,-0.010772705078125
1783168964937084200,8.853084228515625,-0.987518310546875,-0.030792236328125,-0.0102081298828125
1783168964947033000,8.863033203125,-0.986846923828125,-0.03118896484375,-0.009918212890625
1783168964957012200,8.87301220703125,-0.98675537109375,-0.0301971435546875,-0.0108642578125
1783168964966961200,8.882961181640624,-0.9870452880859375,-0.0308990478515625,-0.0110015869140625
1783168964976909000,8.892908935546876,-0.9870758056640625,-0.03131103515625,-0.0102996826171875
1783168964986858200,8.902858154296876,-0.9871368408203125,-0.030975341796875,-0.0108184814453125
1783168964996837000,8.912837158203125,-0.98681640625,-0.030914306640625,-0.00982666015625
1783168965006786300,8.922786376953125,-0.987091064453125,-0.03125,-0.01104736328125
1783168965016735200,8.9327353515625,-0.986328125,-0.030487060546875,-0.0108795166015625
1783168965026684200,8.94268408203125,-0.986175537109375,-0.0306854248046875,-0.0103302001953125
1783168965036663300,8.952663330078124,-0.9873504638671875,-0.0299835205078125,-0.0102996826171875
1783168965046611200,8.962611083984376,-0.98748779296875,-0.031036376953125,-0.010833740234375
1783168965056560400,8.972560302734376,-0.98773193359375,-0.030792236328125,-0.0101776123046875
1783168965066539300,8.982539306640625,-0.986968994140625,-0.031829833984375,-0.00994873046875
1783168965076488200,8.99248828125,-0.987274169921875,-0.03179931640625,-0.0102081298828125
1783168965086437000,9.00243701171875,-0.98724365234375,-0.0316619873046875,-0.009552001953125
1783168965096386300,9.01238623046875,-0.986724853515625,-0.0315399169921875,-0.009307861328125
1783168965106365200,9.022365234375,-0.9865570068359375,-0.0307769775390625,-0.00970458984375
1783168965116314000,9.032314208984374,-0.9865570068359375,-0.031524658203125,-0.01019287109375
1783168965126262300,9.04226220703125,-0.987091064453125,-0.0316619873046875,-0.0106201171875
1783168965136211200,9.052211181640626,-0.986572265625,-0.031280517578125,-0.0105133056640625
1783168965146190000,9.062190185546875,-0.9864044189453125,-0.031097412109375,-0.010894775390625
1783168965156139300,9.07213916015625,-0.9865570068359375,-0.0315399169921875,-0.011260986328125
1783168965166088400,9.08208837890625,-0.9864654541015625,-0.0313568115234375,-0.0110015869140625
1783168965176067300,9.0920673828125,-0.9872894287109375,-0.03094482421875,-0.011199951171875
1783168965186016300,9.102016357421874,-0.9865875244140625,-0.0317230224609375,-0.01007080078125
1783168965195965200,9.111965087890624,-0.98675537109375,-0.0303192138671875,-0.010955810546875
1783168965205913300,9.121913330078126,-0.9869842529296875,-0.03045654296875,-0.010650634765625
1783168965215893200,9.131893310546875,-0.986785888671875,-0.03179931640625,-0.0105743408203125
1783168965225841400,9.14184130859375,-0.98712158203125,-0.030914306640625,-0.0104827880859375
1783168965235790300,9.151790283203125,-0.9865264892578125,-0.030181884765625,-0.0097503662109375
1783168965245739300,9.1617392578125,-0.98626708984375,-0.0310211181640625,-0.010498046875
1783168965255718100,9.17171826171875,-0.986419677734375,-0.03057861328125,-0.01025390625
1783168965265667300,9.181667236328124,-0.9877777099609375,-0.0305633544921875,-0.01007080078125
1783168965275615200,9.191615234375,-0.9872589111328125,-0.03094482421875,-0.0099334716796875
1783168965285564200,9.201564208984376,-0.9868927001953125,-0.031280517578125,-0.0096282958984375
1783168965295543300,9.211543212890625,-0.985931396484375,-0.0310211181640625,-0.0094757080078125
1783168965305492200,9.2214921875,-0.9867401123046875,-0.03131103515625,-0.00982666015625
1783168965315441400,9.23144140625,-0.98681640625,-0.0309600830078125,-0.009490966796875
1783168965325420000,9.241419921875,-0.9864654541015625,-0.0318145751953125,-0.0099029541015625
1783168965335369500,9.251369384765624,-0.9864349365234375,-0.0312347412109375,-0.0101165771484375
1783168965345318400,9.261318359375,-0.9873809814453125,-0.030609130859375,-0.011016845703125
1783168965355266300,9.271266357421876,-0.986572265625,-0.03082275390625,-0.0113983154296875
1783168965365246200,9.28124609375,-0.98651123046875,-0.031585693359375,-0.0098876953125
1783168965375194400,9.2911943359375,-0.9872283935546875,-0.0314483642578125,-0.01104736328125
1783168965385143300,9.301143310546875,-0.9867401123046875,-0.0316619873046875,-0.01080322265625
1783168965395092200,9.31109228515625,-0.98651123046875,-0.030548095703125,-0.0103759765625
1783168965405071400,9.3210712890625,-0.98602294921875,-0.0314178466796875,-0.009918212890625
1783168965415020300,9.331020263671874,-0.985382080078125,-0.03106689453125,-0.01019287109375
1783168965424968200,9.34096826171875,-0.985931396484375,-0.0311279296875,-0.0110015869140625
1783168965434948000,9.350947998046875,-0.98681640625,-0.0306854248046875,-0.0101470947265625
1783168965444896300,9.360896240234375,-0.986175537109375,-0.0303955078125,-0.0102386474609375
1783168965454845200,9.37084521484375,-0.9862060546875,-0.0304412841796875,-0.0103912353515625
1783168965464794000,9.380794189453125,-0.9861602783203125,-0.031707763671875,-0.0098724365234375
1783168965474773200,9.390773193359376,-0.9864349365234375,-0.030853271484375,-0.010467529296875
1783168965484722400,9.400722412109374,-0.9863128662109375,-0.030548095703125,-0.0099334716796875
1783168965494671400,9.41067138671875,-0.9862823486328125,-0.0313262939453125,-0.009857177734375
1783168965504619300,9.420619384765626,-0.986572265625,-0.0306549072265625,-0.010894775390625
1783168965514599400,9.430599365234375,-0.985504150390625,-0.030181884765625,-0.0101318359375
1783168965524547300,9.44054736328125,-0.986358642578125,-0.03082275390625,-0.010040283203125
1783168965534496300,9.450496337890625,-0.9871826171875,-0.031768798828125,-0.0108795166015625
1783168965544475400,9.460475341796876,-0.98675537109375,-0.0308685302734375,-0.01068115234375
1783168965554424300,9.47042431640625,-0.986968994140625,-0.0313720703125,-0.0104827880859375
1783168965564373200,9.480373291015624,-0.9870758056640625,-0.03125,-0.0106048583984375
1783168965574321200,9.490321044921876,-0.9866485595703125,-0.0310516357421875,-0.011199951171875
1783168965584301300,9.50030126953125,-0.98675537109375,-0.03070068359375,-0.0106353759765625
1783168965594249200,9.510249267578125,-0.986480712890625,-0.0306549072265625,-0.0101165771484375
1783168965604198100,9.5201982421875,-0.98699951171875,-0.030487060546875,-0.0103607177734375
1783168965614147000,9.53014697265625,-0.986663818359375,-0.03216552734375,-0.00946044921875
1783168965624126200,9.540126220703126,-0.986053466796875,-0.0308685302734375,-0.0107421875
1783168965634075100,9.5500751953125,-0.9871063232421875,-0.030059814453125,-0.0105743408203125
1783168965644024300,9.5600244140625,-0.9872283935546875,-0.0316925048828125,-0.009857177734375
1783168965653972200,9.56997216796875,-0.98626708984375,-0.0314483642578125,-0.0110321044921875
1783168965663952400,9.579952392578125,-0.9862060546875,-0.031585693359375,-0.0099639892578125
1783168965673900300,9.589900390625,-0.98638916015625,-0.03173828125,-0.0102081298828125
1783168965683849200,9.59984912109375,-0.9870452880859375,-0.0315399169921875,-0.0099029541015625
1783168965693828400,9.609828369140626,-0.9864654541015625,-0.031005859375,-0.010406494140625
1783168965703777300,9.61977734375,-0.9865875244140625,-0.0308074951171875,-0.0101165771484375
1783168965713726200,9.629726318359374,-0.9865264892578125,-0.0321807861328125,-0.0101776123046875
1783168965723674400,9.63967431640625,-0.986541748046875,-0.0317840576171875,-0.010009765625
1783168965733654300,9.649654296875,-0.98651123046875,-0.0319976806640625,-0.01092529296875
1783168965743602000,9.659601806640625,-0.98724365234375,-0.031585693359375,-0.01104736328125
1783168965753551000,9.669551025390625,-0.987152099609375,-0.0316009521484375,-0.01025390625
1783168965763500000,9.6795,-0.986907958984375,-0.0308380126953125,-0.010589599609375
1783168965773479000,9.68947900390625,-0.986328125,-0.03131103515625,-0.0110321044921875
1783168965783427800,9.699427734375,-0.9869842529296875,-0.031524658203125,-0.0111846923828125
1783168965793377000,9.709376953125,-0.9870147705078125,-0.0310516357421875,-0.010894775390625
1783168965803356000,9.71935595703125,-0.9859771728515625,-0.031036376953125,-0.0106353759765625
1783168965813304800,9.729304931640625,-0.9858245849609375,-0.03076171875,-0.01153564453125
1783168965823253000,9.7392529296875,-0.9863433837890625,-0.0300140380859375,-0.0110321044921875
1783168965833202000,9.749201904296875,-0.9868621826171875,-0.029937744140625,-0.0118865966796875
1783168965843180800,9.759180908203126,-0.986480712890625,-0.0300140380859375,-0.0119171142578125
1783168965853130000,9.7691298828125,-0.9866943359375,-0.0311279296875,-0.0096435546875
1783168965863079000,9.779078857421876,-0.985809326171875,-0.03192138671875,-0.008758544921875
1783168965873028000,9.789028076171874,-0.985870361328125,-0.0324859619140625,-0.0089111328125
1783168965883006700,9.7990068359375,-0.986602783203125,-0.031402587890625,-0.0086822509765625
1783168965892955000,9.808954833984375,-0.9868316650390625,-0.0312957763671875,-0.0099639892578125
1783168965902904000,9.818904052734375,-0.986236572265625,-0.02996826171875,-0.01092529296875
1783168965912882700,9.828882568359376,-0.986541748046875,-0.0291748046875,-0.0103607177734375
1783168965922832100,9.83883203125,-0.987213134765625,-0.0298919677734375,-0.009735107421875
1783168965932781000,9.848781005859376,-0.987640380859375,-0.031097412109375,-0.0102081298828125
1783168965942730000,9.85872998046875,-0.98651123046875,-0.03057861328125,-0.0097198486328125
1783168965952708900,9.868708984375,-0.9868316650390625,-0.031494140625,-0.009552001953125
1783168965962658000,9.878657958984375,-0.98681640625,-0.0323944091796875,-0.0090179443359375
1783168965972606000,9.88860595703125,-0.9867706298828125,-0.03082275390625,-0.0096588134765625
1783168965982555000,9.898554931640625,-0.9868927001953125,-0.0309600830078125,-0.0096893310546875
1783168965992534000,9.908533935546876,-0.9860076904296875,-0.0305023193359375,-0.0102386474609375
1783168966002483000,9.91848291015625,-0.986328125,-0.0315093994140625,-0.012298583984375
1783168966012432000,9.928431884765626,-0.986419677734375,-0.0306243896484375,-0.0122833251953125
1783168966022380800,9.938380859375,-0.98614501953125,-0.030426025390625,-0.0121307373046875
1783168966032360000,9.94835986328125,-0.9867095947265625,-0.030364990234375,-0.011322021484375
1783168966042308900,9.958308837890625,-0.9868316650390625,-0.031463623046875,-0.011016845703125
1783168966052256800,9.9682568359375,-0.9862213134765625,-0.031951904296875,-0.0101165771484375
1783168966062236000,9.97823583984375,-0.98736572265625,-0.0316162109375,-0.00958251953125
1783168966072185000,9.98818505859375,-0.9867095947265625,-0.0307159423828125,-0.01019287109375
1783168966082134000,9.998134033203126,-0.9866180419921875,-0.0298004150390625,-0.0104217529296875
1783168966092083000,10.0080830078125,-0.986358642578125,-0.0309600830078125,-0.009796142578125
1783168966102062000,10.01806201171875,-0.9869537353515625,-0.0312347412109375,-0.010650634765625
1783168966112011000,10.028010986328125,-0.9864654541015625,-0.0303497314453125,-0.0102996826171875
1783168966121959000,10.037958984375,-0.985931396484375,-0.030029296875,-0.00927734375
1783168966131907800,10.047907958984375,-0.987548828125,-0.031158447265625,-0.0099334716796875
1783168966141887000,10.057886962890626,-0.987213134765625,-0.0304718017578125,-0.0087432861328125
1783168966151836000,10.0678359375,-0.986602783203125,-0.0308837890625,-0.00860595703125
1783168966161784800,10.077784912109376,-0.9855499267578125,-0.0365753173828125,-0.0046539306640625
1783168966171764000,10.087763916015625,-0.987457275390625,-0.0334625244140625,-0.007415771484375
1783168966181713000,10.097712890625,-0.9858245849609375,-0.031829833984375,-0.009796142578125
1783168966191661800,10.107661865234375,-0.9867095947265625,-0.0303497314453125,-0.0116729736328125
1783168966201609700,10.117609619140625,-0.9860992431640625,-0.0276336669921875,-0.0171051025390625
1783168966211590000,10.12758984375,-0.987396240234375,-0.02685546875,-0.0181427001953125
1783168966221537800,10.137537841796876,-0.98638916015625,-0.0282440185546875,-0.0165557861328125
1783168966231487000,10.147487060546876,-0.9865875244140625,-0.0313262939453125,-0.0121917724609375
1783168966241436000,10.157435791015626,-0.9861297607421875,-0.0340118408203125,-0.008758544921875
1783168966251415000,10.1674150390625,-0.9867706298828125,-0.0355224609375,-0.0077972412109375
1783168966261364000,10.177364013671875,-0.986480712890625,-0.0347900390625,-0.0072479248046875
1783168966271312000,10.187311767578125,-0.9873199462890625,-0.03338623046875,-0.0062255859375
1783168966281292000,10.1972919921875,-0.9878082275390625,-0.0304412841796875,-0.00860595703125
1783168966291240000,10.207239990234376,-0.98687744140625,-0.0276641845703125,-0.01080322265625
1783168966301188900,10.21718896484375,-0.986907958984375,-0.0281829833984375,-0.0135345458984375
1783168966311137800,10.2271376953125,-0.9870758056640625,-0.0279693603515625,-0.0125274658203125
1783168966321117000,10.237116943359375,-0.98681640625,-0.0289306640625,-0.010955810546875
1783168966331065900,10.24706591796875,-0.9875030517578125,-0.0297698974609375,-0.009307861328125
1783168966341014800,10.257014892578125,-0.98663330078125,-0.0301666259765625,-0.00811767578125
1783168966350963000,10.266962890625,-0.9868011474609375,-0.03057861328125,-0.0050811767578125
1783168966360942800,10.27694287109375,-0.987274169921875,-0.0313720703125,-0.005401611328125
1783168966370890800,10.286890869140626,-0.985595703125,-0.0323638916015625,-0.005767822265625
1783168966380840000,10.29683984375,-0.987030029296875,-0.0320587158203125,-0.0066375732421875
1783168966390789000,10.3067890625,-0.9872894287109375,-0.0324859619140625,-0.0084075927734375
1783168966400768000,10.31676806640625,-0.98565673828125,-0.0322113037109375,-0.0112152099609375
1783168966410717000,10.326717041015625,-0.9866943359375,-0.031005859375,-0.0135345458984375
1783168966420665000,10.3366650390625,-0.9869842529296875,-0.0302581787109375,-0.015380859375
1783168966430645000,10.34664501953125,-0.9866943359375,-0.029205322265625,-0.0162811279296875
1783168966440593000,10.356593017578126,-0.9866790771484375,-0.03045654296875,-0.0154266357421875
1783168966450542000,10.3665419921875,-0.9867095947265625,-0.0335845947265625,-0.0125732421875
1783168966460491000,10.376490966796876,-0.986602783203125,-0.035430908203125,-0.0091705322265625
1783168966470470000,10.386469970703125,-0.9863739013671875,-0.035858154296875,-0.0090179443359375
1783168966480418800,10.396418701171875,-0.9868011474609375,-0.0334320068359375,-0.009979248046875
1783168966490368000,10.406367919921875,-0.9862823486328125,-0.0322113037109375,-0.010589599609375
1783168966500316000,10.41631591796875,-0.9861602783203125,-0.0307159423828125,-0.0114288330078125
1783168966510295800,10.4262958984375,-0.9867401123046875,-0.0297698974609375,-0.01171875
1783168966520244000,10.436243896484376,-0.9864959716796875,-0.0303192138671875,-0.01129150390625
1783168966530193000,10.44619287109375,-0.986358642578125,-0.0307464599609375,-0.009796142578125
1783168966540171800,10.456171875,-0.9867706298828125,-0.031280517578125,-0.0072479248046875
1783168966550120700,10.46612060546875,-0.986236572265625,-0.0318603515625,-0.0061187744140625
1783168966560070100,10.476070068359375,-0.9863739013671875,-0.03192138671875,-0.0051727294921875
1783168966570017800,10.486017822265625,-0.9873199462890625,-0.0311279296875,-0.005950927734375
1783168966579998000,10.495998046875,-0.98736572265625,-0.0307464599609375,-0.007537841796875
1783168966589946000,10.505946044921876,-0.9869842529296875,-0.030303955078125,-0.0089874267578125
1783168966599895000,10.51589501953125,-0.986846923828125,-0.029754638671875,-0.0115203857421875
1783168966609844000,10.525843994140626,-0.9869537353515625,-0.029205322265625,-0.012542724609375
1783168966619823000,10.535822998046875,-0.986846923828125,-0.0299530029296875,-0.0117950439453125
1783168966629772000,10.54577197265625,-0.986572265625,-0.031585693359375,-0.0122528076171875
1783168966639721000,10.555720947265625,-0.98663330078125,-0.0318756103515625,-0.0112457275390625
1783168966649668900,10.5656689453125,-0.9861602783203125,-0.0313262939453125,-0.0113677978515625
1783168966659648800,10.575648681640626,-0.9863433837890625,-0.031951904296875,-0.0121002197265625
1783168966669597000,10.585596923828126,-0.9882354736328125,-0.032196044921875,-0.011962890625
1783168966679545900,10.5955458984375,-0.986907958984375,-0.0309600830078125,-0.0120849609375
1783168966689525000,10.60552490234375,-0.986785888671875,-0.0299072265625,-0.0127716064453125
1783168966699474000,10.615473876953125,-0.98681640625,-0.02911376953125,-0.013427734375
1783168966709422800,10.6254228515625,-0.9872894287109375,-0.0296783447265625,-0.013427734375
1783168966719372000,10.6353720703125,-0.986663818359375,-0.0304412841796875,-0.01190185546875
1783168966729351000,10.645350830078126,-0.9869842529296875,-0.0313262939453125,-0.010467529296875
1783168966739298800,10.655298828125,-0.986907958984375,-0.0317840576171875,-0.0082244873046875
1783168966749278000,10.66527783203125,-0.9875335693359375,-0.0308074951171875,-0.0075531005859375
1783168966759227100,10.67522705078125,-0.9872894287109375,-0.031585693359375,-0.008056640625
1783168966769206000,10.6852060546875,-0.98687744140625,-0.0309295654296875,-0.006500244140625
1783168966779155000,10.695155029296876,-0.9867095947265625,-0.029632568359375,-0.007720947265625
1783168966789103900,10.705103759765626,-0.987335205078125,-0.0295867919921875,-0.009002685546875
1783168966799083000,10.7150830078125,-0.9865875244140625,-0.030731201171875,-0.0102386474609375
1783168966809032000,10.725031982421875,-0.9858856201171875,-0.0315399169921875,-0.0113067626953125
1783168966818980000,10.73497998046875,-0.986968994140625,-0.03265380859375,-0.0104827880859375
1783168966828929000,10.744928955078125,-0.9874725341796875,-0.0329437255859375,-0.0091400146484375
1783168966838908000,10.754907958984376,-0.9872894287109375,-0.03369140625,-0.0102081298828125
1783168966848856800,10.76485693359375,-0.9872894287109375,-0.03326416015625,-0.0106658935546875
1783168966858806000,10.774805908203126,-0.986968994140625,-0.0326080322265625,-0.009765625
1783168966868755200,10.784755126953126,-0.98699951171875,-0.0318145751953125,-0.0103912353515625
1783168966878734000,10.794734130859375,-0.98638916015625,-0.0311431884765625,-0.01263427734375
1783168966888683000,10.80468310546875,-0.98687744140625,-0.03070068359375,-0.0139312744140625
1783168966898631200,10.814631103515625,-0.9870452880859375,-0.0313262939453125,-0.01409912109375
1783168966908610000,10.824610107421876,-0.9867095947265625,-0.030059814453125,-0.012359619140625
1783168966918559000,10.83455908203125,-0.986968994140625,-0.0306243896484375,-0.0118408203125
1783168966928508200,10.844508056640626,-0.9865264892578125,-0.0310821533203125,-0.0094451904296875
1783168966938457000,10.85445703125,-0.98712158203125,-0.0298004150390625,-0.0079345703125
1783168966948436000,10.86443603515625,-0.9874267578125,-0.0292205810546875,-0.0081939697265625
1783168966958385000,10.874385009765625,-0.986846923828125,-0.02947998046875,-0.0067901611328125
1783168966968333000,10.8843330078125,-0.987274169921875,-0.0290679931640625,-0.006378173828125
1783168966978282000,10.894281982421875,-0.9872283935546875,-0.02947998046875,-0.0079193115234375
1783168966988260900,10.9042607421875,-0.986785888671875,-0.0296478271484375,-0.0083465576171875
1783168966998210000,10.9142099609375,-0.9862060546875,-0.02984619140625,-0.0090789794921875
1783168967008159000,10.924158935546876,-0.9871063232421875,-0.0296478271484375,-0.010040283203125
1783168967018108000,10.93410791015625,-0.9864959716796875,-0.0290374755859375,-0.0113372802734375
1783168967028086800,10.944086669921875,-0.9868927001953125,-0.0292205810546875,-0.011871337890625
1783168967038036200,10.9540361328125,-0.9874267578125,-0.0305328369140625,-0.0116424560546875
1783168967047984000,10.963984130859375,-0.9871673583984375,-0.03302001953125,-0.011077880859375
1783168967057964000,10.973964111328126,-0.987213134765625,-0.033172607421875,-0.009613037109375
1783168967067912200,10.983912109375,-0.986846923828125,-0.033966064453125,-0.0095977783203125
1783168967077861000,10.993861083984376,-0.987213134765625,-0.0350799560546875,-0.010894775390625
1783168967087810000,11.00381005859375,-0.9867706298828125,-0.0341033935546875,-0.011566162109375
1783168967097789000,11.013788818359375,-0.986663818359375,-0.0318603515625,-0.01287841796875
1783168967107738000,11.023738037109375,-0.9873809814453125,-0.0317535400390625,-0.0139312744140625
1783168967117686000,11.03368603515625,-0.9866180419921875,-0.030975341796875,-0.013641357421875
1783168967127635000,11.043635009765625,-0.987030029296875,-0.0311279296875,-0.0131378173828125
1783168967137614000,11.053614013671876,-0.98663330078125,-0.0319671630859375,-0.011474609375
1783168967147563000,11.06356298828125,-0.986785888671875,-0.03228759765625,-0.009765625
1783168967157512000,11.073511962890626,-0.986419677734375,-0.0318756103515625,-0.008544921875
1783168967167491000,11.083490966796875,-0.9868316650390625,-0.030303955078125,-0.007049560546875
1783168967177440000,11.09343994140625,-0.9871063232421875,-0.0304107666015625,-0.007659912109375
1783168967187389000,11.103388916015625,-0.987060546875,-0.029541015625,-0.0075225830078125
1783168967197336800,11.1133369140625,-0.9874420166015625,-0.0289459228515625,-0.008453369140625
1783168967207317000,11.12331689453125,-0.9866790771484375,-0.028778076171875,-0.0099334716796875
1783168967217265000,11.133264892578126,-0.9857177734375,-0.0277557373046875,-0.010406494140625
1783168967227214000,11.143214111328126,-0.986724853515625,-0.0291900634765625,-0.0104827880859375
1783168967237163000,11.1531630859375,-0.98651123046875,-0.0305938720703125,-0.0097808837890625
1783168967247142100,11.16314208984375,-0.9862823486328125,-0.030853271484375,-0.00860595703125
1783168967257091000,11.173091064453125,-0.986663818359375,-0.0317535400390625,-0.0087890625
1783168967267039000,11.1830390625,-0.9867706298828125,-0.0313873291015625,-0.0090179443359375
1783168967277019100,11.19301904296875,-0.98712158203125,-0.0309295654296875,-0.009521484375
1783168967286967000,11.202967041015626,-0.9873046875,-0.03118896484375,-0.011444091796875
1783168967296916000,11.212916015625,-0.986907958984375,-0.0324249267578125,-0.012786865234375
1783168967306865000,11.222864990234376,-0.9862060546875,-0.03192138671875,-0.0145721435546875
1783168967316844000,11.232843994140625,-0.9866180419921875,-0.03204345703125,-0.0135650634765625
1783168967326793000,11.24279296875,-0.9868927001953125,-0.0324554443359375,-0.0116729736328125
1783168967336742000,11.252741943359375,-0.987091064453125,-0.03271484375,-0.0111236572265625
1783168967346690000,11.26268994140625,-0.987884521484375,-0.03289794921875,-0.0093994140625
1783168967356670000,11.272669921875,-0.98516845703125,-0.0326080322265625,-0.0098724365234375
1783168967366617900,11.282617919921876,-0.985809326171875,-0.0322265625,-0.009185791015625
1783168967376567000,11.292567138671876,-0.986572265625,-0.0313568115234375,-0.00897216796875
1783168967386516000,11.302515869140626,-0.986297607421875,-0.030548095703125,-0.010711669921875
1783168967396495000,11.3124951171875,-0.9875030517578125,-0.0305023193359375,-0.0107879638671875
1783168967406444000,11.322444091796875,-0.9871978759765625,-0.02947998046875,-0.0107574462890625
1783168967416392200,11.33239208984375,-0.98626708984375,-0.02984619140625,-0.0106201171875
1783168967426372000,11.3423720703125,-0.9869842529296875,-0.0300445556640625,-0.0089874267578125
1783168967436320000,11.352320068359376,-0.9878692626953125,-0.02972412109375,-0.0084075927734375
1783168967446269000,11.36226904296875,-0.9876556396484375,-0.031219482421875,-0.0080108642578125
1783168967456218000,11.372218017578126,-0.98675537109375,-0.0308837890625,-0.00830078125
1783168967466197000,11.382197021484375,-0.98681640625,-0.03076171875,-0.0086669921875
1783168967476146000,11.39214599609375,-0.9871673583984375,-0.03021240234375,-0.0093994140625
1783168967486094800,11.4020947265625,-0.9873199462890625,-0.0302276611328125,-0.0108795166015625
1783168967496043000,11.41204296875,-0.9864654541015625,-0.029998779296875,-0.0117645263671875
1783168967506023000,11.42202294921875,-0.98663330078125,-0.02960205078125,-0.0113983154296875
1783168967515971000,11.43197119140625,-0.9860076904296875,-0.0310516357421875,-0.0118560791015625
1783168967525920000,11.441919921875,-0.9862060546875,-0.0322418212890625,-0.01153564453125
1783168967535899000,11.45189892578125,-0.9868621826171875,-0.0328216552734375,-0.0111541748046875
1783168967545847800,11.461847900390625,-0.9871826171875,-0.0334014892578125,-0.0097198486328125
1783168967555797000,11.471796875,-0.9867095947265625,-0.03302001953125,-0.0095367431640625
1783168967565746200,11.48174609375,-0.9866943359375,-0.0326385498046875,-0.009185791015625
1783168967575725000,11.49172509765625,-0.9873046875,-0.031524658203125,-0.0112457275390625
1783168967585673200,11.501673095703126,-0.987213134765625,-0.029205322265625,-0.0125579833984375
1783168967595622100,11.5116220703125,-0.9875030517578125,-0.029693603515625,-0.0125885009765625
1783168967605571000,11.521571044921876,-0.986663818359375,-0.0300750732421875,-0.0118408203125
1783168967615550000,11.531550048828125,-0.9873809814453125,-0.0301361083984375,-0.0099334716796875
1783168967625499100,11.5414990234375,-0.9869842529296875,-0.0308380126953125,-0.0102996826171875
1783168967635448000,11.551447998046875,-0.987640380859375,-0.031463623046875,-0.008941650390625
1783168967645427000,11.561427001953126,-0.9864349365234375,-0.0316619873046875,-0.0095977783203125
1783168967655376000,11.5713759765625,-0.9868621826171875,-0.0312957763671875,-0.0081024169921875
1783168967665324000,11.581323974609376,-0.9874114990234375,-0.029998779296875,-0.00946044921875
1783168967675273000,11.59127294921875,-0.9868316650390625,-0.0294647216796875,-0.01080322265625
1783168967685251800,11.601251953125,-0.985992431640625,-0.0296783447265625,-0.011260986328125
1783168967695201000,11.611200927734375,-0.9867706298828125,-0.0305023193359375,-0.0127105712890625
1783168967705150000,11.62114990234375,-0.987213134765625,-0.0301055908203125,-0.013458251953125
1783168967715099100,11.63109912109375,-0.9861907958984375,-0.031402587890625,-0.01202392578125
1783168967725078000,11.641078125,-0.986053466796875,-0.032196044921875,-0.0109405517578125
1783168967735027200,11.651027099609376,-0.98651123046875,-0.03271484375,-0.0093536376953125
1783168967744985300,11.6609853515625,-0.9873199462890625,-0.0324859619140625,-0.008636474609375
1783168967754934300,11.670934326171874,-0.986846923828125,-0.032073974609375,-0.008453369140625
1783168967764913400,11.680913330078125,-0.9858551025390625,-0.0324249267578125,-0.0100555419921875
1783168967774862300,11.6908623046875,-0.986724853515625,-0.030242919921875,-0.01055908203125
1783168967784811500,11.7008115234375,-0.986663818359375,-0.0304412841796875,-0.0098876953125
1783168967794790100,11.7107900390625,-0.9871978759765625,-0.031158447265625,-0.011016845703125
1783168967804739600,11.720739501953124,-0.9866180419921875,-0.030731201171875,-0.01092529296875
1783168967814687500,11.7306875,-0.9860687255859375,-0.031494140625,-0.009735107421875
1783168967824636400,11.740636474609374,-0.9868316650390625,-0.03192138671875,-0.0096588134765625
1783168967834615600,11.750615478515625,-0.985595703125,-0.03216552734375,-0.0092926025390625
1783168967844564500,11.760564453125,-0.987274169921875,-0.032073974609375,-0.00946044921875
1783168967854513400,11.770513427734375,-0.9871063232421875,-0.031036376953125,-0.0099945068359375
1783168967864462300,11.78046240234375,-0.986602783203125,-0.03179931640625,-0.0094757080078125
1783168967874441500,11.79044140625,-0.986602783203125,-0.030609130859375,-0.009918212890625
1783168967884390400,11.800390380859374,-0.9871826171875,-0.029693603515625,-0.0102691650390625
1783168967894338300,11.81033837890625,-0.987091064453125,-0.0302734375,-0.010955810546875
1783168967904318200,11.820318115234375,-0.9862518310546875,-0.0291748046875,-0.011383056640625
1783168967914266400,11.830266357421875,-0.9864501953125,-0.02947998046875,-0.0115966796875
1783168967924215300,11.84021533203125,-0.9862518310546875,-0.0303192138671875,-0.012359619140625
1783168967934164200,11.850164306640625,-0.9856414794921875,-0.0316619873046875,-0.011627197265625
1783168967944143400,11.860143310546874,-0.986907958984375,-0.032867431640625,-0.009796142578125
