time,seconds_elapsed,z,y,x
1783168956328089000,0.244089111328125,0.00022112764418125153,0.002105139195919037,-0.0024352306500077248
1783168956338036700,0.25403662109375,-0.0003606770187616348,0.000012689270079135895,-0.0017237970605492592
1783168956347986000,0.26398583984375,0.0014287009835243225,0.0002164207398891449,0.00183578347787261
1783168956357934800,0.273934814453125,0.0018169600516557693,-0.0060146828182041645,-0.00175089156255126
1783168956367914000,0.2839140625,0.0015359967947006226,-0.013745039701461792,-0.007898267358541489
1783168956377863000,0.29386279296875,-0.0005614850670099258,-0.006618047598749399,-0.001964048482477665
1783168956387811800,0.303811767578125,-0.004408420994877815,0.0012782253324985504,-0.0002929149195551872
1783168956397791000,0.313791015625,-0.0037241727113723755,-0.0089974170550704,-0.0010408852249383926
1783168956407740000,0.323739990234375,-0.007147401571273804,-0.00908689945936203,-0.0010581957176327705
1783168956417687800,0.333687744140625,-0.030216701328754425,-0.0027539110742509365,0.00032105715945363045
1783168956427636700,0.34363671875,-0.1657194048166275,-0.007955064997076988,-0.004608720075339079
1783168956437615900,0.353615966796875,-0.3469824492931366,0.004771281033754349,0.003160092979669571
1783168956447564800,0.363564697265625,-0.46197110414505005,0.0015011858195066452,-0.00045115360990166664
1783168956457513700,0.373513671875,-0.5527628660202026,0.004235612694174051,-0.0028004865162074566
1783168956467462700,0.383462646484375,-0.6252557039260864,0.007397051434963942,-0.0023818383924663067
1783168956477441800,0.39344189453125,-0.6761752367019653,0.009797340258955956,-0.0022619967348873615
1783168956487391000,0.403390869140625,-0.6556901931762695,0.009792014956474304,-0.003771743271499872
1783168956497339000,0.4133388671875,-0.5954594016075134,0.011040206998586655,-0.0045844875276088715
1783168956507317800,0.42331787109375,-0.5172072052955627,0.009849507361650467,-0.0008395500481128693
1783168956517267000,0.433266845703125,-0.4529763460159302,0.008971093222498894,0.0004306151531636715
1783168956527215900,0.4432158203125,-0.39094093441963196,0.007951101288199425,0.00170067697763443
1783168956537164800,0.453164794921875,-0.32657307386398315,0.004574881400913,-0.000008163973689079285
1783168956547144000,0.46314404296875,-0.2585069239139557,0.00370349595323205,0.0008278023451566696
1783168956557092900,0.4730927734375,-0.18569178879261017,0.002098752185702324,-0.0014876043424010277
1783168956567041000,0.483041015625,-0.11223141103982925,-0.0033285035751760006,-0.0006652204319834709
1783168956576990000,0.492989990234375,-0.05564143508672714,-0.003738050814718008,-0.0007326495833694935
1783168956586968800,0.50296875,-0.010354114696383476,-0.00041868677362799644,-0.002713242080062628
1783168956596917800,0.512917724609375,0.004963655024766922,0.0015875292010605335,-0.0006991527043282986
1783168956606867000,0.522866943359375,0.00561026856303215,0.0007528942078351974,0.0005706422962248325
1783168956616845800,0.532845703125,0.003940923139452934,0.0020620892755687237,0.002172523643821478
1783168956626794800,0.542794677734375,0.00004684925079345703,0.0024085664190351963,0.0017709191888570786
1783168956636743700,0.55274365234375,0.0004487987607717514,0.0047229137271642685,-0.0001559150405228138
1783168956646691800,0.56269189453125,0.0003950018435716629,0.0028805388137698174,0.0023916647769510746
1783168956656672000,0.572672119140625,0.00041397660970687866,0.012360166758298874,0.008003903552889824
1783168956666620000,0.582619873046875,-0.00010427460074424744,0.009288476780056953,0.006569791119545698
1783168956676569000,0.592569091796875,-0.0005965717136859894,0.002712668851017952,0.0026785354129970074
1783168956686518000,0.60251806640625,-0.000058611854910850525,0.0012420718558132648,0.0013432265259325504
1783168956696497000,0.612496826171875,-0.0006937030702829361,0.0011437684297561646,0.00018853554502129555
1783168956706445800,0.62244580078125,-0.0009182076901197433,0.0007347068749368191,0.0011741714552044868
1783168956716394000,0.63239404296875,0.0019015520811080933,-0.00041938433423638344,0.0002432926557958126
1783168956726374000,0.642373779296875,0.0007052607834339142,-0.00045107584446668625,0.0011394466273486614
1783168956736330500,0.65233056640625,0.0005340855568647385,-0.0006882576271891594,-0.0014692270196974277
1783168956746279400,0.662279541015625,0.0007780306041240692,-0.0006823986768722534,0.00010150531306862831
1783168956756228400,0.672228271484375,0.0011408887803554535,0.001838719006627798,0.0018174853175878525
1783168956766207500,0.68220751953125,-0.0008727274835109711,-0.000501933041960001,0.00004195561632514
1783168956776156400,0.692156494140625,-0.0004550796002149582,-0.001901315525174141,-0.0010524438694119453
1783168956786105300,0.702105224609375,-0.002825560048222542,-0.0016991817392408848,0.0006658271886408329
1783168956796053500,0.712053466796875,-0.0002076718956232071,-0.00003816792741417885,0.0009755529463291168
1783168956806033700,0.72203369140625,0.000033076852560043335,-0.0006152749992907047,-0.0017235605046153069
1783168956815981600,0.731981689453125,0.0005433410406112671,-0.0004659895785152912,-0.0008978717960417271
1783168956825930500,0.741930419921875,0.0000037848949432373047,0.000531097874045372,0.002048383466899395
1783168956835879700,0.751879638671875,0.0009891241788864136,0.00006544077768921852,-0.0004392373375594616
1783168956845858600,0.761858642578125,0.0004506334662437439,-0.0008805138058960438,0.0014654556289315224
1783168956855807500,0.771807373046875,0.0018415674567222595,0.0018272674642503262,0.0024033808149397373
1783168956865755600,0.781755615234375,-0.0017369221895933151,0.0010296506807208061,-0.000657123513519764
1783168956875735600,0.791735595703125,0.0004197675734758377,-0.0011817296035587788,0.0012256237678229809
1783168956885683500,0.801683349609375,0.0003675706684589386,0.0001668953336775303,-0.0007014395669102669
1783168956895632400,0.81163232421875,0.0006869528442621231,0.0009486367926001549,-0.0003806333988904953
1783168956905581600,0.82158154296875,-0.0004361029714345932,0.002126819919794798,0.0020630829967558384
1783168956915560400,0.831560546875,0.0003479868173599243,-0.00010105827823281288,0.0023470791056752205
1783168956925509400,0.84150927734375,-0.0002642739564180374,-0.0008797664195299149,-0.00015522725880146027
1783168956935458300,0.851458251953125,-0.00006386637687683105,-0.000010178890079259872,-0.0026037883944809437
1783168956945406500,0.861406494140625,-0.0010385829955339432,0.00008462928235530853,-0.0005819168873131275
1783168956955386400,0.871386474609375,-0.0012445729225873947,-0.0018756603822112083,-0.000030427705496549606
1783168956965334500,0.88133447265625,-0.0006208606064319611,-0.0008484791032969952,0.0011115358211100101
1783168956975283700,0.89128369140625,0.0016181282699108124,0.0007947599515318871,0.0023226868361234665
1783168956985262300,0.901262451171875,-0.0025398656725883484,-0.0018132736440747976,-0.0000334116630256176
1783168956995211500,0.91121142578125,0.00012801028788089752,-0.0007130526937544346,0.0010141669772565365
1783168957005160400,0.921160400390625,-0.0006626825779676437,-0.001163925975561142,-0.00015789037570357323
1783168957015108600,0.931108642578125,0.00019725225865840912,-0.0005937432870268822,0.001681821420788765
1783168957025088500,0.941088623046875,0.0003762170672416687,-0.0015839063562452793,0.0013225609436631203
1783168957035036700,0.95103662109375,0.0013157166540622711,-0.0007946477271616459,0.0006893696263432503
1783168957044985600,0.960985595703125,-0.00023264437913894653,0.0019798334687948227,-0.001334100030362606
1783168957054934500,0.9709345703125,0.00142756849527359,-0.0012985174544155598,0.001567147672176361
1783168957064913400,0.980913330078125,0.0005913376808166504,-0.0000311192125082016,0.0003181248903274536
1783168957074862600,0.990862548828125,0.000329483300447464,0.0006843730807304382,-0.0005049514584243298
1783168957084811500,1.0008115234375,-0.0003616064786911011,-0.001134033314883709,-0.0009734011255204678
1783168957094790400,1.010790283203125,0.0007114429026842117,0.0010918551124632359,-0.0014149113558232784
1783168957104739300,1.0207392578125,0.0008065178990364075,0.0002798573113977909,0.003042688127607107
1783168957114687500,1.0306875,0.0015714429318904877,0.00003183353692293167,0.0001778220757842064
1783168957124636400,1.040636474609375,-0.0012272726744413376,0.0009482270106673241,-0.0003931601531803608
1783168957134615300,1.050615234375,0.00043654628098011017,0.002515004016458988,-0.0015956070274114609
1783168957144564500,1.060564453125,-0.003260454162955284,-0.002116232644766569,-0.0020137233659625053
1783168957154513700,1.070513671875,0.001725776121020317,0.002792703453451395,-0.0030263601802289486
1783168957164461600,1.080461669921875,0.00019632279872894287,-0.0010041655041277409,-0.0015451102517545223
1783168957174441500,1.09044140625,0.0018486883491277695,0.0016868147067725658,0.0009887074120342731
1783168957184389600,1.1003896484375,0.0017600059509277344,-0.0008727493695914745,0.0013077538460493088
1783168957194338600,1.110338623046875,-0.0020002834498882294,-0.0002861274406313896,-0.00044734636321663857
1783168957204317700,1.120317626953125,-0.0011150483042001724,-0.0037812599912285805,-0.0015845163725316525
1783168957214266600,1.1302666015625,0.0008627977222204208,-0.0007243729196488857,0.0018154578283429146
1783168957224215600,1.140215576171875,-0.0013822466135025024,-0.0007869573310017586,-0.000493236817419529
1783168957234164500,1.15016455078125,-0.001224800944328308,-0.0008326354436576366,0.0009191515855491161
1783168957244143400,1.160143310546875,-0.0008815191686153412,0.0015716664493083954,0.0006882557645440102
1783168957254092500,1.170092529296875,-0.00025869905948638916,-0.0002768011763691902,-0.0018453793600201607
1783168957264040400,1.18004052734375,-0.0009199623018503189,0.0010566436685621738,0.0012665237300097942
1783168957273989400,1.1899892578125,-0.0012498591095209122,-0.0007949294522404671,0.000011387281119823456
1783168957283968500,1.199968505859375,-0.0018567927181720734,-0.001957399072125554,0.00021591829136013985
1783168957293917400,1.20991748046875,-0.0006880238652229309,-0.0006777322851121426,-0.00018928386270999908
1783168957303866600,1.21986669921875,-0.0006624571979045868,0.0012469342909753323,-0.0003746398724615574
1783168957313815600,1.229815673828125,0.001260802149772644,0.0021824752911925316,-0.0009268610738217831
1783168957323794700,1.239794677734375,-0.0006833039224147797,-0.002146759070456028,-0.0021415282972157
1783168957333742600,1.24974267578125,0.0019871313124895096,-0.00012365542352199554,0.0008119768463075161
1783168957343691500,1.25969140625,-0.001812666654586792,-0.000038434285670518875,-0.0005046902224421501
1783168957353670700,1.269670654296875,0.00186983123421669,0.001351325772702694,-0.0003241123631596565
1783168957363619600,1.27961962890625,-0.0010180994868278503,0.0010322793386876583,-0.0013425052165985107
1783168957373568500,1.289568603515625,-0.0007351282984018326,0.0008271769620478153,0.000008750241249799728
1783168957383517400,1.299517333984375,-0.0007138233631849289,0.0023390534333884716,-0.0004647602327167988
1783168957393496600,1.30949658203125,-0.0007854215800762177,-0.0010409820824861526,0.0011917687952518463
1783168957403445500,1.319445556640625,-0.0005681067705154419,-0.002899868180975318,0.0011190641671419144
1783168957413393400,1.329393310546875,-0.0015161260962486267,0.0001320168375968933,0.0017533903010189533
1783168957423342600,1.339342529296875,-0.0011158529669046402,0.0003200364299118519,-0.0029457570053637028
1783168957433321500,1.349321533203125,-0.00033274851739406586,0.0007984880357980728,0.0011949529871344566
1783168957443270400,1.3592705078125,-0.0006858836859464645,-0.0009650574065744877,-0.002361698541790247
1783168957453219300,1.36921923828125,0.00014786235988140106,0.0021436726674437523,-0.0003060000017285347
1783168957463198500,1.379198486328125,0.0013880971819162369,-0.00002414034679532051,-0.00047138240188360214
1783168957473147400,1.3891474609375,0.000371759757399559,-0.0011443765833973885,0.0017154775559902191
1783168957483096600,1.3990966796875,0.0026682019233703613,-0.0004175999201834202,0.0013945666141808033
1783168957493044700,1.409044677734375,0.00020227767527103424,0.0028746281750500202,-0.0008133240044116974
1783168957503024600,1.419024658203125,-0.0001942664384841919,-0.002804296789690852,-0.00004500197246670723
1783168957512972500,1.42897265625,0.0016807131469249725,-0.0011959210969507694,-0.0017583826556801796
1783168957522921500,1.43892138671875,0.000626634806394577,0.0023032063618302345,-0.0028486810624599457
1783168957532870700,1.44887060546875,-0.0003242120146751404,-0.0003518620505928993,0.0017587654292583466
1783168957542849500,1.458849609375,-0.00104513019323349,-0.0009079300798475742,-0.0016378303989768028
1783168957552798500,1.468798583984375,-0.0011179521679878235,0.00022502802312374115,-0.0008931984193623066
1783168957562746600,1.47874658203125,-0.0005658790469169617,-0.000750487670302391,-0.0001315344125032425
1783168957572726500,1.4887265625,0.0001603197306394577,-0.0023028652649372816,-0.0010634264908730984
1783168957582674400,1.49867431640625,-0.00038775987923145294,-0.0006727441214025021,-0.0014389320276677608
1783168957592623400,1.508623291015625,0.000566624104976654,-0.0005339104682207108,0.00004819314926862717
1783168957602572500,1.518572509765625,0.0015466660261154175,0.001317785121500492,0.0011206483468413353
1783168957612551400,1.528551513671875,0.0006237700581550598,-0.0011307112872600555,0.0019358047284185886
1783168957622500400,1.538500244140625,0.0011761095374822617,0.002179065253585577,0.001625546719878912
1783168957632449300,1.54844921875,-0.00007596053183078766,0.0012019313871860504,-0.0018974710255861282
1783168957642397400,1.5583974609375,-0.0010323002934455872,0.0012096543796360493,0.0006232103332877159
1783168957652377600,1.568377685546875,-0.0003767646849155426,0.0008210712112486362,0.0005641374737024307
1783168957662325500,1.578325439453125,0.00036918744444847107,-0.000055641401559114456,-0.000316037330776453
1783168957672274700,1.588274658203125,0.00039549730718135834,-0.00031642429530620575,-0.0009289341978728771
1783168957682223600,1.5982236328125,-0.0003922656178474426,0.002338214311748743,-0.0017313440330326557
1783168957692202500,1.608202392578125,0.0011574067175388336,0.0005838372744619846,-0.00007671723142266273
1783168957702151400,1.6181513671875,-0.00044794753193855286,-0.003801856655627489,0.0004183645360171795
1783168957712099600,1.628099609375,-0.00058014877140522,-0.0011076675727963448,0.0001237965188920498
1783168957722079500,1.63807958984375,0.0006236005574464798,0.0012708017602562904,0.004068204201757908
1783168957732027600,1.648027587890625,-0.0012918058782815933,0.0004284195601940155,-0.0006417394615709782
1783168957742008800,1.6580087890625,0.0014741532504558563,0.000526689924299717,0.00047119520604610443
1783168957751958000,1.6679580078125,0.000959981232881546,0.002041516825556755,0.0007890211418271065
1783168957761937000,1.67793701171875,0.0007168333977460861,0.00042630918323993683,0.0018204632215201855
1783168957771886000,1.687885986328125,-0.0004125218838453293,0.0013155564665794373,-0.0001674909144639969
1783168957781835000,1.6978349609375,0.0008820407092571259,0.0000010202638804912567,-0.0005611060187220573
1783168957791783200,1.707783203125,0.00042264536023139954,-0.0011020610108971596,0.0005297246389091015
1783168957801763000,1.71776318359375,-0.0004846230149269104,-0.00029049115255475044,-0.001009141094982624
1783168957811711000,1.7277109375,-0.0010609328746795654,0.0003825151361525059,-0.0011410084553062916
1783168957821660200,1.73766015625,0.0003683846443891525,0.0003489591181278229,-0.001348735298961401
1783168957831639000,1.74763916015625,-0.000052189454436302185,-0.0006696810014545918,-0.0012908875942230225
1783168957841588000,1.757587890625,-0.0008130539208650589,-0.0013080406934022903,-0.00014918996021151543
1783168957851537000,1.767536865234375,0.0009908545762300491,0.000989288091659546,-0.0003269808366894722
1783168957861485000,1.777485107421875,-0.00017401203513145447,0.0011349632404744625,-0.0011472348123788834
1783168957871465000,1.78746484375,-0.0007256660610437393,0.001341385766863823,-0.0027329502627253532
1783168957881412900,1.797412841796875,0.000794731080532074,-0.001393680926412344,0.0006093163974583149
1783168957891362000,1.807362060546875,0.0011209174990653992,0.0015212581492960453,-0.000842247623950243
1783168957901311000,1.81731103515625,0.0003936067223548889,-0.000556540209800005,-0.0000409027561545372
1783168957911289900,1.827289794921875,0.00036312639713287354,-0.0005701882764697075,0.0012793270871043205
1783168957921238800,1.83723876953125,-0.0016883071511983871,-0.00046499306336045265,0.0004055439494550228
1783168957931188200,1.847188232421875,-0.0005322229117155075,-0.00006598653271794319,-0.00003638444468379021
1783168957941167000,1.8571669921875,0.0007231924682855606,0.0011817044578492641,-0.00008938135579228401
1783168957951116000,1.867115966796875,-0.0013238601386547089,0.00015896232798695564,-0.001980994828045368
1783168957961064200,1.877064208984375,0.0002324916422367096,-0.00032360246405005455,-0.0016427729278802872
1783168957971013000,1.88701318359375,0.0004965998232364655,-0.0011816788464784622,0.00039457762613892555
1783168957980992000,1.896991943359375,-0.0009974334388971329,0.0007328675128519535,0.00011414708569645882
1783168957990941000,1.90694091796875,0.0001442432403564453,0.0011476236395537853,-0.0014622011221945286
1783168958000890000,1.91689013671875,0.0005543697625398636,0.00008289190009236336,0.0003380957059562206
1783168958010838000,1.926838134765625,-0.0011076778173446655,-0.0007806434296071529,-0.00002523604780435562
1783168958020818000,1.93681787109375,0.001435108482837677,-0.0011694645509123802,-0.0014148736372590065
1783168958030766000,1.94676611328125,0.0005280394107103348,-0.0007272334769368172,-0.00008240016177296638
1783168958040715000,1.956715087890625,-0.0010373666882514954,0.0006637354381382465,-0.0013615163043141365
1783168958050664000,1.966663818359375,-0.0012014415115118027,-0.00022655446082353592,0.0009492402896285057
1783168958060643000,1.97664306640625,0.000393792986869812,-0.00035305460914969444,-0.0014830250293016434
1783168958070592000,1.986592041015625,-0.0009376611560583115,-0.0014964509755373001,0.0020560836419463158
1783168958080541000,1.996541015625,0.0009052474051713943,0.0006268871948122978,0.0010004066862165928
1783168958090519800,2.006519775390625,-0.0005640275776386261,0.0013828868977725506,-0.0016104383394122124
1783168958100469000,2.016468994140625,0.00004477053880691528,-0.002409987151622772,-0.000657293014228344
1783168958110417000,2.0264169921875,0.001550348475575447,0.00141508923843503,-0.0027128742076456547
1783168958120366000,2.036365966796875,0.001610536128282547,0.0008755326271057129,0.001963370479643345
1783168958130345200,2.04634521484375,-0.00022111088037490845,0.00011708540841937065,-0.00030444469302892685
1783168958140294100,2.056294189453125,0.0002508014440536499,-0.00024457182735204697,0.00033897534012794495
1783168958150243000,2.0662431640625,-0.00023247860372066498,0.0012994068674743176,-0.0015635481104254723
1783168958160192000,2.07619189453125,-0.0006854813545942307,-0.0014401869848370552,0.0020815208554267883
1783168958170171100,2.086171142578125,-0.0005331989377737045,-0.0002835406921803951,-0.0011942507699131966
1783168958180119000,2.096119140625,-0.000649578869342804,-0.0006318823434412479,0.0017006052657961845
1783168958190068000,2.10606787109375,-0.00020479783415794373,-0.0010561514645814896,0.0019756387919187546
1783168958200047000,2.116047119140625,-0.0010535456240177155,-0.0013658767566084862,0.00007760385051369667
1783168958209996000,2.12599609375,0.0017402935773134232,-0.00003316672518849373,-0.0007977588102221489
1783168958219945000,2.135945068359375,-0.0021255500614643097,0.00036071520298719406,-0.001267273910343647
1783168958229894000,2.145893798828125,-0.0007261428982019424,0.001143749337643385,-0.001880595926195383
1783168958239873000,2.155873046875,-0.0007112286984920502,0.0008313609287142754,0.00004540197551250458
1783168958249822000,2.165822021484375,0.0009019020944833755,-0.0031045950017869473,0.00040583452209830284
1783168958259769900,2.175769775390625,-0.0005314107984304428,-0.0013053636066615582,0.0018809591419994831
1783168958269719000,2.185718994140625,-0.0019215494394302368,0.0001674862578511238,-0.0012048580683767796
1783168958279698000,2.195697998046875,0.0008292291313409805,0.0004298076964914799,-0.00007061753422021866
1783168958289647000,2.205647216796875,-0.0012404583394527435,-0.00022822199389338493,0.00006366893649101257
1783168958299596000,2.215595947265625,0.0004479847848415375,0.0007393043488264084,-0.00242052786052227
1783168958309575200,2.2255751953125,0.00031739287078380585,-0.0009751301258802414,-0.0006493325345218182
1783168958319524000,2.235524169921875,0.0018812008202075958,0.002365006599575281,0.0006974278949201107
1783168958329473000,2.24547314453125,0.00029988400638103485,-0.000410574022680521,-0.00033750012516975403
1783168958339421000,2.2554208984375,-0.0003896094858646393,-0.0011490685865283012,0.0023443028330802917
1783168958349400000,2.265400146484375,0.0008839946240186691,0.0013057864271104336,0.0015562907792627811
1783168958359349000,2.275348876953125,0.0012714844197034836,-0.0016346096526831388,0.0006092707626521587
1783168958369298000,2.2852978515625,0.000393938273191452,0.0005324543453752995,-0.0006369319744408131
1783168958379246800,2.295246826171875,0.001971328631043434,-0.0014998037368059158,0.0014192941598594189
1783168958389226000,2.30522607421875,-0.0003248397260904312,-0.0007342332974076271,-0.0010017640888690948
1783168958399175000,2.3151748046875,0.0003726426512002945,-0.0021297296043485403,-0.00038577523082494736
1783168958409122800,2.325122802734375,0.000536041334271431,-0.000529515091329813,-0.002244595903903246
1783168958419072000,2.335072021484375,-0.0003752913326025009,-0.004793236032128334,-0.0002232566475868225
1783168958429051000,2.34505078125,-0.0008248090744018555,0.0013569807633757591,-0.0001662098802626133
1783168958438999800,2.354999755859375,-0.00014650262892246246,-0.0006078993901610374,-0.0001896456815302372
1783168958448949000,2.364948974609375,0.0005134176462888718,-0.0013613845221698284,-0.00006690947338938713
1783168958458928000,2.37492822265625,0.0008343290537595749,0.0008072275668382645,0.0006422903388738632
1783168958468877000,2.384876953125,-0.0001427866518497467,-0.00234341062605381,0.0005412790924310684
1783168958478826000,2.394825927734375,0.000529928132891655,0.0019858237355947495,-0.0012209340929985046
1783168958488774100,2.404774169921875,-0.00012304820120334625,-0.0017347685061395168,0.0005114390514791012
1783168958498754000,2.414754150390625,0.0005435403436422348,0.001044506672769785,-0.0014995140954852104
1783168958508702000,2.424701904296875,-0.0004557613283395767,0.0010092360898852348,0.00010277330875396729
1783168958518651100,2.434651123046875,0.0010100435465574265,0.0016015227884054184,0.0009725615382194519
1783168958528600000,2.44460009765625,-0.0009779632091522217,0.00021089287474751472,-0.0006927996873855591
1783168958538579000,2.454578857421875,-0.000290602445602417,-0.001196055207401514,0.0006704726256430149
1783168958548527900,2.46452783203125,0.000651821494102478,0.0007655997760593891,0.00015249475836753845
1783168958558476000,2.47447607421875,0.0002725888043642044,0.00004867697134613991,-0.001245398074388504
1783168958568456000,2.4844560546875,-0.0008449852466583252,-0.0014301687479019165,-0.0004424802027642727
1783168958578403800,2.49440380859375,-0.0009243488311767578,0.00011632870882749557,0.000428107101470232
1783168958588353000,2.50435302734375,0.0005301069468259811,-0.0016843222547322512,0.002390732057392597
1783168958598302200,2.51430224609375,0.001079518347978592,-0.0005586040206253529,-0.0007728366181254387
1783168958608280800,2.52428076171875,-0.0005281455814838409,-0.0011506066657602787,-0.0011668945662677288
1783168958618230000,2.53422998046875,0.00039250776171684265,0.0010329191572964191,-0.0006598285399377346
1783168958628179200,2.54417919921875,-0.0007707905024290085,0.0008246921934187412,0.0006587915122509003
1783168958638127000,2.554127197265625,-0.0008901003748178482,-0.00043045543134212494,0.00003880774602293968
1783168958648107000,2.56410693359375,-0.0006422922015190125,-0.0008491040207445621,0.0007100766524672508
1783168958658055200,2.57405517578125,-0.0004420224577188492,0.00017914222553372383,-0.0014774436131119728
1783168958668004000,2.584004150390625,-0.0019387193024158478,-0.0036713690496981144,0.00026440341025590897
1783168958677983000,2.59398291015625,0.0006884876638650894,-0.0003498746082186699,-0.0002778158523142338
1783168958687932000,2.603931884765625,0.0005180034786462784,0.0007951157167553902,-0.00002470286563038826
1783168958697881000,2.613881103515625,0.00044716522097587585,0.0012883329764008522,0.00017929542809724808
1783168958707829000,2.6238291015625,0.0006692372262477875,0.0016312743537127972,-0.00023381691426038742
1783168958717809000,2.633808837890625,0.00023008324205875397,0.0022925371304154396,-0.002102822996675968
1783168958727757000,2.643757080078125,-0.001965666189789772,0.0007106680423021317,-0.00012630224227905273
1783168958737730800,2.653730712890625,0.0007169358432292938,-0.0020928417798131704,0.0005456134676933289
1783168958747679700,2.6636796875,-0.0010873712599277496,0.0010963133536279202,0.000639461912214756
1783168958757658600,2.67365869140625,0.0016977619379758835,0.0005940413102507591,0.000913501251488924
1783168958767607800,2.68360791015625,0.001667240634560585,-0.0001309867948293686,0.0008263965137302876
1783168958777556700,2.693556640625,0.000020341947674751282,-0.0008875909261405468,-0.001467118039727211
1783168958787504600,2.703504638671875,-0.00034083984792232513,-0.0001159515231847763,0.0004491903819143772
1783168958797484500,2.713484619140625,-0.000043896958231925964,0.00037114089354872704,0.002114464994519949
1783168958807432700,2.7234326171875,-0.00040876492857933044,-0.00009359652176499367,0.0021641580387949944
1783168958817381600,2.733381591796875,-0.000626610592007637,-0.002109343186020851,-0.000714452937245369
1783168958827360500,2.743360595703125,0.0010418538004159927,-0.0005216067656874657,0.00047825463116168976
1783168958837309700,2.753309814453125,-0.0020508747547864914,0.00044192513450980186,0.00007265526801347733
1783168958847258600,2.763258544921875,0.0028646066784858704,-0.0008550351485610008,0.0012122453190386295
1783168958857206500,2.77320654296875,-0.00104571133852005,-0.0017338781617581844,0.0011648409999907017
1783168958867186400,2.7831865234375,0.000160902738571167,0.0022182143293321133,-0.00031563546508550644
1783168958877134600,2.793134521484375,0.000014161691069602966,0.0013170004822313786,-0.0003089774399995804
1783168958887083500,2.80308349609375,-0.0003411136567592621,0.00038821669295430183,-0.0002999342978000641
1783168958897032700,2.81303271484375,0.0011169668287038803,-0.0013036895543336868,0.0013120770454406738
1783168958907011800,2.82301171875,-0.00026986002922058105,0.00030372152104973793,-0.00011085113510489464
1783168958916960800,2.832960693359375,0.0007629133760929108,-0.001245172694325447,0.0011355080641806126
1783168958926909700,2.84290966796875,0.0004765354096889496,0.0006319130770862103,0.0002826079726219177
1783168958936888600,2.852888671875,-0.0006097685545682907,-0.0015396284870803356,0.0003310777246952057
1783168958946837800,2.862837646484375,0.000017005950212478638,0.0006629968993365765,-0.00033570732921361923
1783168958956785700,2.87278564453125,0.0004026312381029129,-0.0005063973367214203,-0.00030215131118893623
1783168958966734600,2.882734619140625,-0.0009284336119890213,0.0001161256805062294,-0.0006252983585000038
1783168958976713700,2.892713623046875,0.0000817030668258667,0.0002271793782711029,-0.0005917428061366081
1783168958986662700,2.90266259765625,0.0010360125452280045,0.0006925086490809917,0.0008389796130359173
1783168958996611600,2.912611572265625,-0.001369088888168335,-0.00008140597492456436,0.0010142154060304165
1783168959006560500,2.922560546875,-0.0009943414479494095,-0.0016078129410743713,-0.0022407229989767075
1783168959016539600,2.93253955078125,0.000044558197259902954,-0.0016940995119512081,-0.0005453554913401604
1783168959026487600,2.942487548828125,-0.0007858090102672577,0.0012456686235964298,0.000310258474200964
1783168959036436500,2.9524365234375,0.0001620110124349594,0.00011755386367440224,0.0017971014603972435
1783168959046415600,2.96241552734375,-0.0011979881674051285,-0.0002841716632246971,-0.000985739752650261
1783168959056364500,2.972364501953125,-0.001105310395359993,-0.00040481286123394966,0.00022227037698030472
1783168959066313700,2.982313720703125,0.00017254240810871124,-0.00067538907751441,0.0009882450103759766
1783168959076262700,2.9922626953125,0.00040796585381031036,0.00033341627568006516,-0.0017236517742276192
1783168959086241800,3.00224169921875,-0.0008697938174009323,-0.001759787555783987,0.0016752849332988262
1783168959096190700,3.012190673828125,0.0004623178392648697,0.000333989504724741,0.0000041513703763484955
1783168959106138600,3.022138671875,-0.00018294528126716614,-0.0016465745866298676,0.0009101987816393375
1783168959116087600,3.032087646484375,0.0005438309162855148,-0.00015147589147090912,-0.0005297721363604069
1783168959126066700,3.042066650390625,-0.00094563327729702,0.00021106377243995667,-0.00042228586971759796
1783168959136015600,3.052015625,-0.0006335116922855377,-0.00360497971996665,0.001482140738517046
1783168959145964500,3.061964599609375,0.00019219890236854553,0.00015292270109057426,-0.00025697657838463783
1783168959155913500,3.07191357421875,0.0002590436488389969,0.00030046189203858376,-0.0012737712822854519
1783168959165892600,3.081892578125,-0.0010905750095844269,0.0022857552394270897,-0.0011628838256001472
1783168959175841500,3.091841552734375,-0.0016253367066383362,0.0007943850941956043,-0.000011333264410495758
1783168959185789700,3.101789794921875,0.0009451005607843399,0.0015021762810647488,0.0004963804967701435
1783168959195768600,3.1117685546875,0.001377863809466362,-0.000625422690063715,0.0009816084057092667
1783168959205717500,3.121717529296875,-0.0008222665637731552,0.002062814775854349,-0.0016513178125023842
1783168959215666400,3.13166650390625,0.0010478049516677856,-0.000019510742276906967,0.0011548553593456745
1783168959225615600,3.14161572265625,0.00020173750817775726,-0.0006110770627856255,-0.00004673143848776817
1783168959235594800,3.1515947265625,0.0006006788462400436,-0.004334442317485809,0.0005668606609106064
1783168959245543700,3.161543701171875,-0.0010975059121847153,-0.00028127850964665413,0.001173676922917366
1783168959255491800,3.171491943359375,-0.0000958908349275589,-0.0007100473158061504,0.0010972442105412483
1783168959265440800,3.181440673828125,-0.0008818879723548889,-0.0024156959261745214,-0.0007308144122362137
1783168959275419600,3.191419677734375,0.0006635431200265884,-0.0010774573311209679,-0.0001209508627653122
1783168959285368600,3.20136865234375,-0.0013834163546562195,-0.0010218862444162369,0.0020553856156766415
1783168959295317800,3.21131787109375,-0.0004385281354188919,0.0017645792104303837,-0.00016116350889205933
1783168959305296600,3.221296630859375,-0.0001575946807861328,0.00015309033915400505,0.0008269986137747765
1783168959315245600,3.23124560546875,0.00014254450798034668,0.00025801872834563255,0.00016893120482563972
1783168959325194500,3.241194580078125,0.002716243267059326,0.004418604541569948,0.0008521685376763344
1783168959335142700,3.251142578125,0.000719139352440834,-0.0002762824296951294,-0.0018445486202836037
1783168959345122600,3.26112255859375,-0.001064809039235115,0.00033143674954771996,0.0018563345074653625
1783168959355070500,3.271070556640625,0.00046757422387599945,0.001961557660251856,-0.0007839230820536613
1783168959365019600,3.28101953125,-0.0010030660778284073,-0.0005180030129849911,-0.00019164523109793663
1783168959374968600,3.290968505859375,-0.0013849623501300812,-0.0011515691876411438,0.0008331392891705036
1783168959384947500,3.300947509765625,-0.00009881705045700073,-0.0006478033028542995,-0.0001048683188855648
1783168959394896600,3.310896728515625,0.0003563184291124344,-0.0014789756387472153,0.000446938443928957
1783168959404844500,3.320844482421875,-0.0011647846549749374,-0.0008449670858681202,0.0014601140283048153
1783168959414824700,3.33082470703125,-0.0015354976058006287,-0.00003616511821746826,0.0012065810151398182
1783168959424772900,3.34077294921875,0.0015061385929584503,0.0002810233272612095,0.0004996699281036854
1783168959434721800,3.3507216796875,0.0006235670298337936,-0.0010122079402208328,0.0005169804207980633
1783168959444670700,3.360670654296875,-0.0010534636676311493,-0.0011312034912407398,0.001166465226560831
1783168959454649600,3.370649658203125,0.00062565878033638,-0.0016731568612158298,0.0005773743614554405
1783168959464598500,3.3805986328125,-0.0007813218981027603,-0.0012863148003816605,-0.00007644621655344963
1783168959474547700,3.390547607421875,-0.00041966512799263,0.0002897437661886215,-0.00015394436195492744
1783168959484495600,3.40049560546875,-0.0012189075350761414,0.002189633436501026,0.00017568981274962425
1783168959494475500,3.4104755859375,0.00021387264132499695,-0.002508715260773897,-0.0016054320149123669
1783168959504423700,3.420423583984375,0.001641836017370224,0.0007251272909343243,-0.0029002991504967213
1783168959514372600,3.43037255859375,0.00021677836775779724,-0.00031350553035736084,-0.00010291440412402153
1783168959524321500,3.440321533203125,0.0003351029008626938,0.0011104983277618885,-0.0012027365155518055
1783168959534300700,3.45030078125,-0.0009163171052932739,0.0013781460002064705,0.00021379860118031502
1783168959544249600,3.46024951171875,-0.0004985984414815903,0.0005914918147027493,-0.000010473653674125671
1783168959554197500,3.470197509765625,-0.00009885802865028381,0.0003720475360751152,-0.0007292609661817551
1783168959564177700,3.480177734375,0.0010323133319616318,0.0009250869043171406,-0.000563689973205328
1783168959574125600,3.49012548828125,0.00022963620722293854,0.0017903479747474194,-0.001784748863428831
1783168959584074800,3.50007470703125,-0.0002569518983364105,0.001919630914926529,-0.0003671315498650074
1783168959594023700,3.510023681640625,-0.00043032318353652954,-0.0003789435140788555,0.0004706992767751217
1783168959604002800,3.5200029296875,-0.0005973149091005325,-0.0004122024402022362,-0.0016481494531035423
1783168959613951700,3.52995166015625,-0.001550726592540741,-0.0023919963277876377,0.0010613505728542805
1783168959623900700,3.539900634765625,0.0005080010741949081,-0.0012708604335784912,-0.0000522085465490818
1783168959633848600,3.5498486328125,-0.0010632649064064026,0.0003291666507720947,-0.0012852521613240242
1783168959643828700,3.559828857421875,0.0006908848881721497,0.002227500546723604,-0.0008570547215640545
1783168959653776600,3.569776611328125,0.0007414855062961578,-0.0004026372916996479,-0.000004576984792947769
1783168959663725600,3.5797255859375,-0.0008705146610736847,-0.0008498183451592922,0.0016171974129974842
1783168959673704700,3.58970458984375,-0.0017738603055477142,0.00041571585461497307,0.0008597942069172859
1783168959683653600,3.599653564453125,0.00015570968389511108,-0.0044503165408968925,0.0009627975523471832
1783168959693602600,3.6096025390625,-0.0008994359523057938,0.0013409936800599098,-0.0006801066920161247
1783168959703550500,3.619550537109375,-0.00008939392864704132,0.0010281424038112164,0.0016923132352530956
1783168959713530600,3.629530517578125,-0.0005666334182024002,0.000832666177302599,0.00011625466868281364
1783168959723478500,3.639478515625,0.0008449796587228775,0.0013254773803055286,-0.0004081469960510731
1783168959733427500,3.649427490234375,-0.0000612940639257431,0.0013185534626245499,0.00024406146258115768
1783168959743404000,3.659404052734375,-0.0009652432054281235,0.00035007577389478683,0.0010761222802102566
1783168959753382700,3.669382568359375,0.0007530283182859421,0.00185875641182065,0.00014854315668344498
1783168959763331800,3.679331787109375,0.00037289224565029144,-0.00155935762450099,0.0008087870664894581
1783168959773280800,3.68928076171875,0.0004232265055179596,0.000865450594574213,-0.0009307893924415112
1783168959783260000,3.699260009765625,-0.0001513417810201645,-0.00028513185679912567,-0.0017540594562888145
1783168959793208800,3.709208740234375,-0.0010746587067842484,-0.0004593026824295521,-0.0011351406574249268
1783168959803156700,3.71915673828125,-0.001352418214082718,-0.0015837508253753185,0.000027396250516176224
1783168959813106000,3.72910595703125,-0.0006658565253019333,0.0015976615250110626,-0.0003076293505728245
1783168959823084800,3.739084716796875,0.001442132517695427,-0.00264572910964489,0.0021640644408762455
1783168959833033700,3.74903369140625,0.0007270742207765579,0.0007599210366606712,0.0024844426661729813
1783168959842982700,3.758982666015625,-0.0023226886987686157,0.0019641127437353134,0.00016043661162257195
1783168959852930800,3.768930908203125,0.0017048101872205734,-0.0037949730176478624,-0.0006140107288956642
1783168959862910700,3.77891064453125,0.0007302314043045044,-0.0007467134855687618,-0.00112488167360425
1783168959872859000,3.78885888671875,-0.0003723185509443283,0.00011721579357981682,0.0006634313613176346
1783168959882807800,3.798807861328125,-0.0005779862403869629,-0.0004875115118920803,-0.0002331905998289585
1783168959892756700,3.8087568359375,-0.0011854525655508041,-0.0001117396168410778,0.0011314130388200283
1783168959902735600,3.818735595703125,-0.00025520846247673035,-0.00009514717385172844,0.00009116251021623611
1783168959912684800,3.828684814453125,0.0018055438995361328,-0.0029548495076596737,0.00021100463345646858
1783168959922634000,3.838634033203125,0.00027029775083065033,0.0004650489427149296,0.0008684713393449783
1783168959932612900,3.84861279296875,0.0007850863039493561,0.0010197851806879044,-0.00023141410201787949
1783168959942561800,3.858561767578125,-0.0012465231120586395,-0.001146954484283924,-0.00013044429942965508
1783168959952510000,3.868510009765625,-0.0006659533828496933,-0.00212300312705338,-0.0007629450410604477
1783168959962459000,3.878458984375,0.0006615221500396729,-0.001298569142818451,-0.0015226108953356743
1783168959972437800,3.888437744140625,0.0008199792355298996,-0.000024512875825166702,-0.00016732793301343918
1783168959982387000,3.898386962890625,-0.0008170399814844131,-0.0009182002395391464,-0.00048031704500317574
1783168959992336000,3.9083359375,-0.0010921433568000793,-0.0003823721781373024,0.0003742915578186512
1783168960002284800,3.918284912109375,0.0015572849661111832,-0.0011977455578744411,0.00015202071517705917
1783168960012263700,3.928263671875,0.0006408914923667908,-0.0006379489786922932,0.0004447023384273052
1783168960022212900,3.938212890625,0.0008157193660736084,-0.00033942190930247307,-0.0007828692905604839
1783168960032160800,3.948160888671875,0.0005837585777044296,-0.00037777144461870193,0.0023359586484730244
1783168960042139600,3.9581396484375,-0.000891583040356636,0.0005681081674993038,-0.001293752808123827
1783168960052088800,3.9680888671875,0.0009473301470279694,-0.001343775074928999,-0.0015954882837831974
1783168960062037800,3.978037841796875,0.0006524119526147842,0.00007553305476903915,0.0006511085666716099
1783168960071987000,3.987987060546875,-0.0008607972413301468,0.0003405176103115082,-0.0014591803774237633
1783168960081965600,3.997965576171875,0.00009715929627418518,0.0010827877558767796,-0.0015171803534030914
1783168960091915000,4.0079150390625,0.0003954339772462845,0.0003794468939304352,-0.00019998103380203247
1783168960101863000,4.01786279296875,-0.0009883008897304535,0.0017982888966798782,-0.00021777581423521042
1783168960111811800,4.027811767578125,-0.0010735224932432175,-0.002757580718025565,0.0013383091427385807
1783168960121791000,4.037791015625,0.0007488541305065155,-0.0008966587483882904,-0.00009183073416352272
1783168960131740000,4.047739990234375,-0.00015795230865478516,0.00109192356467247,-0.0001384359784424305
1783168960141688800,4.057688720703125,-0.0010938122868537903,-0.00028926925733685493,0.0004109269939363003
1783168960151667700,4.067667724609375,-0.00011643208563327789,0.002806389704346657,0.000727843027561903
1783168960161617000,4.077616943359375,-0.0007213763892650604,0.0019916309975087643,-0.0016306983307003975
1783168960171565800,4.08756591796875,0.000612601637840271,0.000674697570502758,0.0007323245517909527
1783168960181513700,4.097513671875,0.000036112964153289795,0.00027415016666054726,-0.00000872742384672165
1783168960191493600,4.10749365234375,0.0005708765238523483,-0.0001266556791961193,0.0019492283463478088
1783168960201441800,4.11744189453125,0.0006621964275836945,0.002206595614552498,0.00034294696524739265
1783168960211390700,4.127390625,-0.00002516619861125946,0.000571148470044136,-0.0009231199510395527
1783168960221339600,4.137339599609375,0.0007845759391784668,-0.0011222371831536293,-0.00003771251067519188
1783168960231318800,4.14731884765625,-0.001119852066040039,-0.0010255645029246807,0.0020041330717504025
1783168960241267700,4.157267822265625,0.00041673704981803894,0.003521463368088007,0.0013031549751758575
1783168960251215600,4.167215576171875,-0.0012365542352199554,0.003076183144003153,-0.0012561427429318428
1783168960261164800,4.177164794921875,-0.00009845755994319916,0.0012573492713272572,-0.00008299993351101875
1783168960271144000,4.18714404296875,0.0008831843733787537,0.0008727884851396084,-0.00036715902388095856
1783168960281092900,4.1970927734375,-0.0010813549160957336,-0.0015807722229510546,0.0009433962404727936
1783168960291041800,4.207041748046875,0.0001644715666770935,0.0009297896176576614,0.0012605786323547363
1783168960301021000,4.21702099609375,0.0006062816828489304,-0.0015137935988605022,0.0003667646087706089
1783168960310969900,4.226969970703125,0.00034156255424022675,-0.0006892788223922253,-0.00011047394946217537
1783168960320918800,4.236918701171875,0.0003076475113630295,-0.001112461555749178,-0.0009315423667430878
1783168960330866700,4.24686669921875,-0.00022125616669654846,-0.0007060631178319454,0.0003981739282608032
1783168960340846800,4.256846923828125,0.0017714109271764755,0.00004052463918924332,-0.00023438548669219017
1783168960350794800,4.266794677734375,0.0011596828699111938,0.0013361526653170586,0.0010348772630095482
1783168960360743700,4.27674365234375,0.0013432670384645462,-0.0004102559760212898,-0.000033441465348005295
1783168960370692600,4.286692626953125,-0.00041255541145801544,0.0013423701748251915,-0.00010721059516072273
1783168960380671700,4.296671630859375,0.00013399869203567505,-0.00006925268098711967,0.0011725770309567451
1783168960390620700,4.30662060546875,-0.00028411857783794403,-0.00040694139897823334,-0.0003757849335670471
1783168960400568800,4.31656884765625,-0.0011470206081867218,-0.00110652856528759,0.0011477330699563026
1783168960410548700,4.326548828125,-0.0011020135134458542,0.0012482386082410812,-0.001432870514690876
1783168960420496600,4.33649658203125,0.0011836066842079163,-0.00012021232396364212,0.0007249522022902966
1783168960430445800,4.34644580078125,0.0006954502314329147,0.001450253650546074,-0.0007206117734313011
1783168960440394800,4.356394775390625,0.0015055984258651733,-0.0003056982532143593,-0.00027381395921111107
1783168960450374000,4.366373779296875,-0.0010984409600496292,0.0011593066155910492,-0.0005095037631690502
1783168960460322800,4.37632275390625,0.0002524498850107193,-0.000030277296900749207,-0.0000093141570687294
1783168960470271700,4.386271728515625,0.00044952332973480225,-0.0020902324467897415,-0.0001672394573688507
1783168960480220000,4.396219970703125,-0.00035970844328403473,0.00009971251711249352,0.0004603019915521145
1783168960490199800,4.40619970703125,0.0010818596929311752,-0.0010768724605441093,0.0011873450130224228
1783168960500147700,4.416147705078125,0.00028847530484199524,-0.0025323007721453905,0.0013239672407507896
1783168960510097000,4.426096923828125,-0.00010434165596961975,0.0027564712800085545,0.0003604358062148094
1783168960520075800,4.43607568359375,-0.0012143366038799286,-0.000986903440207243,0.0010336777195334435
1783168960530024700,4.446024658203125,0.0000019278377294540405,-0.0009237863123416901,-0.00046621495857834816
1783168960539973600,4.4559736328125,0.0015472806990146637,-0.0002515232190489769,0.0011973967775702477
1783168960549921800,4.465921875,0.0009315572679042816,0.004569064360111952,-0.000250830315053463
1783168960559901700,4.475901611328125,0.00008297152817249298,0.00027863169088959694,0.00015586800873279572
1783168960569849900,4.485849853515625,-0.0006765630096197128,0.0015521557070314884,-0.0013227188028395176
1783168960579798800,4.495798828125,-0.00014687329530715942,0.002118376549333334,0.00009338604286313057
1783168960589748000,4.505748046875,-0.0010669957846403122,-0.0025070016272366047,-0.00058785080909729
1783168960599726800,4.515726806640625,0.0006596017628908157,0.0007287506014108658,0.0003994246944785118
1783168960609675800,4.52567578125,0.000016979873180389404,-0.0004603504203259945,0.0007738652639091015
1783168960619625000,4.535625,-0.0001847483217716217,-0.00015087099745869637,-0.0002194656990468502
1783168960629603800,4.545603759765625,-0.0009855609387159348,0.0005362243391573429,0.002077776938676834
1783168960639552800,4.555552734375,0.000766480341553688,-0.0005675884895026684,0.0011622770689427853
1783168960649501000,4.5655009765625,0.00016886740922927856,-0.0005894261412322521,0.001961491536349058
1783168960659449900,4.575449951171875,-0.0013942904770374298,-0.001323495525866747,0.000447350088506937
1783168960669428700,4.5854287109375,0.000719461590051651,0.001864840742200613,-0.0008253748528659344
1783168960679378000,4.5953779296875,0.00009558163583278656,-0.00008239690214395523,-0.000042323488742113113
1783168960689326800,4.605326904296875,-0.0007041655480861664,0.00016181496903300285,0.00046926969662308693
1783168960699274800,4.615274658203125,-0.0008101407438516617,0.00011501740664243698,-0.0010972735472023487
1783168960709254700,4.625254638671875,-0.0020905882120132446,0.0018881498835980892,0.0003546816296875477
1783168960719202800,4.635202880859375,0.0004660561680793762,-0.000274124089628458,0.0008785976096987724
1783168960729151700,4.64515185546875,0.000013317912817001343,-0.0005375109612941742,0.000975270289927721
1783168960739115500,4.655115478515625,0.0015525221824645996,0.000849046278744936,0.0005322890356183052
1783168960749094400,4.665094482421875,0.0003112237900495529,-0.0006758794188499451,-0.0006634700112044811
1783168960759043300,4.675043212890625,0.0004429873079061508,0.0013036788441240788,0.000650312751531601
1783168960768992500,4.684992431640625,-0.002105657011270523,0.003854454029351473,-0.0005174833349883556
1783168960778971400,4.694971435546875,0.0011033322662115097,0.0012513953261077404,0.0011462303809821606
1783168960788920300,4.70492041015625,-0.0013888552784919739,-0.002083415165543556,-0.0005406155250966549
1783168960798868500,4.714868408203125,0.0000293683260679245,-0.00023865699768066406,-0.0011298023164272308
1783168960808817700,4.724817626953125,-0.000014308840036392212,0.0003730710595846176,-0.0011295359581708908
1783168960818796300,4.73479638671875,-0.0011570211499929428,0.0004860670305788517,-0.0002790973521769047
1783168960828745700,4.744745849609375,0.0008520670235157013,-0.001498254481703043,0.0020985729061067104
1783168960838694700,4.754694580078125,-0.0012639760971069336,-0.0003379187546670437,0.001029245089739561
1783168960848643600,4.7646435546875,-0.000384598970413208,-0.0016391393728554249,0.0004745088517665863
1783168960858622500,4.77462255859375,0.00004918687045574188,-0.0006476063281297684,0.0020511350594460964
1783168960868570600,4.784570556640625,-0.00046320632100105286,-0.0005839569494128227,-0.0005662194453179836
1783168960878519600,4.79451953125,0.0019129607826471329,0.00209415378049016,-0.0007407655939459801
1783168960888498400,4.80449853515625,-0.001581372693181038,0.0012709707953035831,-0.0005761822685599327
1783168960898447600,4.814447509765625,-0.0020142365247011185,-0.0025466298684477806,0.0006141304038465023
1783168960908396500,4.824396484375,0.00025557540357112885,-0.0011703083291649818,-0.0004367530345916748
1783168960918345500,4.834345458984375,0.0003304276615381241,-0.0006363620050251484,0.00044037122279405594
1783168960928324400,4.844324462890625,0.0026026368141174316,-0.0017378453630954027,-0.0006965324282646179
1783168960938273500,4.8542734375,0.0016168784350156784,0.0010190196335315704,-0.000157942995429039
1783168960948221400,4.864221435546875,-0.000039074569940567017,-0.0006611687131226063,0.0010106521658599377
1783168960958170400,4.87417041015625,0.0014831125736236572,0.0004315846599638462,0.00029554590582847595
1783168960968149500,4.8841494140625,-0.0017014946788549423,0.0007599527016282082,-0.00044188322499394417
1783168960978098400,4.894098388671875,-0.0022142287343740463,0.0013956893235445023,0.0018812385387718678
1783168960988047600,4.904047607421875,-0.001052025705575943,0.0006031324155628681,-0.00039736228063702583
1783168960998026500,4.914026611328125,-0.0021878667175769806,-0.0016244398429989815,-0.0004321211017668247
1783168961007975700,4.9239755859375,0.0003932695835828781,-0.0000028409995138645172,-0.001162093598395586
1783168961017924600,4.933924560546875,0.0001728050410747528,-0.000603171531111002,-0.001065914984792471
1783168961027872500,4.94387255859375,0.003976862877607346,0.0007491814903914928,-0.0009460723958909512
1783168961037852400,4.953852294921875,0.0009381510317325592,0.00004075095057487488,0.0005625351332128048
1783168961047800600,4.963800537109375,0.0003141723573207855,-0.0012865685857832432,-0.00037969090044498444
1783168961057749500,4.97374951171875,-0.0002560969442129135,-0.00010239379480481148,-0.0009604278020560741
1783168961067698400,4.983698486328125,-0.00021162256598472595,0.0017884508706629276,0.0003964528441429138
1783168961077677600,4.993677490234375,-0.0003105718642473221,-0.000671501737087965,0.0014133010990917683
1783168961087626500,5.00362646484375,-0.0007278900593519211,-0.002010539174079895,0.0015528509393334389
1783168961097574400,5.013574462890625,-0.0022587552666664124,-0.0012106713838875294,0.0007125707343220711
1783168961107523300,5.0235234375,-0.0011287759989500046,-0.0004016030579805374,-0.000858694314956665
1783168961117502500,5.03350244140625,0.000799030065536499,0.0015788418240845203,-0.0015093954280018806
1783168961127451400,5.043451416015625,-0.00006117112934589386,0.0013210475444793701,0.001109824050217867
1783168961137400300,5.053400390625,0.0006980001926422119,0.0024667344987392426,-0.00026932405307888985
1783168961147379500,5.06337939453125,-0.00025487877428531647,-0.0001077437773346901,0.001399679109454155
1783168961157328600,5.07332861328125,-0.00039247237145900726,0.002018547151237726,-0.0015196874737739563
1783168961167277600,5.083277587890625,-0.00089288130402565,0.0013580834493041039,-0.0003577498719096184
1783168961177225500,5.0932255859375,-0.00015299208462238312,0.0014124885201454163,-0.0007548239082098007
1783168961187205600,5.10320556640625,-0.001185765489935875,-0.0010607889853417873,0.0010012644343078136
1783168961197153500,5.113153564453125,-0.00019053183495998383,0.0012069703079760075,0.00021227123215794563
1783168961207102500,5.1231025390625,-0.0011181123554706573,0.0011896598152816296,0.001162753440439701
1783168961217051400,5.133051513671875,-0.0005258936434984207,-0.002285972237586975,0.0013588350266218185
1783168961227030500,5.143030517578125,-0.0006870143115520477,-0.0014111236669123173,0.00023285020142793655
1783168961236979500,5.1529794921875,0.00061773881316185,0.000959351658821106,-0.001302412711083889
1783168961246927600,5.162927734375,-0.00033540651202201843,0.0011476371437311172,-0.00040279701352119446
1783168961256907500,5.172907470703125,-0.001170499250292778,-0.0013368004001677036,-0.0008982960134744644
1783168961266855400,5.18285546875,-0.0003712847828865051,0.0006597712635993958,0.001929448451846838
1783168961276804400,5.192804443359375,-0.0005931202322244644,0.00036680232733488083,-0.0008894964121282101
1783168961286753500,5.20275341796875,-0.0018171090632677078,-0.0011448077857494354,-0.0005225124768912792
1783168961296732400,5.212732421875,0.0009943228214979172,0.0021695122122764587,-0.0014854753389954567
1783168961306681300,5.222681396484375,0.0010209549218416214,0.0016845506615936756,0.0004165545105934143
1783168961316630500,5.232630615234375,0.0013453029096126556,-0.0020931437611579895,-0.000010302290320396423
1783168961326578700,5.24257861328125,-0.0009016059339046478,-0.0002835257910192013,-0.0001485203392803669
1783168961336558600,5.25255859375,0.001649182289838791,0.0005719265900552273,-0.0019505023956298828
1783168961346506500,5.262506591796875,0.0006355829536914825,0.0033317608758807182,-0.00027377577498555183
1783168961356455700,5.27245556640625,0.000972433015704155,0.002283187583088875,0.0009483513422310352
1783168961366434600,5.2824345703125,0.00010184571146965027,0.0004408126696944237,0.0004327632486820221
1783168961376383500,5.292383544921875,0.0007630027830600739,0.0003409348428249359,0.002202486153692007
1783168961386332400,5.30233251953125,0.00004554726183414459,0.00038407836109399796,-0.00005081435665488243
1783168961396280600,5.312280517578125,-0.00005457736551761627,0.0006148475222289562,0.001968665514141321
1783168961406260500,5.322260498046875,0.00009562447667121887,0.0013320366851985455,0.0013952869921922684
1783168961416208400,5.33220849609375,-0.00013901665806770325,-0.0002498445101082325,0.0009476486593484879
1783168961426157600,5.342157470703125,-0.0021206755191087723,-0.001410716213285923,-0.0005455859936773777
1783168961436106500,5.3521064453125,-0.0013890806585550308,-0.0015806590672582388,-0.0001919376663863659
1783168961446085400,5.36208544921875,-0.0014234352856874466,0.0006702449172735214,-0.0006790300831198692
1783168961456034300,5.372034423828125,0.00032049044966697693,0.0009780852124094963,-0.0005523534491658211
1783168961465983500,5.3819833984375,0.0011423416435718536,0.00010083988308906555,0.00006203772500157356
1783168961475931400,5.391931396484375,0.0008418727666139603,-0.0001669921912252903,-0.000525226816534996
1783168961485911600,5.40191162109375,0.0006184335798025131,0.00029666395857930183,-0.0013928846456110477
1783168961495859700,5.411859619140625,-0.000144151970744133,0.0011547724716365337,0.0006704861298203468
1783168961505808600,5.42180859375,0.0005842223763465881,0.000539049506187439,0.0021216426976025105
1783168961515787500,5.43178759765625,-0.0006163902580738068,-0.003557431511580944,0.0013323570601642132
1783168961525736400,5.441736328125,-0.0004773736000061035,-0.001443946734070778,-0.002636285964399576
1783168961535685600,5.451685546875,-0.0003021564334630966,-0.00015689386054873466,-0.000608980655670166
1783168961545633500,5.461633544921875,-0.003222312778234482,-0.0016248279716819525,-0.0001711566001176834
1783168961555613400,5.471613525390625,-0.0020316392183303833,-0.002450646599754691,0.000524547416716814
1783168961565561600,5.4815615234375,0.0008230023086071014,-0.0012250598520040512,0.0005711526609957218
1783168961575510500,5.491510498046875,-0.001236792653799057,-0.0024921968579292297,0.00003974186256527901
1783168961585459500,5.50145947265625,-0.0007773973047733307,-0.000258070882409811,0.00029487302526831627
1783168961595438600,5.5114384765625,0.00042933784425258636,-0.0003648386336863041,-0.001477820798754692
1783168961605387500,5.521387451171875,0.00014890730381011963,-0.0002628397196531296,0.0019885492511093616
1783168961615336400,5.53133642578125,-0.000247785821557045,-0.00024169497191905975,-0.0009707827121019363
1783168961625315300,5.5413154296875,0.00006220676004886627,-0.00002651149407029152,0.0006361682899296284
1783168961635264500,5.551264404296875,0.00029049627482891083,0.0021341564133763313,-0.0003080163151025772
1783168961645212400,5.56121240234375,0.0010486971586942673,0.0013314797542989254,0.0017290357500314713
1783168961655161600,5.57116162109375,0.0005820654332637787,0.0013639824464917183,-0.0019943108782172203
1783168961665140500,5.581140380859375,-0.0005766749382019043,0.00011123158037662506,0.0007434189319610596
1783168961675089700,5.591089599609375,0.0003609172999858856,-0.0013859081082046032,-0.0005373465828597546
1783168961685038600,5.60103857421875,-0.0007490888237953186,0.0015054862014949322,-0.0018401648849248886
1783168961694987500,5.610987548828125,-0.00017459318041801453,-0.0020792479626834393,-0.0004808399826288223
1783168961704966700,5.620966552734375,-0.0009564962238073349,0.000755953136831522,0.00048428960144519806
1783168961714914600,5.63091455078125,0.000940149649977684,0.00016591418534517288,0.00068611279129982
1783168961724863500,5.640863525390625,0.0006599854677915573,0.000888163223862648,0.0010317913256585598
1783168961734842600,5.650842529296875,0.00020662881433963776,-0.0008971616625785828,-0.0006598280742764473
1783168961744801800,5.6608017578125,-0.0010668933391571045,0.0012035397812724113,-0.0007865950465202332
1783168961754750700,5.670750732421875,0.00015898048877716064,0.0013597826473414898,0.0035631994251161814
1783168961764699600,5.68069970703125,-0.0012956392019987106,0.00020370446145534515,0.000075523741543293
1783168961774678800,5.6906787109375,-0.001333434134721756,0.0002395622432231903,0.00062232231721282
1783168961784627700,5.700627685546875,0.0003094710409641266,0.0044468240812420845,-0.0005992697551846504
1783168961794575600,5.71057568359375,0.002766842022538185,0.0018949275836348534,0.0021227854304015636
1783168961804524500,5.720524658203125,-0.0003439970314502716,-0.00020177895203232765,-0.0019553126767277718
1783168961814503700,5.730503662109375,-0.0008964464068412781,-0.0012740492820739746,0.0005217837169766426
1783168961824452600,5.74045263671875,-0.0010852646082639694,0.0005371668376028538,-0.000667051412165165
1783168961834401500,5.750401611328125,0.0006444714963436127,-0.0011060554534196854,0.00003102002665400505
1783168961844350500,5.7603505859375,-0.001050896942615509,0.0003749281167984009,-0.0004664584994316101
1783168961854329600,5.77032958984375,0.00023839622735977173,0.0017665689811110497,0.0021828212775290012
1783168961864278500,5.780278564453125,-0.001026339828968048,-0.0006838059052824974,-0.0008079088293015957
1783168961874226700,5.790226806640625,-0.00023020058870315552,0.0006418162956833839,-0.0006037787534296513
1783168961884205600,5.80020556640625,0.0018289554864168167,0.0004053274169564247,-0.0014962037093937397
1783168961894154800,5.81015478515625,-0.0003644414246082306,0.00023405952379107475,0.000786112155765295
1783168961904103700,5.820103759765625,0.0008896403014659882,-0.0022267012391239405,0.002025813329964876
1783168961914052600,5.830052490234375,-0.0008534956723451614,-0.00041443994268774986,0.001359015703201294
1783168961924031700,5.84003173828125,0.0007052533328533173,0.00034828949719667435,0.0009523509070277214
1783168961933980700,5.849980712890625,-0.000024663284420967102,0.0009768856689333916,-0.0012352499179542065
1783168961943928800,5.8599287109375,0.0007694922387599945,-0.0005453769117593765,0.0012388271279633045
1783168961953877800,5.869877685546875,0.0010480452328920364,0.000896720215678215,0.001321472693234682
1783168961963856600,5.879856689453125,0.000550566241145134,0.0004543690010905266,0.0002048090100288391
1783168961973805600,5.8898056640625,-0.0010216236114501953,-0.0005157948471605778,-0.0002874452620744705
1783168961983754800,5.899754638671875,0.0005427170544862747,0.0031340676359832287,-0.0028861574828624725
1783168961993733600,5.909733642578125,-0.0007538441568613052,0.0010786191560328007,-0.000002734363079071045
1783168962003682600,5.9196826171875,0.0014706943184137344,-0.0005022333934903145,0.002118473406881094
1783168962013631500,5.929631591796875,-0.0008212979882955551,-0.0026534232310950756,0.000483666080981493
1783168962023579600,5.93957958984375,0.00007352419197559357,0.0023708962835371494,0.0005475818179547787
1783168962033559600,5.9495595703125,0.0002730339765548706,-0.0016862996853888035,-0.0002734474837779999
1783168962043507500,5.959507568359375,0.00023788027465343475,-0.0017544764559715986,-0.00022204872220754623
1783168962053457000,5.969456787109375,-0.0005546603351831436,0.0014655562117695808,-0.001731513999402523
1783168962063405800,5.97940576171875,0.0009367093443870544,0.0005156067200005054,0.00004934193566441536
1783168962073384700,5.989384765625,0.00023913010954856873,0.0008155168034136295,0.0010225805453956127
1783168962083333600,5.999333740234375,-0.0009643528610467911,-0.0011171391233801842,0.0021661422215402126
1783168962093281800,6.00928173828125,-0.0009724050760269165,-0.0005553239025175571,0.0009823967702686787
1783168962103261700,6.01926171875,-0.0010224729776382446,0.0011959709227085114,-0.0010442687198519707
1783168962113209600,6.029209716796875,0.00025058723986148834,0.003205114509910345,-0.003300301730632782
1783168962123158800,6.03915869140625,-0.0006530247628688812,0.0011507514864206314,-0.002961014397442341
1783168962133107700,6.049107666015625,-0.000481555238366127,0.000535997562110424,0.0010537453927099705
1783168962143086600,6.059086669921875,0.0005395002663135529,0.0009794137440621853,-0.002316218800842762
1783168962153035500,6.069035400390625,0.0015385113656520844,0.0015025576576590538,-0.00016924366354942322
1783168962162984700,6.078984619140625,-0.0005757715553045273,0.0013193325139582157,-0.00018602190539240837
1783168962172932600,6.0889326171875,0.00040174275636672974,0.0004415372386574745,0.001015535555779934
1783168962182912500,6.09891259765625,0.0004779081791639328,0.0007462031207978725,0.00017797155305743217
1783168962192860700,6.108860595703125,0.000786053016781807,-0.0003451942466199398,-0.0007008817046880722
1783168962202809600,6.1188095703125,0.00032399408519268036,-0.0010852864943444729,-0.0002334965392947197
1783168962212758800,6.1287587890625,0.0007534977048635483,0.0002428470179438591,-0.0012334566563367844
1783168962222737700,6.138737548828125,-0.0006667673587799072,0.00043459469452500343,-0.000490434467792511
1783168962232686800,6.148686767578125,-0.0008159354329109192,-0.00002114754170179367,0.00012544868513941765
1783168962242634800,6.158634765625,-0.00021965429186820984,0.00114531721919775,-0.0013512740842998028
1783168962252614700,6.16861474609375,-0.0014529097825288773,-0.002706806641072035,0.0005143620073795319
1783168962262562800,6.178562744140625,-0.00024117156863212585,-0.0028759173583239317,-0.0014949934557080269
1783168962272511700,6.18851171875,-0.0007527396082878113,-0.0005392846651375294,0.0011911168694496155
1783168962282460700,6.198460693359375,0.000394551083445549,-0.0012620664201676846,0.00040282122790813446
1783168962292439800,6.208439697265625,0.0004296582192182541,-0.0010345261543989182,0.0012182383798062801
1783168962302388700,6.218388671875,0.0002498943358659744,0.0010837521404027939,-0.0003716684877872467
1783168962312337700,6.228337646484375,-0.000813039019703865,0.0004862244240939617,0.0005562519654631615
1783168962322285600,6.23828564453125,-0.001135013997554779,0.00021351687610149384,0.0010025976225733757
1783168962332265700,6.248265625,-0.0007193461060523987,-0.0012523522600531578,0.0001383456401526928
1783168962342213600,6.258213623046875,0.0006551109254360199,-0.00038815662264823914,-0.0008092070929706097
1783168962352162600,6.26816259765625,-0.0016688145697116852,0.000751027837395668,-0.0010728309862315655
1783168962362141700,6.2781416015625,-0.0006379056721925735,-0.000025816261768341064,-0.0008536526001989841
1783168962372090600,6.288090576171875,0.0010009221732616425,-0.0017516142688691616,-0.00004530511796474457
1783168962382039800,6.298039794921875,0.0004688221961259842,-0.0007017962634563446,0.0014343471266329288
1783168962391987500,6.307987548828125,0.000903446227312088,0.0004910328425467014,-0.0016856933943927288
1783168962401967900,6.3179677734375,0.0009223539382219315,0.0008779899217188358,-0.00011389562860131264
1783168962411915800,6.327915771484375,0.0006505195051431656,0.00032957177609205246,-0.0019751028157770634
1783168962421864700,6.33786474609375,-0.0004757307469844818,-0.00002835690975189209,-0.0006917254067957401
1783168962431813600,6.347813720703125,-0.001061873510479927,0.00006656814366579056,-0.000135157722979784
1783168962441792800,6.357792724609375,-0.0008805133402347565,-0.0000897594727575779,0.0020680753514170647
1783168962451741700,6.36774169921875,0.0005197394639253616,-0.00040392763912677765,0.0010398123413324356
1783168962461690600,6.377690673828125,0.0002749953418970108,0.0014504315331578255,-0.0017373324371874332
1783168962471669800,6.387669677734375,-0.0018409155309200287,0.003273861948400736,0.000973209273070097
1783168962481618700,6.39761865234375,-0.0020744744688272476,0.0009329435415565968,-0.001929369755089283
1783168962491566600,6.407566650390625,-0.0007617268711328506,-0.0017928248271346092,-0.0009211180731654167
1783168962501515500,6.417515625,-0.0018171370029449463,0.0000809752382338047,0.00031884992495179176
1783168962511494700,6.42749462890625,0.0005632229149341583,-0.0011053290218114853,0.0002273842692375183
1783168962521443600,6.437443603515625,-0.0009989887475967407,0.0011530318297445774,0.0007666745223104954
1783168962531392500,6.447392578125,-0.00012187846004962921,0.0006192517466843128,-0.00035200780257582664
1783168962541341700,6.457341796875,0.0017433986067771912,0.0003004712052643299,-0.00015759700909256935
1783168962551320800,6.46732080078125,-0.0001764930784702301,0.0002011568285524845,0.000033387914299964905
1783168962561268500,6.4772685546875,-0.0005490686744451523,0.0011108927428722382,0.0016789552755653858
1783168962571217700,6.4872177734375,-0.00018966756761074066,0.0009794924408197403,-0.0018168655224144459
1783168962581166800,6.497166748046875,0.0015853289514780045,0.0011826916597783566,0.0020814696326851845
1783168962591145700,6.507145751953125,0.001266632229089737,-0.0003716498613357544,0.0006366115994751453
1783168962601094700,6.5170947265625,-0.00003698468208312988,0.0020893774926662445,-0.00014555873349308968
1783168962611043600,6.527043701171875,0.00020427070558071136,0.0012917635031044483,-0.0002862955443561077
1783168962621022700,6.537022705078125,0.0003004111349582672,0.0009729834273457527,-0.00045567238703370094
1783168962630971600,6.5469716796875,-0.0005648173391819,-0.00008466048166155815,-0.00003006448969244957
1783168962640919800,6.556919921875,-0.0015925318002700806,-0.0015805577859282494,0.0008865958079695702
1783168962650868700,6.56686865234375,0.00037164054811000824,0.00017480691894888878,-0.002598932944238186
1783168962660847600,6.57684765625,-0.0009889677166938782,-0.0010968525893986225,0.0012954077683389187
1783168962670796500,6.586796630859375,-0.00014197640120983124,0.000451031606644392,0.0007048388943076134
1783168962680745700,6.596745849609375,-0.0007222797721624374,-0.0009511224925518036,0.000479268841445446
1783168962690694700,6.606694580078125,-0.0019691437482833862,0.0014339322224259377,0.0001888764090836048
1783168962700673500,6.616673583984375,-0.00017577223479747772,-0.00044785765931010246,0.0009031360968947411
1783168962710622700,6.626622802734375,0.0009212028235197067,0.0004531233571469784,0.00023751379922032356
1783168962720570600,6.636570556640625,-0.0003456622362136841,0.001299209427088499,-0.0005254815332591534
1783168962730549500,6.646549560546875,-0.0008678454905748367,-0.00009526032954454422,-0.0014581400901079178
1783168962740544500,6.65654443359375,0.00012391619384288788,0.0006016888655722141,-0.0012903613969683647
1783168962750493400,6.666493408203125,0.00016314908862113953,-0.000197545625269413,-0.0009292922914028168
1783168962760442400,6.6764423828125,-0.0012821480631828308,0.0007465449161827564,0.00006246892735362053
1783168962770421500,6.68642138671875,0.0005363877862691879,0.0008911639451980591,-0.000807387288659811
1783168962780370400,6.696370361328125,0.0007430482655763626,-0.0013661314733326435,-0.000053180381655693054
1783168962790318600,6.706318603515625,-0.0011560618877410889,-0.0008415570482611656,-0.0006460901349782944
1783168962800267500,6.716267578125,-0.0006457995623350143,0.0005376939661800861,-0.0002186531201004982
1783168962810246400,6.726246337890625,-0.0008346922695636749,0.0018273633904755116,0.0013851956464350224
1783168962820195300,6.7361953125,-0.00015931390225887299,-0.0003633527085185051,-0.00003586709499359131
1783168962830144800,6.746144775390625,0.0003412291407585144,0.0008047251030802727,0.0010466217063367367
1783168962840123600,6.75612353515625,0.0019929204136133194,-0.00019129738211631775,0.00017576804384589195
1783168962850072600,6.766072509765625,0.0024253427982330322,0.00013622501865029335,-0.0003559086471796036
1783168962860021500,6.776021484375,0.0019731372594833374,0.0004869634285569191,-0.0019237115047872066
1783168962869969700,6.7859697265625,0.00165661983191967,0.00028872257098555565,-0.0007596551440656185
1783168962879949600,6.795949462890625,0.0026595667004585266,-0.0025227766018360853,0.0005130693316459656
1783168962889897500,6.8058974609375,0.0011962279677391052,0.0002506510354578495,0.0011314107105135918
1783168962899846700,6.8158466796875,-0.000750809907913208,0.00006316462531685829,0.0002368548884987831
1783168962909795600,6.825795654296875,0.0017510149627923965,-0.000801378395408392,-0.0004893578588962555
1783168962919774500,6.8357744140625,0.00030891411006450653,-0.001100984402000904,0.0006853626109659672
1783168962929723400,6.845723388671875,0.0027844365686178207,0.0012981039471924305,-0.002863640431314707
1783168962939671600,6.855671630859375,0.0021665822714567184,-0.0011400198563933372,-0.00036666030064225197
1783168962949620500,6.865620361328125,0.006096206605434418,0.0029169884510338306,-0.0014282409101724625
1783168962959599600,6.875599609375,0.009491205215454102,0.00006154738366603851,-0.0018250523135066032
1783168962969548500,6.885548583984375,0.007844248786568642,0.0006316876970231533,-0.00016988441348075867
1783168962979497500,6.89549755859375,0.00560559518635273,-0.0004231906495988369,-0.00005377084016799927
1783168962989476400,6.905476318359375,0.00045072101056575775,0.00048411497846245766,-0.0009134500287473202
1783168962999425500,6.915425537109375,-0.004552558064460754,-0.0026967646554112434,-0.002500427421182394
1783168963009374700,6.925374755859375,-0.010035818442702293,0.0009978474117815495,-0.000455586239695549
1783168963019322600,6.935322509765625,-0.009710913524031639,-0.0025747832842171192,-0.0016337684355676174
1783168963029302500,6.945302490234375,-0.009692519903182983,-0.0015186653472483158,0.0009295828640460968
1783168963039250700,6.955250732421875,-0.005474871024489403,-0.0014201286248862743,-0.000994284637272358
1783168963049199600,6.96519970703125,-0.0010499786585569382,-0.0028505201917141676,-0.0005580023862421513
1783168963059148500,6.9751484375,0.004540262743830681,0.00007309811189770699,0.00021964078769087791
1783168963069127700,6.985127685546875,0.0074747297912836075,0.0003600511699914932,0.001535523682832718
1783168963079076600,6.99507666015625,0.008324278518557549,0.002032516524195671,0.0001751808449625969
1783168963089024500,7.0050244140625,0.005270082503557205,-0.0005915532819926739,0.0008364766836166382
1783168963099004400,7.01500439453125,0.0016569700092077255,-0.0006626597605645657,-0.00012119626626372337
1783168963108952600,7.02495263671875,-0.000951400026679039,-0.0022536064498126507,-0.00035463832318782806
1783168963118901500,7.034901611328125,-0.0015993472188711166,-0.0002112281508743763,0.0010075685568153858
1783168963128850400,7.044850341796875,-0.0028829071670770645,-0.0011911983601748943,-0.0015116995200514793
1783168963138829600,7.05482958984375,-0.0017966032028198242,-0.0004753405228257179,-0.000254687387496233
1783168963148778500,7.064778564453125,0.00008987449109554291,0.0010614683851599693,0.00041221780702471733
1783168963158727700,7.074727783203125,0.0031277425587177277,0.0012915655970573425,0.0006002369336783886
1783168963168675600,7.084675537109375,0.005137734115123749,0.002580896019935608,-0.0016307630576193333
1783168963178655700,7.09465576171875,0.0021243691444396973,0.00036168377846479416,0.0006901822052896023
1783168963188603600,7.104603759765625,0.002530781552195549,0.0009849653579294682,0.0002897246740758419
1783168963198552600,7.114552490234375,-0.0006162766367197037,0.001037962269037962,-0.0014051105827093124
1783168963208531700,7.12453173828125,-0.0021696332842111588,-0.00034164683893322945,0.0013003810308873653
1783168963218480600,7.134480712890625,-0.0026817582547664642,0.0007728859782218933,0.0001453678123652935
1783168963228429600,7.1444296875,-0.0026824548840522766,0.00019416166469454765,0.001443503424525261
1783168963238377500,7.15437744140625,-0.002617206424474716,0.0010828585363924503,0.0014336495660245419
1783168963248357600,7.164357666015625,-0.002764662727713585,-0.0010477406904101372,-0.0017237463034689426
1783168963258305500,7.174305419921875,-0.001792876049876213,-0.00016170693561434746,0.001038750633597374
1783168963268254500,7.18425439453125,0.0012448672205209732,0.0015387991443276405,-0.00030625611543655396
1783168963278203400,7.194203369140625,0.0008009187877178192,0.0005813930183649063,0.002307369839400053
1783168963288182500,7.2041826171875,-0.0004215538501739502,0.0011049499735236168,0.0005278559401631355
1783168963298131500,7.21413134765625,0.0010732784867286682,-0.0002471371553838253,-0.000024483539164066315
1783168963308080400,7.224080322265625,0.0006122849881649017,0.00003620516508817673,-0.001493076328188181
1783168963318028500,7.234028564453125,0.0019470620900392532,-0.0027547874487936497,0.00040788762271404266
1783168963328008700,7.2440087890625,0.0018450748175382614,-0.0007310402579605579,-0.0005228035151958466
1783168963337956600,7.25395654296875,0.000012820586562156677,0.0008130604401230812,-0.0008634221740067005
1783168963347905500,7.263905517578125,0.0024882983416318893,-0.0006564115174114704,0.0005652741529047489
1783168963357884700,7.273884765625,0.0005093030631542206,0.000038140919059515,-0.0020219869911670685
1783168963367833600,7.28383349609375,0.0024643875658512115,-0.0003908006474375725,0.0014557931572198868
1783168963377782500,7.293782470703125,0.00042413920164108276,0.0015418552793562412,-0.00016846880316734314
1783168963387731500,7.3037314453125,-0.00035803206264972687,0.0009116367436945438,-0.0004680571146309376
1783168963397710600,7.313710693359375,0.00018605217337608337,0.001141201239079237,0.0019753933884203434
1783168963407658500,7.323658447265625,-0.000678354874253273,-0.0003148880787193775,-0.0017531951889395714
1783168963417607400,7.333607421875,-0.0012402813881635666,0.0008973828516900539,-0.000020809005945920944
1783168963427556600,7.343556640625,-0.000717872753739357,-0.00042467983439564705,0.0027039269916713238
1783168963437535500,7.353535400390625,0.0008366145193576813,-0.0014614486135542393,0.0009433114901185036
1783168963447484400,7.363484375,-0.000784924253821373,-0.0015699216164648533,0.001086641103029251
1783168963457433300,7.373433349609375,-0.0013354010879993439,0.00004768231883645058,-0.0011024768464267254
1783168963467412500,7.38341259765625,-0.0007394347339868546,0.000943284947425127,-0.0000336281955242157
1783168963477361400,7.393361328125,-0.00016312673687934875,-0.00001971377059817314,0.0006926157511770725
1783168963487309600,7.4033095703125,-0.002539442852139473,0.002589993644505739,-0.001165150199085474
1783168963497258800,7.4132587890625,-0.0020914990454912186,-0.00019380822777748108,0.0005171685479581356
1783168963507237400,7.4232373046875,-0.0007338188588619232,0.00040970370173454285,0.0005961069837212563
1783168963517186600,7.4331865234375,0.000795900821685791,0.00017747608944773674,0.0007697450928390026
1783168963527135500,7.443135498046875,0.0000065658241510391235,0.002039292361587286,-0.00044351210817694664
1783168963537084700,7.453084716796875,0.00004784576594829559,-0.00022892188280820847,0.001992214936763048
1783168963547063600,7.4630634765625,-0.000588906928896904,-0.0018750156741589308,-0.0009100679308176041
1783168963557012500,7.473012451171875,0.0023256558924913406,0.0017940211109817028,0.000399142038077116
1783168963566960600,7.482960693359375,0.0014143027365207672,-0.0000888635404407978,0.001823054626584053
1783168963576939500,7.492939453125,0.0014800820499658585,-0.00010936986654996872,-0.001780734397470951
1783168963586888400,7.502888427734375,-0.0010754317045211792,0.0002618408761918545,-0.0014823772944509983
1783168963596837600,7.512837646484375,0.0001445617526769638,0.0012906198389828205,-0.0016735917888581753
1783168963606786600,7.52278662109375,0.0007983669638633728,-0.0014343657530844212,-0.0007503209635615349
1783168963616765400,7.532765380859375,-0.0009262952953577042,-0.0013627265579998493,-0.0011418061330914497
1783168963626714400,7.54271435546875,-0.0016682390123605728,-0.000556678045541048,0.0009501893073320389
1783168963636662500,7.55266259765625,-0.00018485821783542633,0.00325350696220994,-0.002513251733034849
1783168963646611500,7.562611572265625,-0.0003217756748199463,-0.0014579319395124912,0.0009730285964906216
1783168963656590300,7.57259033203125,-0.00025892630219459534,0.001699245534837246,-0.0003431057557463646
1783168963666539500,7.58253955078125,-0.0004988573491573334,0.00119490223005414,-0.0009385994635522366
1783168963676488700,7.59248876953125,-0.0002210903912782669,-0.001683974638581276,-0.0015327506698668003
1783168963686437600,7.602437744140625,-0.0010052211582660675,-0.003201873507350683,0.001363412942737341
1783168963696416500,7.61241650390625,0.00013008341193199158,0.001019769348204136,-0.0015934952534735203
1783168963706365700,7.62236572265625,-0.0003773830831050873,0.0017487085424363613,0.00017420807853341103
1783168963716313600,7.632313720703125,-0.0015992429107427597,0.0017098267562687397,-0.0013405978679656982
1783168963726293500,7.64229345703125,-0.0007932204753160477,-0.0004155496135354042,-0.00022884225472807884
1783168963736241700,7.65224169921875,0.0005918890237808228,-0.00004190811887383461,0.0018588094972074032
1783168963746198500,7.662198486328125,-0.0015681535005569458,0.001225458923727274,-0.000264911912381649
1783168963756148000,7.67214794921875,-0.0010943766683340073,0.0012512914836406708,-0.00085799815133214
1783168963766126800,7.682126953125,0.00020374730229377747,0.0011491989716887474,-0.0003758454695343971
1783168963776075800,7.69207568359375,0.00048178061842918396,0.0007574479095637798,-0.00001045968383550644
1783168963786024000,7.70202392578125,0.001284359022974968,-0.0023254146799445152,-0.0002494463697075844
1783168963795972900,7.711972900390625,0.0019283108413219452,0.00037449784576892853,-0.0003013778477907181
1783168963805951700,7.72195166015625,0.0015465430915355682,0.0001980820670723915,-0.0014579417183995247
1783168963815901000,7.73190087890625,0.0007025860249996185,0.0017195460386574268,-0.0005593909882009029
1783168963825849900,7.741849853515625,-0.0005407519638538361,-0.0005796477198600769,0.001686618197709322
1783168963835828700,7.751828857421875,-0.001179378479719162,-0.00047525204718112946,0.0020804996602237225
1783168963845777700,7.761777587890625,-0.00023723207414150238,0.00085786497220397,0.00020274845883250237
1783168963855726600,7.7717265625,-0.00005294196307659149,0.00036384863778948784,-0.0011213747784495354
1783168963865674800,7.7816748046875,0.0008287373930215836,0.0005892524495720863,-0.0003219940699636936
1783168963875654700,7.791654541015625,0.00003112107515335083,0.0001887129619717598,0.001430366188287735
1783168963885602800,7.801602783203125,-0.00024192407727241516,-0.001798577606678009,-0.0013995594345033169
1783168963895551700,7.8115517578125,0.000025989487767219543,-0.00009468710049986839,0.0020095529034733772
1783168963905500700,7.821500732421875,-0.00011354126036167145,0.0002085631713271141,0.00029517337679862976
1783168963915479600,7.8314794921875,-0.00048025883734226227,0.0010581114329397678,0.00019850069656968117
1783168963925429000,7.841428955078125,-0.002071494236588478,-0.0003711399622261524,0.00012167403474450111
1783168963935376600,7.851376708984375,-0.002159643918275833,0.0014832192100584507,-0.0006804699078202248
1783168963945356800,7.861356689453125,-0.0015616696327924728,0.00026338454335927963,0.001994103193283081
1783168963955305000,7.871304931640625,-0.0008846931159496307,0.0008495463989675045,0.0004183109849691391
1783168963965254000,7.88125390625,0.0005479082465171814,0.0007718200795352459,0.0009818850085139275
1783168963975202800,7.891202880859375,0.0010571051388978958,-0.0002726716920733452,-0.0008146832697093487
1783168963985181700,7.901181640625,0.00020546838641166687,-0.0006875824183225632,-0.0005535981617867947
1783168963995131000,7.911130859375,0.0004478171467781067,-0.0027094543911516666,-0.00038049276918172836
1783168964005079800,7.921079833984375,0.0006925426423549652,0.0008073262870311737,-0.001514633186161518
1783168964015027700,7.93102783203125,0.0011114571243524551,0.0007348884828388691,-0.0013710884377360344
1783168964025007600,7.941007568359375,-0.00016522221267223358,0.00039911409839987755,-0.0005630115047097206
1783168964034955800,7.950955810546875,-0.0011505912989377975,0.0009346758015453815,-0.00003410782665014267
1783168964044904700,7.96090478515625,-0.0008027683943510056,-0.00053425133228302,-0.0003786222077906132
1783168964054853600,7.970853515625,-0.001880016177892685,0.0014649834483861923,-0.0013426858931779861
1783168964064832800,7.980832763671875,0.0006430204957723618,-0.0003422400914132595,0.00010419962927699089
1783168964074781700,7.99078173828125,-0.0009098686277866364,-0.0013433219864964485,0.0009414972737431526
1783168964084729600,8.0007294921875,0.000008231028914451599,-0.0001771003007888794,0.0005246121436357498
1783168964094709800,8.010709716796875,0.0016415491700172424,-0.0012157331220805645,0.0008079726248979568
1783168964104657700,8.02065771484375,-0.0005956366658210754,-0.0005593383684754372,-0.00038751401007175446
1783168964114606800,8.03060693359375,0.0007745604962110519,0.00029926467686891556,-0.000718011986464262
1783168964124555800,8.0405556640625,-0.00069478340446949,-0.0014125625602900982,-0.0007173102349042892
1783168964134535000,8.050534912109375,-0.0008561704307794571,0.0022258483804762363,-0.0002384735271334648
1783168964144483800,8.06048388671875,-0.0005714576691389084,0.00030746404081583023,0.00010381825268268585
1783168964154432800,8.070432861328126,-0.0005663968622684479,0.0002174493856728077,-0.0003925953060388565
1783168964164380700,8.080380615234375,-0.00039451010525226593,-0.0006032353267073631,0.0006944243796169758
1783168964174360800,8.09036083984375,0.0003860611468553543,0.001253254245966673,-0.0013753841631114483
1783168964184308700,8.100308837890625,0.001226808875799179,0.001375014428049326,0.0016217208467423916
1783168964194257700,8.110257568359375,0.0020103100687265396,-0.0008295504376292229,0.0012850970961153507
1783168964204236800,8.12023681640625,0.0015251785516738892,-0.000044936779886484146,0.0013856710866093636
1783168964214185700,8.130185791015625,-0.00016406364738941193,0.0023457827046513557,-0.00020104041323065758
1783168964224134700,8.140134765625,-0.0005718190222978592,0.0003225654363632202,-0.00029310816898941994
1783168964234082800,8.150082763671875,-0.00007141008973121643,-0.0017392539884895086,-0.0003863191232085228
1783168964244062700,8.160062744140625,-0.0007554925978183746,0.002178066410124302,0.00013573653995990753
1783168964254010600,8.1700107421875,-0.00096854567527771,0.0006270413286983967,-0.0007716026157140732
1783168964263959600,8.17995947265625,0.0001059994101524353,0.0000216546468436718,0.0006353994831442833
1783168964273908700,8.18990869140625,-0.00010465644299983978,-0.0014345617964863777,-0.001668234821408987
1783168964283887900,8.199887939453125,-0.0010084416717290878,0.0005184798501431942,-0.00004849489778280258
1783168964293836800,8.2098369140625,0.0004855915904045105,-0.0013076500035822392,0.0015131826512515545
1783168964303785700,8.21978564453125,0.0013980735093355179,0.0004404941573739052,-0.00007530488073825836
1783168964313764900,8.229764892578125,0.0004696957767009735,0.0006056101992726326,-0.001189304981380701
1783168964323713800,8.2397138671875,-0.0006864406168460846,-0.0007408303208649158,0.001681043766438961
1783168964333661700,8.24966162109375,-0.0005375705659389496,-0.002471352694556117,-0.0006721257232129574
1783168964343611000,8.25961083984375,0.0006564706563949585,-0.0010551093146204948,0.0006754938513040543
1783168964353589800,8.26958984375,-0.0018993653357028961,-0.001348057296127081,-0.000821202527731657
1783168964363538700,8.27953857421875,0.0008531119674444199,0.0007572644390165806,0.0014959522522985935
1783168964373487600,8.289487548828125,-0.00032507069408893585,-0.0016648804303258657,0.000599532388150692
1783168964383436800,8.299436767578126,0.0002748575061559677,-0.0022593752946704626,-0.00041499780490994453
1783168964393415700,8.309415771484375,0.002100454643368721,0.001477306243032217,0.0007147151045501232
1783168964403364600,8.319364501953125,0.00033292733132839203,0.0012793755158782005,-0.0016370858065783978
1783168964413312800,8.329312744140625,-0.00010729394853115082,0.00012516183778643608,0.0005517657846212387
1783168964423261700,8.33926171875,-0.0010441932827234268,-0.0008366457186639309,0.00012010009959340096
1783168964433240600,8.349240478515625,0.0010285452008247375,-0.001624941360205412,0.00020319083705544472
1783168964443189800,8.359189697265625,-0.000759318470954895,0.0007060258649289608,-0.000541826244443655
1783168964453139000,8.369138916015626,-0.0007566548883914948,0.001733207143843174,0.0002781609073281288
1783168964463117800,8.379117919921875,-0.0006440170109272003,-0.0006858920678496361,0.00044919317588210106
1783168964473066800,8.389066650390625,0.0006609316915273666,-0.0009082658216357231,0.00099886953830719
1783168964483015000,8.399014892578125,0.00010590627789497375,-0.00046318722888827324,0.0009062178432941437
1783168964492963800,8.4089638671875,0.002125116065144539,0.00023615872487425804,-0.0018679965287446976
1783168964502942700,8.418942626953125,-0.0006507635116577148,0.0013309530913829803,-0.00006463564932346344
1783168964512891600,8.4288916015625,0.00023873336613178253,-0.002291745040565729,-0.00021244119852781296
1783168964522840800,8.4388408203125,0.0007795561105012894,0.0007596281357109547,-0.000799588393419981
1783168964532789800,8.448789794921876,-0.0013006385415792465,-0.002886771922931075,-0.00046403007581830025
1783168964542768600,8.4587685546875,0.0009867548942565918,-0.00047880643978714943,-0.00011061597615480423
1783168964552717600,8.468717529296875,-0.00025321170687675476,-0.0014718989841639996,-0.0027918866835534573
1783168964562665700,8.478665771484375,-0.0009094756096601486,-0.0009421287104487419,0.00008247653022408485
1783168964572645600,8.488645751953126,0.0003025289624929428,-0.0004893913865089417,0.00197838107123971
1783168964582593800,8.49859375,-0.0004912074655294418,-0.0016830614767968655,0.0018625273369252682
1783168964592542700,8.508542724609375,-0.0003644414246082306,-0.001802637241780758,0.0006214943714439869
1783168964602492000,8.518491943359376,0.0005462076514959335,0.0016430793330073357,0.0008728094398975372
1783168964612470800,8.528470703125,-0.000039687380194664,-0.0004584207199513912,0.00044963322579860687
1783168964622419700,8.538419677734375,-0.0003835223615169525,0.0006945026107132435,0.0003285137936472893
1783168964632367900,8.548367919921875,-0.0004626177251338959,-0.00022801663726568222,0.0020292080007493496
1783168964642316800,8.55831689453125,0.0006440859287977219,0.0011292099952697754,0.0002028229646384716
1783168964652296000,8.5682958984375,-0.0008185207843780518,-0.0026993504725396633,0.000641711987555027
1783168964662244900,8.578244873046875,-0.00048590078949928284,-0.0009330147877335548,-0.0010779555886983871
1783168964672193800,8.58819384765625,-0.000031031668186187744,-0.0003870665095746517,-0.00020550424233078957
1783168964682172700,8.598172607421875,0.0013022106140851974,0.0010937373153865337,-0.002314401790499687
1783168964692121900,8.608121826171875,-0.0009220615029335022,0.0007296833209693432,-0.00011649448424577713
1783168964702070800,8.61807080078125,0.001519249752163887,0.0006840243004262447,0.00309021957218647
1783168964712018700,8.628018798828125,-0.000008072704076766968,0.000012108590453863144,0.00043691229075193405
1783168964721998600,8.63799853515625,0.0007263254374265671,-0.0005718665197491646,0.00227150646969676
1783168964731946800,8.64794677734375,-0.000983957201242447,0.00040711136534810066,-0.00005929218605160713
1783168964741924400,8.65792431640625,-0.0010668933391571045,0.0003346349112689495,-0.0016728718765079975
1783168964751873300,8.667873291015624,0.00173288956284523,-0.0005260985344648361,0.00007575983181595802
1783168964761852200,8.67785205078125,0.0007321257144212723,-0.002621975028887391,0.00048595061525702477
1783168964771801300,8.68780126953125,0.0016208216547966003,0.0002760766074061394,-0.00005973083898425102
1783168964781749200,8.697749267578125,0.0005248542875051498,0.0008226572535932064,-0.000432091299444437
1783168964791698200,8.7076982421875,-0.0004876796156167984,-0.0013880329206585884,0.0006715226918458939
1783168964801677300,8.71767724609375,-0.00022114813327789307,-0.0010181721299886703,0.0000523650087416172
1783168964811626200,8.727626220703126,-0.001009443774819374,0.0011602938175201416,0.0004800683818757534
1783168964821575200,8.7375751953125,0.00028665922582149506,-0.0007140119560062885,-0.0005928655155003071
1783168964831554000,8.747553955078125,-0.0020731687545776367,-0.0012716781347990036,0.0011411183513700962
1783168964841503200,8.757503173828125,0.0008858982473611832,-0.000306157860904932,-0.0015005017630755901
1783168964851452400,8.767452392578125,0.0006030704826116562,-0.002352264476940036,-0.0019431193359196186
1783168964861400300,8.777400390625,0.00033180229365825653,-0.0010128999128937721,-0.00024230964481830597
1783168964871380200,8.787380126953124,-0.000597907230257988,-0.0021918814163655043,-0.00023511936888098717
1783168964881328400,8.797328369140626,-0.000685565173625946,0.002160754520446062,0.0006125578656792641
1783168964891277300,8.80727734375,0.00005852244794368744,0.0009042751044034958,-0.001949668861925602
1783168964901226200,8.817226318359374,-0.00029467232525348663,0.00116721261292696,0.0011761351488530636
1783168964911205400,8.827205322265625,0.0009271856397390366,-0.0002429313026368618,0.0011463076807558537
1783168964921154300,8.837154296875,-0.0006634891033172607,0.0009568626992404461,0.00019511813297867775
1783168964931102200,8.847102294921875,-0.000009948387742042542,0.0004825536161661148,0.0011317520402371883
1783168964941082000,8.85708203125,-0.0018112100660800934,-0.0004304111935198307,0.000242491252720356
1783168964951030300,8.8670302734375,0.0025358684360980988,0.0027219727635383606,0.0014755348674952984
1783168964960979200,8.876979248046876,0.0012533273547887802,-0.00006058206781744957,0.000783480703830719
1783168964970928000,8.88692822265625,-0.000010875985026359558,-0.0007319650612771511,-0.0006152112036943436
1783168964980907300,8.8969072265625,0.0007780268788337708,0.00014779483899474144,-0.0001092301681637764
1783168964990856200,8.906856201171875,0.0004147719591856003,0.00014273496344685555,0.00017546210438013077
1783168965000805000,8.91680517578125,-0.00021065957844257355,-0.0015364466235041618,0.00008837226778268814
1783168965010753300,8.926753173828125,-0.00009534507989883423,0.0012934282422065735,0.00006573507562279701
1783168965020733400,8.9367333984375,0.0000590495765209198,-0.003449356183409691,0.00036294572055339813
1783168965030681300,8.946681396484376,0.00012882426381111145,0.00021435460075736046,0.00032219942659139633
1783168965040630300,8.95663037109375,-0.0013839639723300934,-0.0006944406777620316,-0.0008085714653134346
1783168965050609400,8.966609375,0.0004605427384376526,-0.000010807067155838013,0.00004816753789782524
1783168965060558300,8.976558349609375,-0.0005723480135202408,-0.0002952306531369686,0.0026079723611474037
1783168965070507300,8.98650732421875,0.00099918432533741,0.0009758961386978626,0.000404206570237875
1783168965080455400,8.996455322265625,-0.00013756565749645233,-0.0012544863857328892,-0.0022657597437500954
1783168965090435300,9.006435302734374,0.0021013524383306503,0.0005628545768558979,-0.0013834545388817787
1783168965100383200,9.01638330078125,0.000904647633433342,0.002179031725972891,0.0022765956819057465
1783168965110332200,9.026332275390626,0.0009227581322193146,-0.0007496466860175133,0.003119485918432474
1783168965120281300,9.03628125,0.0006025210022926331,0.000787773635238409,-0.0002978118136525154
1783168965130260200,9.04626025390625,0.0005740243941545486,-0.00010065687820315361,0.0008137915283441544
1783168965140209200,9.056209228515625,0.0005434975028038025,-0.0008587352931499481,-0.001364370808005333
1783168965150158000,9.066157958984375,0.0013219397515058517,0.002404436469078064,0.0004524379037320614
1783168965160106200,9.076106201171875,0.001634223386645317,0.000019416678696870804,-0.0008943481370806694
1783168965170086100,9.086086181640624,-0.0020531900227069855,-0.00057207141071558,-0.0003894125111401081
1783168965180034000,9.096033935546876,0.000040100887417793274,0.00009907037019729614,-0.00026949262246489525
1783168965189983500,9.1059833984375,0.000295763835310936,-0.0005528712645173073,-0.00026949262246489525
1783168965199962000,9.115962158203125,-0.0005052797496318817,0.0006568310782313347,-0.0018057646229863167
1783168965209911300,9.125911376953125,-0.0007276535034179688,-0.0006236168555915356,-0.0018507717177271843
1783168965219860200,9.135860107421875,-0.002103324979543686,-0.0013607088476419449,0.0003908607177436352
1783168965229809400,9.145809326171875,0.0006668940186500549,-0.0012515196576714516,0.0005373344756662846
1783168965239788300,9.155788330078124,0.00044778361916542053,0.0007549542933702469,0.001885970588773489
1783168965249736200,9.165736083984376,0.0008485894650220871,0.0005959635600447655,0.0007354849949479103
1783168965259685400,9.175685302734376,0.0004601478576660156,0.002341693267226219,0.00014627398923039436
1783168965269634300,9.18563427734375,-0.00007168576121330261,0.0014793616719543934,0.001021921169012785
1783168965279613200,9.19561328125,-0.0016199536621570587,0.0006491700187325478,0.000292931217700243
1783168965289562000,9.20556201171875,0.0000029765069484710693,-0.0002589677460491657,-0.00033184606581926346
1783168965299511300,9.21551123046875,0.0009315703064203262,0.0012599583715200424,-0.0005680611357092857
1783168965309490200,9.225490234375,-0.0015164073556661606,0.0009100190363824368,0.0006418135017156601
1783168965319439000,9.235439208984374,0.002038750797510147,-0.0015231049619615078,-0.0006482843309640884
1783168965329387300,9.24538720703125,-0.00003345496952533722,-0.003298367839306593,-0.0008235201239585876
1783168965339336200,9.255336181640626,-0.0009184256196022034,-0.001362611074000597,0.0004107295535504818
1783168965349315000,9.265315185546875,0.0009742826223373413,0.0009862971492111683,0.0017649470828473568
1783168965359264300,9.27526416015625,0.0009828750044107437,-0.0005704695358872414,-0.0002848878502845764
1783168965369213400,9.28521337890625,0.0020388178527355194,0.0006519216112792492,0.0009279153309762478
1783168965379162400,9.295162353515625,0.00030446238815784454,-0.0017598406411707401,-0.0015803934074938297
1783168965389141200,9.305141357421874,0.0019335169345140457,-0.0010493090376257896,-0.0016038292087614536
1783168965399090200,9.315090087890624,0.00014754384756088257,0.0006555435247719288,-0.0006168028339743614
1783168965409038300,9.325038330078126,0.0016634147614240646,0.00044621899724006653,-0.0009057559072971344
1783168965419018200,9.335018310546875,0.00022739917039871216,-0.0007983534596860409,-0.00012177228927612305
1783168965428966400,9.34496630859375,0.00011341646313667297,0.000585691537708044,0.0004185833968222141
1783168965438915300,9.354915283203125,0.00016384199261665344,-0.00000784965232014656,0.0032689408399164677
1783168965448864300,9.3648642578125,0.00044080987572669983,-0.0020864468533545732,0.0007810159586369991
1783168965458843100,9.374843017578126,-0.0010482855141162872,-0.0017904583364725113,0.001144531648606062
1783168965468792300,9.384792236328124,0.0007243137806653976,0.0030391840264201164,-0.00021900702267885208
1783168965478740200,9.394740234375,0.0006979610770940781,0.0009383349679410458,0.0011016200296580791
1783168965488689200,9.404689208984376,-0.00193803571164608,-0.0012150970287621021,0.00023582670837640762
1783168965498668300,9.414668212890625,0.000645563006401062,-0.0005021621473133564,-0.00028175627812743187
1783168965508617200,9.4246171875,-0.001004265621304512,0.0021386281587183475,-0.0003267638385295868
1783168965518566400,9.43456640625,0.0007054395973682404,-0.001708892872557044,-0.00042208703234791756
1783168965528515300,9.444515380859375,-0.002071171998977661,-0.0003903615288436413,-0.0008844118565320969
1783168965538494500,9.454494384765624,0.0017286315560340881,-0.0017916988581418991,0.0007606362923979759
1783168965548443400,9.464443359375,0.001614382490515709,-0.0011112610809504986,0.0012176348827779293
1783168965558391300,9.474391357421876,0.0018454883247613907,0.0002419142983853817,0.002237540204077959
1783168965568371200,9.48437109375,-0.0009162090718746185,0.0006573675200343132,0.001198641024529934
1783168965578319400,9.4943193359375,0.001749146729707718,0.00038527417927980423,0.000818315427750349
1783168965588268300,9.504268310546875,0.0008721686899662018,-0.00010767718777060509,-0.0015265978872776031
1783168965598217200,9.51421728515625,-0.00010127760469913483,0.001361252274364233,0.0013238335959613323
1783168965608196400,9.5241962890625,0.002038571983575821,-0.00035835104063153267,-0.000057015568017959595
1783168965618145300,9.534145263671874,0.00038550980389118195,-0.0027422169223427773,0.0008576852269470692
1783168965628093200,9.54409326171875,0.0006760619580745697,0.0012631774879992008,-0.0015157242305576801
1783168965638042000,9.5540419921875,0.0007941517978906631,-0.00023970520123839378,-0.00010878965258598328
1783168965648021200,9.564021240234375,0.00027190521359443665,-0.00007778499275445938,0.0009849704802036285
1783168965657970200,9.57397021484375,-0.0001357700675725937,0.001010015606880188,0.0007731406949460506
1783168965667919000,9.583919189453125,-0.000707549974322319,0.0029863473027944565,-0.002500416710972786
1783168965677898200,9.593898193359376,0.002126375213265419,-0.00018549757078289986,-0.00009494228288531303
1783168965687847400,9.603847412109374,0.00012421049177646637,0.00043555162847042084,-0.00014687376096844673
1783168965697796400,9.61379638671875,0.0014767460525035858,0.0018529072403907776,0.0013330131769180298
1783168965707744300,9.623744140625,0.0002524908632040024,-0.0003748270682990551,-0.0007639601826667786
1783168965717724400,9.633724365234375,0.0002145376056432724,0.00247651943936944,-0.0003867051564157009
1783168965727672300,9.64367236328125,0.00012212619185447693,0.0000799405388534069,-0.001112416386604309
1783168965737621200,9.653621337890625,-0.0016617998480796814,0.0013051829300820827,-0.0018821647390723228
1783168965747570000,9.66356982421875,-0.0007438082247972488,-0.0014394712634384632,0.0013296077959239483
1783168965757548800,9.673548828125,-0.00040304288268089294,0.0007187854498624802,-0.00046482356265187263
1783168965767498000,9.683498046875,0.0005738046020269394,0.0019989670254290104,-0.0015274244360625744
1783168965777446100,9.693446044921876,-0.00023745745420455933,0.0010428838431835175,-0.0011024512350559235
1783168965787426000,9.703426025390625,-0.0006241481751203537,0.0009627225808799267,0.0005558994598686695
1783168965797374000,9.7133740234375,-0.0005473420023918152,0.001236294861882925,0.0001366068609058857
1783168965807323000,9.723322998046875,-0.0012118015438318253,-0.00012351525947451591,-0.00018244003877043724
1783168965817272000,9.73327197265625,0.0008630789816379547,0.0017450209707021713,-0.0008632587268948555
1783168965827251000,9.7432509765625,0.0010958388447761536,-0.010103648528456688,-0.00034127896651625633
1783168965837200000,9.753199951171876,-0.0009312685579061508,0.001983142923563719,-0.0010006548836827278
1783168965847148800,9.763148681640626,0.0013662409037351608,0.00044729793444275856,0.00101748900488019
1783168965857097000,9.773096923828126,0.0009441878646612167,-0.0028797227423638105,-0.0006441930308938026
1783168965867076900,9.783076904296875,0.00015695765614509583,-0.0002099038101732731,-0.00019758054986596107
1783168965877024800,9.793024658203125,-0.0008752048015594482,0.001193252857774496,0.000058490317314863205
1783168965886974000,9.802973876953125,-0.000687185674905777,0.0012792730703949928,0.0013922015205025673
1783168965896923000,9.8129228515625,-0.0011195540428161621,0.0012587695382535458,-0.0005264850333333015
1783168965906901800,9.82290185546875,-0.0003395136445760727,0.0003500990569591522,-0.0006242236122488976
1783168965916850700,9.8328505859375,-0.00022150203585624695,-0.000059769488871097565,-0.00044908979907631874
1783168965926798800,9.842798828125,-0.0003735683858394623,-0.0009162421338260174,-0.0002642665058374405
1783168965936779000,9.852779052734375,0.0009733736515045166,0.0010945554822683334,0.002006873954087496
1783168965946727000,9.862726806640625,-0.000721195712685585,0.00010306062176823616,-0.0002778521738946438
1783168965956676000,9.872676025390625,0.0007237289100885391,-0.001419208012521267,0.00018908455967903137
1783168965966625000,9.882625,-0.0019175931811332703,-0.0006729904562234879,0.0011283811181783676
1783168965976604000,9.89260400390625,-0.0004015546292066574,-0.0009953253902494907,-0.0015384461730718613
1783168965986552800,9.902552734375,-0.0019648298621177673,0.002751475665718317,-0.0004052715376019478
1783168965996502000,9.912501953125,-0.0004484672099351883,0.00044271163642406464,0.0009825341403484344
1783168966006450000,9.922449951171876,-0.00010145828127861023,-0.00014131935313344002,0.00023791426792740822
1783168966016429800,9.932429931640625,-0.0015050843358039856,0.0008762353099882603,0.0010548010468482971
1783168966026378000,9.9423779296875,0.0007966849952936172,0.0005902117118239403,0.0020646718330681324
1783168966036327000,9.952326904296875,-0.0006452463567256927,0.0007088705897331238,-0.0003829933702945709
1783168966046305800,9.962305908203126,-0.0011136960238218307,-0.0020618820562958717,-0.0007281387224793434
1783168966056255000,9.9722548828125,-0.000638030469417572,-0.0005644280463457108,-0.0008924324065446854
1783168966066204000,9.982203857421876,-0.0003892909735441208,-0.0016227681189775467,0.00043249037116765976
1783168966076153000,9.992153076171874,-0.000373106449842453,-0.00020583299919962883,0.0012838118709623814
1783168966086131700,10.002131591796875,-0.0006226431578397751,0.0004530330188572407,-0.0009638965129852295
1783168966096080000,10.012079833984375,0.0019256044179201126,0.00274092610925436,0.0024927472695708275
1783168966106029000,10.022029052734375,0.00037830695509910583,0.00010732607915997505,0.0008338643237948418
1783168966115978000,10.03197802734375,0.000520879402756691,-0.002844680566340685,0.0000902111642062664
1783168966125957000,10.04195703125,0.0019075889140367508,0.0011074505746364594,-0.000835503451526165
1783168966135906000,10.051906005859376,0.0009615793824195862,-0.0008162143640220165,-0.0028723604045808315
1783168966145855000,10.06185498046875,0.0001237485557794571,0.00001948559656739235,-0.0014465036801993847
1783168966155833900,10.071833740234375,-0.0025310739874839783,-0.000032520852982997894,0.00010031741112470627
1783168966165783000,10.081782958984375,-0.002243185415863991,-0.00046688225120306015,0.0004254891537129879
1783168966175731000,10.09173095703125,-0.0005242098122835159,0.0007551047019660473,-0.0006496943533420563
1783168966185680000,10.101679931640625,-0.00009783729910850525,0.0002616210840642452,-0.00229446217417717
1783168966195659000,10.111658935546876,-0.001051420345902443,-0.000018399208784103394,-0.0003989129327237606
1783168966205608000,10.12160791015625,0.00017416663467884064,-0.0014889966696500778,0.0019606477580964565
1783168966215556900,10.131556884765626,0.002676418051123619,-0.0027179464232176542,0.001548978965729475
1783168966225505800,10.141505859375,0.0011666733771562576,-0.00012589199468493462,-0.0015352284535765648
1783168966235485000,10.15148486328125,0.001501457765698433,-0.0016271639615297318,0.0006332341581583023
1783168966245433900,10.161433837890625,0.00027054548263549805,0.00010149413719773293,0.0013621412217617035
1783168966255381800,10.1713818359375,-0.0007198415696620941,0.001229484099894762,-0.0015079244039952755
1783168966265331000,10.1813310546875,-0.00183916836977005,0.00007766718044877052,0.00288602476939559
1783168966275310000,10.19131005859375,-0.0018924586474895477,0.00020075496286153793,0.00049555953592062
1783168966285259000,10.201259033203126,-0.0011536981910467148,0.001211424358189106,-0.001319650560617447
1783168966295208000,10.2112080078125,-0.00045218318700790405,0.0008393125608563423,0.0020306608639657497
1783168966305187000,10.22118701171875,0.000054350122809410095,-0.000984154175966978,0.0009930930100381374
1783168966315136000,10.231135986328125,0.001939527690410614,-0.0011496576480567455,-0.0011965781450271606
1783168966325084000,10.241083984375,0.0028327517211437225,0.00041415076702833176,-0.000050620175898075104
1783168966335032800,10.25103271484375,0.0029506906867027283,0.003812957089394331,-0.002191775944083929
1783168966345012000,10.261011962890626,0.0009804833680391312,0.00013779522851109505,0.0022234786301851273
1783168966354961000,10.2709609375,0.0005464740097522736,-0.0013927631080150604,0.0019564065150916576
1783168966364909800,10.280909912109376,-0.002006964758038521,-0.0003083241172134876,0.0010541272349655628
1783168966374858800,10.290858642578126,-0.0009478181600570679,-0.0018581042531877756,0.00043141329661011696
1783168966384838000,10.300837890625,-0.0015741940587759018,0.0010969392023980618,-0.00022638775408267975
1783168966394786800,10.310786865234375,-0.0017627999186515808,0.0002135937102138996,0.0007414626888930798
1783168966404735000,10.32073486328125,-0.0013252440840005875,-0.000929967500269413,0.0010786191560328007
1783168966414715000,10.33071484375,-0.000055283308029174805,0.0016807853244245052,-0.0008007893338799477
1783168966424662800,10.340662841796876,-0.0012635588645935059,-0.0016481662169098854,0.0003576851449906826
1783168966434612000,10.350612060546876,0.0018199682235717773,-0.0003782683052122593,-0.00008522253483533859
1783168966444561000,10.360560791015626,-0.0006541088223457336,0.0011599734425544739,-0.003155048005282879
1783168966454540000,10.3705400390625,0.00036547891795635223,-0.000782589428126812,0.0006162193603813648
1783168966464489000,10.380489013671875,0.0019660387188196182,0.0012198416516184807,0.00023565348237752914
1783168966474437000,10.39043701171875,-0.0007356535643339157,0.0017607281915843487,0.0006739301607012749
1783168966484386000,10.400385986328125,-0.0006853211671113968,-0.001778612844645977,0.0007130787707865238
1783168966494365000,10.410364990234376,-0.0009399652481079102,-0.0008017667569220066,-0.0018440382555127144
1783168966504313900,10.42031396484375,0.00020066648721694946,-0.0012419875711202621,-0.0015827827155590057
1783168966514263000,10.430262939453126,0.001388315111398697,-0.00027345912531018257,0.000435748603194952
1783168966524212000,10.4402119140625,0.0006567463278770447,-0.00043191714212298393,0.0011643893085420132
1783168966534190800,10.45019091796875,0.00016372092068195343,-0.0006178007461130619,-0.0014756708405911922
1783168966544139800,10.460139892578125,-0.0005569308996200562,-0.00011419737711548805,-0.003295408096164465
1783168966554088000,10.470087890625,-0.0009211469441652298,0.00007247738540172577,-0.000741416122764349
1783168966564067800,10.48006787109375,-0.002536354586482048,0.0011230944655835629,0.0022834017872810364
1783168966574015700,10.490015625,-0.002334270626306534,-0.0018296209163963795,-0.001815211959183216
1783168966583965000,10.49996484375,-0.00041146762669086456,0.0008215559646487236,0.0011906973086297512
1783168966593914000,10.5099140625,-0.0036330632865428925,0.0010297861881554127,-0.00015256041660904884
1783168966603893000,10.51989306640625,0.000311877578496933,-0.0015540127642452717,0.0009276177734136581
1783168966613842000,10.529842041015625,0.0009451881051063538,-0.00030307844281196594,-0.0007575284689664841
1783168966623790000,10.5397900390625,-0.0011621713638305664,-0.0001773769035935402,0.0017397175543010235
1783168966633739000,10.549739013671875,0.0012703035026788712,0.0003141891211271286,-0.0000879908911883831
1783168966643718000,10.5597177734375,-0.00019283778965473175,-0.0007452163845300674,0.0008899220265448093
1783168966653667000,10.5696669921875,-0.0009039416909217834,-0.002085314132273197,0.000654017087072134
1783168966663616000,10.579615966796876,-0.0009367000311613083,-0.0014522806741297245,-0.000864783301949501
1783168966673595000,10.589594970703125,0.00033025629818439484,0.0005669151432812214,-0.000131234060972929
1783168966683543800,10.599543701171875,-0.0002138279378414154,-0.0001020706258714199,-0.0003155246376991272
1783168966693493000,10.609492919921875,0.0013582445681095123,-0.0008592936210334301,-0.002263596747070551
1783168966703441000,10.61944091796875,0.0005076304078102112,-0.0016057775355875492,0.00012046471238136292
1783168966713420800,10.6294208984375,0.0007596444338560104,0.001121297013014555,0.0001384723000228405
1783168966723369000,10.639368896484376,-0.00019003823399543762,-0.0005058944225311279,-0.00047618523240089417
1783168966733318000,10.64931787109375,0.00020787306129932404,0.001985291950404644,0.0005288464017212391
1783168966743297000,10.659297119140625,0.00020600855350494385,0.0005589029751718044,-0.0005998015403747559
1783168966753276200,10.669276123046876,0.00041356682777404785,0.001177178230136633,0.0015941336750984192
1783168966763225000,10.67922509765625,0.00011955387890338898,0.00085839768871665,0.0015712305903434753
1783168966773173000,10.689173095703126,0.00039570219814777374,0.0022720941342413425,-0.0007812269032001495
1783168966783153200,10.699153076171875,-0.0016272347420454025,-0.0018739146180450916,-0.00019320053979754448
1783168966793101000,10.70910107421875,0.001007329672574997,-0.0008157086558640003,0.0017517581582069397
1783168966803050000,10.719050048828125,0.0010294336825609207,-0.003772350028157234,0.0021560261957347393
1783168966812999000,10.7289990234375,0.00017610006034374237,0.0008946158923208714,0.0016990406438708305
1783168966822978000,10.73897802734375,0.00027863122522830963,0.0007369569502770901,0.0005988888442516327
1783168966832927000,10.748927001953126,0.0000568293035030365,-0.0016500377096235752,0.00014166254550218582
1783168966842876000,10.7588759765625,-0.0010166913270950317,-0.0007746568880975246,0.0007081166841089725
1783168966852824000,10.768823974609376,-0.0006759874522686005,0.0020522791892290115,-0.000994393602013588
1783168966862804000,10.778803955078125,0.00003454461693763733,0.0006802189163863659,0.0005347933620214462
1783168966872751900,10.788751953125,-0.0006505884230136871,0.0004260921850800514,-0.0007310444489121437
1783168966882700800,10.79870068359375,-0.0008418038487434387,0.00020877830684185028,-0.0020900554955005646
1783168966892650000,10.80864990234375,0.0012498870491981506,-0.001307344064116478,-0.002045585308223963
1783168966902628900,10.81862890625,0.003075484186410904,-0.0007515423931181431,0.0020160023123025894
1783168966912578000,10.828578125,0.0012621600180864334,0.0003262902610003948,-0.0018878909759223461
1783168966922527000,10.83852685546875,-0.00026676058769226074,0.002136440947651863,0.0009537022560834885
1783168966932506000,10.848506103515625,0.001348072662949562,-0.00006201537325978279,-0.0005790074355900288
1783168966942454000,10.8584541015625,0.0005845446139574051,-0.001627954188734293,-0.0006767450831830502
1783168966952403000,10.86840283203125,0.0008293632417917252,-0.0023528526071459055,0.0005701645277440548
1783168966962352000,10.87835205078125,0.000010441988706588745,-0.0017911919858306646,-0.0005592824891209602
1783168966972331000,10.8883310546875,-0.0009739696979522705,0.0012755850329995155,0.0010756696574389935
1783168966982280000,10.898280029296876,-0.0015497449785470963,0.000622311607003212,-0.0005991924554109573
1783168966992228900,10.908228759765626,-0.001580243930220604,-0.0005854787304997444,0.0007544606924057007
1783168967002177000,10.918177001953126,-0.0010486766695976257,0.0024531884118914604,-0.0008341148495674133
1783168967012157000,10.928156982421875,0.000931374728679657,0.00009523797780275345,0.00020232703536748886
1783168967022105000,10.93810498046875,-0.0018990319222211838,-0.000031528063118457794,0.0011693211272358894
1783168967032054000,10.948053955078125,0.0005721766501665115,-0.0006622700020670891,-0.0014254087582230568
1783168967042033000,10.958032958984376,0.000530097633600235,0.0007694452069699764,0.0013219085521996021
1783168967051981800,10.96798193359375,-0.0022898949682712555,0.00009215902537107468,0.00028588389977812767
1783168967061931000,10.977930908203126,-0.0005319416522979736,0.001331327948719263,-0.00011545419692993164
1783168967071880200,10.987880126953126,0.0010316930711269379,-0.000010591931641101837,0.0009998013265430927
1783168967081859000,10.997859130859375,0.00036270730197429657,-0.0007741204462945461,-0.0001195254735648632
1783168967091808000,11.00780810546875,-0.001783221960067749,-0.0005673421546816826,-0.0007828627713024616
1783168967101756200,11.017756103515625,-0.00031395629048347473,-0.0017604383174329996,0.0000512395054101944
1783168967111705000,11.027705078125,-0.0009691491723060608,-0.0011932523921132088,-0.0017138076946139336
1783168967121684000,11.03768408203125,0.0042181555181741714,0.0010975985787808895,0.0007517472840845585
1783168967131633200,11.047633056640626,0.002794897183775902,-0.0016244417056441307,0.0011152452789247036
1783168967141582000,11.05758203125,0.002145351842045784,0.0006839865818619728,-0.0016445890069007874
1783168967151561000,11.06756103515625,0.001631271094083786,0.0015143048949539661,0.00007698079571127892
1783168967161510000,11.077510009765625,0.000532984733581543,-0.00028093205764889717,0.0005592792294919491
1783168967171458000,11.0874580078125,-0.0008721966296434402,0.0001818002201616764,-0.0010435017757117748
1783168967181407000,11.097406982421875,0.00042742490768432617,0.0004475833848118782,0.0010129911825060844
1783168967191386000,11.10738623046875,-0.00015882961452007294,-0.0013778014108538628,0.0002653133124113083
1783168967201335000,11.1173349609375,0.0004022996872663498,-0.00024862121790647507,-0.000757340807467699
1783168967211284000,11.127283935546876,-0.00015435181558132172,0.0012612724676728249,0.0004876558668911457
1783168967221233000,11.13723291015625,-0.0008369199931621552,-0.0016373118851333857,0.0015467950142920017
1783168967231211800,11.147211669921875,-0.0009350515902042389,0.00025560474023222923,0.00076633645221591
1783168967241161200,11.1571611328125,0.000052714720368385315,0.0008196625858545303,-0.0026475698687136173
1783168967251109000,11.167109130859375,-0.0020809490233659744,-0.00038897618651390076,-0.0005706744268536568
1783168967261058000,11.17705810546875,-0.0004135444760322571,0.001258721575140953,0.0002993806265294552
1783168967271037200,11.187037109375,0.00010876543819904327,0.0018406817689538002,0.002384709659963846
1783168967280986000,11.196986083984376,-0.0016254857182502747,-0.0012491177767515182,0.001117844134569168
1783168967290935000,11.20693505859375,-0.00003793090581893921,-0.0015594796277582645,0.000052517279982566833
1783168967300914200,11.2169140625,0.00021107494831085205,0.0021681468933820724,0.0007001981139183044
1783168967310863000,11.226863037109375,-0.0008018799126148224,0.0012334161438047886,0.0008619725704193115
1783168967320811000,11.23681103515625,0.0010562092065811157,0.0007511177100241184,-0.0013987850397825241
1783168967330760000,11.246760009765625,0.0009111613035202026,-0.0006620441563427448,-0.0008818595670163631
1783168967340739000,11.256739013671876,-0.00042867474257946014,0.000225055031478405,-0.0016746832989156246
1783168967350688000,11.26668798828125,0.001447463408112526,-0.0006493246182799339,0.0006957151927053928
1783168967360637000,11.276636962890626,0.0007459875196218491,-0.0010333522222936153,-0.000024403445422649384
1783168967370585900,11.2865859375,-0.00021426938474178314,0.00014110933989286423,-0.0004684505984187126
1783168967380565000,11.29656494140625,0.00014951825141906738,-0.0005017775110900402,-0.00010519521310925484
1783168967390514000,11.306513916015625,0.00009372085332870483,-0.0000013620592653751373,-0.0012627318501472473
1783168967400461800,11.3164619140625,-0.0014341361820697784,0.0022729774937033653,-0.000002789776772260666
1783168967410442200,11.326442138671876,0.0015861336141824722,-0.001049988903105259,0.0006889333017170429
1783168967420390000,11.336389892578126,0.0007781293243169785,0.0006973110139369965,0.0010681673884391785
1783168967430339000,11.346339111328126,-0.00033866241574287415,-0.0010108486749231815,-0.000020823907107114792
1783168967440288000,11.3562880859375,0.0005236677825450897,0.0003028889186680317,0.0006023556925356388
1783168967450267100,11.36626708984375,0.0004084929823875427,0.001082797534763813,-0.00010206876322627068
1783168967460216000,11.376216064453125,-0.002052001655101776,-0.00027195224538445473,-0.0008283131755888462
1783168967470164000,11.3861640625,-0.001836247742176056,-0.0007047136314213276,-0.0004386301152408123
1783168967480113200,11.396113037109375,-0.00025859102606773376,-0.0001630266197025776,-0.001810956746339798
1783168967490092000,11.406092041015626,-0.00006573088467121124,0.000016120262444019318,-0.0003327084705233574
1783168967500041000,11.416041015625,-0.00007425248622894287,-0.0013085361570119858,-0.0008504269644618034
1783168967509990000,11.425989990234376,-0.0003257002681493759,0.00006499793380498886,-0.0007090475410223007
1783168967519939000,11.43593896484375,0.002171812579035759,0.0035971482284367085,0.0008526300080120564
1783168967529918000,11.44591796875,-0.00016068294644355774,0.0009700758382678032,-0.000008226372301578522
1783168967539867000,11.455866943359375,-0.0005814637988805771,-0.0007788222283124924,-0.0008692261762917042
1783168967549815000,11.46581494140625,-0.0018984843045473099,-0.0014666602946817875,-0.0010708426125347614
1783168967559795000,11.475794921875,-0.0008563902229070663,0.0005743862129747868,0.0015571648254990578
1783168967569742800,11.485742919921876,0.00035046227276325226,-0.0026399854104965925,-0.0004299008287489414
1783168967579692000,11.495692138671876,-0.002067156136035919,-0.000050327740609645844,0.0012138020247220993
1783168967589641200,11.50564111328125,0.0005246531218290329,0.00006774580106139183,-0.0008793752640485764
1783168967599620000,11.5156201171875,0.0012322552502155304,0.0001774681732058525,-0.0006191842257976532
1783168967609569000,11.525569091796875,0.0010600294917821884,0.0005633230321109295,-0.0011957976967096329
1783168967619517200,11.53551708984375,0.0012741461396217346,-0.0005813036113977432,0.00016800733283162117
1783168967629466000,11.545466064453125,0.0021024178713560104,-0.0012001767754554749,-0.0019843964837491512
1783168967639445000,11.555445068359376,-0.0012001674622297287,-0.0022281568963080645,0.00021351082250475883
1783168967649394000,11.565393798828126,-0.00005067698657512665,0.0007256437093019485,-0.0013716528192162514
1783168967659343000,11.575343017578126,-0.00007544457912445068,-0.0012022187002003193,-0.001404142938554287
1783168967669322000,11.585322021484375,-0.00003559142351150513,-0.0004985644482076168,0.00007837265729904175
1783168967679271000,11.59527099609375,-0.00120551697909832,-0.00146555807441473,0.0003071380779147148
1783168967689219800,11.6052197265625,0.0005589276552200317,0.001111459918320179,0.001748234499245882
1783168967699168000,11.61516796875,0.0005040671676397324,0.0009378218092024326,0.0004611285403370857
1783168967709148000,11.62514794921875,0.0005735978484153748,0.0008569741621613503,-0.0015740119852125645
1783168967719096000,11.635095947265626,0.0011131539940834045,0.001234344206750393,0.002659881953150034
