time,seconds_elapsed,z,y,x
1783153138289219300,0.11921923828125,7.026822566986084,5.228616714477539,-0.8234301209449768
1783153138308641500,0.1386416015625,7.2349982261657715,5.164010524749756,-0.6678966283798218
1783153138318351400,0.148351318359375,7.316354274749756,5.317151069641113,-0.31375887989997864
1783153138328062500,0.1580625,7.433602809906006,5.592624664306641,0.05024927482008934
1783153138337773300,0.167773193359375,7.677969455718994,5.781657695770264,0.16510476171970367
1783153138347484400,0.177484375,7.957930088043213,5.757729530334473,0.1339980661869049
1783153138357195500,0.187195556640625,7.989036560058594,5.453841209411621,0.02871387079358101
1783153138366906600,0.19690673828125,7.843074321746826,5.221437931060791,-0.34725838899612427
1783153138376617500,0.206617431640625,7.835896015167236,5.219045162200928,-0.5985047817230225
1783153138386328600,0.21632861328125,7.948358535766602,5.38205623626709,-0.4621138870716095
1783153138396039700,0.226039794921875,8.087141990661621,6.021239280700684,0.47168517112731934
1783153138405750800,0.235750732421875,8.477471351623535,5.496912002563477,-0.2273181527853012
1783153138415461600,0.245461669921875,8.293224334716797,5.25972318649292,-0.6726822853088379
1783153138425172700,0.2551728515625,8.077570915222168,5.168796062469482,-0.9457631707191467
1783153138434883800,0.2648837890625,8.341080665588379,4.907978534698486,-1.2496516704559326
1783153138444594700,0.2745947265625,8.556434631347656,4.788337230682373,-1.287936806678772
1783153138454305800,0.284305908203125,8.542078018188477,4.817050933837891,-1.1635099649429321
1783153138473728000,0.30372802734375,8.616254806518555,4.7835516929626465,-1.134796142578125
1783153138483438800,0.31343896484375,8.64496898651123,4.802694320678711,-1.0342975854873657
1783153138493150000,0.32314990234375,8.671290397644043,4.924727916717529,-0.8018946647644043
1783153138502861000,0.332861083984375,8.81515884399414,5.046761989593506,-0.6583253145217896
1783153138512572200,0.342572265625,9.025727272033691,4.984548568725586,-0.675075113773346
1783153138522283000,0.352282958984375,9.322735786437988,4.824229717254639,-0.8306085467338562
1783153138531994000,0.361994140625,9.63619613647461,4.615755081176758,-1.0151549577713013
1783153138541705200,0.371705322265625,9.758230209350586,4.488935470581055,-1.0462616682052612
1783153138551416000,0.381416015625,9.585947036743164,4.47697114944458,-1.0462616682052612
1783153138561127200,0.391127197265625,9.267701148986816,4.591826438903809,-1.0462616682052612
1783153138570838300,0.40083837890625,8.889336585998535,4.677968502044678,-1.0342975854873657
1783153138580549400,0.41054931640625,8.491828918457031,4.771587371826172,-0.9696913957595825
1783153138590260200,0.42026025390625,8.207082748413086,4.8792643547058105,-0.9409775137901306
1783153138599971300,0.429971435546875,8.09671401977539,4.915156841278076,-0.9026923179626465
1783153138609682400,0.439682373046875,8.168797492980957,4.919942378997803,-0.8234301209449768
1783153138619393500,0.4493935546875,8.341080665588379,4.9414777755737305,-0.7636095285415649
1783153138629104600,0.459104736328125,8.460721969604492,4.951049327850342,-0.7109674215316772
1783153138638815500,0.4688154296875,8.515756607055664,4.886443138122559,-0.7851449251174927
1783153138648526600,0.478526611328125,8.577970504760742,4.824229717254639,-0.8811569213867188
1783153138658237700,0.48823779296875,8.587541580200195,4.809872627258301,-1.017547845840454
1783153138667948500,0.497948486328125,8.618648529052734,4.716253280639648,-1.1491531133651733
1783153138677659600,0.50765966796875,8.606683731079102,4.60857629776001,-1.1802598237991333
1783153138687370800,0.517370849609375,8.479864120483398,4.596612453460693,-1.1515458822250366
1783153138697081900,0.527081787109375,8.372187614440918,4.687539577484131,-1.1874382495880127
1783153138706792700,0.536792724609375,8.242975234985352,4.735395908355713,-1.165902853012085
1783153138716503800,0.54650390625,8.13260555267334,4.805087089538574,-1.072582721710205
1783153138726215000,0.55621484375,8.094321250915527,4.884049892425537,-1.017547845840454
1783153138735926000,0.565926025390625,8.140083312988281,4.864907741546631,-1.0079765319824219
1783153138745636900,0.575636962890625,8.144868850708008,4.860121726989746,-1.0007981061935425
1783153138755348000,0.585347900390625,8.16401195526123,4.8792643547058105,-1.0199406147003174
1783153138765059000,0.59505908203125,8.286046028137207,4.907978534698486,-1.0199406147003174
1783153138774770200,0.604770263671875,8.343473434448242,4.946263313293457,-0.9194421172142029
1783153138784481000,0.61448095703125,8.405686378479004,4.991727352142334,-0.8715856671333313
1783153138794192100,0.624192138671875,8.556434631347656,4.960620403289795,-0.8668000102043152
1783153138803903200,0.6339033203125,8.762516975402832,4.907978534698486,-0.8668000102043152
1783153138813614300,0.6436142578125,8.846264839172363,4.817050933837891,-0.8452646136283875
1783153138823325200,0.6533251953125,8.827122688293457,4.7473602294921875,-0.8500502705574036
1783153138833036300,0.663036376953125,8.745766639709473,4.6995038986206055,-0.8353942036628723
1783153138842747400,0.672747314453125,8.623434066772461,4.6995038986206055,-0.8401798605918884
1783153138852458500,0.68245849609375,8.453543663024902,4.6995038986206055,-0.8353942036628723
1783153138862169300,0.69216943359375,8.290831565856934,4.72582483291626,-0.8042874932289124
1783153138871880400,0.70188037109375,8.161619186401367,4.752145767211914,-0.7707880139350891
1783153138881591600,0.711591552734375,8.034500122070312,4.795515537261963,-0.7396813035011292
1783153138891302700,0.721302734375,7.8526458740234375,4.812265396118164,-0.7779664397239685
1783153138901013500,0.731013427734375,7.744968891143799,4.843372344970703,-0.8787640929222107
1783153138910724600,0.740724609375,7.716254711151123,4.840979099273682,-0.9266205430030823
1783153138920435700,0.750435791015625,7.718647480010986,4.864907741546631,-1.0031908750534058
1783153138930146800,0.760146728515625,7.65164852142334,4.903192520141602,-1.0534402132034302
1783153138939858000,0.76985791015625,7.567600727081299,4.9486565589904785,-1.067797064781189
1783153138949568800,0.77956884765625,7.5412797927856445,4.986941337585449,-1.0558329820632935
1783153138959279900,0.78927978515625,7.63729190826416,5.044369220733643,-1.067797064781189
1783153138968991000,0.798990966796875,7.881359577178955,5.053940296173096,-1.1228320598602295
1783153138978702000,0.8087021484375,8.140083312988281,5.056333541870117,-1.1491531133651733
1783153138988413000,0.818412841796875,8.345866203308105,5.046761989593506,-1.2065808773040771
1783153138998124000,0.8281240234375,8.587541580200195,5.00369119644165,-1.2424731254577637
1783153139007835100,0.837835205078125,8.81515884399414,4.9654059410095215,-1.1826525926589966
1783153139017546200,0.847546142578125,9.097511291503906,4.9725847244262695,-1.1252248287200928
1783153139027257000,0.857257080078125,9.346664428710938,4.929513931274414,-1.0342975854873657
1783153139036968200,0.86696826171875,9.497411727905273,4.891228675842285,-0.9912267923355103
1783153139046679300,0.87667919921875,9.51894760131836,4.881657123565674,-0.924227774143219
1783153139056390400,0.886390380859375,9.456734657287598,4.84815788269043,-0.9074779748916626
1783153139066101200,0.896101318359375,9.332307815551758,4.84815788269043,-0.8620143532752991
1783153139075812400,0.905812255859375,9.174081802368164,4.876871585845947,-0.8282157182693481
1783153139085523500,0.9155234375,9.052047729492188,4.912764072418213,-0.8330013751983643
1783153139095234600,0.925234619140625,9.001798629760742,4.936692237854004,-0.8377870321273804
1783153139104945400,0.9349453125,8.980263710021973,4.912764072418213,-0.7612167000770569
1783153139114656500,0.944656494140625,8.920442581176758,4.924727916717529,-0.7109674215316772
1783153139124367600,0.95436767578125,8.772088050842285,4.974977493286133,-0.6894320249557495
1783153139134078700,0.96407861328125,8.640183448791504,5.013262748718262,-0.6894320249557495
1783153139143789600,0.97378955078125,8.424829483032227,5.037190914154053,-0.6966105103492737
1783153139153500700,0.983500732421875,8.238189697265625,5.056333541870117,-0.7061817646026611
1783153139163211800,0.993211669921875,8.180761337280273,5.056333541870117,-0.7229315638542175
1783153139172923000,1.0029228515625,8.231010437011719,5.039583683013916,-0.6798607110977173
1783153139182633700,1.0126337890625,8.374580383300781,5.018048286437988,-0.6296114325523376
1783153139192344800,1.0223447265625,8.53729248046875,4.977370262145996,-0.6032904386520386
1783153139202056000,1.032055908203125,8.582756042480469,4.927121162414551,-0.5673980712890625
1783153139211767000,1.04176708984375,8.525327682495117,4.929513931274414,-0.521934449672699
1783153139221478000,1.051477783203125,8.475078582763672,4.9175496101379395,-0.5099703073501587
1783153139231189000,1.06118896484375,8.365009307861328,4.934299468994141,-0.4453641176223755
1783153139240900000,1.070900146484375,8.187939643859863,4.974977493286133,-0.3735794425010681
1783153139250611200,1.080611083984375,8.046463966369629,5.018048286437988,-0.37597227096557617
1783153139260322000,1.090322021484375,7.950751304626465,5.056333541870117,-0.41186460852622986
1783153139270033200,1.100033203125,7.802396297454834,5.101797103881836,-0.4142574071884155
1783153139279744300,1.109744140625,7.704290866851807,5.099404335021973,-0.4740779995918274
1783153139289455400,1.119455322265625,7.7114691734313965,5.161617755889893,-0.5171487927436829
1783153139299166500,1.12916650390625,7.826324462890625,5.164010524749756,-0.5554339289665222
1783153139308877300,1.138877197265625,7.9866437911987305,5.18315315246582,-0.5650052428245544
1783153139318588400,1.14858837890625,8.19272518157959,5.187938690185547,-0.6008976101875305
1783153139328299500,1.158299560546875,8.2788667678833,5.171188831329346,-0.6176473498344421
1783153139338010600,1.1680107421875,8.207082748413086,5.132903575897217,-0.6918248534202576
1783153139347721500,1.177721435546875,8.070392608642578,5.171188831329346,-0.734895646572113
1783153139357432600,1.1874326171875,7.950751304626465,5.197509765625,-0.6870391964912415
1783153139367143700,1.197143798828125,7.910073280334473,5.226223945617676,-0.6200401782989502
1783153139376854800,1.206854736328125,7.934001445770264,5.262115955352783,-0.5721837282180786
1783153139386566000,1.21656591796875,8.027321815490723,5.257330417633057,-0.5530411601066589
1783153139396276700,1.22627685546875,8.070392608642578,5.242973327636719,-0.5099703073501587
1783153139405987800,1.23598779296875,8.123034477233887,5.283651351928711,-0.4549354016780853
1783153139415699000,1.245698974609375,8.17836856842041,5.2645087242126465,-0.4046861231327057
1783153139425410000,1.25541015625,8.204689979553223,5.2477593421936035,-0.33050861954689026
1783153139435121000,1.265120849609375,8.405686378479004,5.250152111053467,-0.3209373354911804
1783153139444832000,1.27483203125,8.66889762878418,5.238187789916992,-0.3113660514354706
1783153139454543000,1.284543212890625,8.819944381713867,5.192724227905273,-0.27038896083831787
1783153139464254200,1.294254150390625,8.800801277160645,5.156831741333008,-0.33529427647590637
1783153139473965300,1.30396533203125,8.714659690856934,5.142475128173828,-0.4166502356529236
1783153139483676200,1.31367626953125,8.570791244506836,5.118546962738037,-0.4621138870716095
1783153139493387300,1.32338720703125,8.465507507324219,5.108975410461426,-0.5434698462486267
1783153139503098400,1.333098388671875,8.362615585327148,5.132903575897217,-0.6056832075119019
1783153139512809500,1.3428095703125,8.290831565856934,5.13529634475708,-0.6200401782989502
1783153139522520300,1.352520263671875,8.293224334716797,5.137689113616943,-0.6296114325523376
1783153139532231400,1.3622314453125,8.307580947875977,5.125725269317627,-0.6224330067634583
1783153139541942500,1.371942626953125,8.345866203308105,5.061119079589844,-0.6559324860572815
1783153139551653600,1.381653564453125,8.4200439453125,4.991727352142334,-0.7253243923187256
1783153139561364500,1.391364501953125,8.388936996459961,4.9725847244262695,-0.7707880139350891
1783153139571075600,1.40107568359375,8.254939079284668,4.958227634429932,-0.8500502705574036
1783153139580786700,1.41078662109375,8.113463401794434,4.953442096710205,-0.8739784955978394
1783153139590497800,1.420497802734375,8.065607070922852,4.970191955566406,-0.8787640929222107
1783153139600208600,1.430208740234375,8.159226417541504,4.9725847244262695,-0.8691928386688232
1783153139609919700,1.439919677734375,8.341080665588379,4.967798709869385,-0.8715856671333313
1783153139619630800,1.449630859375,8.472685813903809,4.953442096710205,-0.8644071817398071
1783153139629342000,1.459342041015625,8.532505989074707,4.903192520141602,-0.893121063709259
1783153139639053000,1.469052978515625,8.515756607055664,4.886443138122559,-0.8691928386688232
1783153139648764000,1.478763916015625,8.41286563873291,4.9175496101379395,-0.8500502705574036
1783153139658475000,1.48847509765625,8.331509590148926,4.953442096710205,-0.8258228898048401
1783153139668186000,1.49818603515625,8.264510154724121,4.991727352142334,-0.8066803216934204
1783153139677897200,1.507897216796875,8.219046592712402,5.008476734161377,-0.7372884750366211
1783153139687608000,1.517608154296875,8.221439361572266,5.049154758453369,-0.734895646572113
1783153139697319200,1.527319091796875,8.300402641296387,5.027619361877441,-0.7229315638542175
1783153139707030300,1.5370302734375,8.360222816467285,5.049154758453369,-0.7301099896430969
1783153139716741400,1.546741455078125,8.312366485595703,5.087440013885498,-0.701396107673645
1783153139726452200,1.5564521484375,8.266902923583984,5.125725269317627,-0.6535396575927734
1783153139736163300,1.566163330078125,8.3267240524292,5.180759906768799,-0.6248258352279663
1783153139745874400,1.57587451171875,8.388936996459961,5.164010524749756,-0.5697908997535706
1783153139755585500,1.58558544921875,8.376973152160645,5.219045162200928,-0.5147559642791748
1783153139765296600,1.595296630859375,8.341080665588379,5.281258583068848,-0.4621138870716095
1783153139775007500,1.605007568359375,8.30997371673584,5.288437366485596,-0.4621138870716095
1783153139784718600,1.614718505859375,8.250153541564941,5.283651351928711,-0.4692923426628113
1783153139794429700,1.6244296875,8.187939643859863,5.276473045349121,-0.45254257321357727
1783153139804140800,1.634140869140625,8.19511890411377,5.2956156730651855,-0.48843491077423096
1783153139813851600,1.6438515625,8.185546875,5.276473045349121,-0.5075774788856506
1783153139823562800,1.653562744140625,8.185546875,5.283651351928711,-0.5267201066017151
1783153139833273900,1.66327392578125,8.190332412719727,5.3318071365356445,-0.5410770177841187
1783153139842985000,1.67298486328125,8.187939643859863,5.38205623626709,-0.5195416212081909
1783153139852695800,1.68269580078125,8.372187614440918,5.420341491699219,-0.45972105860710144
1783153139862407000,1.692406982421875,8.52772045135498,5.410770416259766,-0.39511483907699585
1783153139872118000,1.702117919921875,8.542078018188477,5.415555953979492,-0.3520440459251404
1783153139881829000,1.7118291015625,8.489435195922852,5.396413326263428,-0.4501497745513916
1783153139891540200,1.721540283203125,8.467900276184082,5.348556995391846,-0.5602195858955383
1783153139901251000,1.7312509765625,8.496614456176758,5.293222904205322,-0.6343970894813538
1783153139910962200,1.740962158203125,8.52772045135498,5.286044120788574,-0.6056832075119019
1783153139920673300,1.75067333984375,8.487042427062988,5.298008441925049,-0.5817549824714661
1783153139930384400,1.76038427734375,8.43440055847168,5.293222904205322,-0.5817549824714661
1783153139940095200,1.77009521484375,8.386544227600098,5.278865814208984,-0.5913262963294983
1783153139949806300,1.779806396484375,8.350651741027832,5.25972318649292,-0.6080760359764099
1783153139959517400,1.789517333984375,8.353044509887695,5.233402252197266,-0.646361231803894
1783153139969228500,1.799228515625,8.422436714172363,5.207081317901611,-0.6726822853088379
1783153139978939400,1.808939453125,8.542078018188477,5.195116996765137,-0.6678966283798218
1783153139988650500,1.818650390625,8.640183448791504,5.137689113616943,-0.5937191247940063
1783153139998361600,1.828361572265625,8.594719886779785,5.1305108070373535,-0.5937191247940063
1783153140008072700,1.83807275390625,8.556434631347656,5.125725269317627,-0.6224330067634583
1783153140017783800,1.84778369140625,8.55164909362793,5.099404335021973,-0.6726822853088379
1783153140027494700,1.85749462890625,8.432007789611816,5.046761989593506,-0.6415755748748779
1783153140037205800,1.867205810546875,8.247760772705078,5.030012130737305,-0.6678966283798218
1783153140046916900,1.876916748046875,8.053643226623535,5.070690155029297,-0.6918248534202576
1783153140056628000,1.8866279296875,7.867002487182617,5.097011566162109,-0.6702894568443298
1783153140066338800,1.8963388671875,7.756932735443115,5.097011566162109,-0.675075113773346
1783153140076050000,1.9060498046875,7.697112083435059,5.089832782745361,-0.6607181429862976
1783153140085761000,1.915760986328125,7.701898097991943,5.099404335021973,-0.6535396575927734
1783153140095472000,1.92547216796875,7.816753387451172,5.041976451873779,-0.6176473498344421
1783153140105183200,1.935183349609375,8.020143508911133,5.039583683013916,-0.6152545213699341
1783153140114894000,1.94489404296875,8.211868286132812,5.041976451873779,-0.6200401782989502
1783153140124605200,1.954605224609375,8.219046592712402,5.061119079589844,-0.5267201066017151
1783153140134316300,1.96431640625,8.214261054992676,5.108975410461426,-0.490827739238739
1783153140144027400,1.97402734375,8.221439361572266,5.166403293609619,-0.4956133961677551
1783153140153738500,1.983738525390625,8.259724617004395,5.168796062469482,-0.5075774788856506
1783153140163449300,1.993449462890625,8.274081230163574,5.13529634475708,-0.5315057039260864
1783153140173160400,2.003160400390625,8.197511672973633,5.140082359313965,-0.5554339289665222
1783153140182871600,2.01287158203125,8.067999839782715,5.1544389724731445,-0.5530411601066589
1783153140192582700,2.022582763671875,7.9627156257629395,5.19033145904541,-0.5338985323905945
1783153140202293500,2.03229345703125,7.895716667175293,5.235795021057129,-0.44775694608688354
1783153140212004600,2.042004638671875,7.895716667175293,5.293222904205322,-0.3927220106124878
1783153140221715700,2.0517158203125,8.005785942077637,5.319543838500977,-0.3496512174606323
1783153140231426800,2.0614267578125,8.11824893951416,5.305186748504639,-0.2946162819862366
1783153140241138000,2.071137939453125,8.15683364868164,5.288437366485596,-0.27756741642951965
1783153140250848800,2.080848876953125,8.17836856842041,5.290830135345459,-0.33529427647590637
1783153140260560000,2.090559814453125,8.197511672973633,5.288437366485596,-0.39032918214797974
1783153140270271000,2.10027099609375,8.223832130432129,5.300401210784912,-0.3975076675415039
1783153140279982000,2.109982177734375,8.221439361572266,5.2716875076293945,-0.39032918214797974
1783153140289693000,2.11969287109375,8.238189697265625,5.298008441925049,-0.3616153299808502
1783153140299404000,2.129404052734375,8.269295692443848,5.276473045349121,-0.385543555021286
1783153140309115100,2.139115234375,8.257331848144531,5.278865814208984,-0.38793638348579407
1783153140318826200,2.148826171875,8.16401195526123,5.269294738769531,-0.40229329466819763
1783153140328537000,2.158537109375,8.084749221801758,5.25254487991333,-0.4405784606933594
1783153140338248200,2.168248291015625,8.101499557495117,5.235795021057129,-0.46450668573379517
1783153140347959300,2.177959228515625,8.238189697265625,5.223830699920654,-0.4740779995918274
1783153140357670400,2.18767041015625,8.391329765319824,5.192724227905273,-0.4334000051021576
1783153140367381500,2.197381591796875,8.460721969604492,5.19033145904541,-0.3927220106124878
1783153140377092400,2.20709228515625,8.448758125305176,5.214259624481201,-0.4166502356529236
1783153140386803500,2.216803466796875,8.422436714172363,5.2166523933410645,-0.43100717663764954
1783153140396514600,2.2265146484375,8.400900840759277,5.204688549041748,-0.40707895159721375
1783153140406225700,2.2362255859375,8.384151458740234,5.187938690185547,-0.4381856322288513
1783153140415936500,2.2459365234375,8.386544227600098,5.185545921325684,-0.45254257321357727
1783153140425647600,2.255647705078125,8.355437278747559,5.195116996765137,-0.41904306411743164
1783153140435358700,2.265358642578125,8.329116821289062,5.214259624481201,-0.38315072655677795
1783153140445069800,2.27506982421875,8.331509590148926,5.197509765625,-0.39990049600601196
1783153140454781000,2.284781005859375,8.319544792175293,5.1783671379089355,-0.4142574071884155
1783153140464491800,2.29449169921875,8.348258972167969,5.156831741333008,-0.4405784606933594
1783153140474203000,2.304202880859375,8.379365921020508,5.142475128173828,-0.43100717663764954
1783153140483914000,2.3139140625,8.451150894165039,5.144867897033691,-0.4334000051021576
1783153140493625000,2.323625,8.491828918457031,5.164010524749756,-0.39990049600601196
1783153140503336000,2.3333359375,8.506185531616211,5.142475128173828,-0.40229329466819763
1783153140513047000,2.343047119140625,8.475078582763672,5.123332500457764,-0.41186460852622986
1783153140522758100,2.352758056640625,8.429615020751953,5.104189872741699,-0.4094717800617218
1783153140532469200,2.36246923828125,8.367402076721191,5.164010524749756,-0.41186460852622986
1783153140542180000,2.37218017578125,8.384151458740234,5.180759906768799,-0.44775694608688354
1783153140551891200,2.38189111328125,8.448758125305176,5.108975410461426,-0.4453641176223755
1783153140561602300,2.391602294921875,8.39611530303955,5.0826544761657715,-0.44775694608688354
1783153140571313400,2.4013134765625,8.329116821289062,5.113760948181152,-0.49322056770324707
1783153140581024500,2.4110244140625,8.274081230163574,5.164010524749756,-0.5171487927436829
1783153140590735400,2.4207353515625,8.214261054992676,5.168796062469482,-0.5123631358146667
1783153140600446500,2.430446533203125,8.20229721069336,5.195116996765137,-0.4956133961677551
1783153140610157600,2.440157470703125,8.204689979553223,5.233402252197266,-0.5075774788856506
1783153140619868700,2.44986865234375,8.283653259277344,5.223830699920654,-0.48364928364753723
1783153140629579500,2.45957958984375,8.293224334716797,5.209474086761475,-0.46450668573379517
1783153140639290600,2.46929052734375,8.283653259277344,5.173581600189209,-0.46450668573379517
1783153140649001700,2.479001708984375,8.329116821289062,5.152046203613281,-0.524327278137207
1783153140658712800,2.488712890625,8.307580947875977,5.13529634475708,-0.5673980712890625
1783153140668424000,2.498423828125,8.19511890411377,5.159224510192871,-0.5817549824714661
1783153140678134800,2.508134765625,8.084749221801758,5.175974369049072,-0.6176473498344421
1783153140687846000,2.517845947265625,8.051250457763672,5.173581600189209,-0.6176473498344421
1783153140697557000,2.527556884765625,8.041678428649902,5.173581600189209,-0.610468864440918
1783153140707268000,2.53726806640625,8.094321250915527,5.207081317901611,-0.5769693851470947
1783153140716979000,2.54697900390625,8.130212783813477,5.266901969909668,-0.5338985323905945
1783153140726690000,2.55668994140625,8.20947551727295,5.254937648773193,-0.5554339289665222
1783153140736401200,2.566401123046875,8.333902359008789,5.211866855621338,-0.5865406394004822
1783153140746112300,2.5761123046875,8.494221687316895,5.166403293609619,-0.6176473498344421
1783153140755823400,2.5858232421875,8.582756042480469,5.118546962738037,-0.643968403339386
1783153140765534200,2.5955341796875,8.628219604492188,5.113760948181152,-0.6272186636924744
1783153140775245300,2.605245361328125,8.616254806518555,5.125725269317627,-0.5961119532585144
1783153140784956400,2.614956298828125,8.609076499938965,5.166403293609619,-0.5769693851470947
1783153140794667500,2.62466748046875,8.649754524230957,5.18315315246582,-0.5578267574310303
1783153140804378400,2.63437841796875,8.678468704223633,5.175974369049072,-0.5554339289665222
1783153140814089500,2.64408935546875,8.604290962219238,5.199902534484863,-0.5410770177841187
1783153140823800600,2.653800537109375,8.585148811340332,5.24536657333374,-0.5673980712890625
1783153140833511700,2.66351171875,8.625826835632324,5.25972318649292,-0.5482555031776428
1783153140843222800,2.673222900390625,8.65214729309082,5.281258583068848,-0.47168517112731934
1783153140852933600,2.68293359375,8.726624488830566,5.293222904205322,-0.4501497745513916
1783153140862644700,2.692644775390625,8.774480819702148,5.31475830078125,-0.4812564551830292
1783153140872355800,2.70235595703125,8.803194046020508,5.302793979644775,-0.49322056770324707
1783153140882067000,2.71206689453125,8.839086532592773,5.312365531921387,-0.4956133961677551
1783153140891777800,2.72177783203125,8.786444664001465,5.283651351928711,-0.48843491077423096
1783153140901489000,2.731489013671875,8.731410026550293,5.281258583068848,-0.5075774788856506
1783153140911200000,2.741199951171875,8.70508861541748,5.274080276489258,-0.5267201066017151
1783153140920911000,2.7509111328125,8.72183895111084,5.257330417633057,-0.5530411601066589
1783153140930622200,2.760622314453125,8.740981101989746,5.25254487991333,-0.5195416212081909
1783153140940333000,2.7703330078125,8.817551612854004,5.228616714477539,-0.4956133961677551
1783153140950044200,2.780044189453125,8.82233715057373,5.226223945617676,-0.4980062246322632
1783153140959755300,2.78975537109375,8.757730484008789,5.2405805587768555,-0.4788636267185211
1783153140969466400,2.79946630859375,8.71226692199707,5.221437931060791,-0.4740779995918274
1783153140979177200,2.80917724609375,8.594719886779785,5.219045162200928,-0.49322056770324707
1783153140988888300,2.818888427734375,8.448758125305176,5.180759906768799,-0.5099703073501587
1783153140998599400,2.828599365234375,8.259724617004395,5.202295303344727,-0.5099703073501587
1783153141008310500,2.838310546875,8.185546875,5.221437931060791,-0.5123631358146667
1783153141018021600,2.848021728515625,8.060821533203125,5.228616714477539,-0.48364928364753723
1783153141027732500,2.857732421875,7.996214866638184,5.221437931060791,-0.5075774788856506
1783153141037443600,2.867443603515625,7.945965766906738,5.18315315246582,-0.5578267574310303
1783153141047154700,2.87715478515625,7.910073280334473,5.166403293609619,-0.5913262963294983
1783153141056865800,2.88686572265625,7.89332389831543,5.147260665893555,-0.5554339289665222
1783153141066576600,2.89657666015625,7.898109436035156,5.164010524749756,-0.5027918815612793
1783153141076287700,2.906287841796875,7.878966808319092,5.202295303344727,-0.45254257321357727
1783153141085998800,2.915998779296875,7.833503246307373,5.235795021057129,-0.34247273206710815
1783153141095710000,2.9257099609375,7.819146156311035,5.32911491394043,-0.3041875660419464
1783153141105421000,2.935421142578125,7.819146156311035,5.38205623626709,-0.25363919138908386
1783153141115132000,2.9451318359375,7.701898097991943,5.3940205574035645,-0.22492532432079315
1783153141124843000,2.954843017578125,7.560422420501709,5.3940205574035645,-0.26560330390930176
1783153141134554000,2.96455419921875,7.445566654205322,5.3940205574035645,-0.3496512174606323
1783153141144265200,2.97426513671875,7.337889671325684,5.403591632843018,-0.4381856322288513
1783153141153976000,2.98397607421875,7.275676250457764,5.432305812835693,-0.4788636267185211
1783153141163687200,2.993687255859375,7.287640571594238,5.453841209411621,-0.5267201066017151
1783153141173398300,3.003398193359375,7.340282440185547,5.484947681427002,-0.5506483316421509
1783153141183109400,3.013109375,7.433602809906006,5.480162143707275,-0.5817549824714661
1783153141192820500,3.022820556640625,7.548458099365234,5.439484119415283,-0.6248258352279663
1783153141202531300,3.03253125,7.699504852294922,5.456233978271484,-0.6607181429862976
1783153141212242400,3.042242431640625,7.840681552886963,5.487340450286865,-0.6870391964912415
1783153141221953500,3.05195361328125,7.886145114898682,5.49930477142334,-0.7253243923187256
1783153141231664600,3.06166455078125,7.8765740394592285,5.518447399139404,-0.7636095285415649
1783153141241375700,3.071375732421875,7.941180229187012,5.523232936859131,-0.7444669604301453
1783153141251086600,3.081086669921875,8.065607070922852,5.542375564575195,-0.7372884750366211
1783153141260797700,3.090797607421875,8.13260555267334,5.5591254234313965,-0.6870391964912415
1783153141270508800,3.1005087890625,8.127820014953613,5.5998029708862305,-0.6415755748748779
1783153141280220000,3.110219970703125,8.070392608642578,5.62373161315918,-0.5961119532585144
1783153141289930800,3.1199306640625,8.048856735229492,5.614160060882568,-0.6176473498344421
1783153141299641900,3.129641845703125,8.039285659790039,5.602196216583252,-0.6583253145217896
1783153141309353000,3.13935302734375,8.056035995483398,5.595017433166504,-0.6894320249557495
1783153141319064000,3.14906396484375,8.09671401977539,5.554339408874512,-0.7181459069252014
1783153141328775200,3.158775146484375,8.19272518157959,5.537590026855469,-0.7420741319656372
1783153141338486000,3.168486083984375,8.252546310424805,5.532804012298584,-0.7037889361381531
1783153141348197000,3.178197021484375,8.31715202331543,5.547161102294922,-0.6559324860572815
1783153141357908200,3.187908203125,8.408080101013184,5.547161102294922,-0.6296114325523376
1783153141367619300,3.197619384765625,8.384151458740234,5.5830535888671875,-0.5434698462486267
1783153141377330200,3.207330078125,8.214261054992676,5.597410202026367,-0.49322056770324707
1783153141387041300,3.217041259765625,8.015357971191406,5.621338367462158,-0.5099703073501587
1783153141396752400,3.22675244140625,7.857431411743164,5.6309099197387695,-0.4980062246322632
1783153141406463500,3.23646337890625,7.728219032287598,5.678766250610352,-0.44775694608688354
1783153141416174600,3.246174560546875,7.596613883972168,5.676373481750488,-0.44297128915786743
1783153141425885400,3.255885498046875,7.526922702789307,5.616552829742432,-0.5147559642791748
1783153141435596500,3.265596435546875,7.546065330505371,5.585446357727051,-0.5602195858955383
1783153141445307600,3.2753076171875,7.692326545715332,5.62373161315918,-0.5338985323905945
1783153141455018800,3.285018798828125,7.790432453155518,5.585446357727051,-0.4453641176223755
1783153141464729600,3.2947294921875,7.886145114898682,5.595017433166504,-0.4214358925819397
1783153141474440700,3.304440673828125,8.087141990661621,5.614160060882568,-0.5075774788856506
1783153141484151800,3.31415185546875,8.187939643859863,5.544768333435059,-0.521934449672699
1783153141493863000,3.32386279296875,8.041678428649902,5.523232936859131,-0.5937191247940063
1783153141503574000,3.333573974609375,7.819146156311035,5.580660820007324,-0.6487540602684021
1783153141513284900,3.343284912109375,7.618149280548096,5.56151819229126,-0.7540382146835327
1783153141522996000,3.352995849609375,7.64447021484375,5.516054630279541,-0.8763712644577026
1783153141532707000,3.36270703125,7.859824180603027,5.49930477142334,-0.859621524810791
1783153141542418200,3.372418212890625,7.965108394622803,5.4658050537109375,-0.7301099896430969
1783153141552129300,3.38212939453125,7.9005022048950195,5.4514479637146,-0.5673980712890625
1783153141561840000,3.391840087890625,7.972286701202393,5.523232936859131,-0.5769693851470947
1783153141571551200,3.40155126953125,8.147261619567871,5.530411243438721,-0.5817549824714661
1783153141581262300,3.411262451171875,8.19272518157959,5.475376605987549,-0.5673980712890625
1783153141590973400,3.420973388671875,8.415258407592773,5.480162143707275,-0.5817549824714661
1783153141600684300,3.430684326171875,8.601898193359375,5.456233978271484,-0.610468864440918
1783153141610395400,3.4403955078125,8.613862037658691,5.422734260559082,-0.612861692905426
1783153141620106500,3.4501064453125,8.52772045135498,5.420341491699219,-0.6702894568443298
1783153141629817600,3.459817626953125,8.477471351623535,5.422734260559082,-0.7253243923187256
1783153141639528700,3.46952880859375,8.362615585327148,5.384449005126953,-0.7731808423995972
1783153141649239600,3.479239501953125,8.286046028137207,5.386841773986816,-0.8282157182693481
1783153141658950700,3.48895068359375,8.321938514709473,5.405984401702881,-0.8114659786224365
1783153141668661800,3.498661865234375,8.247760772705078,5.408377170562744,-0.7875377535820007
1783153141678372900,3.508372802734375,8.127820014953613,5.410770416259766,-0.7612167000770569
1783153141688083700,3.518083740234375,8.044071197509766,5.463412284851074,-0.7420741319656372
1783153141697794800,3.527794921875,8.034500122070312,5.4897332191467285,-0.6894320249557495
1783153141707506000,3.537505859375,8.034500122070312,5.477769374847412,-0.6367899179458618
1783153141717217000,3.547217041015625,8.005785942077637,5.477769374847412,-0.5865406394004822
1783153141726928100,3.55692822265625,7.905287742614746,5.44426965713501,-0.5841478109359741
1783153141736639000,3.566638916015625,7.890930652618408,5.4418768882751465,-0.6511468887329102
1783153141746350000,3.57635009765625,7.8287177085876465,5.43709135055542,-0.6678966283798218
1783153141756061200,3.586061279296875,7.811967849731445,5.463412284851074,-0.6726822853088379
1783153141765772300,3.595772216796875,7.83111047744751,5.50648307800293,-0.6583253145217896
1783153141775483400,3.6054833984375,7.979465484619141,5.4897332191467285,-0.6702894568443298
1783153141785194200,3.6151943359375,8.154440879821777,5.43709135055542,-0.6798607110977173
1783153141794905300,3.6249052734375,8.381758689880371,5.319543838500977,-0.6391827464103699
1783153141804616400,3.634616455078125,8.594719886779785,5.269294738769531,-0.579362154006958
1783153141814327600,3.64432763671875,8.858229637145996,5.286044120788574,-0.46450668573379517
1783153141824038400,3.654038330078125,9.028120040893555,5.3557353019714355,-0.22971096634864807
1783153141833749500,3.66374951171875,9.097511291503906,5.420341491699219,0.06939185410737991
1783153141843460600,3.673460693359375,9.154939651489258,5.487340450286865,0.30179476737976074
1783153141853171700,3.683171630859375,9.121439933776855,5.516054630279541,0.4956133961677551
1783153141862882800,3.6928828125,8.915657043457031,5.511268615722656,0.5530411601066589
1783153141872593700,3.70259375,8.534899711608887,5.530411243438721,0.4549354016780853
1783153141882304800,3.7123046875,7.957930088043213,5.544768333435059,0.26560330390930176
1783153141892015900,3.722015869140625,7.330711364746094,5.554339408874512,0.02392822690308094
1783153141901727000,3.73172705078125,6.80877685546875,5.535196781158447,-0.16271193325519562
1783153141911438000,3.74143798828125,6.533602237701416,5.532804012298584,-0.3161516785621643
1783153141921149000,3.75114892578125,6.562315940856934,5.5136613845825195,-0.4453641176223755
1783153141930860000,3.760860107421875,6.914061069488525,5.520840167999268,-0.490827739238739
1783153141940571100,3.770571044921875,7.347461223602295,5.551946640014648,-0.41186460852622986
1783153141950282200,3.7802822265625,7.704290866851807,5.590231895446777,-0.24646073579788208
1783153141959993000,3.7899931640625,7.943572998046875,5.683551788330078,-0.13639089465141296
1783153141969704200,3.7997041015625,8.005785942077637,5.743372440338135,-0.10767702013254166
1783153141979415300,3.809415283203125,7.936394691467285,5.769693374633789,-0.10767702013254166
1783153141989126400,3.81912646484375,7.790432453155518,5.791228771209717,-0.1866401731967926
1783153141998837500,3.82883740234375,7.749754428863525,5.712265968322754,-0.37597227096557617
1783153142008548400,3.83854833984375,7.77607536315918,5.587839126586914,-0.5721837282180786
1783153142018259500,3.848259521484375,7.811967849731445,5.458626747131348,-0.7061817646026611
1783153142027970600,3.857970458984375,7.960322856903076,5.32911491394043,-0.8452646136283875
1783153142037681700,3.867681640625,8.152048110961914,5.24536657333374,-0.9170492887496948
1783153142047392800,3.877392822265625,8.365009307861328,5.175974369049072,-0.8500502705574036
1783153142057103600,3.887103515625,8.55882740020752,5.140082359313965,-0.7779664397239685
1783153142066814700,3.896814697265625,8.700303077697754,5.137689113616943,-0.7133602499961853
1783153142076525800,3.90652587890625,8.85344409942627,5.164010524749756,-0.6152545213699341
1783153142086237000,3.91623681640625,9.011369705200195,5.1783671379089355,-0.5291129350662231
1783153142095947800,3.92594775390625,8.958727836608887,5.187938690185547,-0.4621138870716095
1783153142105659000,3.935658935546875,8.810373306274414,5.242973327636719,-0.385543555021286
1783153142115370000,3.945369873046875,8.688039779663086,5.307579517364502,-0.39511483907699585
1783153142125081000,3.9550810546875,8.5731840133667,5.31475830078125,-0.3209373354911804
1783153142134792200,3.964792236328125,8.40329360961914,5.413163185119629,-0.20338992774486542
1783153142144503000,3.9745029296875,8.319544792175293,5.496912002563477,-0.08853443711996078
1783153142154214100,3.984214111328125,8.228617668151855,5.602196216583252,0.01196411345154047
1783153142163925200,3.99392529296875,8.149654388427734,5.669195175170898,0.062213387340307236
1783153142173636400,4.00363623046875,8.03210735321045,5.709873199462891,0.12921242415905
1783153142183347500,4.013347412109375,7.886145114898682,5.769693374633789,0.1746760457754135
1783153142193058300,4.023058349609375,7.807182312011719,5.817550182342529,0.1866401731967926
1783153142202769400,4.032769287109375,7.756932735443115,5.817550182342529,0.13639089465141296
1783153142212480500,4.04248046875,7.709076404571533,5.776872158050537,0.02392822690308094
1783153142222191600,4.052191650390625,7.70668363571167,5.743372440338135,-0.05503492057323456
1783153142231902500,4.06190234375,7.7593255043029785,5.650052547454834,-0.12442677468061447
1783153142241613600,4.071613525390625,7.857431411743164,5.5998029708862305,-0.1339980661869049
1783153142251324700,4.08132470703125,8.072785377502441,5.566303730010986,-0.08135596662759781
1783153142261035800,4.091035888671875,8.345866203308105,5.554339408874512,-0.038285162299871445
1783153142270747000,4.100746826171875,8.463114738464355,5.468197822570801,-0.08135596662759781
1783153142280457700,4.110457763671875,8.405686378479004,5.403591632843018,-0.1818545162677765
1783153142290168800,4.1201689453125,8.266902923583984,5.353342533111572,-0.37118661403656006
1783153142299880000,4.1298798828125,8.142476081848145,5.341378211975098,-0.5626124143600464
1783153142309591000,4.139591064453125,8.03210735321045,5.31475830078125,-0.6248258352279663
1783153142319302100,4.14930224609375,8.039285659790039,5.338985443115234,-0.6367899179458618
1783153142329013000,4.159012939453125,8.108677864074707,5.353342533111572,-0.5626124143600464
1783153142338724000,4.16872412109375,8.159226417541504,5.386841773986816,-0.48364928364753723
1783153142348435200,4.178435302734375,8.183154106140137,5.384449005126953,-0.44775694608688354
1783153142358146300,4.188146240234375,8.185546875,5.396413326263428,-0.40707895159721375
1783153142367857200,4.197857177734375,8.221439361572266,5.391627788543701,-0.3807578980922699
1783153142377568300,4.207568359375,8.242975234985352,5.403591632843018,-0.3329014480113983
1783153142387279400,4.217279296875,8.17836856842041,5.410770416259766,-0.3448655605316162
1783153142396990500,4.226990478515625,8.065607070922852,5.446662425994873,-0.40707895159721375
1783153142406701600,4.23670166015625,8.020143508911133,5.446662425994873,-0.4453641176223755
1783153142416412400,4.246412353515625,7.972286701202393,5.422734260559082,-0.4501497745513916
1783153142426123500,4.25612353515625,7.965108394622803,5.446662425994873,-0.42382872104644775
1783153142435834600,4.265834716796875,8.041678428649902,5.482554912567139,-0.4453641176223755
1783153142445545700,4.275545654296875,8.120641708374023,5.463412284851074,-0.41904306411743164
1783153142455256800,4.2852568359375,8.199904441833496,5.468197822570801,-0.38793638348579407
1783153142464967700,4.2949677734375,8.274081230163574,5.477769374847412,-0.35922250151634216
1783153142474678800,4.3046787109375,8.290831565856934,5.4897332191467285,-0.2922234535217285
1783153142484390000,4.314389892578125,8.238189697265625,5.542375564575195,-0.1986042857170105
1783153142494101000,4.32410107421875,8.175975799560547,5.5830535888671875,-0.16271193325519562
1783153142503811800,4.333811767578125,8.13260555267334,5.5830535888671875,-0.14117653667926788
1783153142513523000,4.34352294921875,8.048856735229492,5.556732177734375,-0.11246266216039658
1783153142523234000,4.353234130859375,7.969893932342529,5.614160060882568,-0.11964113265275955
1783153142532945200,4.362945068359375,7.881359577178955,5.6309099197387695,-0.12203395366668701
1783153142542656300,4.37265625,7.754539966583252,5.616552829742432,-0.1459621787071228
1783153142552367000,4.3823671875,7.682755470275879,5.6069817543029785,-0.17228323221206665
1783153142562078200,4.392078125,7.6875410079956055,5.5998029708862305,-0.23210379481315613
1783153142571789300,4.401789306640625,7.728219032287598,5.563910961151123,-0.2826521694660187
1783153142581500400,4.41150048828125,7.800003528594971,5.547161102294922,-0.2922234535217285
1783153142591211500,4.42121142578125,7.910073280334473,5.520840167999268,-0.35443684458732605
1783153142600922400,4.43092236328125,7.943572998046875,5.494519233703613,-0.37118661403656006
1783153142610633500,4.440633544921875,7.95553731918335,5.487340450286865,-0.37597227096557617
1783153142620344600,4.450344482421875,7.912466049194336,5.456233978271484,-0.39990049600601196
1783153142630055700,4.4600556640625,7.922037601470947,5.396413326263428,-0.43100717663764954
1783153142639766500,4.4697666015625,8.00100040435791,5.365306377410889,-0.4692923426628113
1783153142649477600,4.4794775390625,8.106285095214844,5.343770980834961,-0.4214358925819397
1783153142659188700,4.489188720703125,8.173583030700684,5.3557353019714355,-0.3329014480113983
1783153142668899800,4.49889990234375,8.15683364868164,5.408377170562744,-0.2225325107574463
1783153142678611000,4.50861083984375,8.154440879821777,5.480162143707275,-0.14835500717163086
1783153142688321800,4.51832177734375,8.147261619567871,5.4897332191467285,-0.07896314561367035
1783153142698033000,4.528032958984375,8.134998321533203,5.532804012298584,-0.04546362906694412
1783153142707744000,4.537743896484375,8.079963684082031,5.5591254234313965,-0.03349951654672623
1783153142717455000,4.547455078125,8.00100040435791,5.633302688598633,-0.03349951654672623
1783153142727166200,4.557166259765625,7.907680511474609,5.652445316314697,-0.08135596662759781
1783153142736877000,4.566876953125,7.780860900878906,5.6548380851745605,-0.11006984114646912
1783153142746588200,4.576588134765625,7.780860900878906,5.659623622894287,-0.14356936514377594
1783153142756299300,4.58629931640625,7.821538925170898,5.650052547454834,-0.13160525262355804
1783153142766010400,4.59601025390625,7.950751304626465,5.6548380851745605,-0.14835500717163086
1783153142775721200,4.60572119140625,8.13260555267334,5.6309099197387695,-0.15553347766399384
1783153142785432300,4.615432373046875,8.298009872436523,5.609374523162842,-0.1579262912273407
1783153142795143400,4.625143310546875,8.415258407592773,5.5591254234313965,-0.19621145725250244
1783153142804854500,4.6348544921875,8.44157886505127,5.501697540283203,-0.2679961323738098
1783153142814565600,4.644565673828125,8.44157886505127,5.5136613845825195,-0.31854450702667236
1783153142824276500,4.6542763671875,8.42722225189209,5.542375564575195,-0.3161516785621643
1783153142833987600,4.663987548828125,8.436793327331543,5.578267574310303,-0.2632105052471161
1783153142843698700,4.67369873046875,8.458329200744629,5.532804012298584,-0.2727817893028259
1783153142853409800,4.683409912109375,8.477471351623535,5.518447399139404,-0.2512463629245758
1783153142863121000,4.693120849609375,8.44157886505127,5.516054630279541,-0.2105683982372284
1783153142872831700,4.702831787109375,8.376973152160645,5.528018474578857,-0.18903298676013947
1783153142882542800,4.71254296875,8.298009872436523,5.508875846862793,-0.1579262912273407
1783153142892254000,4.72225390625,8.233403205871582,5.511268615722656,-0.13160525262355804
1783153142901965000,4.731965087890625,8.147261619567871,5.542375564575195,-0.08374879509210587
1783153142911676200,4.74167626953125,8.015357971191406,5.56869649887085,-0.04307080805301666
1783153142921387000,4.751386962890625,7.881359577178955,5.563910961151123,-0.062213387340307236
1783153142931098000,4.76109814453125,7.718647480010986,5.537590026855469,-0.13878370821475983
1783153142940809200,4.770809326171875,7.610970497131348,5.475376605987549,-0.21774685382843018
1783153142950520300,4.780520263671875,7.613363265991211,5.403591632843018,-0.3233301639556885
1783153142960231200,4.790231201171875,7.673183917999268,5.358128070831299,-0.38793638348579407
1783153142969942300,4.7999423828125,7.694719314575195,5.358128070831299,-0.3735794425010681
1783153142979653400,4.8096533203125,7.76889705657959,5.346164226531982,-0.32572299242019653
1783153142989364500,4.819364501953125,7.902894973754883,5.360520839691162,-0.28504499793052673
1783153142999075600,4.82907568359375,8.051250457763672,5.386841773986816,-0.23688943684101105
1783153143008786400,4.838786376953125,8.17836856842041,5.377270698547363,-0.23688943684101105
1783153143018497500,4.84849755859375,8.20229721069336,5.379663467407227,-0.2392822653055191
1783153143028208600,4.858208740234375,8.154440879821777,5.410770416259766,-0.23210379481315613
1783153143037919700,4.867919677734375,8.089534759521484,5.453841209411621,-0.20578274130821228
1783153143047630800,4.877630859375,8.060821533203125,5.520840167999268,-0.09092725813388824
1783153143057341700,4.887341796875,8.101499557495117,5.585446357727051,-0.01196411345154047
1783153143067052800,4.897052734375,8.183154106140137,5.611767292022705,0.05024927482008934
1783153143076764000,4.906763916015625,8.269295692443848,5.580660820007324,0.08614161610603333
1783153143086475000,4.91647509765625,8.374580383300781,5.587839126586914,0.05503492057323456
1783153143096185900,4.926185791015625,8.460721969604492,5.530411243438721,-0.02153540402650833
1783153143105897000,4.93589697265625,8.53729248046875,5.475376605987549,-0.05024927482008934
1783153143115608000,4.945608154296875,8.606683731079102,5.477769374847412,-0.01196411345154047
1783153143125319200,4.955319091796875,8.740981101989746,5.453841209411621,-0.031106693670153618
1783153143135030300,4.9650302734375,8.812766075134277,5.43709135055542,-0.016749758273363113
1783153143144741000,4.9747412109375,8.834300994873047,5.396413326263428,0.0023928226437419653
1783153143154452200,4.9844521484375,8.740981101989746,5.386841773986816,-0.009571290574967861
1783153143164163300,4.994163330078125,8.56600570678711,5.405984401702881,-0.03349951654672623
1783153143173874400,5.00387451171875,8.345866203308105,5.413163185119629,-0.059820566326379776
1783153143183585500,5.01358544921875,8.173583030700684,5.403591632843018,-0.12203395366668701
1783153143193296400,5.02329638671875,8.075178146362305,5.396413326263428,-0.17228323221206665
1783153143203007500,5.033007568359375,8.063214302062988,5.343770980834961,-0.19381862878799438
1783153143212718600,5.042718505859375,8.079963684082031,5.3318071365356445,-0.1866401731967926
1783153143222429700,5.0524296875,8.046463966369629,5.341378211975098,-0.15314064919948578
1783153143232140800,5.062140869140625,7.991429328918457,5.386841773986816,-0.11964113265275955
1783153143241851600,5.0718515625,7.881359577178955,5.384449005126953,-0.13160525262355804
1783153143251562800,5.081562744140625,7.788039684295654,5.427519798278809,-0.14835500717163086
1783153143261273900,5.09127392578125,7.7353973388671875,5.4897332191467285,-0.12203395366668701
1783153143270985000,5.10098486328125,7.725826263427734,5.554339408874512,-0.13878370821475983
1783153143280695800,5.11069580078125,7.764111042022705,5.542375564575195,-0.19381862878799438
1783153143290407000,5.120406982421875,7.778468132019043,5.523232936859131,-0.25363919138908386
1783153143300118000,5.130117919921875,7.790432453155518,5.4897332191467285,-0.3113660514354706
1783153143309829000,5.1398291015625,7.843074321746826,5.453841209411621,-0.3807578980922699
1783153143319540200,5.149540283203125,7.953144073486328,5.413163185119629,-0.4046861231327057
1783153143329251000,5.1592509765625,8.072785377502441,5.391627788543701,-0.3448655605316162
1783153143338962200,5.168962158203125,8.166404724121094,5.403591632843018,-0.2946162819862366
1783153143348673300,5.17867333984375,8.28126049041748,5.4514479637146,-0.2826521694660187
1783153143368095500,5.198095458984375,8.499007225036621,5.470590591430664,-0.19621145725250244
1783153143377806300,5.207806396484375,8.542078018188477,5.43709135055542,-0.17706887423992157
1783153143387517400,5.217517333984375,8.518149375915527,5.434698581695557,-0.11964113265275955
1783153143397228500,5.227228515625,8.439186096191406,5.434698581695557,-0.08853443711996078
1783153143406939600,5.236939697265625,8.338687896728516,5.463412284851074,-0.059820566326379776
1783153143416650800,5.246650634765625,8.242975234985352,5.453841209411621,-0.040677983313798904
1783153143426361600,5.256361572265625,8.108677864074707,5.482554912567139,-0.01196411345154047
1783153143436072700,5.26607275390625,7.957930088043213,5.501697540283203,-0.02153540402650833
1783153143445783800,5.27578369140625,7.764111042022705,5.535196781158447,-0.08374879509210587
1783153143455495000,5.285494873046875,7.6013994216918945,5.523232936859131,-0.16031911969184875
1783153143465205800,5.295205810546875,7.491030216217041,5.504090309143066,-0.2560320198535919
1783153143474916900,5.304916748046875,7.555636405944824,5.468197822570801,-0.3400799036026001
1783153143484628000,5.3146279296875,7.730611801147461,5.434698581695557,-0.35443684458732605
1783153143494339000,5.324339111328125,7.850253105163574,5.456233978271484,-0.35922250151634216
1783153143504050200,5.33405029296875,7.977072715759277,5.511268615722656,-0.3520440459251404
1783153143513761000,5.343760986328125,8.036892890930176,5.530411243438721,-0.34247273206710815
1783153143523472100,5.35347216796875,8.056035995483398,5.523232936859131,-0.3400799036026001
1783153143533183200,5.363183349609375,7.989036560058594,5.516054630279541,-0.3209373354911804
1783153143542894300,5.372894287109375,8.00100040435791,5.535196781158447,-0.3329014480113983
1783153143552605400,5.38260546875,8.015357971191406,5.508875846862793,-0.35922250151634216
1783153143562316300,5.39231640625,8.03210735321045,5.475376605987549,-0.37118661403656006
1783153143572027400,5.40202734375,8.084749221801758,5.453841209411621,-0.3735794425010681
1783153143581738500,5.411738525390625,8.161619186401367,5.44426965713501,-0.3496512174606323
1783153143591449600,5.42144970703125,8.262117385864258,5.446662425994873,-0.30658039450645447
1783153143601160700,5.43116064453125,8.329116821289062,5.468197822570801,-0.2273181527853012
1783153143610871600,5.44087158203125,8.3267240524292,5.523232936859131,-0.10767702013254166
1783153143620582700,5.450582763671875,8.286046028137207,5.5758748054504395,-0.08135596662759781
1783153143630293800,5.460293701171875,8.159226417541504,5.626124382019043,-0.10049854964017868
1783153143640004900,5.4700048828125,8.044071197509766,5.614160060882568,-0.16749759018421173
1783153143649716000,5.479716064453125,7.945965766906738,5.585446357727051,-0.2392822653055191
1783153143659426800,5.4894267578125,7.835896015167236,5.5591254234313965,-0.2994019389152527
1783153143669138000,5.499137939453125,7.821538925170898,5.539982795715332,-0.3568296730518341
1783153143678849000,5.50884912109375,7.890930652618408,5.508875846862793,-0.4453641176223755
1783153143688560000,5.51856005859375,8.0081787109375,5.496912002563477,-0.44297128915786743
1783153143698271000,5.52827099609375,8.13260555267334,5.492125988006592,-0.4405784606933594
1783153143707982000,5.537982177734375,8.250153541564941,5.449055194854736,-0.4788636267185211
1783153143717693200,5.547693115234375,8.312366485595703,5.4418768882751465,-0.4501497745513916
1783153143727404300,5.557404296875,8.362615585327148,5.446662425994873,-0.43100717663764954
1783153143737115400,5.567115478515625,8.338687896728516,5.449055194854736,-0.39032918214797974
1783153143746826200,5.576826171875,8.276473999023438,5.4418768882751465,-0.38315072655677795
1783153143756537300,5.586537353515625,8.199904441833496,5.429912567138672,-0.37597227096557617
1783153143766248400,5.59624853515625,8.140083312988281,5.405984401702881,-0.3640081584453583
1783153143775959600,5.60595947265625,8.134998321533203,5.413163185119629,-0.35922250151634216
1783153143785670700,5.615670654296875,8.123034477233887,5.413163185119629,-0.29700911045074463
1783153143795381500,5.625381591796875,8.140083312988281,5.44426965713501,-0.20578274130821228
1783153143805092600,5.635092529296875,8.183154106140137,5.511268615722656,-0.08614161610603333
1783153143814803700,5.6448037109375,8.207082748413086,5.590231895446777,0.031106693670153618
1783153143824514800,5.654514892578125,8.185546875,5.618945598602295,0.11724831163883209
1783153143834226000,5.664225830078125,8.099106788635254,5.647659778594971,0.1459621787071228
1783153143843936800,5.673936767578125,7.974679470062256,5.6548380851745605,0.13639089465141296
1783153143853648000,5.68364794921875,7.878966808319092,5.621338367462158,0.06699903309345245
1783153143863359000,5.69335888671875,7.76889705657959,5.590231895446777,0.062213387340307236
1783153143873070000,5.703070068359375,7.725826263427734,5.578267574310303,0.02871387079358101
1783153143882781200,5.71278125,7.725826263427734,5.544768333435059,0.02632104977965355
1783153143892492000,5.722491943359375,7.754539966583252,5.551946640014648,0.014356935396790504
1783153143902203100,5.732203125,7.797610759735107,5.566303730010986,-0.0023928226437419653
1783153143911914200,5.741914306640625,7.864609718322754,5.528018474578857,-0.05503492057323456
1783153143921625300,5.751625244140625,7.929215908050537,5.482554912567139,-0.11246266216039658
1783153143931336200,5.761336181640625,7.9866437911987305,5.456233978271484,-0.17946170270442963
1783153143941047300,5.77104736328125,8.01057243347168,5.4514479637146,-0.24167509377002716
1783153143950758400,5.78075830078125,7.965108394622803,5.446662425994873,-0.2994019389152527
1783153143960469500,5.790469482421875,7.967501163482666,5.415555953979492,-0.4166502356529236
1783153143970180600,5.8001806640625,7.905287742614746,5.415555953979492,-0.524327278137207
1783153143979891500,5.809891357421875,7.859824180603027,5.391627788543701,-0.5434698462486267
1783153143989602600,5.8196025390625,7.922037601470947,5.403591632843018,-0.490827739238739
1783153143999313700,5.829313720703125,8.12542724609375,5.413163185119629,-0.39032918214797974
1783153144009024800,5.839024658203125,8.314759254455566,5.453841209411621,-0.27038896083831787
1783153144018735900,5.84873583984375,8.472685813903809,5.492125988006592,-0.1818545162677765
1783153144028446700,5.85844677734375,8.522934913635254,5.492125988006592,-0.15074782073497772
1783153144038157800,5.86815771484375,8.4200439453125,5.463412284851074,-0.20578274130821228
1783153144047869000,5.877868896484375,8.331509590148926,5.468197822570801,-0.26560330390930176
1783153144057580000,5.887580078125,8.231010437011719,5.401198863983154,-0.34725838899612427
1783153144067291100,5.897291015625,8.149654388427734,5.379663467407227,-0.45254257321357727
1783153144077002000,5.907001953125,8.099106788635254,5.348556995391846,-0.5769693851470947
1783153144086713000,5.916713134765625,8.079963684082031,5.360520839691162,-0.6080760359764099
1783153144096424200,5.926424072265625,8.11824893951416,5.338985443115234,-0.5434698462486267
1783153144106135300,5.93613525390625,8.19272518157959,5.408377170562744,-0.4621138870716095
1783153144115846400,5.945846435546875,8.276473999023438,5.458626747131348,-0.39032918214797974
1783153144125557200,5.95555712890625,8.307580947875977,5.458626747131348,-0.3161516785621643
1783153144135268400,5.965268310546875,8.30997371673584,5.4514479637146,-0.30179476737976074
1783153144144979500,5.9749794921875,8.262117385864258,5.425127029418945,-0.2874378263950348
1783153144154690600,5.984690673828125,8.223832130432129,5.415555953979492,-0.3161516785621643
1783153144164401700,5.994401611328125,8.123034477233887,5.396413326263428,-0.3233301639556885
1783153144174112500,6.004112548828125,7.99382209777832,5.389235019683838,-0.38793638348579407
1783153144183823600,6.01382373046875,7.888537883758545,5.3940205574035645,-0.41904306411743164
1783153144193534700,6.02353466796875,7.833503246307373,5.396413326263428,-0.43100717663764954
1783153144203245800,6.033245849609375,7.89332389831543,5.384449005126953,-0.4262215197086334
1783153144212957000,6.04295703125,8.02492904663086,5.343770980834961,-0.3807578980922699
1783153144222667800,6.052667724609375,8.147261619567871,5.334199905395508,-0.3448655605316162
1783153144232379000,6.06237890625,8.2788667678833,5.336592674255371,-0.3281157910823822
1783153144242090000,6.072090087890625,8.333902359008789,5.283651351928711,-0.3520440459251404
1783153144251801000,6.081801025390625,8.274081230163574,5.266901969909668,-0.36640095710754395
1783153144261512200,6.09151220703125,8.17119026184082,5.2645087242126465,-0.3807578980922699
1783153144271223000,6.10122314453125,8.044071197509766,5.262115955352783,-0.35443684458732605
1783153144280934100,6.11093408203125,8.01775074005127,5.307579517364502,-0.3113660514354706
1783153144290645200,6.120645263671875,8.02492904663086,5.336592674255371,-0.24646073579788208
1783153144300356400,6.1303564453125,8.058428764343262,5.379663467407227,-0.18424734473228455
1783153144310067200,6.140067138671875,8.077570915222168,5.401198863983154,-0.16510476171970367
1783153144319778300,6.1497783203125,8.051250457763672,5.425127029418945,-0.1746760457754135
1783153144329489400,6.159489501953125,8.003393173217773,5.429912567138672,-0.20338992774486542
1783153144339200500,6.169200439453125,7.965108394622803,5.434698581695557,-0.20578274130821228
1783153144348911600,6.17891162109375,7.99382209777832,5.487340450286865,-0.19142581522464752
1783153144358622500,6.18862255859375,8.015357971191406,5.496912002563477,-0.13160525262355804
1783153144368333600,6.19833349609375,7.998608112335205,5.523232936859131,-0.11724831163883209
1783153144378044700,6.208044677734375,7.998608112335205,5.537590026855469,-0.11964113265275955
1783153144387755800,6.217755859375,7.941180229187012,5.542375564575195,-0.12681959569454193
1783153144397467000,6.227466796875,7.9244303703308105,5.5758748054504395,-0.12442677468061447
1783153144407177700,6.237177734375,8.039285659790039,5.551946640014648,-0.16749759018421173
1783153144416888800,6.246888916015625,8.161619186401367,5.487340450286865,-0.19142581522464752
1783153144426600000,6.256599853515625,8.355437278747559,5.398806095123291,-0.22013968229293823
1783153144436311000,6.26631103515625,8.503792762756348,5.317151069641113,-0.28983065485954285
1783153144446022000,6.27602197265625,8.55164909362793,5.274080276489258,-0.31375887989997864
1783153144455733000,6.28573291015625,8.525327682495117,5.2405805587768555,-0.30179476737976074
1783153144465444000,6.295444091796875,8.463114738464355,5.242973327636719,-0.2994019389152527
1783153144475155200,6.3051552734375,8.408080101013184,5.2645087242126465,-0.3089732229709625
1783153144484866300,6.3148662109375,8.70508861541748,5.226223945617676,-0.18424734473228455
1783153144494577200,6.3245771484375,8.970691680908203,5.420341491699219,0.16510476171970367
1783153144504288300,6.334288330078125,8.719446182250977,5.626124382019043,0.019142581149935722
1783153144513999400,6.343999267578125,8.685647010803223,5.571089267730713,-0.09571290761232376
1783153144523710500,6.35371044921875,8.539685249328613,5.336592674255371,-0.12442677468061447
1783153144533421600,6.363421630859375,8.489435195922852,5.242973327636719,-0.2105683982372284
1783153144543132400,6.37313232421875,8.5133638381958,5.336592674255371,-0.26081767678260803
1783153144552843500,6.382843505859375,8.398508071899414,5.415555953979492,-0.1866401731967926
1783153144562554600,6.3925546875,8.228617668151855,5.43709135055542,-0.12442677468061447
1783153144572265700,6.402265625,8.108677864074707,5.413163185119629,-0.15074782073497772
1783153144581976800,6.411976806640625,8.022536277770996,5.36769962310791,-0.21774685382843018
1783153144591687700,6.421687744140625,8.003393173217773,5.391627788543701,-0.23688943684101105
1783153144601398800,6.431398681640625,8.020143508911133,5.401198863983154,-0.20817556977272034
1783153144611110000,6.44110986328125,8.089534759521484,5.405984401702881,-0.15074782073497772
1783153144620821000,6.450821044921875,8.087141990661621,5.362913608551025,-0.13878370821475983
1783153144630532000,6.460531982421875,8.127820014953613,5.336592674255371,-0.12921242415905
1783153144640243000,6.470242919921875,8.137690544128418,5.24536657333374,0.14835500717163086
1783153144649954000,6.4799541015625,8.065607070922852,5.530411243438721,-0.08853443711996078
1783153144659665200,6.4896650390625,7.981858253479004,5.305186748504639,-0.35443684458732605
1783153144669376300,6.499376220703125,8.029714584350586,5.01086950302124,-0.3400799036026001
1783153144679087400,6.50908740234375,8.108677864074707,5.099404335021973,-0.2922234535217285
1783153144688798200,6.518798095703125,8.12542724609375,5.211866855621338,-0.3400799036026001
1783153144698509300,6.52850927734375,8.113463401794434,5.257330417633057,-0.3089732229709625
1783153144708220400,6.538220458984375,8.115856170654297,5.209474086761475,-0.3161516785621643
1783153144717931500,6.547931640625,8.20229721069336,5.192724227905273,-0.3640081584453583
1783153144727642600,6.557642578125,8.228617668151855,5.166403293609619,-0.3616153299808502
1783153144737353500,6.567353515625,8.199904441833496,5.032404899597168,-0.3807578980922699
1783153144747064600,6.577064697265625,8.336295127868652,5.197509765625,-0.3089732229709625
1783153144756775700,6.586775634765625,8.333902359008789,5.171188831329346,-0.31854450702667236
1783153144766486800,6.59648681640625,8.257331848144531,5.197509765625,-0.27756741642951965
1783153144776198000,6.606197998046875,8.233403205871582,5.19033145904541,-0.24646073579788208
1783153144785908700,6.61590869140625,8.13260555267334,5.1783671379089355,-0.26081767678260803
1783153144795619800,6.625619873046875,8.127820014953613,5.221437931060791,-0.2727817893028259
1783153144805331000,6.6353310546875,8.175975799560547,5.25972318649292,-0.2225325107574463
1783153144815042000,6.6450419921875,8.221439361572266,5.2405805587768555,-0.1866401731967926
1783153144824753200,6.654753173828125,8.247760772705078,5.274080276489258,-0.16749759018421173
1783153144834464000,6.664464111328125,8.2788667678833,5.286044120788574,-0.17228323221206665
1783153144844175000,6.674175048828125,8.2788667678833,5.25254487991333,-0.23688943684101105
1783153144853886200,6.68388623046875,8.331509590148926,5.25254487991333,-0.22492532432079315
1783153144863597300,6.693597412109375,8.329116821289062,5.281258583068848,-0.21296121180057526
1783153144873308400,6.703308349609375,8.29561710357666,5.286044120788574,-0.19381862878799438
1783153144883019300,6.713019287109375,8.2788667678833,5.283651351928711,-0.21296121180057526
1783153144892730400,6.72273046875,8.312366485595703,5.2645087242126465,-0.2105683982372284
1783153144902441500,6.73244140625,8.324331283569336,5.326722145080566,-0.1746760457754135
1783153144912152600,6.742152587890625,8.355437278747559,5.350949764251709,-0.12681959569454193
1783153144921863700,6.75186376953125,8.283653259277344,5.338985443115234,-0.0933200865983963
1783153144931574500,6.761574462890625,8.221439361572266,5.305186748504639,-0.15314064919948578
1783153144941285600,6.77128564453125,8.223832130432129,5.312365531921387,-0.1866401731967926
1783153144950996700,6.780996826171875,8.31715202331543,5.290830135345459,-0.2273181527853012
1783153144960707800,6.790707763671875,8.353044509887695,5.276473045349121,-0.2225325107574463
1783153144970419000,6.8004189453125,8.286046028137207,5.2716875076293945,-0.19381862878799438
1783153144980129800,6.8101298828125,8.293224334716797,5.278865814208984,-0.2560320198535919
1783153144989841000,6.8198408203125,8.376973152160645,5.2716875076293945,-0.28504499793052673
1783153144999552000,6.829552001953125,8.506185531616211,5.25254487991333,-0.24885354936122894
1783153145009263000,6.83926318359375,8.53729248046875,5.226223945617676,-0.22971096634864807
1783153145018974200,6.84897412109375,8.508578300476074,5.207081317901611,-0.2225325107574463
1783153145028685000,6.85868505859375,8.398508071899414,5.180759906768799,-0.2105683982372284
1783153145038396200,6.868396240234375,8.29561710357666,5.152046203613281,-0.22492532432079315
1783153145048107300,6.878107177734375,8.247760772705078,5.159224510192871,-0.23688943684101105
1783153145057818400,6.887818359375,8.199904441833496,5.209474086761475,-0.2153540402650833
1783153145067529500,6.897529541015625,8.101499557495117,5.231009483337402,-0.22013968229293823
1783153145077240600,6.907240478515625,8.051250457763672,5.211866855621338,-0.22492532432079315
1783153145086951400,6.916951416015625,8.039285659790039,5.228616714477539,-0.21774685382843018
1783153145096662500,6.92666259765625,8.029714584350586,5.2166523933410645,-0.22013968229293823
1783153145106373600,6.93637353515625,8.140083312988281,5.209474086761475,-0.2632105052471161
1783153145116084700,6.946084716796875,8.254939079284668,5.242973327636719,-0.26560330390930176
1783153145125795800,6.9557958984375,8.293224334716797,5.202295303344727,-0.27756741642951965
1783153145135506700,6.965506591796875,8.379365921020508,5.185545921325684,-0.2922234535217285
1783153145145217800,6.9752177734375,8.458329200744629,5.207081317901611,-0.2922234535217285
1783153145154929000,6.984928955078125,8.410472869873047,5.231009483337402,-0.22013968229293823
1783153145164640000,6.994639892578125,8.333902359008789,5.262115955352783,-0.18903298676013947
1783153145174350800,7.004350830078125,8.269295692443848,5.221437931060791,-0.23688943684101105
1783153145184062000,7.01406201171875,8.274081230163574,5.226223945617676,-0.2153540402650833
1783153145193773000,7.02377294921875,8.305188179016113,5.254937648773193,-0.13878370821475983
1783153145203484200,7.033484130859375,8.286046028137207,5.25254487991333,-0.13639089465141296
1783153145213195300,7.0431953125,8.250153541564941,5.233402252197266,-0.16749759018421173
1783153145222906000,7.052906005859375,8.207082748413086,5.219045162200928,-0.17228323221206665
1783153145232617200,7.0626171875,8.242975234985352,5.238187789916992,-0.20099709928035736
1783153145242328300,7.072328369140625,8.264510154724121,5.223830699920654,-0.19142581522464752
1783153145252039400,7.082039306640625,8.30997371673584,5.221437931060791,-0.19381862878799438
1783153145261750500,7.09175048828125,8.3267240524292,5.228616714477539,-0.18903298676013947
1783153145271461400,7.10146142578125,8.286046028137207,5.226223945617676,-0.16749759018421173
1783153145281172500,7.11117236328125,8.254939079284668,5.221437931060791,-0.16031911969184875
1783153145290883600,7.120883544921875,8.233403205871582,5.19033145904541,-0.14835500717163086
1783153145300594700,7.1305947265625,8.199904441833496,5.192724227905273,-0.1339980661869049
1783153145310305800,7.140305908203125,8.144868850708008,5.221437931060791,-0.15314064919948578
1783153145320016600,7.1500166015625,8.115856170654297,5.187938690185547,-0.15074782073497772
1783153145329727700,7.159727783203125,8.079963684082031,5.185545921325684,-0.1459621787071228
1783153145339438800,7.16943896484375,8.005785942077637,5.1783671379089355,-0.15074782073497772
1783153145349150000,7.17914990234375,8.072785377502441,5.19033145904541,-0.18424734473228455
1783153145358861000,7.188861083984375,8.13260555267334,5.18315315246582,-0.1698904037475586
1783153145368572000,7.198572021484375,8.183154106140137,5.187938690185547,-0.12681959569454193
1783153145378283000,7.208282958984375,8.219046592712402,5.159224510192871,-0.14117653667926788
1783153145387994000,7.217994140625,8.211868286132812,5.159224510192871,-0.14117653667926788
1783153145397705200,7.227705322265625,8.2788667678833,5.125725269317627,-0.16031911969184875
1783153145407416300,7.237416259765625,8.376973152160645,5.118546962738037,-0.16510476171970367
1783153145417127400,7.24712744140625,8.484649658203125,5.147260665893555,-0.13639089465141296
1783153145426838300,7.25683837890625,8.465507507324219,5.101797103881836,-0.12442677468061447
1783153145436549400,7.26654931640625,8.417651176452637,5.101797103881836,-0.10767702013254166
1783153145446260500,7.276260498046875,8.422436714172363,5.142475128173828,-0.12681959569454193
1783153145455971600,7.2859716796875,8.491828918457031,5.147260665893555,-0.12921242415905
1783153145465682700,7.2956826171875,8.5133638381958,5.132903575897217,-0.11006984114646912
1783153145475393500,7.3053935546875,8.510971069335938,5.1544389724731445,-0.07896314561367035
1783153145485104600,7.315104736328125,8.489435195922852,5.166403293609619,-0.10767702013254166
1783153145494815700,7.324815673828125,8.472685813903809,5.13529634475708,-0.12442677468061447
1783153145504526800,7.33452685546875,8.439186096191406,5.156831741333008,-0.10049854964017868
1783153145514238000,7.344238037109375,8.429615020751953,5.140082359313965,-0.08374879509210587
1783153145523948800,7.35394873046875,8.439186096191406,5.149653434753418,-0.11485548317432404
1783153145533660000,7.363659912109375,8.4200439453125,5.137689113616943,-0.1052841991186142
1783153145543371000,7.37337109375,8.393722534179688,5.142475128173828,-0.10049854964017868
1783153145553082000,7.38308203125,8.362615585327148,5.132903575897217,-0.0526420995593071
1783153145562793200,7.392793212890625,8.331509590148926,5.118546962738037,-0.05503492057323456
1783153145572504300,7.40250439453125,8.329116821289062,5.137689113616943,-0.07417750358581543
1783153145582215200,7.412215087890625,8.408080101013184,5.159224510192871,-0.06939185410737991
1783153145591926300,7.42192626953125,8.410472869873047,5.164010524749756,-0.02392822690308094
1783153145601637400,7.431637451171875,8.405686378479004,5.123332500457764,0.007178467698395252
1783153145611348500,7.441348388671875,8.336295127868652,5.123332500457764,0.02153540402650833
1783153145621059600,7.4510595703125,8.28126049041748,5.152046203613281,-0.02632104977965355
1783153145630770400,7.4607705078125,8.274081230163574,5.1209397315979,-0.014356935396790504
1783153145640481500,7.4704814453125,8.262117385864258,5.147260665893555,-0.007178467698395252
1783153145650192600,7.480192626953125,8.28126049041748,5.125725269317627,-0.03349951654672623
1783153145659903700,7.48990380859375,8.254939079284668,5.152046203613281,-0.07178468257188797
1783153145669614800,7.49961474609375,8.235795974731445,5.159224510192871,-0.10289137065410614
1783153145679325700,7.50932568359375,8.269295692443848,5.156831741333008,-0.12681959569454193
1783153145689036800,7.519036865234375,8.353044509887695,5.1544389724731445,-0.08614161610603333
1783153145698748000,7.528747802734375,8.353044509887695,5.140082359313965,-0.10289137065410614
1783153145708459000,7.538458984375,8.384151458740234,5.161617755889893,-0.14356936514377594
1783153145718170000,7.548170166015625,8.381758689880371,5.164010524749756,-0.10049854964017868
1783153145727881000,7.557880859375,8.374580383300781,5.140082359313965,-0.10767702013254166
1783153145737592000,7.567592041015625,8.379365921020508,5.166403293609619,-0.0933200865983963
1783153145747303200,7.57730322265625,8.333902359008789,5.168796062469482,-0.07896314561367035
1783153145757014300,7.58701416015625,8.336295127868652,5.161617755889893,-0.07178468257188797
1783153145766725400,7.596725341796875,8.357830047607422,5.171188831329346,-0.05742774158716202
1783153145776436200,7.606436279296875,8.4200439453125,5.161617755889893,-0.08853443711996078
1783153145786147300,7.616147216796875,8.448758125305176,5.19033145904541,-0.08614161610603333
1783153145795858400,7.6258583984375,8.439186096191406,5.108975410461426,-0.10767702013254166
1783153145805569500,7.635569580078125,8.458329200744629,5.125725269317627,-0.09571290761232376
1783153145815280600,7.64528076171875,8.4200439453125,5.18315315246582,-0.1052841991186142
1783153145824991500,7.654991455078125,8.422436714172363,5.1783671379089355,-0.16510476171970367
1783153145834702600,7.66470263671875,8.362615585327148,5.156831741333008,-0.12442677468061447
1783153145844413700,7.67441357421875,8.321938514709473,5.1544389724731445,-0.13160525262355804
1783153145854124800,7.684124755859375,8.28126049041748,5.19033145904541,-0.11964113265275955
1783153145863836000,7.6938359375,8.247760772705078,5.152046203613281,-0.09092725813388824
1783153145873547000,7.703547119140625,8.329116821289062,5.147260665893555,-0.09571290761232376
1783153145883257900,7.7132578125,8.415258407592773,5.1209397315979,-0.07657032459974289
1783153145892969000,7.722968994140625,8.477471351623535,5.132903575897217,-0.10049854964017868
1783153145902680000,7.73268017578125,8.458329200744629,5.123332500457764,-0.11724831163883209
1783153145912391200,7.74239111328125,8.39611530303955,5.118546962738037,-0.12442677468061447
1783153145922102300,7.752102294921875,8.30997371673584,5.13529634475708,-0.11246266216039658
1783153145931813000,7.761813232421875,8.216653823852539,5.173581600189209,-0.11485548317432404
1783153145941524200,7.771524169921875,8.147261619567871,5.207081317901611,-0.10049854964017868
1783153145951235300,7.7812353515625,8.101499557495117,5.18315315246582,-0.11724831163883209
1783153145960946400,7.790946533203125,8.084749221801758,5.187938690185547,-0.09092725813388824
1783153145970657500,7.800657470703125,8.113463401794434,5.175974369049072,-0.12681959569454193
1783153145980368600,7.81036865234375,8.185546875,5.1305108070373535,-0.13878370821475983
1783153145990079500,7.82007958984375,8.264510154724121,5.1065826416015625,-0.1746760457754135
1783153145999790600,7.82979052734375,8.350651741027832,5.104189872741699,-0.12681959569454193
1783153146009501700,7.839501708984375,8.400900840759277,5.12811803817749,-0.12203395366668701
1783153146019212800,7.849212890625,8.39611530303955,5.149653434753418,-0.09810572862625122
1783153146028924000,7.858923828125,8.345866203308105,5.140082359313965,-0.11724831163883209
1783153146038635000,7.868635009765625,8.290831565856934,5.147260665893555,-0.09571290761232376
1783153146048345900,7.878345947265625,8.216653823852539,5.1544389724731445,-0.1052841991186142
1783153146058057000,7.888056884765625,8.187939643859863,5.18315315246582,-0.07657032459974289
1783153146067768000,7.89776806640625,8.185546875,5.175974369049072,-0.09571290761232376
1783153146077479200,7.907479248046875,8.207082748413086,5.13529634475708,-0.1052841991186142
1783153146087190000,7.91718994140625,8.254939079284668,5.147260665893555,-0.0933200865983963
1783153146096901000,7.926901123046875,8.276473999023438,5.187938690185547,-0.0933200865983963
1783153146106612200,7.9366123046875,8.28126049041748,5.204688549041748,-0.07178468257188797
1783153146116323300,7.9463232421875,8.343473434448242,5.164010524749756,-0.09092725813388824
1783153146126034400,7.956034423828125,8.439186096191406,5.168796062469482,-0.08135596662759781
1783153146135745500,7.96574560546875,8.477471351623535,5.152046203613281,-0.064606212079525
1783153146145456400,7.975456298828125,8.482256889343262,5.164010524749756,-0.07417750358581543
1783153146155167500,7.98516748046875,8.422436714172363,5.156831741333008,-0.0933200865983963
1783153146164878600,7.994878662109375,8.331509590148926,5.159224510192871,-0.07417750358581543
1783153146174589700,8.004589599609375,8.245368003845215,5.202295303344727,-0.05024927482008934
1783153146184300800,8.01430078125,8.154440879821777,5.233402252197266,-0.07896314561367035
1783153146194012000,8.024011962890626,8.142476081848145,5.219045162200928,-0.06939185410737991
1783153146203722800,8.03372265625,8.204689979553223,5.2166523933410645,-0.0933200865983963
1783153146213433900,8.043433837890625,8.245368003845215,5.221437931060791,-0.1052841991186142
1783153146223145000,8.05314501953125,8.386544227600098,5.197509765625,-0.11724831163883209
1783153146232856000,8.06285595703125,8.501399993896484,5.187938690185547,-0.09092725813388824
1783153146242567200,8.072567138671875,8.5731840133667,5.1783671379089355,-0.07417750358581543
1783153146252278300,8.0822783203125,8.580363273620605,5.175974369049072,-0.07896314561367035
1783153146261989000,8.091989013671874,8.487042427062988,5.152046203613281,-0.08853443711996078
1783153146271700200,8.1017001953125,8.477471351623535,5.156831741333008,-0.059820566326379776
1783153146281411300,8.111411376953125,8.463114738464355,5.192724227905273,-0.05024927482008934
1783153146291122400,8.121122314453125,8.436793327331543,5.164010524749756,-0.05024927482008934
1783153146300833500,8.13083349609375,8.436793327331543,5.168796062469482,-0.09092725813388824
1783153146310544600,8.140544677734376,8.470293045043945,5.152046203613281,-0.07657032459974289
1783153146320255500,8.15025537109375,8.443971633911133,5.149653434753418,-0.07657032459974289
1783153146329966600,8.159966552734375,8.393722534179688,5.156831741333008,-0.05024927482008934
1783153146339677700,8.169677734375,8.329116821289062,5.171188831329346,-0.06939185410737991
1783153146349388800,8.179388916015625,8.269295692443848,5.173581600189209,-0.11964113265275955
1783153146359100000,8.189099853515625,8.19511890411377,5.1783671379089355,-0.10767702013254166
1783153146368810800,8.198810791015624,8.120641708374023,5.1544389724731445,-0.08853443711996078
1783153146378521900,8.20852197265625,8.099106788635254,5.132903575897217,-0.09092725813388824
1783153146388233000,8.21823291015625,8.166404724121094,5.099404335021973,-0.15314064919948578
1783153146397944000,8.227944091796875,8.233403205871582,5.094618320465088,-0.14356936514377594
1783153146407655200,8.2376552734375,8.274081230163574,5.149653434753418,-0.13160525262355804
1783153146417366300,8.2473662109375,8.28843879699707,5.099404335021973,-0.16749759018421173
1783153146427077000,8.2570771484375,8.264510154724121,5.113760948181152,-0.19381862878799438
1783153146436788200,8.266788330078125,8.259724617004395,5.152046203613281,-0.15553347766399384
1783153146446499300,8.276499267578124,8.233403205871582,5.161617755889893,-0.16031911969184875
1783153146456210400,8.28621044921875,8.19511890411377,5.168796062469482,-0.1746760457754135
1783153146465921500,8.295921630859375,8.211868286132812,5.164010524749756,-0.2105683982372284
1783153146475632600,8.305632568359375,8.242975234985352,5.161617755889893,-0.16749759018421173
1783153146485343500,8.315343505859374,8.28126049041748,5.180759906768799,-0.12442677468061447
1783153146495054600,8.3250546875,8.30997371673584,5.173581600189209,-0.12921242415905
1783153146504765700,8.334765625,8.314759254455566,5.164010524749756,-0.09571290761232376
1783153146514476800,8.344476806640625,8.333902359008789,5.166403293609619,-0.08374879509210587
1783153146524188000,8.35418798828125,8.386544227600098,5.166403293609619,-0.0933200865983963
1783153146533899000,8.36389892578125,8.365009307861328,5.180759906768799,-0.10289137065410614
1783153146543609900,8.37360986328125,8.348258972167969,5.156831741333008,-0.11964113265275955
1783153146553321000,8.383321044921875,8.338687896728516,5.171188831329346,-0.1052841991186142
1783153146563032000,8.393031982421874,8.29561710357666,5.1783671379089355,-0.12442677468061447
1783153146572743200,8.4027431640625,8.245368003845215,5.180759906768799,-0.14835500717163086
1783153146582454300,8.412454345703125,8.245368003845215,5.192724227905273,-0.1579262912273407
1783153146592165400,8.422165283203125,8.250153541564941,5.207081317901611,-0.14117653667926788
1783153146601876200,8.431876220703124,8.28126049041748,5.209474086761475,-0.13878370821475983
1783153146611587300,8.44158740234375,8.369794845581055,5.195116996765137,-0.12921242415905
1783153146621298400,8.45129833984375,8.443971633911133,5.197509765625,-0.13878370821475983
1783153146631009500,8.461009521484375,8.408080101013184,5.1544389724731445,-0.13160525262355804
1783153146640720600,8.470720703125,8.365009307861328,5.161617755889893,-0.11006984114646912
1783153146650431700,8.480431640625,8.321938514709473,5.1783671379089355,-0.12442677468061447
1783153146660142800,8.490142822265625,8.269295692443848,5.166403293609619,-0.11964113265275955
1783153146669853700,8.499853759765625,8.242975234985352,5.19033145904541,-0.1052841991186142
1783153146679564800,8.509564697265626,8.20947551727295,5.187938690185547,-0.12442677468061447
1783153146689276000,8.51927587890625,8.228617668151855,5.223830699920654,-0.11724831163883209
1783153146698987000,8.528987060546875,8.266902923583984,5.235795021057129,-0.09571290761232376
1783153146708698000,8.538697998046874,8.29561710357666,5.214259624481201,-0.12442677468061447
1783153146718409200,8.5484091796875,8.338687896728516,5.204688549041748,-0.14117653667926788
1783153146728120300,8.558120361328125,8.369794845581055,5.202295303344727,-0.14835500717163086
1783153146737831200,8.5678310546875,8.393722534179688,5.202295303344727,-0.15553347766399384
1783153146747542300,8.577542236328124,8.393722534179688,5.197509765625,-0.14356936514377594
1783153146757253400,8.58725341796875,8.384151458740234,5.185545921325684,-0.15314064919948578
1783153146766964500,8.596964599609375,8.312366485595703,5.166403293609619,-0.15074782073497772
1783153146776675600,8.606675537109375,8.264510154724121,5.185545921325684,-0.11485548317432404
1783153146786386400,8.616386474609374,8.276473999023438,5.202295303344727,-0.11964113265275955
1783153146796097500,8.62609765625,8.3267240524292,5.185545921325684,-0.12442677468061447
1783153146805808600,8.63580859375,8.345866203308105,5.187938690185547,-0.11964113265275955
1783153146815519700,8.645519775390625,8.355437278747559,5.161617755889893,-0.15074782073497772
1783153146825230800,8.65523095703125,8.410472869873047,5.149653434753418,-0.1746760457754135
1783153146834942000,8.66494189453125,8.415258407592773,5.144867897033691,-0.13639089465141296
1783153146844653000,8.674653076171875,8.367402076721191,5.1783671379089355,-0.12921242415905
1783153146854364000,8.684364013671875,8.305188179016113,5.18315315246582,-0.12442677468061447
1783153146864075000,8.694074951171874,8.298009872436523,5.140082359313965,-0.16031911969184875
1783153146873786000,8.7037861328125,8.271688461303711,5.161617755889893,-0.15553347766399384
1783153146883497200,8.713497314453125,8.252546310424805,5.171188831329346,-0.12681959569454193
1783153146893208300,8.723208251953125,8.223832130432129,5.185545921325684,-0.15314064919948578
1783153146902919400,8.73291943359375,8.262117385864258,5.173581600189209,-0.19381862878799438
1783153146912630500,8.742630615234376,8.319544792175293,5.159224510192871,-0.1746760457754135
1783153146922341400,8.75234130859375,8.393722534179688,5.142475128173828,-0.16031911969184875
1783153146932052500,8.762052490234375,8.384151458740234,5.156831741333008,-0.15553347766399384
1783153146941763600,8.771763671875,8.348258972167969,5.166403293609619,-0.1459621787071228
1783153146951474700,8.781474609375,8.29561710357666,5.156831741333008,-0.11246266216039658
1783153146961185800,8.791185791015625,8.28126049041748,5.152046203613281,-0.12921242415905
1783153146970897000,8.80089697265625,8.259724617004395,5.1783671379089355,-0.13160525262355804
1783153146980608000,8.81060791015625,8.257331848144531,5.164010524749756,-0.1339980661869049
1783153146990318800,8.82031884765625,8.266902923583984,5.156831741333008,-0.14356936514377594
1783153147000030000,8.830030029296875,8.324331283569336,5.1783671379089355,-0.16749759018421173
1783153147009741000,8.839740966796874,8.398508071899414,5.1544389724731445,-0.13878370821475983
1783153147019452200,8.8494521484375,8.41286563873291,5.18315315246582,-0.13878370821475983
1783153147029163300,8.859163330078125,8.372187614440918,5.159224510192871,-0.13160525262355804
1783153147038874400,8.868874267578125,8.365009307861328,5.1783671379089355,-0.14835500717163086
1783153147048585500,8.87858544921875,8.384151458740234,5.168796062469482,-0.11006984114646912
1783153147058296300,8.88829638671875,8.338687896728516,5.214259624481201,-0.11724831163883209
1783153147068007400,8.89800732421875,8.321938514709473,5.187938690185547,-0.10049854964017868
1783153147077718500,8.907718505859375,8.29561710357666,5.168796062469482,-0.08374879509210587
1783153147087429600,8.9174296875,8.305188179016113,5.171188831329346,-0.05742774158716202
1783153147097140700,8.927140625,8.336295127868652,5.173581600189209,-0.062213387340307236
1783153147106851800,8.936851806640625,8.376973152160645,5.164010524749756,-0.05742774158716202
1783153147116563000,8.94656298828125,8.398508071899414,5.187938690185547,-0.02871387079358101
1783153147126273800,8.956273681640624,8.374580383300781,5.185545921325684,-0.059820566326379776
1783153147135985000,8.96598486328125,8.28843879699707,5.147260665893555,-0.0933200865983963
1783153147145696000,8.975696044921875,8.233403205871582,5.171188831329346,-0.12203395366668701
1783153147155407000,8.985406982421875,8.226224899291992,5.204688549041748,-0.11964113265275955
1783153147165118200,8.9951181640625,8.259724617004395,5.192724227905273,-0.11964113265275955
1783153147174829300,9.004829345703126,8.321938514709473,5.197509765625,-0.17706887423992157
1783153147184540400,9.01454052734375,8.372187614440918,5.164010524749756,-0.17706887423992157
1783153147194251300,9.024251220703125,8.405686378479004,5.142475128173828,-0.1579262912273407
1783153147203962400,9.03396240234375,8.436793327331543,5.149653434753418,-0.12203395366668701
1783153147213673500,9.043673583984376,8.443971633911133,5.168796062469482,-0.10289137065410614
1783153147223384600,9.053384521484375,8.398508071899414,5.147260665893555,-0.11485548317432404
1783153147233095700,9.063095703125,8.333902359008789,5.159224510192871,-0.11485548317432404
1783153147242806800,9.072806884765624,8.286046028137207,5.168796062469482,-0.09810572862625122
1783153147252518000,9.082517822265626,8.240582466125488,5.152046203613281,-0.12921242415905
1783153147262229000,9.09222900390625,8.257331848144531,5.166403293609619,-0.11006984114646912
1783153147271939800,9.10193994140625,8.259724617004395,5.156831741333008,-0.14356936514377594
1783153147281651000,9.11165087890625,8.269295692443848,5.166403293609619,-0.15553347766399384
1783153147291362000,9.121362060546875,8.293224334716797,5.19033145904541,-0.16271193325519562
1783153147301073200,9.1310732421875,8.319544792175293,5.159224510192871,-0.1339980661869049
1783153147310784300,9.1407841796875,8.345866203308105,5.137689113616943,-0.1339980661869049
1783153147320495400,9.150495361328124,8.372187614440918,5.140082359313965,-0.10767702013254166
1783153147330206500,9.16020654296875,8.353044509887695,5.147260665893555,-0.09571290761232376
1783153147339917300,9.169917236328125,8.274081230163574,5.149653434753418,-0.10289137065410614
1783153147349628400,9.17962841796875,8.271688461303711,5.144867897033691,-0.09092725813388824
1783153147359339500,9.189339599609376,8.329116821289062,5.173581600189209,-0.038285162299871445
1783153147369050600,9.199050537109375,8.367402076721191,5.168796062469482,-0.064606212079525
1783153147378761700,9.20876171875,8.30279541015625,5.168796062469482,-0.08135596662759781
1783153147388472800,9.218472900390625,8.266902923583984,5.18315315246582,-0.10767702013254166
1783153147398184000,9.228183837890626,8.274081230163574,5.192724227905273,-0.12681959569454193
1783153147407895000,9.23789501953125,8.250153541564941,5.202295303344727,-0.09571290761232376
1783153147417606100,9.247606201171875,8.228617668151855,5.202295303344727,-0.09092725813388824
1783153147427317000,9.25731689453125,8.250153541564941,5.192724227905273,-0.11006984114646912
1783153147437028000,9.267028076171876,8.30997371673584,5.19033145904541,-0.13639089465141296
1783153147446739200,9.2767392578125,8.398508071899414,5.192724227905273,-0.11246266216039658
1783153147456450300,9.2864501953125,8.465507507324219,5.171188831329346,-0.08374879509210587
1783153147466161400,9.296161376953124,8.43440055847168,5.173581600189209,-0.1052841991186142
1783153147475872500,9.30587255859375,8.388936996459961,5.140082359313965,-0.13878370821475983
1783153147485583600,9.31558349609375,8.350651741027832,5.149653434753418,-0.1339980661869049
1783153147495294500,9.32529443359375,8.307580947875977,5.171188831329346,-0.09571290761232376
1783153147505005600,9.335005615234374,8.2788667678833,5.171188831329346,-0.11485548317432404
1783153147514716700,9.344716552734376,8.238189697265625,5.161617755889893,-0.12681959569454193
1783153147524427800,9.354427734375,8.185546875,5.149653434753418,-0.14117653667926788
1783153147534139000,9.364138916015625,8.187939643859863,5.164010524749756,-0.13160525262355804
1783153147543850000,9.37385009765625,8.245368003845215,5.140082359313965,-0.11724831163883209
1783153147553561000,9.38356103515625,8.314759254455566,5.166403293609619,-0.10289137065410614
1783153147563272200,9.393272216796875,8.374580383300781,5.142475128173828,-0.12442677468061447
1783153147572983000,9.402983154296875,8.424829483032227,5.1544389724731445,-0.11485548317432404
1783153147582694100,9.412694091796874,8.398508071899414,5.13529634475708,-0.15314064919948578
1783153147592405200,9.4224052734375,8.388936996459961,5.140082359313965,-0.1579262912273407
1783153147602116400,9.432116455078125,8.353044509887695,5.116153717041016,-0.15314064919948578
1783153147611827500,9.441827392578125,8.319544792175293,5.118546962738037,-0.1579262912273407
1783153147621538600,9.45153857421875,8.259724617004395,5.144867897033691,-0.1339980661869049
1783153147631249700,9.461249755859376,8.20947551727295,5.13529634475708,-0.13639089465141296
1783153147640960800,9.470960693359375,8.19511890411377,5.149653434753418,-0.11724831163883209
1783153147650671900,9.480671875,8.214261054992676,5.147260665893555,-0.14117653667926788
1783153147660382700,9.4903828125,8.254939079284668,5.140082359313965,-0.1339980661869049
1783153147670093800,9.50009375,8.348258972167969,5.137689113616943,-0.1339980661869049
1783153147679805000,9.509804931640625,8.386544227600098,5.13529634475708,-0.14117653667926788
1783153147689516000,9.51951611328125,8.44157886505127,5.1209397315979,-0.1746760457754135
1783153147699227100,9.52922705078125,8.463114738464355,5.108975410461426,-0.1818545162677765
1783153147708938200,9.538938232421875,8.472685813903809,5.125725269317627,-0.14835500717163086
1783153147718649300,9.5486494140625,8.405686378479004,5.111368179321289,-0.1459621787071228
1783153147728360400,9.5583603515625,8.319544792175293,5.099404335021973,-0.1339980661869049
1783153147738071600,9.568071533203126,8.254939079284668,5.108975410461426,-0.1339980661869049
1783153147747782700,9.57778271484375,8.235795974731445,5.118546962738037,-0.1339980661869049
1783153147757493500,9.587493408203125,8.259724617004395,5.116153717041016,-0.1052841991186142
1783153147767204600,9.59720458984375,8.321938514709473,5.118546962738037,-0.0933200865983963
1783153147776915700,9.606915771484376,8.408080101013184,5.111368179321289,-0.12442677468061447
1783153147786626800,9.616626708984375,8.393722534179688,5.111368179321289,-0.14835500717163086
1783153147796338000,9.626337890625,8.398508071899414,5.113760948181152,-0.12921242415905
1783153147806049000,9.636049072265624,8.329116821289062,5.099404335021973,-0.1339980661869049
1783153147815760100,9.645760009765626,8.307580947875977,5.094618320465088,-0.1746760457754135
1783153147825471200,9.65547119140625,8.28843879699707,5.101797103881836,-0.19621145725250244
1783153147835182300,9.665182373046875,8.266902923583984,5.092225551605225,-0.20099709928035736
1783153147844893200,9.67489306640625,8.305188179016113,5.097011566162109,-0.17946170270442963
1783153147854604300,9.684604248046876,8.3267240524292,5.104189872741699,-0.14835500717163086
1783153147864315400,9.6943154296875,8.338687896728516,5.125725269317627,-0.11724831163883209
1783153147874026500,9.704026611328125,8.336295127868652,5.144867897033691,-0.1052841991186142
1783153147883737600,9.713737548828124,8.338687896728516,5.132903575897217,-0.07896314561367035
1783153147893448700,9.72344873046875,8.3267240524292,5.173581600189209,-0.059820566326379776
1783153147903159800,9.733159912109375,8.31715202331543,5.149653434753418,-0.05503492057323456
1783153147912871000,9.742870849609375,8.374580383300781,5.159224510192871,-0.0526420995593071
1783153147922582000,9.75258203125,8.400900840759277,5.147260665893555,-0.06939185410737991
1783153147932293000,9.762293212890626,8.41286563873291,5.159224510192871,-0.08853443711996078
1783153147942004000,9.77200390625,8.381758689880371,5.132903575897217,-0.13639089465141296
1783153147951715000,9.781715087890625,8.355437278747559,5.175974369049072,-0.08614161610603333
1783153147961426200,9.79142626953125,8.381758689880371,5.175974369049072,-0.11006984114646912
1783153147971137300,9.80113720703125,8.381758689880371,5.192724227905273,-0.1052841991186142
1783153147980848400,9.810848388671875,8.367402076721191,5.187938690185547,-0.10289137065410614
1783153147990559500,9.8205595703125,8.379365921020508,5.197509765625,-0.12203395366668701
1783153148000270600,9.8302705078125,8.398508071899414,5.192724227905273,-0.08374879509210587
1783153148009981700,9.839981689453126,8.408080101013184,5.192724227905273,-0.07657032459974289
1783153148019692800,9.84969287109375,8.451150894165039,5.180759906768799,-0.10049854964017868
1783153148029404000,9.85940380859375,8.489435195922852,5.187938690185547,-0.07178468257188797
1783153148039114800,9.86911474609375,8.458329200744629,5.173581600189209,-0.04307080805301666
1783153148048825900,9.878825927734376,8.44157886505127,5.180759906768799,-0.10049854964017868
1783153148058537000,9.888536865234375,8.436793327331543,5.168796062469482,-0.06699903309345245
1783153148068248000,9.898248046875,8.405686378479004,5.192724227905273,-0.07657032459974289
1783153148077959200,9.907959228515624,8.372187614440918,5.197509765625,-0.07657032459974289
1783153148087670300,9.917670166015625,8.353044509887695,5.185545921325684,-0.06699903309345245
1783153148097381400,9.92738134765625,8.345866203308105,5.1783671379089355,-0.12681959569454193
1783153148107092500,9.937092529296875,8.350651741027832,5.149653434753418,-0.14835500717163086
1783153148116803600,9.946803466796876,8.374580383300781,5.147260665893555,-0.1866401731967926
1783153148126514700,9.9565146484375,8.365009307861328,5.161617755889893,-0.16749759018421173
1783153148136225500,9.9662255859375,8.355437278747559,5.149653434753418,-0.18903298676013947
1783153148145936600,9.9759365234375,8.362615585327148,5.144867897033691,-0.20338992774486542
1783153148155647700,9.985647705078126,8.355437278747559,5.132903575897217,-0.2153540402650833
1783153148165358800,9.99535888671875,8.379365921020508,5.137689113616943,-0.18424734473228455
1783153148175070000,10.005070068359375,8.345866203308105,5.123332500457764,-0.1986042857170105
1783153148184781000,10.014781005859374,8.353044509887695,5.140082359313965,-0.2105683982372284
1783153148194492200,10.0244921875,8.28843879699707,5.125725269317627,-0.20099709928035736
1783153148204203300,10.034203369140625,8.223832130432129,5.149653434753418,-0.24406790733337402
1783153148213914400,10.043914306640625,8.269295692443848,5.152046203613281,-0.22013968229293823
1783153148223625500,10.05362548828125,8.30279541015625,5.13529634475708,-0.22492532432079315
1783153148233336600,10.063336669921876,8.30997371673584,5.142475128173828,-0.22013968229293823
1783153148243047700,10.073047607421875,8.28126049041748,5.137689113616943,-0.23210379481315613
1783153148252758800,10.0827587890625,8.31715202331543,5.1209397315979,-0.21774685382843018
1783153148262469600,10.0924697265625,8.257331848144531,5.137689113616943,-0.19621145725250244
1783153148272180700,10.1021806640625,8.183154106140137,5.137689113616943,-0.18903298676013947
1783153148281891800,10.111891845703125,8.19511890411377,5.152046203613281,-0.18903298676013947
1783153148291603000,10.12160302734375,8.228617668151855,5.142475128173828,-0.2153540402650833
1783153148301314000,10.13131396484375,8.254939079284668,5.147260665893555,-0.1818545162677765
1783153148311025200,10.141025146484376,8.29561710357666,5.137689113616943,-0.1746760457754135
1783153148320736300,10.150736328125,8.369794845581055,5.1544389724731445,-0.20578274130821228
1783153148330447400,10.160447265625,8.379365921020508,5.149653434753418,-0.1986042857170105
1783153148340158500,10.170158447265624,8.374580383300781,5.180759906768799,-0.22013968229293823
1783153148349869600,10.17986962890625,8.367402076721191,5.173581600189209,-0.22013968229293823
1783153148359580700,10.18958056640625,8.353044509887695,5.18315315246582,-0.18903298676013947
1783153148369291800,10.199291748046875,8.305188179016113,5.1783671379089355,-0.18424734473228455
1783153148379002600,10.209002685546874,8.271688461303711,5.185545921325684,-0.16749759018421173
1783153148388713700,10.218713623046876,8.228617668151855,5.166403293609619,-0.1866401731967926
1783153148398424800,10.2284248046875,8.238189697265625,5.202295303344727,-0.17946170270442963
1783153148408136000,10.238135986328125,8.274081230163574,5.168796062469482,-0.16031911969184875
1783153148417847000,10.247846923828124,8.329116821289062,5.159224510192871,-0.16031911969184875
1783153148427558100,10.25755810546875,8.345866203308105,5.195116996765137,-0.12442677468061447
1783153148437269200,10.267269287109375,8.350651741027832,5.175974369049072,-0.12921242415905
1783153148446980400,10.27698046875,8.355437278747559,5.171188831329346,-0.09571290761232376
1783153148456691500,10.28669140625,8.362615585327148,5.149653434753418,-0.07896314561367035
1783153148466402600,10.296402587890626,8.374580383300781,5.111368179321289,-0.10049854964017868
1783153148476113700,10.30611376953125,8.367402076721191,5.132903575897217,-0.10767702013254166
1783153148485824800,10.31582470703125,8.345866203308105,5.18315315246582,-0.08614161610603333
1783153148495535900,10.325535888671874,8.28126049041748,5.168796062469482,-0.1052841991186142
1783153148505247000,10.3352470703125,8.187939643859863,5.19033145904541,-0.12921242415905
1783153148514958000,10.3449580078125,8.137690544128418,5.209474086761475,-0.13160525262355804
1783153148524669000,10.3546689453125,8.16401195526123,5.202295303344727,-0.1698904037475586
1783153148534380000,10.364380126953124,8.235795974731445,5.2166523933410645,-0.1818545162677765
1783153148544091100,10.374091064453125,8.30997371673584,5.18315315246582,-0.21296121180057526
1783153148553802200,10.38380224609375,8.341080665588379,5.161617755889893,-0.24406790733337402
1783153148563513300,10.393513427734375,8.365009307861328,5.171188831329346,-0.2153540402650833
1783153148573224400,10.403224365234376,8.388936996459961,5.171188831329346,-0.20817556977272034
1783153148582935600,10.412935546875,8.360222816467285,5.187938690185547,-0.1698904037475586
1783153148592646700,10.422646728515625,8.298009872436523,5.18315315246582,-0.17706887423992157
1783153148602357800,10.432357666015625,8.300402641296387,5.161617755889893,-0.16510476171970367
1783153148612068900,10.44206884765625,8.338687896728516,5.199902534484863,-0.16271193325519562
1783153148621780000,10.451780029296875,8.362615585327148,5.173581600189209,-0.15314064919948578
1783153148631491000,10.461490966796875,8.372187614440918,5.18315315246582,-0.1698904037475586
1783153148641202200,10.4712021484375,8.386544227600098,5.137689113616943,-0.1866401731967926
1783153148650913300,10.480913330078126,8.400900840759277,5.156831741333008,-0.1746760457754135
1783153148660624100,10.4906240234375,8.400900840759277,5.144867897033691,-0.15074782073497772
1783153148670335200,10.500335205078125,8.357830047607422,5.1305108070373535,-0.11964113265275955
1783153148680046300,10.51004638671875,8.336295127868652,5.12811803817749,-0.12203395366668701
1783153148689757400,10.51975732421875,8.350651741027832,5.116153717041016,-0.12442677468061447
1783153148699468500,10.529468505859375,8.321938514709473,5.12811803817749,-0.11246266216039658
1783153148709179600,10.5391796875,8.30279541015625,5.149653434753418,-0.11485548317432404
1783153148718890800,10.548890869140624,8.30997371673584,5.144867897033691,-0.10767702013254166
1783153148728601900,10.558601806640626,8.293224334716797,5.147260665893555,-0.11724831163883209
1783153148738313000,10.56831298828125,8.259724617004395,5.144867897033691,-0.12442677468061447
1783153148748024000,10.578024169921875,8.250153541564941,5.159224510192871,-0.1579262912273407
1783153148757735200,10.587735107421874,8.233403205871582,5.132903575897217,-0.1818545162677765
1783153148767446300,10.5974462890625,8.231010437011719,5.13529634475708,-0.18903298676013947
1783153148777157400,10.607157470703125,8.264510154724121,5.152046203613281,-0.1746760457754135
1783153148786868500,10.616868408203125,8.254939079284668,5.173581600189209,-0.16510476171970367
1783153148796579600,10.62657958984375,8.28843879699707,5.202295303344727,-0.16510476171970367
1783153148806290700,10.636290771484376,8.365009307861328,5.159224510192871,-0.19621145725250244
1783153148816001800,10.646001708984375,8.410472869873047,5.161617755889893,-0.1866401731967926
1783153148825713000,10.655712890625,8.448758125305176,5.195116996765137,-0.16510476171970367
1783153148835424000,10.665424072265624,8.479864120483398,5.156831741333008,-0.17946170270442963
1783153148845135000,10.675135009765626,8.448758125305176,5.140082359313965,-0.1579262912273407
1783153148854846000,10.684845947265625,8.30997371673584,5.175974369049072,-0.13878370821475983
1783153148864557000,10.69455712890625,8.4200439453125,5.1783671379089355,-0.24406790733337402
1783153148874268200,10.70426806640625,8.52772045135498,5.185545921325684,-0.17228323221206665
1783153148883979300,10.713979248046876,8.522934913635254,5.173581600189209,-0.12921242415905
1783153148893690400,10.7236904296875,8.489435195922852,5.214259624481201,-0.14835500717163086
1783153148903401500,10.7334013671875,8.487042427062988,5.211866855621338,-0.1579262912273407
1783153148913112600,10.743112548828124,8.398508071899414,5.226223945617676,-0.1459621787071228
1783153148922823700,10.75282373046875,8.39611530303955,5.228616714477539,-0.11246266216039658
1783153148932534800,10.76253466796875,8.338687896728516,5.2166523933410645,-0.10049854964017868
1783153148942246000,10.772245849609375,8.324331283569336,5.19033145904541,-0.13160525262355804
1783153148951957000,10.78195703125,8.362615585327148,5.180759906768799,-0.15074782073497772
1783153148961668000,10.791668212890626,8.384151458740234,5.180759906768799,-0.1698904037475586
1783153148971379200,10.801379150390625,8.40329360961914,5.175974369049072,-0.1698904037475586
1783153148981090300,10.81109033203125,8.4200439453125,5.171188831329346,-0.16749759018421173
1783153148990801400,10.820801513671874,8.43440055847168,5.180759906768799,-0.14835500717163086
1783153149000512500,10.830512451171876,8.415258407592773,5.159224510192871,-0.15314064919948578
1783153149010223600,10.8402236328125,8.341080665588379,5.12811803817749,-0.17706887423992157
1783153149019934700,10.849934814453125,8.31715202331543,5.144867897033691,-0.16749759018421173
1783153149029645800,10.859645751953124,8.314759254455566,5.180759906768799,-0.17706887423992157
1783153149039357000,10.86935693359375,8.312366485595703,5.144867897033691,-0.1746760457754135
1783153149049067800,10.87906787109375,8.307580947875977,5.149653434753418,-0.19142581522464752
1783153149058779000,10.88877880859375,8.286046028137207,5.164010524749756,-0.20578274130821228
1783153149068490000,10.898489990234374,8.28126049041748,5.144867897033691,-0.21296121180057526
1783153149078201000,10.908201171875,8.30997371673584,5.173581600189209,-0.20338992774486542
1783153149087912200,10.917912109375,8.345866203308105,5.173581600189209,-0.22492532432079315
1783153149097623300,10.927623291015625,8.336295127868652,5.195116996765137,-0.21296121180057526
1783153149107334400,10.93733447265625,8.343473434448242,5.187938690185547,-0.23210379481315613
1783153149117045500,10.94704541015625,8.307580947875977,5.209474086761475,-0.24406790733337402
1783153149126756600,10.956756591796875,8.321938514709473,5.211866855621338,-0.20817556977272034
1783153149136467700,10.9664677734375,8.348258972167969,5.204688549041748,-0.1986042857170105
1783153149146178800,10.9761787109375,8.321938514709473,5.202295303344727,-0.18424734473228455
1783153149155890000,10.985889892578125,8.305188179016113,5.173581600189209,-0.18424734473228455
1783153149165601000,10.99560107421875,8.274081230163574,5.159224510192871,-0.18424734473228455
1783153149175312100,11.00531201171875,8.312366485595703,5.166403293609619,-0.16749759018421173
1783153149185023200,11.015023193359376,8.319544792175293,5.166403293609619,-0.13878370821475983
1783153149194734300,11.024734375,8.31715202331543,5.180759906768799,-0.12203395366668701
1783153149204445400,11.034445556640625,8.269295692443848,5.195116996765137,-0.12921242415905
1783153149214156500,11.044156494140625,8.19272518157959,5.242973327636719,-0.13878370821475983
1783153149223867600,11.05386767578125,8.099106788635254,5.235795021057129,-0.14117653667926788
1783153149233578800,11.063578857421875,8.075178146362305,5.2405805587768555,-0.11485548317432404
1783153149243289900,11.073289794921875,8.089534759521484,5.221437931060791,-0.12203395366668701
1783153149253001000,11.0830009765625,8.161619186401367,5.192724227905273,-0.17706887423992157
1783153149262712000,11.092712158203126,8.199904441833496,5.171188831329346,-0.15553347766399384
1783153149272423200,11.102423095703125,8.245368003845215,5.159224510192871,-0.13160525262355804
1783153149282134300,11.11213427734375,8.262117385864258,5.132903575897217,-0.1459621787071228
1783153149291845000,11.12184521484375,8.293224334716797,5.164010524749756,-0.08614161610603333
1783153149301556200,11.13155615234375,8.319544792175293,5.185545921325684,-0.0933200865983963
1783153149311267300,11.141267333984375,8.353044509887695,5.19033145904541,-0.07417750358581543
1783153149320978400,11.150978515625,8.2788667678833,5.1544389724731445,-0.07178468257188797
1783153149330689500,11.160689453125,8.345866203308105,5.149653434753418,-0.19142581522464752
1783153149340400600,11.170400634765626,8.384151458740234,5.149653434753418,-0.15314064919948578
1783153149350111700,11.18011181640625,8.388936996459961,5.152046203613281,-0.11006984114646912
1783153149359822800,11.18982275390625,8.367402076721191,5.159224510192871,-0.08374879509210587
1783153149369534000,11.199533935546874,8.384151458740234,5.142475128173828,-0.02153540402650833
1783153149379245000,11.2092451171875,8.348258972167969,5.214259624481201,-0.064606212079525
1783153149388956200,11.2189560546875,8.28126049041748,5.262115955352783,-0.03349951654672623
1783153149398667300,11.228667236328125,8.290831565856934,5.199902534484863,-0.01196411345154047
1783153149408378400,11.23837841796875,8.391329765319824,5.149653434753418,-0.07178468257188797
1783153149418089500,11.24808935546875,8.353044509887695,5.161617755889893,-0.0933200865983963
1783153149427800600,11.257800537109375,8.365009307861328,5.223830699920654,-0.08614161610603333
1783153149437511700,11.26751171875,8.400900840759277,5.192724227905273,-0.11964113265275955
1783153149447222800,11.277222900390624,8.307580947875977,5.187938690185547,-0.1339980661869049
1783153149456934000,11.286933837890626,8.180761337280273,5.274080276489258,-0.14835500717163086
1783153149466645000,11.29664501953125,8.197511672973633,5.24536657333374,-0.2799602448940277
1783153149476356000,11.306356201171875,8.298009872436523,5.202295303344727,-0.26081767678260803
1783153149486067200,11.316067138671874,8.348258972167969,5.223830699920654,-0.1818545162677765
1783153149495778300,11.3257783203125,8.324331283569336,5.2405805587768555,-0.1818545162677765
1783153149505489400,11.335489501953125,8.257331848144531,5.274080276489258,-0.22492532432079315
1783153149515200500,11.345200439453125,8.204689979553223,5.2716875076293945,-0.2727817893028259
1783153149524911600,11.35491162109375,8.187939643859863,5.250152111053467,-0.27038896083831787
1783153149534622700,11.364622802734376,8.233403205871582,5.235795021057129,-0.28504499793052673
1783153149544333800,11.374333740234375,8.314759254455566,5.211866855621338,-0.3041875660419464
1783153149554045000,11.384044921875,8.4200439453125,5.195116996765137,-0.33768710494041443
1783153149563756000,11.393756103515624,8.484649658203125,5.209474086761475,-0.2679961323738098
1783153149573467100,11.403467041015626,8.372187614440918,5.219045162200928,-0.24646073579788208
1783153149583178200,11.41317822265625,8.3267240524292,5.209474086761475,-0.2225325107574463
1783153149592889300,11.422889404296875,8.254939079284668,5.2477593421936035,-0.23449662327766418
1783153149602600400,11.432600341796874,8.183154106140137,5.283651351928711,-0.1866401731967926
1783153149612311600,11.4423115234375,8.12542724609375,5.2956156730651855,-0.17228323221206665
1783153149622022700,11.452022705078125,8.075178146362305,5.281258583068848,-0.18903298676013947
1783153149631733500,11.4617333984375,8.106285095214844,5.290830135345459,-0.18424734473228455
1783153149641444600,11.471444580078124,8.127820014953613,5.2956156730651855,-0.19621145725250244
1783153149651155700,11.48115576171875,8.185546875,5.24536657333374,-0.23210379481315613
1783153149660866800,11.49086669921875,8.235795974731445,5.2716875076293945,-0.2392822653055191
1783153149670578200,11.500578125,8.254939079284668,5.25972318649292,-0.2392822653055191
1783153149680289000,11.5102890625,8.30279541015625,5.274080276489258,-0.25363919138908386
1783153149690000100,11.520000244140626,8.31715202331543,5.25972318649292,-0.24406790733337402
1783153149699711200,11.529711181640625,8.207082748413086,5.257330417633057,-0.2584248483181
1783153149709422300,11.53942236328125,8.072785377502441,5.2716875076293945,-0.24406790733337402
1783153149719133400,11.549133544921874,8.012965202331543,5.269294738769531,-0.2727817893028259
1783153149728844500,11.558844482421875,7.981858253479004,5.266901969909668,-0.2392822653055191
1783153149738555600,11.5685556640625,8.051250457763672,5.31475830078125,-0.2105683982372284
1783153149748266800,11.578266845703125,8.108677864074707,5.307579517364502,-0.2225325107574463
1783153149757977900,11.587977783203126,8.168797492980957,5.346164226531982,-0.22492532432079315
1783153149767689000,11.59768896484375,8.197511672973633,5.324329376220703,-0.24885354936122894
1783153149777400000,11.607400146484375,8.235795974731445,5.286044120788574,-0.25363919138908386
1783153149787111200,11.617111083984375,8.28126049041748,5.262115955352783,-0.27038896083831787
1783153149796822300,11.626822265625,8.276473999023438,5.293222904205322,-0.2512463629245758
1783153149806533400,11.636533447265625,8.223832130432129,5.274080276489258,-0.2225325107574463
1783153149816244500,11.646244384765625,8.173583030700684,5.309972763061523,-0.20338992774486542
1783153149825955600,11.65595556640625,8.099106788635254,5.336592674255371,-0.18424734473228455
1783153149835666700,11.665666748046876,8.134998321533203,5.319543838500977,-0.22492532432079315
1783153149845377800,11.675377685546875,8.271688461303711,5.324329376220703,-0.16510476171970367
1783153149855089000,11.6850888671875,8.5731840133667,5.226223945617676,-0.2273181527853012
1783153149864800000,11.694800048828125,8.609076499938965,5.156831741333008,-0.20338992774486542
1783153149874511000,11.704510986328126,8.570791244506836,5.532804012298584,0.14356936514377594
1783153149884222200,11.71422216796875,8.173583030700684,5.573482036590576,-0.34247273206710815
1783153149893933300,11.723933349609375,7.984251022338867,5.281258583068848,-0.6343970894813538
1783153149903644400,11.73364453125,7.5774712562561035,5.123332500457764,-0.37836506962776184
1783153149913355500,11.74335546875,7.680362701416016,5.32193660736084,-0.21296121180057526
1783153149923066600,11.753066650390625,7.558029651641846,5.4897332191467285,-0.1818545162677765
1783153149932777700,11.76277783203125,7.498208999633789,5.458626747131348,-0.11006984114646912
1783153149942488800,11.77248876953125,7.72104024887085,5.2477593421936035,-0.009571290574967861
1783153149952200000,11.782199951171876,8.072785377502441,5.449055194854736,0.3281157910823822
1783153149961911000,11.7919111328125,7.83111047744751,5.6069817543029785,-0.07657032459974289
