time,seconds_elapsed,z,y,x
1783152333619595500,0.144595458984375,-0.00403594970703125,-0.0012078285217285156,-0.007104396820068359
1783152333638760400,0.163760498046875,0.03146791458129883,-0.26177024841308594,0.8383817672729492
1783152333648556800,0.173556884765625,0.21729660034179688,-0.22288131713867188,0.6704983711242676
1783152333658383400,0.18338330078125,0.2526693344116211,-0.1323990821838379,0.47193098068237305
1783152333668179500,0.193179443359375,0.17416858673095703,-0.09889364242553711,0.29103565216064453
1783152333677975600,0.2029755859375,0.19043588638305664,-0.04055500030517578,0.1547842025756836
1783152333687741200,0.2127412109375,0.22690725326538086,0.045673370361328125,0.007700681686401367
1783152333697476400,0.222476318359375,0.24685287475585938,0.09284353256225586,-0.10692620277404785
1783152333707181000,0.23218115234375,0.3275895118713379,0.19214534759521484,-0.11461615562438965
1783152333716885500,0.241885498046875,0.3308272361755371,0.3103914260864258,-0.07878398895263672
1783152333726590200,0.251590087890625,-0.021361351013183594,0.3818364143371582,-0.024161338806152344
1783152333736294700,0.261294677734375,-0.18816184997558594,0.4399757385253906,0.1265404224395752
1783152333745999400,0.270999267578125,0.41634082794189453,0.5835437774658203,0.2810986042022705
1783152333755703800,0.280703857421875,0.19929122924804688,0.46555614471435547,0.4270648956298828
1783152333765408500,0.290408447265625,0.27649641036987305,0.41180896759033203,0.5559220314025879
1783152333775113200,0.30011328125,0.4367642402648926,0.40305185317993164,0.5631787776947021
1783152333784817700,0.309817626953125,0.4871225357055664,0.3533501625061035,0.5585823059082031
1783152333794522400,0.3195224609375,0.6095929145812988,0.32265758514404297,0.5863356590270996
1783152333804226800,0.329226806640625,0.6463923454284668,0.2954444885253906,0.6237220764160156
1783152333813931500,0.338931640625,0.5653009414672852,0.3049945831298828,0.645164966583252
1783152333823636000,0.348635986328125,0.520688533782959,0.3216533660888672,0.677253246307373
1783152333833371100,0.35837109375,0.7490277290344238,0.29585742950439453,0.955071210861206
1783152333843075800,0.368075927734375,0.10367012023925781,0.15056848526000977,0.2768864631652832
1783152333852780300,0.3777802734375,0.11445426940917969,0.44182348251342773,0.15870022773742676
1783152333862485000,0.387485107421875,0.44400882720947266,0.42137575149536133,0.22761106491088867
1783152333872220000,0.397219970703125,0.297607421875,0.28148698806762695,0.06544256210327148
1783152333881924600,0.406924560546875,0.13919496536254883,0.3516359329223633,0.05540943145751953
1783152333891629300,0.41662939453125,0.17723655700683594,0.3889908790588379,0.1534898281097412
1783152333901364200,0.4263642578125,0.16135263442993164,0.26337718963623047,0.34694743156433105
1783152333911069000,0.43606884765625,0.12071084976196289,0.16159486770629883,0.5305764675140381
1783152333920773400,0.4457734375,0.05888223648071289,0.14849281311035156,0.6360044479370117
1783152333930508500,0.455508544921875,0.020647525787353516,0.1012277603149414,0.6137394905090332
1783152333940243700,0.46524365234375,-0.08103227615356445,0.04694986343383789,0.48915934562683105
1783152333949948400,0.474948486328125,-0.08491230010986328,0.016915321350097656,0.27397584915161133
1783152333959652900,0.48465283203125,-0.11336469650268555,-0.003204345703125,-0.029035568237304688
1783152333969357600,0.494357666015625,-0.0570979118347168,0.0350642204284668,-0.3249974250793457
1783152333979092500,0.504092529296875,-0.004948139190673828,0.059708595275878906,-0.4933357238769531
1783152333988797200,0.513797119140625,-0.0008540153503417969,-0.0042133331298828125,-0.49608826637268066
1783152333998502000,0.523501953125,0.07853555679321289,-0.08945989608764648,-0.3896918296813965
1783152334008206300,0.533206298828125,0.14016008377075195,-0.14370489120483398,-0.19468951225280762
1783152334017941500,0.54294140625,0.09755277633666992,-0.17419719696044922,-0.015571832656860352
1783152334027646000,0.55264599609375,0.013492107391357422,-0.20132827758789062,0.1689317226409912
1783152334037350700,0.5623505859375,0.007838249206542969,-0.22426271438598633,0.24785137176513672
1783152334047055400,0.572055419921875,0.06230354309082031,-0.15820550918579102,0.25017333030700684
1783152334056790300,0.581790283203125,0.0921945571899414,-0.08276653289794922,0.23007988929748535
1783152334066495000,0.591494873046875,0.0369868278503418,-0.07424211502075195,0.17886900901794434
1783152334076199400,0.601199462890625,0.0028672218322753906,-0.04992103576660156,0.030826091766357422
1783152334085904100,0.610904052734375,-0.1471538543701172,0.05289936065673828,-0.1628570556640625
1783152334095639300,0.620639404296875,-0.34686756134033203,0.10151100158691406,-0.3228895664215088
1783152334105343700,0.63034375,-0.4709286689758301,0.11417341232299805,-0.3925654888153076
1783152334115048400,0.64004833984375,-0.6077070236206055,0.16522455215454102,-0.3770918846130371
1783152334124753000,0.6497529296875,-0.6435666084289551,0.15637445449829102,-0.25327229499816895
1783152334134488000,0.659488037109375,-0.7066540718078613,0.11917734146118164,-0.08045434951782227
1783152334144192800,0.66919287109375,-0.7072110176086426,-0.019495010375976562,0.11155080795288086
1783152334153897200,0.678897216796875,-0.6682205200195312,-0.09160614013671875,0.3036813735961914
1783152334163602000,0.688601806640625,-0.7686295509338379,-0.09646081924438477,0.48892807960510254
1783152334173337000,0.698337158203125,-0.8980798721313477,-0.09171199798583984,0.61761474609375
1783152334183041500,0.70804150390625,-0.95849609375,-0.09092044830322266,0.7154781818389893
1783152334192746200,0.717746337890625,-0.9919195175170898,-0.1289539337158203,0.7444210052490234
1783152334202450700,0.72745068359375,-1.0570359230041504,-0.17022037506103516,0.8590633869171143
1783152334212185900,0.737185791015625,-1.6990032196044922,-2.5988030433654785,2.100632429122925
1783152334221921000,0.746921142578125,-1.305473804473877,0.9667716026306152,-0.2583591938018799
1783152334231625500,0.75662548828125,-2.227297306060791,2.155820846557617,-1.20511794090271
1783152334241330200,0.766330078125,-1.1101512908935547,-0.7808504104614258,0.2377917766571045
1783152334251065300,0.7760654296875,-1.0790762901306152,-0.12593507766723633,0.15864348411560059
1783152334260769800,0.785769775390625,-1.5479402542114258,0.619471549987793,-0.1275341510772705
1783152334270474500,0.795474609375,-0.3213200569152832,-0.8337745666503906,0.6715171337127686
1783152334280179000,0.805178955078125,0.07660436630249023,0.3809356689453125,0.3362858295440674
1783152334289914000,0.8149140625,0.07597494125366211,-0.27935123443603516,0.7374887466430664
1783152334299618800,0.824618896484375,0.5187687873840332,0.3073139190673828,0.7115178108215332
1783152334309323300,0.8343232421875,0.3874945640563965,-0.10343647003173828,1.0738012790679932
1783152334319028000,0.844028076171875,0.9666614532470703,-0.10412883758544922,1.202467918395996
1783152334328763000,0.853762939453125,1.0934090614318848,-0.12761354446411133,0.9126911163330078
1783152334338467600,0.863467529296875,1.189115047454834,0.025449275970458984,0.19473648071289062
1783152334348172300,0.87317236328125,1.2939095497131348,0.015377044677734375,-0.44055867195129395
1783152334357876700,0.882876708984375,1.252265453338623,0.01906442642211914,-0.723332405090332
1783152334367612000,0.89261181640625,1.0760765075683594,0.10417985916137695,-0.5829541683197021
1783152334377316400,0.90231640625,0.8810811042785645,0.1782541275024414,0.02063274383544922
1783152334387021000,0.91202099609375,0.6627616882324219,0.23763275146484375,0.49703383445739746
1783152334396725800,0.921725830078125,0.350433349609375,0.17462539672851562,0.7428100109100342
1783152334406460700,0.931460693359375,0.14097929000854492,0.11724615097045898,0.7730679512023926
1783152334416165400,0.941165283203125,-0.11301136016845703,0.1350383758544922,0.3930013179779053
1783152334425869800,0.950869873046875,-0.3347301483154297,0.21243715286254883,-0.062103271484375
1783152334435574500,0.960574462890625,-0.5154533386230469,0.3082141876220703,-0.3323007822036743
1783152334445309700,0.970309814453125,-0.6412663459777832,0.31644105911254883,-0.20391583442687988
1783152334455014100,0.98001416015625,-0.7397561073303223,0.4033942222595215,0.12139642238616943
1783152334464718800,0.98971875,-0.8586163520812988,0.41120290756225586,0.539643406867981
1783152334474423300,0.99942333984375,-0.8495216369628906,0.46463680267333984,0.9272040128707886
1783152334484158500,1.009158447265625,-0.5904240608215332,0.7335128784179688,1.287917137145996
1783152334493863200,1.01886328125,-0.1904897689819336,0.6333155632019043,1.5267530679702759
1783152334503598000,1.02859814453125,-0.12548351287841797,0.3373703956604004,1.5980124473571777
1783152334513333200,1.038333251953125,-0.2445225715637207,0.3594942092895508,1.398030161857605
1783152334523038000,1.048037841796875,-0.3836336135864258,0.4045686721801758,1.1659636497497559
1783152334532742400,1.057742431640625,-0.35154199600219727,0.23902130126953125,1.0080925226211548
1783152334542447000,1.067447021484375,-0.700289249420166,0.06446599960327148,0.840246319770813
1783152334552182300,1.077182373046875,-1.04225492477417,0.023754596710205078,0.845247745513916
1783152334561886700,1.08688671875,-1.0308270454406738,-0.029560565948486328,0.8781129121780396
1783152334571591400,1.09659130859375,-1.1341776847839355,-0.02978992462158203,0.8055444955825806
1783152334581295900,1.1062958984375,-1.290515422821045,-0.012931346893310547,0.7343500852584839
1783152334591031000,1.116031005859375,-1.347456932067871,-0.05357933044433594,0.6141272783279419
1783152334600735700,1.12573583984375,-1.3744230270385742,-0.13561201095581055,0.4593154191970825
1783152334610440200,1.135440185546875,-1.3702387809753418,-0.18474578857421875,0.2968175411224365
1783152334620145000,1.145144775390625,-1.3590822219848633,-0.25822877883911133,0.16641497611999512
1783152334629880000,1.154880126953125,-1.3070592880249023,-0.3396639823913574,0.09990549087524414
1783152334639584500,1.16458447265625,-1.2162623405456543,-0.4695572853088379,0.12493312358856201
1783152334649289200,1.174289306640625,-1.0861163139343262,-0.578944206237793,0.19370520114898682
1783152334658993700,1.18399365234375,-0.9702401161193848,-0.6782736778259277,0.27187883853912354
1783152334668728800,1.193728759765625,-0.8318629264831543,-0.7473101615905762,0.3706552982330322
1783152334678433500,1.20343359375,-0.6527376174926758,-0.7935137748718262,0.42956507205963135
1783152334688138000,1.213137939453125,-0.5862231254577637,-0.7883367538452148,0.48544061183929443
1783152334697842700,1.2228427734375,-0.6294765472412109,-0.8365249633789062,0.4818636178970337
1783152334707577600,1.23257763671875,-0.5771956443786621,-0.8714098930358887,0.3843435049057007
1783152334717282300,1.2422822265625,-0.4770026206970215,-0.8272104263305664,0.30066728591918945
1783152334726986800,1.25198681640625,-0.35644006729125977,-0.7578725814819336,0.22397840023040771
1783152334736691500,1.26169140625,-0.2452101707458496,-0.614936351776123,0.16123855113983154
1783152334746426600,1.271426513671875,-0.10410690307617188,-0.46887731552124023,0.14305031299591064
1783152334765835800,1.290835693359375,0.0475153923034668,-0.3064732551574707,0.26971137523651123
1783152334775540200,1.300540283203125,0.07934188842773438,-0.13942289352416992,0.2798774242401123
1783152334785275400,1.310275390625,0.028088092803955078,-0.01426553726196289,0.20336616039276123
1783152334795010600,1.320010498046875,0.022380828857421875,0.14562559127807617,0.16242969036102295
1783152334804715300,1.32971533203125,-0.08655118942260742,0.33849334716796875,0.06324100494384766
1783152334814419700,1.339419677734375,-0.28733015060424805,0.541471004486084,-0.11298656463623047
1783152334824155000,1.34915478515625,-0.40326976776123047,0.7872700691223145,-0.3819030523300171
1783152334833859300,1.358859375,-0.4776577949523926,1.027543067932129,-0.6650923490524292
1783152334843564000,1.36856396484375,-0.6054539680480957,1.2260069847106934,-0.8990061283111572
1783152334853268700,1.378268798828125,-0.7261972427368164,1.4059357643127441,-1.104889154434204
1783152334863003600,1.388003662109375,-0.8129196166992188,1.4979171752929688,-1.2434049844741821
1783152334872708400,1.397708251953125,-0.742250919342041,1.5097317695617676,-1.1969832181930542
1783152334882412800,1.407412841796875,-0.4999809265136719,1.412149429321289,-1.081477165222168
1783152334892117500,1.417117431640625,-0.13582944869995117,1.261350154876709,-0.9183809757232666
1783152334901852700,1.426852783203125,0.23928022384643555,0.9407234191894531,-0.6415271759033203
1783152334911557000,1.43655712890625,0.7456150054931641,0.5284891128540039,-0.3773224353790283
1783152334921261800,1.44626171875,1.3768329620361328,0.17155027389526367,-0.26331472396850586
1783152334930966300,1.45596630859375,2.0366806983947754,-0.18064641952514648,-0.20244598388671875
1783152334940701400,1.465701416015625,2.420375347137451,-0.5492663383483887,-0.10310482978820801
1783152334950406100,1.47540625,2.511582374572754,-0.7921023368835449,0.04624974727630615
1783152334960110600,1.485110595703125,2.2258481979370117,-1.0498590469360352,0.3204456567764282
1783152334969815300,1.494815185546875,1.8693175315856934,-1.0468745231628418,0.4481390714645386
1783152334979550500,1.504550537109375,1.3008742332458496,-1.244981288909912,0.717937707901001
1783152334989255000,1.5142548828125,0.8259067535400391,-1.426950454711914,0.9345961809158325
1783152334998959600,1.523959716796875,0.1575913429260254,-1.4439125061035156,0.9489444494247437
1783152335008664000,1.5336640625,-0.33213186264038086,-1.5494270324707031,0.8637673854827881
1783152335018399200,1.543399169921875,-0.6598186492919922,-1.6735105514526367,0.7173212766647339
1783152335028104000,1.55310400390625,-0.9105925559997559,-1.7828788757324219,0.5561347007751465
1783152335037808400,1.562808349609375,-1.0441465377807617,-1.9104647636413574,0.4035595655441284
1783152335047513000,1.57251318359375,-0.9514212608337402,-1.9806370735168457,0.3167945146560669
1783152335057248000,1.582248046875,-0.8542070388793945,-2.0785136222839355,0.306599497795105
1783152335066952700,1.59195263671875,-0.7728304862976074,-2.1583495140075684,0.36650335788726807
1783152335076688000,1.60168798828125,-0.7724599838256836,-2.174947738647461,0.42351365089416504
1783152335086392300,1.611392333984375,-0.7286343574523926,-2.1464929580688477,0.4522820711135864
1783152335096127500,1.62112744140625,-0.8110580444335938,-2.089963912963867,0.50098717212677
1783152335105832200,1.630832275390625,-0.9132370948791504,-1.9829645156860352,0.46002161502838135
1783152335115536600,1.64053662109375,-1.0115818977355957,-1.9654970169067383,0.4554823637008667
1783152335125241300,1.650241455078125,-0.9573588371276855,-2.0069756507873535,0.47014641761779785
1783152335134976300,1.659976318359375,-0.8867101669311523,-1.9950838088989258,0.5181074142456055
1783152335144681000,1.669680908203125,-0.8952617645263672,-1.8883147239685059,0.5041166543960571
1783152335154385700,1.6793857421875,-0.8692679405212402,-1.656296730041504,0.3422207832336426
1783152335164120600,1.68912060546875,-0.7823266983032227,-1.172811508178711,-0.06613433361053467
1783152335173825300,1.6988251953125,-0.7340903282165527,-0.5175008773803711,-0.6636356115341187
1783152335183529700,1.70852978515625,-0.7896442413330078,0.29110050201416016,-1.3938755989074707
1783152335193234400,1.718234375,-0.810877799987793,1.0500149726867676,-1.895966649055481
1783152335202969600,1.727969482421875,-0.7724490165710449,1.6804533004760742,-2.143561840057373
1783152335212674000,1.737674072265625,-0.6497621536254883,2.1680493354797363,-2.174478054046631
1783152335222378800,1.747378662109375,-0.5370664596557617,2.6218552589416504,-2.170289993286133
1783152335232083200,1.757083251953125,-0.23607635498046875,2.885254383087158,-2.1221923828125
1783152335241818400,1.766818359375,0.31659746170043945,2.8892064094543457,-1.915800929069519
1783152335251523000,1.776523193359375,0.7012467384338379,2.701829433441162,-1.550126552581787
1783152335261227500,1.7862275390625,1.1006951332092285,2.477621078491211,-1.2170932292938232
1783152335270932200,1.79593212890625,1.5841999053955078,2.306990146636963,-1.0563634634017944
1783152335280667400,1.80566748046875,2.1511292457580566,2.353130340576172,-1.058977723121643
1783152335290371800,1.815371826171875,2.6432266235351562,2.6090164184570312,-1.1047911643981934
1783152335300076500,1.82507666015625,3.112377643585205,2.7906575202941895,-0.9442858695983887
1783152335309781000,1.834781005859375,3.434234619140625,2.8957443237304688,-0.621827244758606
1783152335319516200,1.84451611328125,3.574810028076172,2.920673370361328,-0.3103010654449463
1783152335329220900,1.854220947265625,3.5210413932800293,2.7516074180603027,0.061134934425354004
1783152335338925300,1.86392529296875,3.273038387298584,2.372499942779541,0.4518425464630127
1783152335348630000,1.873630126953125,2.7222776412963867,1.8860011100769043,0.7368350028991699
1783152335358365000,1.883364990234375,1.9520316123962402,1.4385995864868164,0.790404200553894
1783152335368100000,1.89310009765625,1.0962443351745605,1.0411462783813477,0.5861746072769165
1783152335377804800,1.9028046875,0.3214378356933594,0.6873445510864258,0.2833082675933838
1783152335387509200,1.91250927734375,-0.20475101470947266,0.4776496887207031,-0.1065284013748169
1783152335397244400,1.922244384765625,-0.3243141174316406,0.35498476028442383,-0.4498511552810669
1783152335406949000,1.93194921875,-0.1646876335144043,0.11907577514648438,-0.5035125017166138
1783152335416653600,1.941653564453125,-0.23605871200561523,-0.23894453048706055,-0.1477900743484497
1783152335426358300,1.951358154296875,-0.7236108779907227,-0.6978936195373535,0.4061262607574463
1783152335436093400,1.961093505859375,-1.4496359825134277,-1.2620649337768555,0.8260941505432129
1783152335445798000,1.9707978515625,-1.6897568702697754,-1.512434482574463,1.514939308166504
1783152335455502600,1.980502685546875,-1.824885368347168,-2.401998996734619,2.3010411262512207
1783152335465207000,1.99020703125,-2.656797409057617,-3.1444482803344727,2.2437031269073486
1783152335474942200,1.999942138671875,-3.3539657592773438,-3.292253017425537,1.97200345993042
1783152335484647000,2.00964697265625,-3.662775993347168,-3.225304126739502,2.0751543045043945
1783152335494351400,2.019351318359375,-3.67374324798584,-1.9037327766418457,1.1098295450210571
1783152335504056000,2.02905615234375,-3.7608108520507812,-1.346689224243164,0.864155650138855
1783152335513791000,2.038791015625,-3.242267608642578,-1.668168067932129,1.6758099794387817
1783152335523495700,2.04849560546875,-2.893326759338379,-2.2723307609558105,2.4667844772338867
1783152335533200100,2.0582001953125,-2.8573036193847656,-2.7049899101257324,2.2367641925811768
1783152335542904800,2.06790478515625,-2.7659339904785156,-2.321178436279297,1.746537446975708
1783152335552640000,2.077639892578125,-2.2212677001953125,-1.7027029991149902,1.2700468301773071
1783152335562344400,2.087344482421875,-2.265106201171875,-1.7815065383911133,0.8726158142089844
1783152335572049200,2.097049072265625,-2.3658924102783203,-1.9635920524597168,0.6624162197113037
1783152335581753600,2.106753662109375,-2.270779609680176,-2.1724042892456055,0.5488842725753784
1783152335591488800,2.11648876953125,-2.2130441665649414,-2.4479637145996094,0.13077294826507568
1783152335601193500,2.126193359375,-2.0134429931640625,-2.357664108276367,-0.23805415630340576
1783152335610898000,2.13589794921875,-1.6183300018310547,-2.0997800827026367,-0.5781412124633789
1783152335620602600,2.1456025390625,-0.9755973815917969,-1.5420188903808594,-1.0336391925811768
1783152335630337800,2.155337890625,-0.4221820831298828,-0.7903447151184082,-1.406914234161377
1783152335640042200,2.165042236328125,-0.10200119018554688,-0.1864938735961914,-1.540724515914917
1783152335649777400,2.17477734375,0.2469034194946289,0.37009763717651367,-1.4517790079116821
1783152335659482000,2.184482177734375,1.0102081298828125,1.0484809875488281,-1.3227232694625854
1783152335669217000,2.194217041015625,1.873976707458496,1.86399507522583,-1.3289567232131958
1783152335678921700,2.203921630859375,2.559769630432129,2.6958670616149902,-1.304465413093567
1783152335688626200,2.213626220703125,3.641665458679199,3.2516379356384277,-1.1130077838897705
1783152335698331000,2.223330810546875,5.043720245361328,3.5889854431152344,-0.8250998854637146
1783152335708066000,2.233066162109375,6.491828918457031,3.8713903427124023,-0.6587826609611511
1783152335717770500,2.2427705078125,7.416714668273926,3.9576520919799805,-0.5184502005577087
1783152335727475200,2.25247509765625,8.031754493713379,4.14594030380249,-0.5430536866188049
1783152335737179600,2.2621796875,8.424885749816895,4.643893241882324,-0.8782211542129517
1783152335746914800,2.271914794921875,8.325292587280273,4.776212692260742,-0.9668564200401306
1783152335756619500,2.28161962890625,7.6445207595825195,4.629028797149658,-0.7643154859542847
1783152335776059100,2.30105908203125,5.650206565856934,4.159477710723877,-0.19753432273864746
1783152335785763800,2.310763916015625,5.011592864990234,3.745490074157715,0.5854246616363525
1783152335795468300,2.32046826171875,4.347260475158691,3.5589523315429688,1.9943280220031738
1783152335805173000,2.330173095703125,4.260272979736328,3.3934640884399414,4.009589672088623
1783152335814908000,2.339907958984375,4.273567199707031,3.3982973098754883,5.165640830993652
1783152335824612600,2.349612548828125,3.566464424133301,1.5388336181640625,5.515159606933594
1783152335834317300,2.3593173828125,2.7786130905151367,-1.3494782447814941,5.007300853729248
1783152335844021800,2.369021728515625,1.708028793334961,-2.198664665222168,3.102745771408081
1783152335853757000,2.3787568359375,-2.962331771850586,-3.114684581756592,0.5128281116485596
1783152335863461400,2.38846142578125,-1.8805418014526367,-4.132235050201416,-0.5922271013259888
1783152335873166000,2.398166015625,0.19605445861816406,-0.755225658416748,-3.174943447113037
1783152335882870800,2.407870849609375,2.1392345428466797,-0.3933568000793457,-1.4173424243927002
1783152335892605700,2.417605712890625,-0.44068431854248047,-1.5492653846740723,0.6793217658996582
1783152335902310400,2.427310302734375,-2.8841495513916016,-2.0080037117004395,0.7561402320861816
1783152335912014800,2.437014892578125,-3.436577796936035,-1.955674171447754,0.6429316997528076
1783152335921719600,2.446719482421875,-3.349668502807617,-1.3901138305664062,0.14026641845703125
1783152335931454700,2.456454833984375,-4.061046600341797,-0.827573299407959,-0.34213173389434814
1783152335941189600,2.466189697265625,-5.368403434753418,-0.6935672760009766,-0.3209538459777832
1783152335950894300,2.475894287109375,-6.462811470031738,-1.1221027374267578,0.7228504419326782
1783152335960599000,2.48559912109375,-7.407156944274902,-2.436422824859619,2.531785488128662
1783152335970334000,2.495333984375,-8.051701545715332,-3.5202126502990723,3.682621955871582
1783152335980038700,2.50503857421875,-8.449539184570312,-3.8546581268310547,3.895986557006836
1783152335989743000,2.5147431640625,-8.657301902770996,-3.70062255859375,2.8243064880371094
1783152335999447800,2.52444775390625,-8.617010116577148,-4.350128650665283,2.2499403953552246
1783152336009183000,2.534182861328125,-8.019908905029297,-4.838240623474121,2.082362651824951
1783152336028592000,2.553592041015625,-5.95817756652832,-3.014932155609131,4.041285037994385
1783152336038296600,2.563296630859375,-6.252549648284912,-2.2566652297973633,3.0970559120178223
1783152336048031700,2.57303173828125,-5.706212520599365,-2.686952590942383,1.6998356580734253
1783152336057736400,2.582736328125,-4.654479026794434,-3.9204258918762207,0.7238888740539551
1783152336067441000,2.59244091796875,-6.46331787109375,-4.68021297454834,0.8634395599365234
1783152336077145600,2.6021455078125,-3.344130039215088,-3.1617469787597656,0.27365732192993164
1783152336086880800,2.611880859375,-3.54996395111084,-2.6189398765563965,0.17554187774658203
1783152336096585200,2.621585205078125,-5.650893688201904,-3.627457618713379,0.42587804794311523
1783152336106290000,2.6312900390625,-7.558518409729004,-4.627429962158203,0.866203784942627
1783152336115994400,2.640994384765625,-7.955747604370117,-3.9350829124450684,-0.4144744873046875
1783152336125729500,2.6507294921875,-5.547567844390869,-1.907623291015625,-3.557284116744995
1783152336135434200,2.660434326171875,1.831380844116211,2.5410752296447754,-10.10879135131836
1783152336145138700,2.670138671875,7.410926342010498,9.913606643676758,-18.84953498840332
1783152336154843400,2.679843505859375,6.402848243713379,4.3763346672058105,-9.517568588256836
1783152336164578300,2.689578369140625,6.856062412261963,-1.1795437335968018,-2.666900157928467
1783152336174283000,2.699282958984375,8.119421005249023,1.016563892364502,-3.8640170097351074
1783152336183987700,2.70898779296875,9.100923538208008,3.7781758308410645,-4.562203884124756
1783152336193692200,2.718692138671875,10.331069946289062,3.338994026184082,-2.408144950866699
1783152336203427300,2.72842724609375,10.160951614379883,2.278324604034424,-0.6179561614990234
1783152336213131800,2.7381318359375,8.358391761779785,2.575598955154419,-0.4374806880950928
1783152336222867000,2.747866943359375,7.161311149597168,2.166426658630371,-0.1561446189880371
1783152336232571600,2.757571533203125,6.4447832107543945,-0.8469178676605225,2.699519157409668
1783152336242306800,2.767306884765625,3.2903823852539062,0.008981943130493164,2.0998427867889404
1783152336252011300,2.77701123046875,1.3558902740478516,0.6633865833282471,1.764704942703247
1783152336261716000,2.786716064453125,0.9578342437744141,1.127535104751587,1.2904140949249268
1783152336271451000,2.796450927734375,1.596308708190918,1.5075222253799438,0.43668413162231445
1783152336281155600,2.806155517578125,2.5923547744750977,1.6845788955688477,-0.44544172286987305
1783152336290860300,2.8158603515625,3.094170570373535,1.6845688819885254,-0.9529139995574951
1783152336300564700,2.825564697265625,2.4776430130004883,1.342721939086914,-0.9539377689361572
1783152336310300000,2.8352998046875,0.9105672836303711,0.8927218914031982,-0.6369760036468506
1783152336320004400,2.84500439453125,-0.8506593704223633,0.557183027267456,-0.16649508476257324
1783152336329709000,2.854708984375,-2.094141960144043,0.24037683010101318,0.11096882820129395
1783152336339413800,2.864413818359375,-2.8178138732910156,-0.3642573356628418,0.3107924461364746
1783152336349148700,2.874148681640625,-3.5697431564331055,-1.183645486831665,0.7113964557647705
1783152336358853400,2.883853271484375,-4.330680847167969,-1.7085206508636475,1.057431697845459
1783152336368557800,2.893557861328125,-4.015720367431641,-1.9481620788574219,0.8144946098327637
1783152336378262500,2.903262451171875,-2.936237335205078,-1.780358910560608,0.310330867767334
1783152336387997700,2.912997802734375,-1.3981027603149414,-1.1800222396850586,-0.3335237503051758
1783152336397702100,2.9227021484375,-0.8278007507324219,-0.4510713815689087,-0.977330207824707
1783152336407406800,2.93240673828125,-1.760758399963379,-0.7195857763290405,-0.7793605327606201
1783152336417111300,2.942111328125,-3.496042251586914,-2.1475658416748047,0.2176036834716797
1783152336426846500,2.951846435546875,-4.255893707275391,-2.9050979614257812,1.9260907173156738
1783152336436551200,2.96155126953125,-5.1920166015625,-2.620469093322754,1.9142391681671143
1783152336446255600,2.971255615234375,-7.224851608276367,-2.827169179916382,0.8973679542541504
1783152336455960300,2.980960205078125,-9.154605865478516,-3.499591827392578,0.4328451156616211
1783152336465695500,2.990695556640625,-13.134819030761719,-5.147194862365723,1.9762712717056274
1783152336475400000,3.00039990234375,-13.012025833129883,-2.6434433460235596,-2.2804760932922363
1783152336485104600,3.010104736328125,-14.09595012664795,-1.7165513038635254,-3.234140396118164
1783152336494809000,3.01980908203125,-13.36954402923584,-0.9256269931793213,-2.579563856124878
1783152336504544300,3.029544189453125,-13.58540153503418,-1.733386516571045,-3.6775741577148438
1783152336514279400,3.039279541015625,-10.587686538696289,-1.2678804397583008,-4.51083517074585
1783152336523984000,3.04898388671875,-4.186345100402832,-0.38565754890441895,-4.4156107902526855
1783152336533688600,3.0586884765625,2.092967987060547,-0.7845563888549805,-2.009058713912964
1783152336543423700,3.068423828125,7.955471038818359,-1.8253108263015747,2.4120497703552246
1783152336553128200,3.078128173828125,10.414748191833496,-2.529165744781494,4.727328777313232
1783152336562833000,3.0878330078125,13.626142501831055,-0.11001616716384888,2.695413112640381
1783152336572537300,3.097537353515625,13.31688404083252,-0.49023884534835815,3.3097939491271973
1783152336582272500,3.1072724609375,17.75611114501953,-0.3779014050960541,4.052135467529297
1783152336591977200,3.116977294921875,17.97962188720703,-0.07955747097730637,2.6414103507995605
1783152336601681700,3.126681640625,18.68622589111328,1.7332793474197388,1.5455572605133057
1783152336611386400,3.136386474609375,19.34838104248047,2.4237442016601562,2.029917001724243
1783152336621121300,3.146121337890625,19.261627197265625,2.286768913269043,1.9495940208435059
1783152336630826000,3.155825927734375,17.550548553466797,2.0614726543426514,-0.12081365287303925
1783152336640530700,3.16553076171875,19.721477508544922,1.5274418592453003,0.4087839722633362
1783152336650235100,3.175235107421875,20.89436912536621,0.947821855545044,0.6724122166633606
1783152336659970300,3.18497021484375,21.19436264038086,0.3253045082092285,1.8671222925186157
1783152336669674800,3.1946748046875,20.136451721191406,0.04233318567276001,2.3896093368530273
1783152336679379500,3.20437939453125,17.43938636779785,0.15921242535114288,2.486055612564087
1783152336689084200,3.214084228515625,13.963083267211914,-0.5004652142524719,4.399328231811523
1783152336698823400,3.223823486328125,7.390844345092773,0.12409058213233948,2.4611074924468994
1783152336708527900,3.23352783203125,4.079678535461426,0.7080221772193909,0.4789336919784546
1783152336718232600,3.243232666015625,0.11672782897949219,-0.376373291015625,1.4503495693206787
1783152336727937300,3.252937255859375,-3.217410087585449,-0.2649979591369629,0.6663610935211182
1783152336737672200,3.262672119140625,-6.181509017944336,-1.2972686290740967,0.7653210163116455
1783152336747377000,3.272376953125,-9.120403289794922,-2.145681619644165,0.5101782083511353
1783152336757081300,3.282081298828125,-11.29443645477295,-2.856757640838623,0.2702159285545349
1783152336766786000,3.2917861328125,-13.007223129272461,-3.392685651779175,-0.1828906387090683
1783152336776521200,3.301521240234375,-14.338898658752441,-3.87109375,-0.40158140659332275
1783152336786225700,3.3112255859375,-15.350433349609375,-4.528072357177734,-0.5382972955703735
1783152336795960800,3.3209609375,-15.713212013244629,-5.158164024353027,-0.9178434610366821
1783152336805665500,3.33066552734375,-15.570368766784668,-5.90116024017334,-1.5199990272521973
1783152336815400400,3.340400390625,-15.02124309539795,-6.353601932525635,-2.3005471229553223
1783152336825105200,3.350105224609375,-14.460952758789062,-6.555301666259766,-2.9559710025787354
1783152336834809600,3.3598095703125,-14.517654418945312,-6.771167278289795,-2.9560904502868652
1783152336844514300,3.369514404296875,-15.266510963439941,-7.026351451873779,-2.4539105892181396
1783152336854249500,3.37924951171875,-16.12020492553711,-6.930002212524414,-1.7331950664520264
1783152336863954000,3.388953857421875,-17.099576950073242,-6.9794158935546875,-1.0254814624786377
1783152336873658600,3.39865869140625,-17.452014923095703,-6.916985511779785,-0.040306031703948975
1783152336883393800,3.408393798828125,-17.014808654785156,-6.2135419845581055,0.32975536584854126
1783152336893098200,3.41809814453125,-16.00543212890625,-5.957365036010742,0.8029460310935974
1783152336902803000,3.427802978515625,-14.5403413772583,-5.932462692260742,1.1839499473571777
1783152336912507400,3.43750732421875,-12.27587604522705,-5.7393269538879395,1.4137141704559326
1783152336922242600,3.44724267578125,-9.766398429870605,-5.384285926818848,1.6144169569015503
1783152336931947300,3.456947265625,-7.366565704345703,-4.947634220123291,1.7812976837158203
1783152336941651700,3.466651611328125,-5.225120544433594,-4.032848358154297,1.8082090616226196
1783152336951356400,3.4763564453125,-3.473215103149414,-2.9034197330474854,2.1555557250976562
1783152336961091300,3.48609130859375,-2.539919853210449,-1.2065544128417969,2.266167402267456
1783152336970796000,3.495796142578125,-2.233621597290039,0.8148367404937744,2.09863018989563
1783152336980500700,3.505500732421875,-1.2084331512451172,1.727618932723999,1.5418450832366943
1783152336990205200,3.515205078125,2.2581729888916016,0.08112382888793945,2.0599205493927
1783152336999940400,3.5249404296875,8.828519821166992,-2.3752822875976562,2.1367788314819336
1783152337009644800,3.534644775390625,17.472599029541016,-3.2319531440734863,0.7499525547027588
1783152337019349500,3.544349609375,25.19012451171875,-2.120957374572754,-0.6379888653755188
1783152337029054200,3.55405419921875,29.60556411743164,0.1931557059288025,-0.9914999604225159
1783152337038789000,3.5637890625,29.52432632446289,1.7537336349487305,-0.6354197263717651
1783152337048493800,3.573493896484375,27.392200469970703,3.2126059532165527,-0.42086464166641235
1783152337058198300,3.5831982421875,23.975433349609375,4.590333938598633,-0.6174284815788269
1783152337067903000,3.592903076171875,21.290847778320312,5.2332987785339355,-0.45307087898254395
1783152337077638100,3.60263818359375,20.278419494628906,4.976132392883301,0.1601713001728058
1783152337087373300,3.612373291015625,21.19298553466797,4.185089111328125,0.9269481897354126
1783152337097077800,3.622077880859375,22.90667724609375,3.0928523540496826,2.0039567947387695
1783152337106782500,3.631782470703125,23.726444244384766,1.6856515407562256,3.00848388671875
1783152337116517400,3.641517333984375,22.706823348999023,0.6897151470184326,3.3882360458374023
1783152337126222000,3.65122216796875,19.3438720703125,-0.10684981942176819,3.0488805770874023
1783152337135926500,3.660926513671875,14.488896369934082,-0.7439184784889221,2.395195245742798
1783152337145631200,3.67063134765625,9.251612663269043,-1.026724100112915,1.6907650232315063
1783152337155366400,3.680366455078125,4.125627517700195,-1.3444441556930542,1.5259835720062256
1783152337165070800,3.69007080078125,-0.4426298141479492,-1.816394567489624,1.705828309059143
1783152337174775600,3.699775634765625,-4.040874481201172,-2.1186349391937256,1.491703748703003
1783152337184480000,3.70947998046875,-6.625640869140625,-2.61183500289917,1.22393798828125
1783152337194215200,3.719215087890625,-8.500616073608398,-3.3575241565704346,1.0712840557098389
1783152337203920000,3.728919921875,-9.702886581420898,-4.230250835418701,0.8794549703598022
1783152337213624300,3.738624267578125,-10.238421440124512,-4.911853790283203,0.3815014958381653
1783152337223329000,3.7483291015625,-10.753599166870117,-5.396442413330078,-0.25398486852645874
1783152337233064200,3.758064208984375,-11.409133911132812,-5.794262886047363,-0.7508324384689331
1783152337242768600,3.7677685546875,-12.297971725463867,-5.903039932250977,-1.0529165267944336
1783152337252473300,3.777473388671875,-13.635122299194336,-5.932727813720703,-1.167938232421875
1783152337262177800,3.787177734375,-14.854978561401367,-5.826512336730957,-1.1453421115875244
1783152337271913000,3.796912841796875,-15.525300979614258,-5.625886917114258,-1.095681071281433
1783152337281617700,3.80661767578125,-15.804574966430664,-5.58526086807251,-0.9879354238510132
1783152337291322000,3.816322021484375,-16.192394256591797,-5.600653648376465,-1.0548481941223145
1783152337301026800,3.82602685546875,-16.668811798095703,-5.437929630279541,-0.9455094933509827
1783152337310762000,3.835761962890625,-17.023738861083984,-5.511960506439209,-0.6057319641113281
1783152337320466400,3.845466552734375,-16.74893569946289,-5.594583511352539,-0.28526079654693604
1783152337330171100,3.855171142578125,-15.771598815917969,-5.624091148376465,-0.01265186071395874
1783152337339875600,3.86487548828125,-14.310868263244629,-5.5624213218688965,0.342298686504364
1783152337349610800,3.87461083984375,-13.029699325561523,-5.291082382202148,0.5669596195220947
1783152337359315200,3.884315185546875,-11.805961608886719,-4.995904922485352,0.7690277695655823
1783152337369050400,3.89405029296875,-11.13043212890625,-4.786312580108643,0.938858687877655
1783152337378755000,3.903755126953125,-10.729522705078125,-4.377113342285156,0.6935787200927734
1783152337388490200,3.913490234375,-10.312461853027344,-4.219046115875244,0.540054440498352
1783152337398194700,3.923194580078125,-9.698028564453125,-4.229686737060547,0.644018292427063
1783152337407899400,3.9328994140625,-8.475478172302246,-4.402560234069824,1.002206802368164
1783152337417603800,3.942603759765625,-6.256770133972168,-4.821659088134766,1.1354765892028809
1783152337427339000,3.952339111328125,-3.0278825759887695,-4.947064399719238,0.4805399775505066
1783152337437043700,3.962043701171875,0.6964912414550781,-4.728353500366211,-0.40223634243011475
1783152337446748200,3.971748046875,3.818427085876465,-3.825225830078125,-1.1885695457458496
1783152337456452900,3.981452880859375,5.829494476318359,-2.826308012008667,-1.5273916721343994
1783152337466187800,3.991187744140625,7.636353492736816,-2.003472089767456,-1.2501291036605835
1783152337475892500,4.000892578125,10.789774894714355,-1.3849982023239136,-0.7660781145095825
1783152337485597200,4.01059716796875,16.484275817871094,-1.2043311595916748,0.08484268188476562
1783152337495301600,4.020301513671875,24.267192840576172,-0.8390622138977051,0.9260926246643066
1783152337505036800,4.030036865234375,29.52957534790039,0.035660408437252045,1.4508286714553833
1783152337514741200,4.0397412109375,29.459007263183594,1.2708736658096313,2.705822706222534
1783152337524446000,4.049446044921875,29.38982391357422,2.305813789367676,4.84830904006958
1783152337534150700,4.059150634765625,29.321027755737305,3.32536244392395,6.395575046539307
1783152337543885600,4.068885498046875,29.25436019897461,4.207942485809326,6.980020523071289
1783152337553590300,4.07859033203125,27.57526397705078,4.736682891845703,6.245600700378418
1783152337563294700,4.088294677734375,23.298011779785156,4.8829169273376465,4.752999782562256
1783152337573030000,4.09802978515625,18.939476013183594,4.416113376617432,3.459782123565674
1783152337582734600,4.107734619140625,15.023123741149902,3.3630247116088867,2.6670374870300293
1783152337592439000,4.11743896484375,11.830215454101562,2.0982046127319336,1.9039855003356934
1783152337602143700,4.127143798828125,8.957682609558105,0.7594454288482666,1.3783347606658936
1783152337611879000,4.13687890625,5.947500228881836,-0.5464084148406982,1.1618187427520752
1783152337621583400,4.146583251953125,2.465290069580078,-1.7336838245391846,1.0244942903518677
1783152337631288000,4.1562880859375,-1.3351221084594727,-2.754838466644287,1.039813756942749
1783152337640992500,4.165992431640625,-5.047713279724121,-3.617058515548706,1.0844526290893555
1783152337650727700,4.175727783203125,-8.39126205444336,-4.390887260437012,1.0537031888961792
1783152337660462800,4.185462890625,-11.093573570251465,-5.195836067199707,1.1981098651885986
1783152337670167300,4.195167236328125,-13.109393119812012,-5.866701602935791,1.2891311645507812
1783152337679872000,4.2048720703125,-14.467546463012695,-6.417593002319336,1.2752211093902588
1783152337689607200,4.214607177734375,-15.561994552612305,-6.81506872177124,1.116509199142456
1783152337699311600,4.2243115234375,-16.57278823852539,-7.0401811599731445,0.7682830691337585
1783152337709016300,4.234016357421875,-17.320941925048828,-7.223813533782959,0.3541795611381531
1783152337718720800,4.243720703125,-17.897968292236328,-7.2872314453125,0.007061898708343506
1783152337728456000,4.2534560546875,-18.178855895996094,-7.147912979125977,-0.27700042724609375
1783152337738160600,4.26316064453125,-18.314163208007812,-6.942363739013672,-0.48287129402160645
1783152337747865000,4.272864990234375,-18.329151153564453,-6.726694583892822,-0.6403622031211853
1783152337757569800,4.28256982421875,-18.19255828857422,-6.5070061683654785,-0.6829224824905396
1783152337767304700,4.2923046875,-17.851421356201172,-6.324443340301514,-0.6419686675071716
1783152337777009400,4.302009521484375,-17.30396270751953,-6.299342155456543,-0.5321878790855408
1783152337786714000,4.311714111328125,-16.320030212402344,-6.373430252075195,-0.6049943566322327
1783152337796418600,4.32141845703125,-14.987874984741211,-6.264892578125,-0.6263083219528198
1783152337806153700,4.33115380859375,-13.78075122833252,-6.250846862792969,-0.2509101629257202
1783152337815858200,4.340858154296875,-12.729738235473633,-6.031024932861328,-0.015169978141784668
1783152337825563000,4.35056298828125,-11.5230073928833,-5.731170654296875,0.33812785148620605
1783152337835267600,4.360267578125,-10.19845962524414,-5.5587158203125,0.7345480918884277
1783152337845002500,4.37000244140625,-8.644930839538574,-5.27978515625,0.9034973382949829
1783152337854707200,4.379707275390625,-6.933437347412109,-5.15484619140625,0.8956712484359741
1783152337864411600,4.38941162109375,-4.678977012634277,-5.416351318359375,1.0789986848831177
1783152337874116400,4.399116455078125,-1.217543601989746,-5.666510581970215,0.9765207171440125
1783152337883851500,4.4088515625,2.8971309661865234,-5.313243389129639,0.5634289979934692
1783152337893556000,4.418555908203125,6.749152183532715,-4.4914231300354,-0.17755773663520813
1783152337903260700,4.4282607421875,9.522980690002441,-3.031702995300293,-0.9666441679000854
1783152337912965000,4.437965087890625,11.055240631103516,-1.3846803903579712,-0.6389932036399841
1783152337922700300,4.4477001953125,12.268593788146973,-0.0252535343170166,-0.31575918197631836
1783152337932405000,4.457405029296875,14.076878547668457,0.9823324084281921,-0.0434664785861969
1783152337942140200,4.46714013671875,16.45501708984375,1.5472389459609985,0.6313309669494629
1783152337951844600,4.4768447265625,19.455108642578125,2.4174275398254395,1.0898691415786743
1783152337961579800,4.486579833984375,22.548635482788086,3.3692405223846436,1.5336120128631592
1783152337971284200,4.4962841796875,25.619121551513672,4.080239772796631,1.4449604749679565
1783152337980989000,4.505989013671875,28.727670669555664,4.279021263122559,0.867821216583252
1783152337990693400,4.515693359375,29.36565399169922,4.051583290100098,0.6317273378372192
1783152338000428500,4.525428466796875,29.290409088134766,3.5815680027008057,0.9376837015151978
1783152338010133200,4.53513330078125,29.21444320678711,2.9022793769836426,2.0040323734283447
1783152338019837700,4.544837646484375,26.514568328857422,2.2150464057922363,2.6501526832580566
1783152338029542400,4.55454248046875,21.800479888916016,1.672805666923523,2.2648143768310547
1783152338039277600,4.564277587890625,16.15367889404297,0.8284367918968201,2.084625720977783
1783152338048982000,4.57398193359375,10.577291488647461,-0.08522582054138184,2.429694652557373
1783152338058686700,4.583686767578125,5.902744293212891,-0.9134527444839478,2.449618101119995
1783152338068391200,4.59339111328125,2.237842559814453,-1.5451433658599854,2.0082879066467285
1783152338078126300,4.603126220703125,-0.7240467071533203,-1.9680408239364624,1.053945541381836
1783152338087831000,4.6128310546875,-3.3958139419555664,-2.4996109008789062,0.13617877662181854
1783152338097535500,4.622535400390625,-5.921780586242676,-3.0351061820983887,-0.5426599979400635
1783152338107240200,4.632240234375,-8.44212818145752,-3.692845344543457,-0.9331212639808655
1783152338116975400,4.641975341796875,-10.665563583374023,-4.265781402587891,-0.8976703882217407
1783152338126679800,4.6516796875,-12.46247673034668,-4.735712051391602,-0.8313876390457153
1783152338136384500,4.661384521484375,-13.669147491455078,-4.975898742675781,-0.9401962757110596
1783152338146089000,4.6710888671875,-14.358399391174316,-5.059506893157959,-1.135701060295105
1783152338155824000,4.68082421875,-14.921850204467773,-5.1867899894714355,-1.1535732746124268
1783152338165528800,4.69052880859375,-15.4716157913208,-5.324398994445801,-1.126588225364685
1783152338175233300,4.7002333984375,-16.04495620727539,-5.415440082550049,-1.4516010284423828
1783152338184968400,4.709968505859375,-16.458290100097656,-5.388927459716797,-1.924031138420105
1783152338194673000,4.7196728515625,-16.22248077392578,-5.386664390563965,-2.346024751663208
1783152338204377600,4.729377685546875,-15.559185981750488,-5.392813682556152,-2.6023120880126953
1783152338214082000,4.73908203125,-15.046658515930176,-5.346341133117676,-2.5075325965881348
1783152338223817200,4.748817138671875,-14.950641632080078,-5.401872634887695,-1.7498751878738403
1783152338233552400,4.758552490234375,-15.03559684753418,-5.593806266784668,-0.41736680269241333
1783152338243257000,4.768257080078125,-14.936182022094727,-5.592110633850098,0.8143836259841919
1783152338252961500,4.77796142578125,-14.596757888793945,-5.19736909866333,1.257957100868225
1783152338262696700,4.78769677734375,-13.835453987121582,-4.7276930809021,0.9783614873886108
1783152338272401200,4.797401123046875,-12.775221824645996,-4.361632347106934,0.6463032364845276
1783152338282105900,4.80710595703125,-11.384151458740234,-4.019571304321289,0.5747724771499634
1783152338291810600,4.816810546875,-10.064009666442871,-3.8791513442993164,1.0490968227386475
1783152338301545500,4.82654541015625,-8.8988676071167,-4.03577184677124,1.7405591011047363
1783152338311250200,4.836250244140625,-7.658045768737793,-4.46989107131958,2.650830030441284
1783152338320954600,4.84595458984375,-5.899411201477051,-4.7667083740234375,2.879302740097046
1783152338330659300,4.855659423828125,-3.4523706436157227,-4.467877388000488,2.361050605773926
1783152338340394500,4.86539453125,-0.548919677734375,-3.71923828125,1.707280158996582
1783152338350099000,4.875098876953125,2.5052318572998047,-2.913268566131592,1.232495665550232
1783152338359803600,4.8848037109375,5.515214920043945,-1.6206932067871094,0.5976076722145081
1783152338369508000,4.894508056640625,8.087453842163086,-0.3997039198875427,0.3857545852661133
1783152338379243300,4.9042431640625,10.383756637573242,0.11858682334423065,0.3229160010814667
1783152338388948000,4.913947998046875,12.862208366394043,0.08606138825416565,0.1647285521030426
1783152338398652400,4.92365234375,15.959872245788574,-0.35861217975616455,0.24579957127571106
1783152338408357000,4.933357177734375,20.792743682861328,-0.4889267683029175,0.2802408039569855
1783152338418092300,4.94309228515625,27.45934295654297,-0.5492463111877441,0.7783979177474976
1783152338427796700,4.952796630859375,29.58490753173828,-0.8739750385284424,1.9563461542129517
1783152338437501400,4.96250146484375,29.53351593017578,-1.2868273258209229,3.5517306327819824
1783152338447206000,4.972205810546875,29.468313217163086,-1.1703526973724365,4.668101787567139
1783152338456941000,4.981941162109375,29.38625717163086,-1.0523415803909302,5.135162353515625
1783152338466645800,4.991645751953125,29.29071044921875,-1.090831995010376,5.610352516174316
1783152338476350200,5.00135009765625,29.188373565673828,-1.2257838249206543,5.022539138793945
1783152338486055000,5.011054931640625,27.47051239013672,-1.1637691259384155,3.339548110961914
1783152338495789800,5.020789794921875,20.658048629760742,-1.6924676895141602,2.790987968444824
1783152338505494500,5.03049462890625,13.85983657836914,-2.2968714237213135,2.8689498901367188
1783152338515229700,5.040229736328125,8.484613418579102,-2.8813283443450928,2.797488212585449
1783152338524934100,5.04993408203125,4.442137718200684,-3.6104767322540283,2.7222557067871094
1783152338534669300,5.05966943359375,0.8807744979858398,-4.425363063812256,2.7572834491729736
1783152338544374000,5.0693740234375,-2.776674270629883,-5.114325523376465,2.5012094974517822
1783152338554078500,5.079078369140625,-6.871514320373535,-5.702354431152344,1.7279963493347168
1783152338563783200,5.088783203125,-11.127248764038086,-6.113402366638184,0.7756909132003784
1783152338573518300,5.098518310546875,-15.387341499328613,-6.56488037109375,0.2301378846168518
1783152338583222800,5.108222900390625,-18.95758056640625,-7.132168292999268,-0.08355712890625
1783152338592927500,5.117927490234375,-21.606142044067383,-7.836452007293701,0.03854811191558838
1783152338602632000,5.1276318359375,-23.03607749938965,-8.413843154907227,0.05027973651885986
1783152338612367000,5.1373671875,-23.366825103759766,-8.755218505859375,-0.46789729595184326
1783152338622071600,5.147071533203125,-23.297155380249023,-8.834473609924316,-0.9699175357818604
1783152338631776300,5.1567763671875,-23.155166625976562,-9.022290229797363,-0.8991155624389648
1783152338641481000,5.16648095703125,-23.027969360351562,-8.862112045288086,-0.8839198350906372
1783152338651216000,5.1762158203125,-22.854726791381836,-8.708715438842773,-1.1122198104858398
1783152338660920600,5.185920654296875,-22.554424285888672,-8.319490432739258,-1.527174472808838
1783152338670625000,5.195625,-22.043725967407227,-7.852468013763428,-1.099726676940918
1783152338680329700,5.205329833984375,-21.564105987548828,-7.368937015533447,0.368710994720459
1783152338690065000,5.21506494140625,-21.392749786376953,-7.0265374183654785,1.894085168838501
1783152338699769300,5.224769287109375,-20.356292724609375,-6.435854434967041,2.4187097549438477
1783152338709474000,5.23447412109375,-17.89881706237793,-5.826581001281738,2.0070061683654785
1783152338719178500,5.244178466796875,-14.777183532714844,-5.3640642166137695,1.8594874143600464
1783152338728913700,5.25391357421875,-11.867048263549805,-5.055621147155762,2.2682299613952637
1783152338738618400,5.263618408203125,-9.678760528564453,-4.802051544189453,3.147183418273926
1783152338748322800,5.27332275390625,-8.123749732971191,-4.800666809082031,4.091732025146484
1783152338758058000,5.28305810546875,-6.458390235900879,-4.735185623168945,4.447661876678467
1783152338767762700,5.2927626953125,-4.623236656188965,-4.601673603057861,4.1651129722595215
1783152338777467100,5.302467041015625,-2.659193992614746,-4.6104841232299805,3.5087573528289795
1783152338787171800,5.312171875,-0.3885469436645508,-4.30231237411499,2.295318365097046
1783152338796907000,5.321906982421875,2.5175065994262695,-3.8630383014678955,1.1431411504745483
1783152338806642000,5.331641845703125,6.035809516906738,-3.3456757068634033,0.3173084259033203
1783152338816346600,5.3413466796875,10.227831840515137,-2.515183925628662,-0.5565556883811951
1783152338826051000,5.351051025390625,14.871829986572266,-1.5923621654510498,-1.0132960081100464
1783152338835786200,5.3607861328125,19.151172637939453,-0.7998496294021606,-0.22585414350032806
1783152338845491000,5.370490966796875,22.43177032470703,-0.0016777664422988892,1.2524816989898682
1783152338855195400,5.3801953125,24.674896240234375,0.8458795547485352,2.550856590270996
1783152338864900000,5.389900146484375,26.879688262939453,1.5662248134613037,2.583869218826294
1783152338874635300,5.39963525390625,29.674602508544922,1.7557415962219238,2.5048506259918213
1783152338884339700,5.409339599609375,29.612037658691406,1.4845507144927979,3.023653268814087
1783152338894044400,5.41904443359375,29.54434585571289,0.9730041027069092,3.7891857624053955
1783152338903748900,5.428748779296875,29.467708587646484,0.29090434312820435,4.450037956237793
1783152338913484000,5.438484130859375,29.38195037841797,-0.2803043723106384,4.539963245391846
1783152338923188700,5.448188720703125,29.292797088623047,-0.843618631362915,4.3520917892456055
1783152338932893200,5.45789306640625,24.259368896484375,-1.0948690176010132,3.361661434173584
1783152338942598000,5.467597900390625,17.298486709594727,-1.2029962539672852,1.7715808153152466
1783152338952332800,5.477332763671875,11.530200958251953,-1.462669014930725,0.5187415480613708
1783152338962037500,5.48703759765625,8.130002975463867,-1.834315299987793,-0.4365784525871277
1783152338971742200,5.4967421875,6.019896507263184,-2.412303924560547,-0.9305624961853027
1783152338981446700,5.50644677734375,3.9743728637695312,-2.959108352661133,-1.0566574335098267
1783152338991181800,5.516181884765625,0.9387407302856445,-3.39814829826355,-1.1813695430755615
1783152339000886300,5.52588623046875,-3.0973100662231445,-3.7451205253601074,-1.410417914390564
1783152339010591000,5.535591064453125,-7.379986763000488,-4.048158645629883,-1.2861179113388062
1783152339020295400,5.54529541015625,-11.300676345825195,-4.1062912940979,-1.2287945747375488
1783152339030030600,5.555030517578125,-14.282045364379883,-4.179337978363037,-1.0213136672973633
1783152339039735300,5.5647353515625,-16.03986930847168,-4.310494422912598,-0.7785452008247375
1783152339049439700,5.574439697265625,-16.99005889892578,-4.42275333404541,-0.5507049560546875
1783152339059144400,5.58414453125,-17.336326599121094,-4.565419673919678,-0.2545222043991089
1783152339068879600,5.593879638671875,-17.51516342163086,-4.641804218292236,0.014908552169799805
1783152339078584000,5.603583984375,-17.7326602935791,-4.66368293762207,-0.07390046119689941
1783152339088319200,5.6133193359375,-17.9975528717041,-4.587717056274414,-0.5180527567863464
1783152339098024000,5.62302392578125,-18.187835693359375,-4.622962951660156,-0.7535735964775085
1783152339107758800,5.6327587890625,-18.235475540161133,-4.713717460632324,-0.6158168911933899
1783152339117463600,5.642463623046875,-18.268712997436523,-4.887836933135986,0.10391747951507568
1783152339127168000,5.65216796875,-18.357608795166016,-5.003112316131592,0.8615261912345886
1783152339136872700,5.661872802734375,-17.95357894897461,-5.00303840637207,1.1206072568893433
1783152339146607900,5.67160791015625,-16.921154022216797,-4.944009304046631,0.9814043045043945
1783152339156312300,5.681312255859375,-15.531975746154785,-4.832685947418213,0.8116223812103271
1783152339166017000,5.69101708984375,-14.055913925170898,-4.848025321960449,1.1253998279571533
1783152339175721500,5.700721435546875,-12.62631607055664,-4.831759452819824,1.4405395984649658
1783152339185456600,5.71045654296875,-11.475399017333984,-4.6279191970825195,1.497628927230835
1783152339195161300,5.720161376953125,-10.74688720703125,-4.3803253173828125,1.6875543594360352
1783152339204865800,5.72986572265625,-10.499683380126953,-4.185001373291016,1.808527946472168
1783152339214570500,5.739570556640625,-9.799813270568848,-3.9692251682281494,1.6163767576217651
1783152339224305700,5.7493056640625,-8.545385360717773,-4.003228187561035,1.5635097026824951
1783152339234010000,5.759010009765625,-6.919434547424316,-4.169926643371582,1.3635200262069702
1783152339243714800,5.76871484375,-5.035050392150879,-4.275608062744141,1.2004950046539307
1783152339253419300,5.778419189453125,-3.4799985885620117,-4.682258605957031,1.2407827377319336
1783152339263154400,5.788154541015625,-1.6702299118041992,-5.214110851287842,0.8474164605140686
1783152339272859100,5.797859130859375,0.9673023223876953,-4.837126731872559,-0.2820921838283539
1783152339282563600,5.8075634765625,4.410665512084961,-3.8709728717803955,-1.2916483879089355
1783152339292268300,5.817268310546875,8.762144088745117,-1.957185983657837,-2.211867570877075
1783152339302003200,5.827003173828125,13.208564758300781,-0.18447838723659515,-0.9346569776535034
1783152339311708000,5.8367080078125,16.90939712524414,0.595430314540863,2.6061482429504395
1783152339321412600,5.84641259765625,20.886329650878906,1.3249256610870361,5.959197044372559
1783152339331117000,5.856116943359375,25.923969268798828,2.3857345581054688,8.128548622131348
1783152339340852200,5.865852294921875,29.808368682861328,2.0983214378356934,9.614587783813477
1783152339350556700,5.875556640625,29.763202667236328,1.3446614742279053,9.500964164733887
1783152339360261400,5.885261474609375,29.70781135559082,0.39488697052001953,8.262651443481445
1783152339369996500,5.89499658203125,29.635530471801758,-0.4289175271987915,5.825353145599365
1783152339379731700,5.904731689453125,29.546171188354492,-0.6709353923797607,3.593319892883301
1783152339389436200,5.914436279296875,29.44725799560547,-0.9939545392990112,2.6310300827026367
1783152339399140900,5.924140869140625,26.59946060180664,-0.9205735325813293,2.017460346221924
1783152339408875800,5.933875732421875,17.343677520751953,-0.7881346940994263,0.9779285192489624
1783152339418580500,5.94358056640625,10.255834579467773,-1.0196902751922607,0.1092907190322876
1783152339437989600,5.96298974609375,4.267814636230469,-2.1441075801849365,-1.0363540649414062
1783152339447724800,5.972724853515625,2.5272884368896484,-3.009129524230957,-0.631773054599762
1783152339457429200,5.98242919921875,-0.039946556091308594,-3.822772979736328,-0.1337967813014984
1783152339467134000,5.992134033203125,-3.6056880950927734,-4.472396373748779,0.25526246428489685
1783152339476838400,6.00183837890625,-7.724137306213379,-4.893390655517578,0.36648571491241455
1783152339486573600,6.011573486328125,-11.674969673156738,-5.148116588592529,0.5505865812301636
1783152339496278300,6.0212783203125,-14.707925796508789,-5.314549446105957,0.7772393226623535
1783152339505982700,6.030982666015625,-16.537317276000977,-5.304011821746826,0.44085779786109924
1783152339515687400,6.0406875,-17.238855361938477,-5.278366565704346,-0.210231214761734
1783152339525422600,6.050422607421875,-17.273563385009766,-5.451568603515625,-0.2882310450077057
1783152339544831700,6.069831787109375,-16.83026123046875,-6.2695159912109375,0.0748242735862732
1783152339554536200,6.0795361328125,-16.53432846069336,-6.550638198852539,0.28484046459198
1783152339564271400,6.089271240234375,-16.585567474365234,-6.831495761871338,0.7482807040214539
1783152339573976000,6.09897607421875,-16.990310668945312,-7.159725189208984,1.0493783950805664
1783152339583680500,6.108680419921875,-17.665122985839844,-7.0417351722717285,0.7192010879516602
1783152339593385200,6.11838525390625,-18.393360137939453,-6.827029228210449,0.5095056295394897
1783152339603120400,6.128120361328125,-18.912349700927734,-6.645781517028809,0.5947080254554749
1783152339612824800,6.137824951171875,-18.98134994506836,-6.307104587554932,0.7285342812538147
1783152339622529500,6.147529541015625,-18.699235916137695,-5.848755359649658,0.747362494468689
1783152339632234000,6.15723388671875,-17.918254852294922,-5.504708766937256,0.6556517481803894
1783152339641969200,6.16696923828125,-16.495229721069336,-5.266716003417969,0.5250694751739502
1783152339651704300,6.176704345703125,-14.758949279785156,-5.130073070526123,0.17507290840148926
1783152339661408800,6.18640869140625,-13.21277904510498,-4.770413398742676,-0.14020180702209473
1783152339671113500,6.196113525390625,-12.482162475585938,-4.707695960998535,0.31287044286727905
1783152339680848600,6.2058486328125,-12.103119850158691,-4.825338840484619,0.7802130579948425
1783152339690553000,6.215552978515625,-11.288228988647461,-5.064543724060059,1.0172672271728516
1783152339700257800,6.2252578125,-9.40874195098877,-5.352322578430176,1.147923469543457
1783152339709962200,6.234962158203125,-6.241636276245117,-5.31455659866333,0.6283121109008789
1783152339719697400,6.244697509765625,-2.126906394958496,-5.2061767578125,-0.2845642566680908
1783152339729402000,6.254402099609375,2.1685867309570312,-4.746610164642334,-1.7352502346038818
1783152339739106600,6.2641064453125,6.338886260986328,-3.5459580421447754,-3.7032785415649414
1783152339748811300,6.273811279296875,10.41967487335205,-2.4867115020751953,-4.642873764038086
1783152339758546200,6.283546142578125,14.521875381469727,-1.87689208984375,-4.584613800048828
1783152339768251000,6.2932509765625,18.992679595947266,-1.757089376449585,-3.556462526321411
1783152339777955600,6.30295556640625,24.30160903930664,-1.8348958492279053,-3.2221662998199463
1783152339787660000,6.312659912109375,29.94725227355957,-1.269356608390808,-3.970717191696167
1783152339797395200,6.322395263671875,29.877593994140625,-0.35418975353240967,-3.6112945079803467
1783152339807099600,6.332099609375,29.812511444091797,0.585099458694458,-1.768890380859375
1783152339816804400,6.341804443359375,29.744247436523438,1.6323119401931763,0.7903004288673401
1783152339826509000,6.351509033203125,29.668859481811523,2.765981435775757,3.357116222381592
1783152339836244000,6.361243896484375,29.588233947753906,3.6248109340667725,4.695077419281006
1783152339845948700,6.37094873046875,27.580495834350586,3.878196954727173,5.449541091918945
1783152339855653000,6.380653076171875,23.35858726501465,3.757676124572754,5.756586074829102
1783152339865357800,6.39035791015625,19.308979034423828,3.01869797706604,5.791131973266602
1783152339875093000,6.400093017578125,15.458321571350098,1.8879072666168213,5.5874223709106445
1783152339884797400,6.40979736328125,11.737150192260742,0.9375200867652893,4.6669602394104
1783152339894502100,6.419502197265625,8.000213623046875,0.1362919807434082,3.717374801635742
1783152339904206600,6.42920654296875,3.8064870834350586,-0.8001748323440552,3.2430834770202637
1783152339913941800,6.438941650390625,-0.1273326873779297,-1.5185493230819702,2.5443825721740723
1783152339923646500,6.448646484375,-3.679936408996582,-2.0416908264160156,1.885025978088379
1783152339933351000,6.458350830078125,-6.811898231506348,-2.5313987731933594,1.1280436515808105
1783152339943086000,6.468086181640625,-9.094905853271484,-2.995117425918579,0.2573343515396118
1783152339962525700,6.487525634765625,-10.924545288085938,-3.803835391998291,-0.8996241092681885
1783152339972230400,6.49723046875,-11.19751262664795,-4.081951141357422,-1.1886601448059082
1783152339981934800,6.506934814453125,-11.285553932189941,-4.300226211547852,-1.3734378814697266
1783152339991670000,6.516669921875,-11.82767391204834,-4.359736442565918,-1.5600202083587646
1783152340001374700,6.526374755859375,-12.770480155944824,-4.445566177368164,-1.6505377292633057
1783152340011079200,6.5360791015625,-13.387022972106934,-4.407341957092285,-1.618935227394104
1783152340020783900,6.545783935546875,-13.606132507324219,-4.5073018074035645,-1.4770429134368896
1783152340030519000,6.55551904296875,-13.555598258972168,-4.770855903625488,-1.3865766525268555
1783152340040223500,6.565223388671875,-13.143271446228027,-5.035646438598633,-1.34938645362854
1783152340049928200,6.57492822265625,-12.85849380493164,-5.188111305236816,-1.36631178855896
1783152340059663000,6.5846630859375,-12.66463565826416,-5.333462715148926,-1.1979354619979858
1783152340069367800,6.594367919921875,-12.612106323242188,-5.418395042419434,-0.8444928526878357
1783152340079072500,6.604072509765625,-12.495375633239746,-5.3853254318237305,-0.5740597248077393
1783152340088777000,6.61377685546875,-12.290764808654785,-5.305929183959961,-0.2786809206008911
1783152340098512100,6.62351220703125,-12.05354118347168,-5.127817153930664,0.022077500820159912
1783152340108216600,6.633216552734375,-11.900784492492676,-4.841554641723633,0.020544737577438354
1783152340117921300,6.64292138671875,-11.76129150390625,-4.48946475982666,0.04909828305244446
1783152340127626000,6.6526259765625,-11.82080078125,-4.318779945373535,0.4444471597671509
1783152340147065600,6.672065673828125,-11.469926834106445,-4.243456840515137,1.0061287879943848
1783152340166474800,6.691474853515625,-10.047540664672852,-4.418285369873047,0.37327975034713745
1783152340176210000,6.7012099609375,-9.1364164352417,-4.330311298370361,-0.10668976604938507
1783152340195619000,6.720619140625,-6.0482177734375,-3.892286777496338,-1.1651169061660767
1783152340205323500,6.730323486328125,-4.080548286437988,-3.5534563064575195,-1.5371617078781128
1783152340215058700,6.74005859375,-0.7713823318481445,-3.2810819149017334,-1.621098279953003
1783152340224793900,6.7497939453125,4.235796928405762,-2.6480321884155273,-1.819250226020813
1783152340234498600,6.75949853515625,10.024919509887695,-2.1246280670166016,-1.5232691764831543
1783152340244203000,6.769203125,16.393474578857422,-1.8891302347183228,-1.1341793537139893
1783152340253938200,6.778938232421875,23.210203170776367,-1.0157592296600342,-1.6709434986114502
1783152340263642600,6.788642578125,29.500181198120117,-0.04989105463027954,-2.036623477935791
1783152340273347300,6.798347412109375,29.912738800048828,0.7035062313079834,-1.6069077253341675
1783152340283051800,6.8080517578125,29.832130432128906,1.5128728151321411,-0.38157564401626587
1783152340292787000,6.817786865234375,29.756601333618164,2.49711275100708,1.7831178903579712
1783152340302491600,6.82749169921875,29.683975219726562,3.0990586280822754,4.043931007385254
1783152340312196000,6.837196044921875,29.61540412902832,3.5609915256500244,5.137763500213623
1783152340331636000,6.856635986328125,26.347003936767578,4.564281463623047,5.200170516967773
1783152340341340400,6.86634033203125,18.853668212890625,4.513621807098389,5.755834579467773
1783152340351045000,6.876045166015625,12.33047103881836,4.027828216552734,6.1700663566589355
1783152340360749600,6.88574951171875,7.536334037780762,3.2708828449249268,6.263040542602539
1783152340370484700,6.895484619140625,4.137605667114258,2.060673475265503,5.913414001464844
1783152340380189400,6.905189453125,1.7113523483276367,0.615760087966919,5.076626777648926
1783152340389894000,6.914893798828125,-0.10361385345458984,-0.9220428466796875,4.196578502655029
1783152340399598600,6.9245986328125,-1.9019556045532227,-2.3568382263183594,3.2837090492248535
1783152340409333800,6.934333740234375,-3.880453109741211,-3.7516369819641113,2.5650105476379395
1783152340419038200,6.9440380859375,-5.901481628417969,-4.843516826629639,1.7588996887207031
1783152340428743000,6.953742919921875,-7.976020812988281,-5.7837324142456055,1.3248943090438843
1783152340438447400,6.963447265625,-10.012066841125488,-6.574014663696289,1.153708577156067
1783152340448182500,6.9731826171875,-11.858077049255371,-7.094762325286865,0.9230273962020874
1783152340457887200,6.98288720703125,-13.487507820129395,-7.2445969581604,0.4875418543815613
1783152340467591700,6.992591796875,-14.86085033416748,-7.328024864196777,0.2667751908302307
1783152340477296400,7.00229638671875,-16.167545318603516,-7.403776168823242,0.2695852518081665
1783152340487031300,7.01203125,-17.343177795410156,-7.42075252532959,0.11215853691101074
1783152340496736000,7.021736083984375,-18.153949737548828,-7.411559104919434,-0.012495458126068115
1783152340506440400,7.0314404296875,-18.612977981567383,-7.535717010498047,0.35070133209228516
1783152340516175600,7.041175537109375,-18.678314208984375,-7.751359462738037,0.5371276140213013
1783152340525910800,7.050910888671875,-18.40968132019043,-7.827194690704346,0.5439532995223999
1783152340535615500,7.060615478515625,-18.171611785888672,-7.908082008361816,0.5859255790710449
1783152340545320000,7.07031982421875,-18.252307891845703,-8.157564163208008,0.43200695514678955
1783152340555024600,7.080024658203125,-18.065040588378906,-8.323698043823242,0.07149398326873779
1783152340564759600,7.089759521484375,-17.57708740234375,-8.375497817993164,-0.2567099332809448
1783152340574464300,7.09946435546875,-16.658695220947266,-8.332588195800781,-0.4139789342880249
1783152340584169000,7.1091689453125,-15.47659683227539,-8.255659103393555,-0.402549147605896
1783152340593873400,7.118873291015625,-13.977941513061523,-7.98634672164917,-0.3417654037475586
1783152340603608600,7.128608642578125,-12.54940414428711,-7.684441566467285,-0.16840124130249023
1783152340613313000,7.13831298828125,-11.313982963562012,-7.2367987632751465,-0.14539122581481934
1783152340623017700,7.148017822265625,-10.180535316467285,-6.9402055740356445,-0.05749952793121338
1783152340632722400,7.157722412109375,-8.80134105682373,-6.744030475616455,-0.14194846153259277
1783152340642457300,7.167457275390625,-6.790387153625488,-6.45576286315918,-0.2876513600349426
1783152340652162000,7.177162109375,-4.271028518676758,-6.163728713989258,-0.31397390365600586
1783152340661866500,7.186866455078125,-0.8794631958007812,-6.275491714477539,0.09968090057373047
1783152340671571200,7.1965712890625,3.754718780517578,-6.336151123046875,0.6503627300262451
1783152340681306400,7.206306396484375,9.551679611206055,-6.114072322845459,1.8366934061050415
1783152340691010800,7.2160107421875,15.76049518585205,-5.447379112243652,2.87062406539917
1783152340700715500,7.225715576171875,21.88890838623047,-4.104191303253174,2.3049099445343018
1783152340710450700,7.23545068359375,26.973812103271484,-2.3176329135894775,0.7977021932601929
1783152340720155100,7.245155029296875,30.064334869384766,-0.17187154293060303,-0.2005281150341034
1783152340729859800,7.25485986328125,29.985301971435547,2.2587907314300537,-0.0792744904756546
1783152340739564300,7.264564208984375,29.9102725982666,4.2438435554504395,0.9375144243240356
1783152340749299500,7.274299560546875,29.836017608642578,5.528679847717285,1.9299184083938599
1783152340759004200,7.284004150390625,29.76142692565918,6.345853805541992,2.7289419174194336
1783152340768708600,7.29370849609375,28.43053436279297,6.864799976348877,3.632814645767212
1783152340778413300,7.303413330078125,25.62114715576172,6.918632507324219,4.3110270500183105
1783152340788148200,7.313148193359375,22.68899917602539,6.593882083892822,4.171532154083252
1783152340797883400,7.32288330078125,19.478809356689453,5.8601975440979,3.4720795154571533
1783152340807588000,7.332588134765625,16.140480041503906,4.736824989318848,2.6332485675811768
1783152340827027700,7.35202783203125,9.796156883239746,1.8884307146072388,1.4853415489196777
1783152340836732400,7.361732421875,7.100205421447754,0.43513262271881104,1.1435270309448242
1783152340846436900,7.371436767578125,4.711834907531738,-0.7861571311950684,0.4373508095741272
1783152340856141600,7.3811416015625,2.336930274963379,-1.8047544956207275,-0.3354555070400238
1783152340865876500,7.39087646484375,-0.11980438232421875,-2.6138219833374023,-0.8631254434585571
1783152340875581200,7.400581298828125,-2.7519187927246094,-3.248896837234497,-1.1860843896865845
1783152340885286000,7.410285888671875,-5.402410507202148,-3.8952231407165527,-0.9842016696929932
1783152340894990300,7.419990234375,-7.904280662536621,-4.494192123413086,-0.4136615991592407
1783152340904725500,7.4297255859375,-9.940476417541504,-4.906911849975586,-0.22191250324249268
1783152340914430000,7.439429931640625,-11.356863975524902,-5.136810302734375,-0.26735252141952515
1783152340924134700,7.449134765625,-12.363577842712402,-5.311469554901123,-0.2322654128074646
1783152340933839400,7.45883935546875,-13.119683265686035,-5.533023834228516,-0.12240290641784668
1783152340943574300,7.46857421875,-13.835938453674316,-5.679821968078613,0.0324171781539917
1783152340953279000,7.478279052734375,-14.532419204711914,-5.730511665344238,0.25855159759521484
1783152340962983400,7.4879833984375,-14.978375434875488,-5.654033660888672,0.28679341077804565
1783152340972688100,7.497688232421875,-15.265349388122559,-5.489518165588379,0.19207340478897095
1783152340982423300,7.50742333984375,-15.591365814208984,-5.289341926574707,0.18000662326812744
1783152340992127700,7.517127685546875,-15.8902006149292,-5.129487037658691,0.31241410970687866
1783152341001832400,7.52683251953125,-16.066028594970703,-4.966017246246338,0.4868903160095215
1783152341011537000,7.536536865234375,-16.10857391357422,-4.721803665161133,0.5272841453552246
1783152341021272000,7.54627197265625,-15.891977310180664,-4.514557838439941,0.43533360958099365
1783152341030976800,7.555976806640625,-15.330564498901367,-4.272665500640869,0.31554681062698364
1783152341040681200,7.56568115234375,-14.669785499572754,-4.055283546447754,0.23176151514053345
1783152341050386000,7.575385986328125,-13.903364181518555,-3.9077165126800537,0.251786470413208
1783152341060121000,7.58512109375,-12.949007034301758,-3.8451476097106934,0.3591849207878113
1783152341069825500,7.594825439453125,-11.83104419708252,-3.7918014526367188,0.31663206219673157
1783152341079530200,7.6045302734375,-10.838677406311035,-3.8009989261627197,0.27717694640159607
1783152341089265200,7.61426513671875,-10.027030944824219,-3.9244048595428467,0.15430352091789246
1783152341099000300,7.624000244140625,-9.299139022827148,-4.101761817932129,-0.09706947207450867
1783152341108705000,7.633705078125,-8.646980285644531,-4.264428615570068,-0.4804375171661377
1783152341118409500,7.643409423828125,-7.617090225219727,-4.275968074798584,-0.8921422958374023
1783152341128114200,7.6531142578125,-6.1430511474609375,-4.219953536987305,-1.2172610759735107
1783152341137849300,7.662849365234375,-4.0554094314575195,-4.2736334800720215,-1.4474258422851562
1783152341147553800,7.6725537109375,-1.016739845275879,-4.569754600524902,-1.1414310932159424
1783152341157258500,7.682258544921875,3.2521257400512695,-5.1957221031188965,-0.04731190204620361
1783152341166963000,7.691962890625,8.39024543762207,-5.820204734802246,1.8481183052062988
1783152341176698000,7.701697998046875,13.918745994567871,-6.40397310256958,4.624030113220215
1783152341186402800,7.71140283203125,19.418865203857422,-7.20616340637207,7.4296064376831055
1783152341196107300,7.721107177734375,25.66680908203125,-7.156508922576904,8.517662048339844
1783152341205812000,7.73081201171875,30.28365707397461,-5.706982612609863,7.719851493835449
1783152341225251600,7.75025146484375,30.212600708007812,-1.658796787261963,6.0590057373046875
1783152341234956300,7.759956298828125,30.155780792236328,0.1533423662185669,7.994818687438965
1783152341244660700,7.76966064453125,30.079421997070312,1.7479987144470215,10.460552215576172
1783152341254396000,7.77939599609375,29.985652923583984,3.3157029151916504,11.385001182556152
1783152341264100600,7.7891005859375,26.1763858795166,4.582751274108887,10.438037872314453
1783152341273805000,7.79880517578125,20.85297393798828,5.258862018585205,8.853589057922363
1783152341283540200,7.808540283203125,16.10546875,5.050971984863281,7.317034721374512
1783152341293244700,7.81824462890625,12.157563209533691,4.314655303955078,6.063967227935791
1783152341302949400,7.827949462890625,9.0523042678833,3.266294479370117,4.866000175476074
1783152341312653800,7.83765380859375,6.6109724044799805,2.0539960861206055,3.6621828079223633
1783152341322389000,7.847388916015625,4.453059196472168,0.5771741271018982,2.8008675575256348
1783152341332093700,7.85709375,2.209026336669922,-0.7882812023162842,1.8328176736831665
1783152341341798100,7.866798095703125,-0.196258544921875,-1.900846004486084,0.9803911447525024
1783152341351502800,7.8765029296875,-2.8929624557495117,-2.973175048828125,0.44332456588745117
1783152341361238000,7.886238037109375,-5.823266983032227,-4.007522106170654,-0.06038558483123779
1783152341370973000,7.895972900390625,-8.54366683959961,-4.950104713439941,-0.5816078186035156
1783152341380677600,7.905677734375,-10.893584251403809,-5.767487525939941,-1.0243586301803589
1783152341390382300,7.91538232421875,-13.070460319519043,-6.5299787521362305,-1.492471694946289
1783152341400117200,7.9251171875,-14.777159690856934,-7.149884223937988,-2.023620367050171
1783152341409822000,7.934822021484375,-15.524484634399414,-7.3956403732299805,-2.615842342376709
1783152341419526400,7.9445263671875,-15.580219268798828,-7.49652624130249,-3.088658094406128
1783152341429231000,7.954231201171875,-15.207731246948242,-7.556145668029785,-3.223991870880127
1783152341438966300,7.96396630859375,-14.949491500854492,-7.466296195983887,-3.120745897293091
1783152341448670700,7.973670654296875,-14.856582641601562,-7.175461769104004,-2.9027414321899414
1783152341458375400,7.98337548828125,-15.123614311218262,-7.03022575378418,-2.3995089530944824
1783152341468079900,7.993079833984375,-15.393026351928711,-7.115530014038086,-1.8316901922225952
1783152341477815000,8.00281494140625,-15.308404922485352,-7.12521505355835,-1.529571294784546
1783152341487519700,8.012519775390626,-15.025765419006348,-7.030984878540039,-1.2616758346557617
1783152341497224200,8.02222412109375,-14.7979736328125,-6.841489315032959,-0.9439236521720886
1783152341506929000,8.031928955078126,-14.376301765441895,-6.40902042388916,-0.7714105844497681
1783152341516664000,8.0416640625,-13.868189811706543,-5.822704315185547,-0.5194892287254333
1783152341526368500,8.051368408203125,-13.680928230285645,-5.160627365112305,-0.019228488206863403
1783152341536073200,8.0610732421875,-13.412886619567871,-4.769215106964111,0.8751407861709595
1783152341555512800,8.080512939453126,-11.249741554260254,-3.968215227127075,0.12539510428905487
1783152341565217500,8.090217529296876,-10.01134967803955,-3.6765174865722656,1.214199185371399
1783152341574922000,8.099921875,-9.89104175567627,-2.9847817420959473,2.894374132156372
1783152341584626700,8.109626708984376,-9.26643180847168,-2.909412384033203,3.575948715209961
1783152341594361600,8.119361572265625,-8.38550853729248,-2.4561610221862793,2.4617130756378174
1783152341604066300,8.12906640625,-6.5485382080078125,-2.515697479248047,0.7178875207901001
1783152341613771000,8.13877099609375,-3.4651002883911133,-2.2398576736450195,-0.7532713413238525
1783152341623475500,8.148475341796875,1.306513786315918,-2.011624574661255,-0.6997629404067993
1783152341633210600,8.158210693359376,7.26063346862793,-3.1384544372558594,0.5465349555015564
1783152341642915000,8.1679150390625,14.990006446838379,-4.279386043548584,1.549375057220459
1783152341652619800,8.177619873046876,24.724578857421875,-4.168820381164551,0.9311078190803528
1783152341662355000,8.18735498046875,30.114242553710938,-4.519454002380371,2.2455365657806396
1783152341672090000,8.197090087890626,30.064115524291992,-5.152973175048828,1.7242878675460815
1783152341681794600,8.206794677734376,30.012737274169922,-4.704997539520264,2.0858983993530273
1783152341691499300,8.216499267578126,29.95425033569336,-2.862595319747925,2.206449508666992
1783152341701203700,8.22620361328125,29.8831729888916,-0.8395980596542358,2.2386531829833984
1783152341710939000,8.23593896484375,29.799758911132812,1.1169612407684326,1.7419140338897705
1783152341720643300,8.245643310546875,26.229108810424805,2.729315996170044,0.8455705642700195
1783152341730348000,8.25534814453125,20.167762756347656,3.8578040599823,-0.16413545608520508
1783152341740052700,8.265052734375,14.388789176940918,4.165852069854736,-1.0487688779830933
1783152341749787600,8.27478759765625,9.35606575012207,3.9431471824645996,-1.2007126808166504
1783152341759492400,8.284492431640626,5.647968292236328,3.38899564743042,-1.2480252981185913
1783152341769196800,8.29419677734375,3.1273040771484375,2.614673137664795,-1.47352933883667
1783152341778901500,8.303901611328126,1.114729881286621,1.6369105577468872,-1.4269262552261353
1783152341788636700,8.31363671875,-0.5362644195556641,0.4883679151535034,-1.355851411819458
1783152341798341000,8.323341064453125,-1.6702690124511719,-0.5986359119415283,-1.7180204391479492
1783152341808045800,8.3330458984375,-2.4720888137817383,-1.6686971187591553,-1.9600565433502197
1783152341817750300,8.342750244140625,-3.6098594665527344,-2.5645806789398193,-1.7117341756820679
1783152341827485400,8.3524853515625,-5.0362701416015625,-3.377703905105591,-0.9722930192947388
1783152341846894600,8.37189453125,-8.380855560302734,-4.112278938293457,-0.18764221668243408
1783152341856599300,8.381599365234376,-9.864511489868164,-4.36964225769043,-0.34543973207473755
1783152341866334500,8.39133447265625,-11.06718921661377,-4.565757751464844,-0.6954292058944702
1783152341876039000,8.401038818359375,-11.853535652160645,-4.624096393585205,-0.9944226741790771
1783152341885743600,8.41074365234375,-12.329975128173828,-4.595839500427246,-1.0955694913864136
1783152341895448000,8.420447998046875,-12.601776123046875,-4.65561580657959,-0.908079981803894
1783152341905183200,8.430183349609376,-12.740355491638184,-4.687284469604492,-0.555378258228302
1783152341914888000,8.439887939453126,-12.814827919006348,-4.636673927307129,-0.16110369563102722
1783152341924592400,8.44959228515625,-12.860706329345703,-4.549402236938477,0.22042453289031982
1783152341934297000,8.459297119140626,-12.942851066589355,-4.286859512329102,0.3792099952697754
1783152341944032000,8.469031982421875,-12.852176666259766,-4.061985969543457,0.5931202173233032
1783152341953767200,8.47876708984375,-12.67365550994873,-3.8222906589508057,0.7368175387382507
1783152341963472000,8.488471923828126,-12.202445030212402,-3.681680679321289,1.0835309028625488
1783152341973207000,8.49820703125,-11.472410202026367,-3.5777323246002197,1.4857566356658936
1783152341982911500,8.507911376953125,-10.544915199279785,-3.5053791999816895,1.7800804376602173
1783152341992616200,8.5176162109375,-9.480873107910156,-3.2477543354034424,1.967207431793213
1783152342002320600,8.527320556640625,-8.629018783569336,-2.8871283531188965,1.94425630569458
1783152342012055800,8.537055908203126,-7.939611434936523,-2.5077216625213623,1.8413666486740112
1783152342021760500,8.546760498046876,-7.418704032897949,-1.8714027404785156,1.400827169418335
1783152342031465000,8.55646484375,-7.155852317810059,-1.3819580078125,0.967540979385376
1783152342041169700,8.566169677734376,-6.9306535720825195,-1.1759886741638184,0.7864846587181091
1783152342050904600,8.575904541015625,-6.571015357971191,-1.060145378112793,0.8032717704772949
1783152342060609300,8.585609375,-5.874067306518555,-1.5418034791946411,1.0764319896697998
1783152342070314000,8.59531396484375,-4.485807418823242,-2.062713623046875,1.0095343589782715
1783152342080018400,8.605018310546875,-2.2981224060058594,-2.500133514404297,0.8217465281486511
1783152342089753600,8.614753662109376,1.0107402801513672,-3.0496022701263428,0.3561059236526489
1783152342099458000,8.6244580078125,5.8907270431518555,-2.842188835144043,-0.905498743057251
1783152342109162800,8.634162841796876,10.846006393432617,-2.1186418533325195,-1.959244966506958
1783152342128602400,8.653602294921875,18.37594223022461,-2.3952386379241943,0.3811455965042114
1783152342138307000,8.66330712890625,21.681550979614258,-2.6171693801879883,4.024594306945801
1783152342148011500,8.673011474609375,25.050962448120117,-1.96155846118927,6.680707931518555
1783152342157716200,8.68271630859375,27.814794540405273,-1.1485130786895752,7.103061199188232
1783152342167451400,8.692451416015626,29.90008544921875,0.17926675081253052,6.017562389373779
1783152342177155800,8.70215576171875,30.009193420410156,1.5847710371017456,4.7701287269592285
1783152342186860500,8.711860595703126,27.95960235595703,2.4702954292297363,4.573154449462891
1783152342196565000,8.72156494140625,24.438167572021484,3.0681166648864746,5.0436248779296875
1783152342206269700,8.731269775390626,20.1409912109375,3.5273804664611816,5.283171653747559
1783152342216004900,8.7410048828125,15.533025741577148,3.8830974102020264,4.886035919189453
1783152342225709300,8.750709228515625,11.099555015563965,3.9062373638153076,4.09952449798584
1783152342235444500,8.760444580078126,7.462308883666992,3.462825298309326,3.493022918701172
1783152342245179600,8.7701796875,5.122196197509766,2.578901767730713,3.1030397415161133
1783152342254884000,8.779884033203125,3.670217514038086,1.601952314376831,2.925032615661621
1783152342264588800,8.7895888671875,2.557035446166992,0.47936928272247314,2.841801166534424
1783152342274293200,8.799293212890625,1.3549671173095703,-0.6502583026885986,2.8946433067321777
1783152342284028400,8.8090283203125,-0.0773630142211914,-1.6160569190979004,2.9853971004486084
1783152342293733000,8.818733154296876,-1.7145414352416992,-2.392021894454956,2.988032579421997
1783152342303437600,8.8284375,-3.8000288009643555,-3.0587527751922607,2.853533983230591
1783152342313142300,8.838142333984376,-6.226859092712402,-3.5934112071990967,2.547726631164551
1783152342322877400,8.84787744140625,-8.755254745483398,-4.040429592132568,2.0077614784240723
1783152342332582000,8.857581787109375,-10.965408325195312,-4.4073944091796875,1.317475438117981
1783152342342286600,8.86728662109375,-12.450069427490234,-4.653569221496582,0.5935683250427246
1783152342351991000,8.876990966796875,-13.483970642089844,-5.077136039733887,-0.1512467861175537
1783152342361726200,8.886726318359376,-13.665454864501953,-5.225868225097656,-0.9113835692405701
1783152342371431000,8.896430908203126,-13.48774242401123,-5.397992134094238,-1.4352631568908691
1783152342381135400,8.90613525390625,-13.177772521972656,-5.462465286254883,-1.7608349323272705
1783152342390840000,8.915840087890626,-12.890575408935547,-5.52375602722168,-1.9913125038146973
1783152342400575000,8.925574951171875,-12.547181129455566,-5.542360782623291,-2.1647119522094727
1783152342410279700,8.93527978515625,-12.276580810546875,-5.618945121765137,-2.1722378730773926
1783152342419984400,8.944984375,-11.970255851745605,-5.698104381561279,-2.123368263244629
1783152342429688800,8.954688720703125,-11.704569816589355,-5.825562953948975,-1.811428189277649
1783152342439424000,8.964424072265626,-11.522578239440918,-5.882028579711914,-1.4158389568328857
1783152342449128400,8.97412841796875,-11.254965782165527,-5.934290885925293,-0.8091250658035278
1783152342458833200,8.983833251953126,-10.843303680419922,-5.7581281661987305,-0.3908061683177948
1783152342468537900,8.993537841796876,-10.304275512695312,-5.414185523986816,-0.12832465767860413
1783152342478272800,9.003272705078125,-9.823186874389648,-4.8899664878845215,-0.1944650262594223
1783152342487977500,9.0129775390625,-9.391518592834473,-4.340018272399902,-0.2279428392648697
1783152342497682000,9.022681884765625,-9.152067184448242,-3.8353800773620605,-0.07649923861026764
1783152342507386600,9.03238671875,-8.663145065307617,-3.459892749786377,-0.0046672523021698
1783152342517121800,9.042121826171876,-7.8542890548706055,-3.2293128967285156,-0.06896263360977173
1783152342526856700,9.051856689453125,-6.835319519042969,-3.0215024948120117,-0.18040409684181213
1783152342536561400,9.0615615234375,-5.793506622314453,-2.855809211730957,-0.26455754041671753
1783152342546266000,9.07126611328125,-4.644814491271973,-2.707275867462158,-0.39106306433677673
1783152342556001000,9.0810009765625,-3.1793880462646484,-2.474501371383667,-0.604362428188324
1783152342565705700,9.090705810546876,-1.0694446563720703,-1.877392053604126,-1.1594358682632446
1783152342575410200,9.10041015625,1.2417640686035156,-0.396659255027771,-2.5657827854156494
1783152342585115000,9.110114990234376,4.003878593444824,0.10249650478363037,-3.1738150119781494
1783152342594850000,9.11985009765625,7.7638349533081055,-0.748407244682312,-2.529958486557007
1783152342604554500,9.129554443359375,12.219078063964844,-1.4243559837341309,-1.6949448585510254
1783152342614259200,9.13925927734375,16.33747100830078,-1.351505994796753,-0.710394024848938
1783152342623963600,9.148963623046875,19.416996002197266,-0.8280472159385681,-0.2796742022037506
1783152342633698800,9.15869873046875,21.63730239868164,0.3347901403903961,-0.733004093170166
1783152342643403500,9.168403564453126,23.060237884521484,2.002451181411743,-0.9625378251075745
1783152342653108000,9.17810791015625,22.781082153320312,3.3119897842407227,-0.4866715371608734
1783152342662812700,9.187812744140626,21.778573989868164,4.358644008636475,0.17676471173763275
1783152342672547800,9.1975478515625,20.567047119140625,5.126152038574219,0.12665139138698578
1783152342682252300,9.207252197265625,19.357425689697266,5.652144432067871,-0.7202914357185364
1783152342691957000,9.21695703125,18.413108825683594,5.857854843139648,-1.5829185247421265
1783152342701692200,9.226692138671876,17.376501083374023,5.69934606552124,-1.7847990989685059
1783152342721101300,9.246101318359376,14.159704208374023,4.40805721282959,-0.7215385437011719
1783152342730805800,9.2558056640625,12.568612098693848,3.4524450302124023,-0.33558347821235657
1783152342740541000,9.265541015625,11.050668716430664,2.42448091506958,-0.39059415459632874
1783152342750245400,9.275245361328125,9.577983856201172,1.4045871496200562,-0.6439892649650574
1783152342759950000,9.2849501953125,7.657846450805664,0.46592557430267334,-0.7672464847564697
1783152342769654800,9.29465478515625,5.516822814941406,-0.4301236867904663,-0.7268437743186951
1783152342779389700,9.3043896484375,3.2566356658935547,-1.163611650466919,-0.570222020149231
1783152342789094400,9.314094482421876,0.7822961807250977,-1.7741036415100098,-0.4648146629333496
1783152342798829600,9.32382958984375,-1.8677234649658203,-2.238124132156372,-0.22013771533966064
1783152342808534000,9.333533935546875,-4.454929351806641,-2.6468186378479004,0.07290081679821014
1783152342818269200,9.343269287109376,-6.890155792236328,-3.279646873474121,0.3476383686065674
1783152342827974000,9.352973876953126,-8.590415954589844,-3.6676011085510254,0.5775177478790283
1783152342837678300,9.36267822265625,-9.6646146774292,-4.135404586791992,0.6493834853172302
1783152342847383000,9.372383056640626,-10.236042976379395,-4.51088809967041,0.39901840686798096
1783152342857118000,9.382117919921875,-10.671494483947754,-4.716125011444092,0.03550302982330322
1783152342866822700,9.39182275390625,-11.140012741088867,-4.779350757598877,-0.34426185488700867
1783152342876527400,9.40152734375,-11.656551361083984,-4.842160701751709,-0.5260512232780457
1783152342886231800,9.411231689453125,-12.084187507629395,-5.057616233825684,-0.3436535596847534
1783152342895967000,9.420967041015626,-12.146027565002441,-5.243017196655273,-0.07026144862174988
1783152342905671400,9.43067138671875,-12.221516609191895,-5.389316082000732,0.10125625133514404
1783152342915376000,9.440376220703126,-12.156652450561523,-5.559176445007324,0.42825329303741455
1783152342925080800,9.450080810546876,-12.144775390625,-5.636470794677734,0.7921504378318787
1783152342934815700,9.459815673828125,-12.211806297302246,-5.552504539489746,0.8731144070625305
1783152342944520400,9.4695205078125,-12.216707229614258,-5.312360763549805,0.8370603919029236
1783152342954225000,9.479224853515625,-12.222208976745605,-5.108161926269531,0.8058832883834839
1783152342963929600,9.4889296875,-12.180831909179688,-4.929190635681152,0.7539078593254089
1783152342973664800,9.498664794921876,-11.980428695678711,-4.710415840148926,0.7409260869026184
1783152342983369200,9.508369140625,-11.821389198303223,-4.511778354644775,0.7892876267433167
1783152342993074000,9.518073974609376,-11.531319618225098,-4.275918006896973,0.6605090498924255
1783152343002778400,9.5277783203125,-11.470478057861328,-4.03840446472168,0.37091830372810364
1783152343012513500,9.537513427734375,-11.40519905090332,-3.9240164756774902,0.39096856117248535
1783152343022218200,9.54721826171875,-10.89510726928711,-3.8187243938446045,0.47473418712615967
1783152343031922700,9.556922607421875,-10.246368408203125,-3.757157802581787,0.510201096534729
1783152343041627400,9.56662744140625,-9.395894050598145,-3.9374947547912598,0.27484461665153503
1783152343051362600,9.576362548828126,-8.105070114135742,-4.13358211517334,-0.3453664779663086
1783152343070771700,9.595771728515626,-1.5787162780761719,-4.7430524826049805,-0.5850092768669128
1783152343080476200,9.60547607421875,4.044032096862793,-4.830968379974365,-0.6158868670463562
1783152343090211300,9.61521142578125,10.232837677001953,-4.388423442840576,-0.22566476464271545
1783152343099946500,9.624946533203126,16.043766021728516,-4.145126819610596,0.8665642738342285
1783152343109651000,9.63465087890625,20.67342758178711,-3.8063266277313232,1.9867804050445557
1783152343119355600,9.644355712890626,24.23320198059082,-3.466701030731201,2.043219804763794
1783152343129090800,9.6540908203125,27.43674087524414,-2.67767071723938,0.7752992510795593
1783152343138795300,9.663795166015625,29.573131561279297,-1.6279410123825073,-1.4248334169387817
1783152343148500000,9.6735,29.80150604248047,-0.7589987516403198,-3.384873151779175
1783152343158204400,9.683204345703125,29.72879409790039,0.051232099533081055,-4.10184907913208
1783152343167939600,9.692939697265626,28.462799072265625,0.8966989517211914,-3.3373751640319824
1783152343177644300,9.702644287109376,26.64435577392578,1.4486943483352661,-1.8985354900360107
1783152343187348700,9.7123486328125,24.676496505737305,1.8526724576950073,-0.9152045249938965
1783152343197053400,9.722053466796876,22.804893493652344,2.1937413215637207,-0.31512150168418884
1783152343206788400,9.731788330078125,20.565690994262695,2.344118118286133,0.49205076694488525
1783152343216493000,9.7414931640625,17.65890884399414,2.2298905849456787,1.482964277267456
1783152343226197800,9.75119775390625,13.96951675415039,1.9453918933868408,2.433527708053589
1783152343235902200,9.760902099609375,9.821500778198242,1.6822686195373535,2.9767508506774902
1783152343245637400,9.770637451171876,5.66328239440918,1.4240790605545044,3.001770496368408
1783152343255341800,9.780341796875,1.8234987258911133,0.999208927154541,2.9367551803588867
1783152343265046500,9.790046630859376,-1.3615875244140625,0.5253952741622925,2.8672738075256348
1783152343274751200,9.799751220703126,-3.912494659423828,-0.042172908782958984,2.7139859199523926
1783152343284486100,9.809486083984375,-5.930225372314453,-0.7268781661987305,2.574268341064453
1783152343294190800,9.81919091796875,-7.708979606628418,-1.5508122444152832,2.5490946769714355
1783152343303895300,9.828895263671875,-9.283998489379883,-2.2965941429138184,2.457340717315674
1783152343313600000,9.83860009765625,-10.691288948059082,-2.9090704917907715,2.1814258098602295
1783152343323335200,9.848335205078126,-11.630536079406738,-3.416492223739624,1.8878819942474365
1783152343333039600,9.85803955078125,-12.20289421081543,-3.731041431427002,1.493199348449707
1783152343342744300,9.867744384765626,-12.502824783325195,-4.013045310974121,0.979992687702179
1783152343362184000,9.887183837890625,-12.262968063354492,-4.508788585662842,-0.03470781445503235
1783152343381623600,9.90662353515625,-12.260708808898926,-5.066083908081055,-0.06174483895301819
1783152343391358700,9.916358642578125,-12.442767143249512,-5.232586860656738,0.09527865052223206
1783152343401063400,9.9260634765625,-12.809215545654297,-5.319830417633057,0.2993497848510742
1783152343410768000,9.935767822265625,-13.368429183959961,-5.307011604309082,0.6038171052932739
1783152343420472600,9.94547265625,-13.893948554992676,-5.3035478591918945,0.8178445100784302
1783152343430207700,9.955207763671876,-14.136482238769531,-5.231838226318359,0.808930516242981
1783152343439912200,9.964912109375,-13.94948673248291,-5.290616035461426,0.5229066610336304
1783152343449617000,9.974616943359376,-13.19775104522705,-5.322114944458008,0.2526201903820038
1783152343459321300,9.9843212890625,-11.937114715576172,-5.436638832092285,0.37858322262763977
1783152343469056500,9.994056396484375,-10.3803071975708,-5.510951042175293,0.5896432399749756
1783152343478761200,10.00376123046875,-8.981161117553711,-5.418961524963379,0.5310686826705933
1783152343488465700,10.013465576171875,-7.804319381713867,-5.176748275756836,0.525036633014679
1783152343498170400,10.02317041015625,-7.086174011230469,-4.821835517883301,0.36398446559906006
1783152343507905500,10.032905517578126,-6.455630302429199,-4.267513275146484,-0.22977909445762634
1783152343517610000,10.04260986328125,-5.674161911010742,-3.8731822967529297,-0.621543288230896
1783152343527314700,10.052314697265626,-4.755480766296387,-3.636061191558838,-0.8048273324966431
1783152343537019100,10.06201904296875,-3.3940982818603516,-3.3821890354156494,-0.971794605255127
1783152343546754300,10.07175439453125,-1.5605497360229492,-3.1144511699676514,-1.0211811065673828
1783152343556459000,10.081458984375,0.5294532775878906,-2.5724904537200928,-1.3194122314453125
1783152343566163500,10.09116357421875,2.4746856689453125,-1.6334058046340942,-2.036433696746826
1783152343575868200,10.1008681640625,3.992877960205078,-0.10918164253234863,-3.1379997730255127
1783152343585572600,10.110572509765625,5.307920455932617,1.1830509901046753,-3.823132276535034
1783152343605012200,10.13001220703125,11.566242218017578,-0.13405215740203857,-2.130618095397949
1783152343614717000,10.139717041015626,16.016525268554688,-0.3905935287475586,-1.6001276969909668
1783152343624452000,10.1494521484375,19.33100128173828,-0.009341061115264893,-1.7099409103393555
1783152343634156500,10.159156494140625,20.449356079101562,0.47029322385787964,-2.2278501987457275
1783152343653565700,10.178565673828125,19.84665298461914,2.6633756160736084,-3.5925629138946533
1783152343663300900,10.18830078125,18.49482536315918,3.5001611709594727,-3.359445333480835
1783152343673036000,10.1980361328125,17.468578338623047,4.220390319824219,-2.520311117172241
1783152343682740700,10.20774072265625,16.764636993408203,4.7582197189331055,-1.8821806907653809
1783152343692445200,10.217445068359375,15.633696556091309,5.071645259857178,-1.570928931236267
1783152343702180400,10.227180419921876,13.965518951416016,5.176191329956055,-1.4874176979064941
1783152343711884800,10.236884765625,11.95212459564209,5.255478858947754,-1.332491397857666
1783152343721589500,10.246589599609376,9.975137710571289,5.143668174743652,-1.049651026725769
1783152343731294200,10.256294189453126,8.304608345031738,4.795548915863037,-0.6482327580451965
1783152343741029000,10.266029052734375,7.303208351135254,4.164036750793457,-0.2433960735797882
1783152343750733800,10.27573388671875,6.9402570724487305,3.347060203552246,-0.03776608407497406
1783152343760438300,10.285438232421875,6.710124969482422,2.3914105892181396,-0.014244258403778076
1783152343770143000,10.29514306640625,6.150093078613281,1.4240596294403076,0.007180750370025635
1783152343779878100,10.304878173828126,4.912687301635742,0.5699222087860107,0.32085633277893066
1783152343789582600,10.31458251953125,2.915146827697754,-0.09196877479553223,0.7673853039741516
1783152343799287300,10.324287353515626,0.2840414047241211,-0.6843185424804688,1.0800825357437134
1783152343808991700,10.33399169921875,-2.515425682067871,-1.2679634094238281,1.3255759477615356
1783152343818727000,10.343726806640625,-5.0664777755737305,-1.8041586875915527,1.4379299879074097
1783152343828431600,10.353431640625,-7.159872055053711,-2.3829753398895264,1.4222701787948608
1783152343838136000,10.363135986328125,-8.757906913757324,-3.0233631134033203,1.465374231338501
1783152343847840800,10.3728408203125,-9.731462478637695,-3.657081127166748,1.5211119651794434
1783152343857576000,10.382575927734376,-10.212343215942383,-4.240456581115723,1.4714012145996094
1783152343867280400,10.3922802734375,-10.110468864440918,-4.784326076507568,1.481372356414795
1783152343876985000,10.401985107421876,-9.82811450958252,-5.126859188079834,1.4645817279815674
1783152343886689500,10.411689453125,-9.328954696655273,-5.375720500946045,1.4514259099960327
1783152343896424700,10.4214248046875,-8.979992866516113,-5.5124969482421875,1.3462673425674438
1783152343906129400,10.43112939453125,-8.90927505493164,-5.560676574707031,1.3348305225372314
1783152343915833900,10.440833740234375,-9.255952835083008,-5.491593837738037,1.473736047744751
1783152343925538600,10.45053857421875,-9.998344421386719,-5.23560905456543,1.6076445579528809
1783152343935273500,10.4602734375,-10.929644584655762,-4.9796247482299805,1.777550458908081
1783152343945008600,10.470008544921875,-11.803825378417969,-4.785383224487305,2.0319247245788574
1783152343954713300,10.47971337890625,-12.480461120605469,-4.5730180740356445,2.233854055404663
1783152343964417800,10.489417724609375,-12.73261547088623,-4.308028697967529,2.3174009323120117
1783152343974153000,10.499153076171876,-12.75780963897705,-4.080523490905762,2.280513048171997
1783152343983857700,10.508857666015626,-12.304532051086426,-3.992427110671997,2.145587921142578
1783152343993562000,10.51856201171875,-11.421344757080078,-3.926544427871704,1.76788330078125
1783152344003297300,10.52829736328125,-10.338774681091309,-3.9020509719848633,1.37223219871521
1783152344013001700,10.538001708984375,-9.21533489227295,-3.8002002239227295,1.140366792678833
1783152344022706400,10.54770654296875,-8.047069549560547,-3.6778790950775146,1.0508939027786255
1783152344032411100,10.5574111328125,-6.824772834777832,-3.5520644187927246,0.9887292385101318
1783152344042146000,10.56714599609375,-5.561943054199219,-3.217095375061035,0.8714516758918762
1783152344051850800,10.576850830078126,-4.278627395629883,-2.440103769302368,0.41385605931282043
1783152344061555200,10.58655517578125,-2.8586816787719727,-0.8234663009643555,-0.8510332703590393
1783152344071260000,10.596260009765626,-2.169675827026367,0.768507719039917,-2.262545108795166
1783152344080995000,10.6059951171875,-2.3637332916259766,0.6898250579833984,-1.7755528688430786
1783152344090699500,10.615699462890625,-2.8850231170654297,-0.03856158256530762,0.04438193142414093
1783152344100404200,10.625404296875,-1.7331533432006836,-0.5996313095092773,1.8999228477478027
1783152344110108700,10.635108642578125,1.3118762969970703,-1.317980170249939,2.9881787300109863
1783152344119843800,10.64484375,6.029004096984863,-2.27339506149292,2.249586582183838
1783152344129548500,10.654548583984376,12.399825096130371,-1.839585542678833,-0.08566844463348389
1783152344139253000,10.6642529296875,17.621139526367188,-0.5938370823860168,-1.6040465831756592
1783152344148957700,10.673957763671876,20.440597534179688,0.8529679775238037,-1.494727373123169
1783152344158692900,10.68369287109375,21.402904510498047,2.3595428466796875,-0.2672988772392273
1783152344168397300,10.693397216796875,20.137187957763672,3.6146717071533203,0.8801313042640686
1783152344178102000,10.70310205078125,17.43453598022461,4.341428279876709,1.4665883779525757
1783152344187806500,10.712806396484375,15.377569198608398,4.791586875915527,1.6224149465560913
1783152344197541600,10.722541748046876,14.25162124633789,4.8673858642578125,2.065509796142578
1783152344207246300,10.732246337890626,14.386286735534668,4.265169143676758,2.8881962299346924
1783152344216950800,10.74195068359375,16.211732864379883,3.3928472995758057,3.3880972862243652
1783152344226655500,10.751655517578126,18.594486236572266,2.4542596340179443,3.3559627532958984
1783152344236390400,10.761390380859375,20.158355712890625,1.4541904926300049,3.157127857208252
1783152344246125600,10.77112548828125,20.85558319091797,0.5948214530944824,2.7224879264831543
1783152344255830300,10.780830322265626,20.173677444458008,-0.02975127100944519,2.0430591106414795
1783152344265534700,10.79053466796875,17.936382293701172,-0.5018293857574463,1.556321144104004
1783152344275270000,10.800269775390625,14.81698989868164,-0.9058623313903809,1.4283825159072876
1783152344284974600,10.809974609375,11.214969635009766,-1.1761438846588135,1.5495835542678833
1783152344294679000,10.819678955078125,7.375535011291504,-1.2238032817840576,1.6406773328781128
1783152344304383700,10.8293837890625,3.690317153930664,-1.2462413311004639,1.6524536609649658
1783152344314119000,10.839118896484376,0.6402187347412109,-1.2038087844848633,1.729170560836792
1783152344323823400,10.8488232421875,-1.8558588027954102,-1.279964804649353,1.9775123596191406
1783152344333528000,10.858528076171876,-4.083420753479004,-1.4196624755859375,2.196331024169922
1783152344343232500,10.868232421875,-6.100643157958984,-1.5905051231384277,2.326857566833496
1783152344352967700,10.8779677734375,-7.924934387207031,-1.647887945175171,2.2226428985595703
1783152344362672400,10.88767236328125,-9.834747314453125,-1.822601079940796,1.9810941219329834
1783152344372376800,10.897376953125,-11.507277488708496,-1.9778892993927002,1.6276295185089111
1783152344382081500,10.90708154296875,-12.84329605102539,-2.1386899948120117,1.2003612518310547
1783152344391816400,10.91681640625,-13.765300750732422,-2.472386121749878,0.9152236580848694
1783152344401521200,10.926521240234376,-14.303272247314453,-2.802593946456909,0.6553258895874023
1783152344411225600,10.9362255859375,-14.478530883789062,-3.0982725620269775,0.3199183940887451
1783152344420930300,10.945930419921876,-14.148734092712402,-3.457563638687134,-0.15268510580062866
1783152344430665500,10.95566552734375,-13.532552719116211,-3.741891860961914,-0.7636362314224243
1783152344440370000,10.965369873046875,-13.081233978271484,-3.9454798698425293,-1.3289363384246826
1783152344450074600,10.97507470703125,-12.800189018249512,-4.1244354248046875,-1.6471613645553589
1783152344459779000,10.984779052734375,-12.434240341186523,-4.19356632232666,-1.7583117485046387
1783152344469514200,10.99451416015625,-12.075257301330566,-4.229315757751465,-1.7576578855514526
1783152344479219000,11.004218994140626,-11.850936889648438,-4.311854362487793,-1.680635690689087
1783152344488923400,11.01392333984375,-11.266048431396484,-4.305081367492676,-1.4616994857788086
1783152344498628000,11.023628173828126,-10.38616943359375,-4.432154178619385,-0.8902623057365417
1783152344508363300,11.03336328125,-9.550948143005371,-4.359066963195801,-0.03478395938873291
1783152344518098200,11.04309814453125,-8.177639961242676,-1.9769763946533203,-1.9746227264404297
1783152344527803000,11.052802978515626,-5.931084632873535,-1.9922065734863281,-2.027796745300293
1783152344537507600,11.062507568359376,-5.933474540710449,-2.993276596069336,-0.9624067544937134
1783152344547242500,11.072242431640625,-5.733240127563477,-1.128326416015625,-1.291645884513855
1783152344556947200,11.081947265625,-3.404791831970215,-1.2876677513122559,-0.048321157693862915
1783152344566651600,11.091651611328125,-1.1896820068359375,0.6581151485443115,-2.049872398376465
1783152344576356400,11.1013564453125,0.7686910629272461,1.7963800430297852,-2.6835455894470215
1783152344586091500,11.111091552734376,5.621783256530762,-1.0770236253738403,-0.06395310163497925
1783152344595796000,11.1207958984375,9.213156700134277,-1.3165199756622314,0.7649073600769043
1783152344605500700,11.130500732421876,11.732819557189941,-1.2967376708984375,2.3949692249298096
1783152344624940300,11.149940185546875,13.427352905273438,-2.1362266540527344,2.5560193061828613
1783152344634645000,11.15964501953125,13.569259643554688,-2.0072684288024902,1.631108283996582
1783152344644349400,11.169349365234375,13.441707611083984,-1.730592966079712,1.2992041110992432
1783152344654054100,11.17905419921875,12.510743141174316,-1.2105036973953247,1.4783563613891602
1783152344663789300,11.188789306640626,11.283798217773438,-0.5110649466514587,1.3946776390075684
1783152344673493800,11.19849365234375,10.79455280303955,0.03891313076019287,0.9285931587219238
1783152344683198500,11.208198486328126,9.721360206604004,0.15887778997421265,0.03510922193527222
1783152344692903000,11.21790283203125,9.129510879516602,0.20327836275100708,-0.7802973389625549
1783152344702638000,11.22763818359375,8.94587230682373,0.4444025754928589,-1.414774775505066
1783152344712342800,11.2373427734375,8.95384693145752,0.4889909625053406,-1.501869559288025
1783152344722047200,11.247047119140625,9.124283790588379,0.18379831314086914,-1.7655138969421387
1783152344731782400,11.256782470703126,5.411123275756836,5.176568031311035,-3.9008007049560547
1783152344741486800,11.26648681640625,4.678187370300293,6.805856704711914,-4.883136749267578
1783152344751191600,11.276191650390626,5.870060920715332,4.789224147796631,-3.250544548034668
1783152344760896300,11.285896240234376,4.951685905456543,4.64420747756958,0.9653524160385132
1783152344770631200,11.295631103515625,4.412423133850098,3.473674774169922,2.266176700592041
1783152344780335900,11.3053359375,1.7681989669799805,1.6642266511917114,1.629090428352356
1783152344790040300,11.315040283203125,-0.7271137237548828,0.4337548017501831,2.243593215942383
1783152344799745000,11.3247451171875,-1.2085790634155273,-0.5458979606628418,3.149705410003662
1783152344809480200,11.334480224609376,0.4205608367919922,-2.4955477714538574,3.88075590133667
1783152344819215000,11.344215087890625,2.0754518508911133,-4.326887130737305,4.3702168464660645
1783152344828919800,11.353919921875,1.3481502532958984,-3.351703643798828,3.5478179454803467
1783152344838624500,11.36362451171875,1.0237302780151367,-1.9754892587661743,1.7333608865737915
1783152344848359400,11.373359375,0.7807464599609375,-1.5086694955825806,0.3833475112915039
1783152344858064100,11.383064208984376,0.8991718292236328,-2.4774670600891113,0.15428483486175537
1783152344867768600,11.3927685546875,-1.5303831100463867,-4.344299793243408,1.1007546186447144
1783152344877473300,11.402473388671876,-0.12372303009033203,-2.915168523788452,0.3701512813568115
1783152344887208400,11.41220849609375,-2.5061025619506836,-1.1279228925704956,-1.3161311149597168
1783152344896913000,11.421912841796875,-3.296976089477539,-0.8576551675796509,-1.8807055950164795
1783152344906617600,11.43161767578125,-4.0056657791137695,-1.3065810203552246,-2.0013322830200195
1783152344916322000,11.441322021484375,-4.431833267211914,-1.73643159866333,-1.6495847702026367
1783152344926057200,11.45105712890625,-4.41165828704834,-1.0253167152404785,-1.4437305927276611
1783152344935762000,11.460761962890626,-3.928600311279297,3.523216485977173,-2.019674301147461
1783152344945466400,11.47046630859375,-3.1960458755493164,3.227545738220215,-1.1835781335830688
1783152344955171000,11.480171142578126,-2.620096206665039,1.5749754905700684,-0.2776486873626709
1783152344964906200,11.48990625,-2.4568796157836914,-0.6806590557098389,1.0238535404205322
1783152344974610700,11.499610595703125,-1.949448585510254,-2.573159694671631,1.814147710800171
1783152344984315400,11.5093154296875,-1.4663686752319336,-2.8471198081970215,1.3422495126724243
1783152344994019800,11.519019775390625,-1.4392890930175781,-2.2032546997070312,0.3642216920852661
1783152345003755000,11.528755126953126,-3.654608726501465,-1.9051880836486816,-0.5020739436149597
1783152345013459700,11.538459716796876,-2.8166284561157227,-1.4425721168518066,-0.17409676313400269
1783152345023164200,11.5481640625,-2.899923324584961,-0.11580610275268555,0.048696935176849365
1783152345032868900,11.557868896484376,-2.0908565521240234,0.4284029006958008,-0.05714215338230133
1783152345042603800,11.567603759765625,0.5568475723266602,0.006291389465332031,0.3246351480484009
1783152345052308500,11.57730859375,2.203672409057617,-1.4411406517028809,1.2994678020477295
1783152345062013200,11.58701318359375,0.22655868530273438,-2.5246353149414062,1.4617092609405518
1783152345071717600,11.596717529296875,-1.4836015701293945,-2.729811191558838,1.1511054039001465
1783152345081452800,11.606452880859376,-2.025120735168457,-1.8122854232788086,0.349849671125412
1783152345091188000,11.61618798828125,-1.983525276184082,-0.8329129219055176,-0.5204300880432129
1783152345110597000,11.63559716796875,-1.8446407318115234,0.07716560363769531,-1.4432201385498047
1783152345130036700,11.65503662109375,-1.6171855926513672,-1.4179596900939941,-1.2302772998809814
1783152345139741400,11.664741455078126,-1.973099708557129,-1.0290546417236328,-1.5442862510681152
1783152345149446000,11.67444580078125,-1.737595558166504,-0.2657322883605957,-2.033018112182617
1783152345159181000,11.68418115234375,-1.3227481842041016,0.3641228675842285,-2.3616433143615723
1783152345168885800,11.6938857421875,-0.7978372573852539,0.4821767807006836,-2.3007917404174805
1783152345178590200,11.703590087890625,-0.215972900390625,0.16727828979492188,-2.0441222190856934
1783152345188295000,11.713294921875,-0.0131988525390625,-0.743377685546875,-1.3110532760620117
1783152345198029800,11.72302978515625,0.9216547012329102,0.6044449806213379,-1.4453613758087158
1783152345207734500,11.732734619140626,0.7823657989501953,1.5853056907653809,-1.5005837678909302
1783152345217439200,11.742439208984376,1.3879985809326172,1.0854921340942383,-0.1522756814956665
1783152345227143700,11.752143798828126,1.427393913269043,0.37871885299682617,1.2382677793502808
1783152345236878800,11.76187890625,0.9669761657714844,0.25320005416870117,1.864732027053833
1783152345246583300,11.771583251953125,0.4495515823364258,0.311830997467041,1.9655852317810059
1783152345256288000,11.7812880859375,0.4556550979614258,0.21036243438720703,1.5747668743133545
1783152345265992400,11.790992431640625,0.3787517547607422,0.21841192245483398,0.911001443862915
1783152345275727600,11.8007275390625,0.27498435974121094,0.16957569122314453,0.5346513986587524
1783152345295136800,11.82013671875,3.323028564453125,0.06677007675170898,0.6467058658599854
1783152345314576600,11.83957666015625,0.28574562072753906,0.0329432487487793,-0.6212402582168579
1783152345324281000,11.849281005859375,-0.795130729675293,0.19231081008911133,-0.5371877551078796
1783152345333985800,11.85898583984375,-0.946293830871582,0.15447330474853516,-0.20281344652175903
1783152345343690200,11.868690185546875,-1.1172866821289062,-0.022101402282714844,0.08794987201690674
1783152345353425400,11.87842529296875,-1.2308950424194336,0.04704427719116211,0.4997047781944275
1783152345363130000,11.888130126953126,-0.8958253860473633,0.023769378662109375,0.9059735536575317
1783152345372834600,11.89783447265625,0.27310752868652344,-0.5666971206665039,1.1664159297943115
