time,seconds_elapsed,z,y,x
1783152121609332200,0.151332275390625,0,0,0
1783152121628650000,0.17064990234375,-0.0039052963256835938,0.019060611724853516,0.0398409366607666
1783152121638354400,0.1803544921875,-0.005805015563964844,0.02887439727783203,0.06032669544219971
1783152121648059100,0.19005908203125,0.3373746871948242,0.11521196365356445,0.6153162717819214
1783152121657763600,0.199763671875,0.02399921417236328,0.17272090911865234,0.8509923219680786
1783152121667468300,0.20946826171875,0.058567047119140625,0.3071470260620117,1.170943021774292
1783152121677203500,0.219203369140625,0.23169898986816406,0.25005054473876953,1.0599931478500366
1783152121686938400,0.2289384765625,0.1752004623413086,0.22478914260864258,0.8529210686683655
1783152121696643000,0.23864306640625,0.23024272918701172,0.2744312286376953,0.6272527575492859
1783152121706347800,0.24834765625,0.28081512451171875,0.32642650604248047,0.4513099789619446
1783152121716052200,0.25805224609375,0.24175262451171875,0.29390716552734375,0.34047961235046387
1783152121725787400,0.267787353515625,0.12342071533203125,0.25028371810913086,0.28820306062698364
1783152121735491800,0.277491943359375,-0.0862436294555664,0.2651252746582031,0.15378165245056152
1783152121745196500,0.287196533203125,-0.10803890228271484,0.3674354553222656,0.17704522609710693
1783152121754901200,0.2969013671875,0.008868217468261719,0.31594324111938477,0.24169248342514038
1783152121764636200,0.30663623046875,-0.0905294418334961,0.13678503036499023,0.35841047763824463
1783152121774340900,0.3163408203125,-0.18961715698242188,0.0316162109375,0.3722391128540039
1783152121784045300,0.32604541015625,-0.24757957458496094,0.027988910675048828,0.3746086359024048
1783152121793750000,0.33575,-0.10472965240478516,0.10503339767456055,0.3203851580619812
1783152121803485200,0.345485107421875,0.12111377716064453,0.24923181533813477,0.30530083179473877
1783152121813189600,0.355189697265625,0.3218879699707031,0.3635568618774414,0.3260587453842163
1783152121822894300,0.364894287109375,0.3710651397705078,0.3547806739807129,0.4168810248374939
1783152121832598800,0.374598876953125,0.33931636810302734,0.2872886657714844,0.40837836265563965
1783152121842303500,0.384303466796875,0.33153820037841797,0.2569117546081543,0.26865118741989136
1783152121852038700,0.39403857421875,0.4560394287109375,0.24033784866333008,0.12604349851608276
1783152121861743000,0.4037431640625,0.35576915740966797,0.201568603515625,-0.05101633071899414
1783152121871447800,0.41344775390625,0.20740032196044922,0.12267017364501953,-0.2124718427658081
1783152121881152300,0.42315234375,0.12133407592773438,0.04897642135620117,-0.34334254264831543
1783152121890887400,0.432887451171875,0.0933694839477539,0.024399757385253906,-0.5025753974914551
1783152121900592000,0.442592041015625,0.052153587341308594,0.02202749252319336,-0.5740454196929932
1783152121910327000,0.4523271484375,0.09993553161621094,-0.012124061584472656,-0.6120405197143555
1783152121920031700,0.46203173828125,0.04213905334472656,-0.02944040298461914,-0.6420383453369141
1783152121929767000,0.471766845703125,0.00643157958984375,-0.10459613800048828,-0.6384022235870361
1783152121939471400,0.481471435546875,-0.2980976104736328,-0.20421075820922852,-0.6562713384628296
1783152121949176000,0.491176025390625,-0.4480762481689453,-0.2560243606567383,-0.6492475271224976
1783152121958880500,0.500880615234375,-0.08537960052490234,-0.1762857437133789,-0.6408119201660156
1783152121968615700,0.51061572265625,-0.19942951202392578,-0.3017582893371582,-0.5481570959091187
1783152121978320400,0.5203203125,-0.2897772789001465,-0.5227446556091309,-0.3702033758163452
1783152121988024800,0.53002490234375,-0.3636922836303711,-0.612205982208252,-0.3104581832885742
1783152121997729500,0.5397294921875,-0.4369230270385742,-0.6488218307495117,-0.3631560802459717
1783152122007434000,0.54943408203125,-0.41615772247314453,-0.6262874603271484,-0.43321990966796875
1783152122017169200,0.559169189453125,-0.489163875579834,-0.6057887077331543,-0.48868656158447266
1783152122026873900,0.568873779296875,-0.558922290802002,-0.6258664131164551,-0.5204790830612183
1783152122036578300,0.578578369140625,-0.553647518157959,-0.5819697380065918,-0.5717004537582397
1783152122046283000,0.588282958984375,-0.5342912673950195,-0.5685877799987793,-0.6320277452468872
1783152122056018200,0.59801806640625,-0.47121238708496094,-0.5848450660705566,-0.615997314453125
1783152122075427300,0.61742724609375,-0.37823915481567383,-0.6246671676635742,-0.5631071329116821
1783152122085131800,0.6271318359375,-0.2938394546508789,-0.5603222846984863,-0.4683879613876343
1783152122094867000,0.636866943359375,-0.15456867218017578,-0.5797305107116699,-0.3209902048110962
1783152122104571600,0.646571533203125,-0.09656238555908203,-0.614445686340332,-0.17376339435577393
1783152122114276000,0.656276123046875,-0.0889902114868164,-0.6841025352478027,-0.05403399467468262
1783152122123980800,0.665980712890625,-0.12970829010009766,-0.7278141975402832,0.0007672309875488281
1783152122133715700,0.6757158203125,-0.2048783302307129,-0.7421441078186035,-0.04360783100128174
1783152122143420400,0.68542041015625,-0.29517030715942383,-0.7130436897277832,-0.18656516075134277
1783152122162829600,0.70482958984375,-0.33790016174316406,-0.5857748985290527,-0.24246156215667725
1783152122172534300,0.7145341796875,-0.377840518951416,-0.48123645782470703,-0.16341280937194824
1783152122182269200,0.724269287109375,-0.3751101493835449,-0.411806583404541,-0.028313398361206055
1783152122192004400,0.73400439453125,-0.32645463943481445,-0.3484163284301758,0.17210185527801514
1783152122201709000,0.743708984375,-0.23556947708129883,-0.33308887481689453,0.33698463439941406
1783152122211413500,0.75341357421875,-0.13809585571289062,-0.31113624572753906,0.48624563217163086
1783152122221148700,0.763148681640625,-0.05170297622680664,-0.2175140380859375,0.6430412530899048
1783152122230853400,0.772853271484375,-0.010191917419433594,-0.2944016456604004,0.7317718267440796
1783152122240557800,0.782557861328125,-0.05661821365356445,-0.4568972587585449,0.7191975116729736
1783152122250262500,0.792262451171875,-0.2246685028076172,-0.6348600387573242,0.5348882675170898
1783152122259997400,0.80199755859375,-0.3069586753845215,-0.5352935791015625,0.18255078792572021
1783152122269702100,0.8117021484375,-0.20770931243896484,-0.40738964080810547,-0.12215626239776611
1783152122279406800,0.82140673828125,-0.21288251876831055,-1.586927890777588,-0.46472668647766113
1783152122289111300,0.831111328125,-0.4066286087036133,0.7585239410400391,-3.693499803543091
1783152122298846500,0.840846435546875,-1.1627311706542969,0.5876121520996094,-2.9258227348327637
1783152122308551000,0.850551025390625,-0.9167509078979492,-0.47043704986572266,-2.0624325275421143
1783152122318255600,0.860255615234375,-0.8017458915710449,-0.19408226013183594,-1.3323113918304443
1783152122327960300,0.869960205078125,0.7522525787353516,-1.5256314277648926,0.06740200519561768
1783152122337664800,0.879664794921875,-1.7323365211486816,-1.8669137954711914,0.24394428730010986
1783152122347400000,0.88939990234375,-2.157278537750244,-1.5631537437438965,0.6255455017089844
1783152122357104400,0.8991044921875,-1.5355777740478516,-0.7948565483093262,0.7557357549667358
1783152122366809000,0.90880908203125,-1.1950178146362305,0.08650636672973633,0.8305237293243408
1783152122376513800,0.918513671875,-1.1154050827026367,0.754112720489502,0.5962742567062378
1783152122395953400,0.937953369140625,-0.6043815612792969,-1.545933723449707,1.3660391569137573
1783152122405657900,0.947657958984375,0.1355724334716797,-3.122312068939209,1.852536678314209
1783152122415362600,0.957362548828125,0.7251629829406738,-3.7622323036193848,2.107199192047119
1783152122425097700,0.96709765625,1.126302719116211,-3.3310060501098633,1.951061725616455
1783152122444507000,0.9865068359375,2.203118324279785,-0.8796696662902832,0.37745773792266846
1783152122454211300,0.99621142578125,2.2885656356811523,-0.02596569061279297,-0.06750679016113281
1783152122463916000,1.005916015625,1.6093549728393555,0.05603599548339844,-0.11661779880523682
1783152122473651200,1.015651123046875,1.1743125915527344,-0.40752553939819336,-0.32594430446624756
1783152122483386000,1.02538623046875,0.7615914344787598,-0.649113655090332,-0.7683472633361816
1783152122493090800,1.0350908203125,-0.1705183982849121,-0.18508195877075195,-1.180858850479126
1783152122502795500,1.04479541015625,-1.2750835418701172,0.4895658493041992,-1.7163827419281006
1783152122512530400,1.054530517578125,-1.8591442108154297,0.8858351707458496,-2.6974470615386963
1783152122522235100,1.064235107421875,-2.1715688705444336,0.9752898216247559,-3.1491451263427734
1783152122531939600,1.073939697265625,-2.019918441772461,1.1844911575317383,-3.151426076889038
1783152122541644300,1.083644287109375,-1.8256216049194336,1.1876301765441895,-2.8661000728607178
1783152122551379500,1.09337939453125,-1.5879273414611816,1.1697301864624023,-2.5421206951141357
1783152122561084000,1.103083984375,-0.19128799438476562,0.2934708595275879,-1.4292762279510498
1783152122570788600,1.11278857421875,0.796745777130127,-0.6815004348754883,-0.18810033798217773
1783152122580493000,1.1224931640625,0.8859820365905762,-0.8188982009887695,0.21747350692749023
1783152122590228200,1.132228271484375,0.7896404266357422,-0.6046638488769531,0.14857208728790283
1783152122599933000,1.141932861328125,0.8793096542358398,-0.44862937927246094,0.04868006706237793
1783152122609637400,1.151637451171875,1.0235004425048828,-0.4057121276855469,0.06538057327270508
1783152122619342000,1.161342041015625,1.0794448852539062,-0.381195068359375,0.13825416564941406
1783152122629046500,1.171046630859375,0.8829541206359863,-0.41472721099853516,0.10927116870880127
1783152122638781700,1.18078173828125,0.4714059829711914,-0.399014949798584,0.09403610229492188
1783152122648486400,1.190486328125,0.6974248886108398,-0.3648548126220703,0.4588984251022339
1783152122658190800,1.20019091796875,0.8817996978759766,-0.35158538818359375,0.4980396032333374
1783152122667895600,1.2098955078125,1.0408096313476562,-0.4034390449523926,0.5316007137298584
1783152122677630700,1.219630615234375,1.0715503692626953,-0.2751016616821289,0.43296754360198975
1783152122687335200,1.229335205078125,0.9394664764404297,-0.13228178024291992,0.23489749431610107
1783152122697040000,1.239039794921875,0.8354988098144531,0.03903055191040039,0.17218017578125
1783152122716479500,1.2584794921875,0.7386636734008789,0.22566461563110352,0.1144721508026123
1783152122726184200,1.26818408203125,0.6324310302734375,0.26432371139526367,0.03664755821228027
1783152122735888600,1.277888671875,0.5061559677124023,0.29430723190307617,0.006863713264465332
1783152122745593300,1.28759326171875,0.40291595458984375,0.32543087005615234,0.012174844741821289
1783152122755328300,1.297328369140625,0.341094970703125,0.3751358985900879,0.005495786666870117
1783152122765063400,1.3070634765625,0.3269319534301758,0.4111056327819824,-0.01993691921234131
1783152122774768000,1.31676806640625,0.27443981170654297,0.42676305770874023,-0.032662034034729004
1783152122784472600,1.32647265625,0.2646598815917969,0.43915414810180664,-0.010761618614196777
1783152122794177300,1.33617724609375,0.32802581787109375,0.4630274772644043,0.029671311378479004
1783152122803912400,1.345912353515625,0.3643169403076172,0.44631099700927734,0.08439671993255615
1783152122813617000,1.355616943359375,0.3932313919067383,0.4740591049194336,0.10132753849029541
1783152122823321600,1.365321533203125,0.4344034194946289,0.4716968536376953,0.0862572193145752
1783152122833026000,1.375026123046875,0.5284976959228516,0.4978013038635254,0.09327077865600586
1783152122842761200,1.38476123046875,0.5565586090087891,0.4683084487915039,0.12106871604919434
1783152122852466000,1.3944658203125,0.5619544982910156,0.4636507034301758,0.16597533226013184
1783152122862170400,1.40417041015625,0.5756168365478516,0.4405655860900879,0.17464947700500488
1783152122871875000,1.413875,0.5477132797241211,0.45324134826660156,0.1275186538696289
1783152122891314700,1.433314697265625,0.4619302749633789,0.5434141159057617,-0.06322264671325684
1783152122901019400,1.443019287109375,0.4519815444946289,0.5811562538146973,-0.08925771713256836
1783152122910723800,1.452723876953125,0.49338626861572266,0.6092391014099121,-0.019689321517944336
1783152122920459000,1.462458984375,0.4832878112792969,0.6136198043823242,0.09150528907775879
1783152122939868200,1.4818681640625,0.4203805923461914,0.5966911315917969,0.1644434928894043
1783152122959277300,1.50127734375,0.37725162506103516,0.6418485641479492,0.2295527458190918
1783152122969012500,1.511012451171875,0.35654449462890625,0.6177773475646973,0.30376577377319336
1783152122978717000,1.520717041015625,0.3503541946411133,0.5973000526428223,0.4081127643585205
1783152122998126300,1.540126220703125,0.34473323822021484,0.4852008819580078,0.6181285381317139
1783152123007861200,1.549861328125,0.3148775100708008,0.42763519287109375,0.6957659721374512
1783152123017566000,1.55956591796875,0.37354373931884766,0.41362667083740234,0.6966190338134766
1783152123027270400,1.5692705078125,0.43440818786621094,0.38358259201049805,0.7183616161346436
1783152123036975000,1.57897509765625,0.4478626251220703,0.315767765045166,0.7278338670730591
1783152123046710300,1.588710205078125,0.46942710876464844,0.2620682716369629,0.7451298236846924
1783152123056445400,1.598445556640625,0.49014854431152344,0.20009708404541016,0.7468974590301514
1783152123066150000,1.60814990234375,0.46974658966064453,0.15552568435668945,0.7327721118927002
1783152123075854600,1.6178544921875,0.42276954650878906,0.08271598815917969,0.723254919052124
1783152123085559000,1.62755908203125,0.34668540954589844,0.0415191650390625,0.6794650554656982
1783152123095294200,1.637294189453125,0.17965316772460938,-0.025042057037353516,0.6226439476013184
1783152123104998700,1.64699853515625,0.016983985900878906,-0.03308296203613281,0.5644752979278564
1783152123114703400,1.656703369140625,-0.15125560760498047,-0.08214521408081055,0.5285192728042603
1783152123124408000,1.666407958984375,-0.3375997543334961,-0.07825517654418945,0.4926704168319702
1783152123134143000,1.67614306640625,-0.45456790924072266,-0.07082033157348633,0.4468512535095215
1783152123143847700,1.68584765625,-0.5529203414916992,-0.06674528121948242,0.39028239250183105
1783152123163256800,1.7052568359375,-0.7467002868652344,-0.07496166229248047,0.25500988960266113
1783152123172992000,1.714991943359375,-0.8375329971313477,-0.04850196838378906,0.23007714748382568
1783152123182696400,1.724696533203125,-0.884760856628418,-0.004258632659912109,0.20507359504699707
1783152123192401200,1.734401123046875,-0.9347219467163086,0.0329132080078125,0.10825204849243164
1783152123202105600,1.744105712890625,-0.9261302947998047,0.07123851776123047,0.01644611358642578
1783152123211840800,1.7538408203125,-0.8070755004882812,0.09673261642456055,-0.0653754472732544
1783152123221545500,1.76354541015625,-0.6088552474975586,0.12809991836547852,-0.14904892444610596
1783152123231250000,1.77325,-0.41423511505126953,0.12597370147705078,-0.1527649164199829
1783152123240954600,1.78295458984375,-0.1457834243774414,0.11249685287475586,-0.12128603458404541
1783152123250659000,1.7926591796875,0.15415000915527344,0.14295291900634766,-0.09379374980926514
1783152123260394200,1.802394287109375,0.38147449493408203,0.14364337921142578,-0.07429003715515137
1783152123270099000,1.812098876953125,0.5233163833618164,0.11978340148925781,-0.020630478858947754
1783152123279803400,1.821803466796875,0.6049156188964844,0.11249256134033203,0.014595985412597656
1783152123289508000,1.831508056640625,0.5846681594848633,0.10601043701171875,0.03450644016265869
1783152123299243300,1.8412431640625,0.4804496765136719,0.0921931266784668,0.04213058948516846
1783152123308947700,1.85094775390625,0.33057403564453125,0.08559226989746094,0.039490342140197754
1783152123318652400,1.86065234375,0.12967872619628906,0.09682989120483398,0.04704618453979492
1783152123328356900,1.87035693359375,-0.10657119750976562,0.10394477844238281,0.03039860725402832
1783152123338092000,1.880092041015625,-0.3101072311401367,0.0830545425415039,0.035127878189086914
1783152123347827200,1.8898271484375,-0.4654502868652344,0.07698917388916016,0.016955018043518066
1783152123367236400,1.909236328125,-0.6734046936035156,0.06850337982177734,-0.004686832427978516
1783152123376971500,1.918971435546875,-0.6424407958984375,0.085723876953125,-0.014946579933166504
1783152123386676000,1.928676025390625,-0.5697212219238281,0.08500814437866211,0.00829160213470459
1783152123396380700,1.938380615234375,-0.45515918731689453,0.06146717071533203,0.0655738115310669
1783152123406085000,1.948085205078125,-0.2650899887084961,0.026540756225585938,0.07926428318023682
1783152123415789800,1.957789794921875,-0.0659494400024414,0.0005011558532714844,0.05396163463592529
1783152123425525000,1.96752490234375,0.11184215545654297,-0.027679443359375,0.038631558418273926
1783152123435229400,1.9772294921875,0.22159290313720703,-0.06939888000488281,0.04873466491699219
1783152123444934100,1.98693408203125,0.28835296630859375,-0.07631969451904297,0.11473321914672852
1783152123454638600,1.996638671875,0.27040958404541016,-0.0834035873413086,0.16320133209228516
1783152123464373800,2.006373779296875,0.22611522674560547,-0.060701847076416016,0.2573096752166748
1783152123474078500,2.016078369140625,0.12502574920654297,-0.07540607452392578,0.3072621822357178
1783152123483783000,2.025782958984375,-0.0017604827880859375,-0.0460662841796875,0.31354522705078125
1783152123493487600,2.035487548828125,-0.13807010650634766,0.01844930648803711,0.23758018016815186
1783152123503222800,2.045222900390625,-0.23711395263671875,0.08098268508911133,0.16427910327911377
1783152123512927200,2.05492724609375,-0.3189878463745117,0.1377582550048828,0.02782726287841797
1783152123522632000,2.0646318359375,-0.30819225311279297,0.19664525985717773,-0.13216710090637207
1783152123532336400,2.07433642578125,-0.3484220504760742,0.24599123001098633,-0.20721137523651123
1783152123542071600,2.084071533203125,-0.31800174713134766,0.23173952102661133,-0.18663525581359863
1783152123551776000,2.09377587890625,-0.24605941772460938,0.27146387100219727,-0.15124642848968506
1783152123561480700,2.103480712890625,-0.13774490356445312,0.3059840202331543,-0.17690825462341309
1783152123571185400,2.113185302734375,-0.06930923461914062,0.3352656364440918,-0.17699098587036133
1783152123580889900,2.122889892578125,0.052631378173828125,0.32598161697387695,-0.17166507244110107
1783152123590625000,2.132625,0.15193748474121094,0.3397965431213379,-0.14866137504577637
1783152123600329500,2.14232958984375,0.21027278900146484,0.31413888931274414,-0.11840629577636719
1783152123610034200,2.1520341796875,0.3024139404296875,0.3148641586303711,-0.09395623207092285
1783152123619739000,2.16173876953125,0.3835258483886719,0.30496978759765625,-0.061312079429626465
1783152123629473800,2.171473876953125,0.4559659957885742,0.28388214111328125,-0.06297719478607178
1783152123639209000,2.181208984375,0.4433021545410156,0.2775864601135254,-0.10803389549255371
1783152123648913700,2.19091357421875,0.39107418060302734,0.2478499412536621,-0.16589581966400146
1783152123658618000,2.2006181640625,0.3637723922729492,0.20439672470092773,-0.222151517868042
1783152123668353300,2.210353271484375,0.3158540725708008,0.18098211288452148,-0.2743091583251953
1783152123678058000,2.22005810546875,0.2949104309082031,0.1683506965637207,-0.3267730474472046
1783152123687762400,2.229762451171875,0.28411006927490234,0.11923503875732422,-0.36196351051330566
1783152123697467100,2.239467041015625,0.3287200927734375,0.07685041427612305,-0.3910200595855713
1783152123707171600,2.249171630859375,0.35950469970703125,0.05063152313232422,-0.42089903354644775
1783152123716906800,2.25890673828125,0.3767356872558594,0.037619590759277344,-0.4398784637451172
1783152123726611500,2.268611572265625,0.3925323486328125,0.030048847198486328,-0.396470308303833
1783152123736316000,2.27831591796875,0.38778018951416016,0.0038900375366210938,-0.34420251846313477
1783152123746020600,2.2880205078125,0.3365316390991211,-0.04112386703491211,-0.2642500400543213
1783152123755755500,2.297755615234375,0.26526737213134766,-0.05963325500488281,-0.21598970890045166
1783152123765460200,2.307460205078125,0.17635345458984375,-0.07052183151245117,-0.1633661985397339
1783152123775164700,2.31716455078125,0.06497764587402344,-0.09250831604003906,-0.11061620712280273
1783152123784869400,2.326869384765625,-0.05944347381591797,-0.13915395736694336,-0.05944514274597168
1783152123794604500,2.3366044921875,-0.20206260681152344,-0.18312978744506836,-0.013991951942443848
1783152123804309000,2.34630908203125,-0.34659576416015625,-0.22344732284545898,-0.007113814353942871
1783152123814013700,2.356013671875,-0.48616886138916016,-0.2500009536743164,-0.031079888343811035
1783152123823718100,2.36571826171875,-0.597325325012207,-0.26935243606567383,-0.06204378604888916
1783152123833453300,2.375453369140625,-0.6640453338623047,-0.2737855911254883,-0.10317158699035645
1783152123843158000,2.385157958984375,-0.7109394073486328,-0.28893613815307617,-0.13175415992736816
1783152123852862500,2.394862548828125,-0.7001771926879883,-0.3121461868286133,-0.1626650094985962
1783152123862567200,2.404567138671875,-0.6344366073608398,-0.32206106185913086,-0.17011237144470215
1783152123872271600,2.414271728515625,-0.5900068283081055,-0.33108997344970703,-0.14258277416229248
1783152123882006800,2.4240068359375,-0.516387939453125,-0.3159012794494629,-0.11323082447052002
1783152123901416000,2.443416015625,-0.3329200744628906,-0.2920413017272949,-0.06528520584106445
1783152123911151000,2.453151123046875,-0.2488384246826172,-0.24884891510009766,-0.07381939888000488
1783152123920886300,2.46288623046875,-0.18697166442871094,-0.2246227264404297,-0.0551753044128418
1783152123930590700,2.4725908203125,-0.14710044860839844,-0.20746088027954102,-0.03296196460723877
1783152123940295400,2.48229541015625,-0.08382415771484375,-0.1664595603942871,-0.03095555305480957
1783152123950000000,2.492000244140625,-0.03759479522705078,-0.14941024780273438,-0.012898802757263184
1783152123959735000,2.501735107421875,0.018157005310058594,-0.13502025604248047,0.0076705217361450195
1783152123969439700,2.511439697265625,0.04773235321044922,-0.08291816711425781,-0.014410853385925293
1783152123979144200,2.521144287109375,0.06787586212158203,-0.029050350189208984,-0.04120182991027832
1783152123988849000,2.530848876953125,0.0880117416381836,0.02423572540283203,-0.042458176612854004
1783152123998584000,2.540583984375,0.13402366638183594,0.0390629768371582,-0.021639347076416016
1783152124008288500,2.55028857421875,0.1364269256591797,0.061220645904541016,-0.010218501091003418
1783152124017993200,2.5599931640625,0.14564990997314453,0.06686639785766602,-0.016625642776489258
1783152124027697700,2.56969775390625,0.1762857437133789,0.07020092010498047,-0.015729546546936035
1783152124037402400,2.57940234375,0.2190389633178711,0.10651588439941406,-0.03336441516876221
1783152124047137500,2.589137451171875,0.27866172790527344,0.12772512435913086,-0.03676104545593262
1783152124056842000,2.598842041015625,0.3123283386230469,0.14766502380371094,-0.04336059093475342
1783152124066546700,2.608546630859375,0.34906768798828125,0.15849876403808594,-0.015140771865844727
1783152124076251100,2.618251220703125,0.3653545379638672,0.17652130126953125,0.01956963539123535
1783152124085986300,2.627986328125,0.3614177703857422,0.1846914291381836,0.0607304573059082
1783152124095691000,2.63769091796875,0.3251819610595703,0.22394323348999023,0.05331134796142578
1783152124105395500,2.6473955078125,0.2516746520996094,0.24945068359375,0.05206167697906494
1783152124115100200,2.65710009765625,0.17653369903564453,0.25222206115722656,0.06424474716186523
1783152124124835300,2.66683544921875,0.08768463134765625,0.2543158531188965,0.0521007776260376
1783152124134539800,2.676539794921875,0.02084827423095703,0.25387001037597656,0.028753995895385742
1783152124144244500,2.686244384765625,0.001949310302734375,0.2561945915222168,0.03755819797515869
1783152124163684000,2.70568408203125,-0.012279510498046875,0.1821589469909668,0.06614100933074951
1783152124173388800,2.715388916015625,0.02551555633544922,0.17540884017944336,0.05491769313812256
1783152124183093200,2.72509326171875,0.06676006317138672,0.16965007781982422,0.04148447513580322
1783152124192828400,2.734828369140625,0.1119546890258789,0.1642131805419922,0.04506862163543701
1783152124202532900,2.744532958984375,0.14490604400634766,0.13966035842895508,0.05603218078613281
1783152124212268000,2.75426806640625,0.1778545379638672,0.12396717071533203,0.10456728935241699
1783152124221972700,2.76397265625,0.19211864471435547,0.10486412048339844,0.12884652614593506
1783152124231677200,2.77367724609375,0.15035438537597656,0.08721446990966797,0.1293036937713623
1783152124241382000,2.7833818359375,0.10047435760498047,0.07363224029541016,0.11853468418121338
1783152124251117000,2.793116943359375,0.042522430419921875,0.05263710021972656,0.113808274269104
1783152124270526200,2.812526123046875,-0.07303619384765625,0.014882087707519531,0.08867919445037842
1783152124280230700,2.822230712890625,-0.10770797729492188,0.006453037261962891,0.0748751163482666
1783152124289965800,2.8319658203125,-0.09560489654541016,-0.007159709930419922,0.08051025867462158
1783152124309375000,2.851375,0.009979248046875,-0.043528079986572266,0.09492111206054688
1783152124319079700,2.86107958984375,0.05895709991455078,-0.0700998306274414,0.1277151107788086
1783152124328814600,2.870814697265625,0.1075601577758789,-0.08282756805419922,0.12492132186889648
1783152124338519300,2.880519287109375,0.12528228759765625,-0.06836891174316406,0.08841443061828613
1783152124348224000,2.89022412109375,0.091522216796875,-0.06279182434082031,0.07432961463928223
1783152124357928400,2.899928466796875,0.04953956604003906,-0.08027410507202148,0.10092341899871826
1783152124367633200,2.909633056640625,-0.014757156372070312,-0.07543087005615234,0.12297976016998291
1783152124377368000,2.9193681640625,-0.09642505645751953,-0.09045982360839844,0.12018275260925293
1783152124387072800,2.92907275390625,-0.15300750732421875,-0.0774698257446289,0.11002206802368164
1783152124396777500,2.938777587890625,-0.2157115936279297,-0.08827447891235352,0.10210251808166504
1783152124406482000,2.94848193359375,-0.2706174850463867,-0.08434772491455078,0.07492804527282715
1783152124416217000,2.958217041015625,-0.2922039031982422,-0.07029485702514648,0.047469377517700195
1783152124425921500,2.967921630859375,-0.3187570571899414,-0.05321502685546875,0.04532492160797119
1783152124435626200,2.977626220703125,-0.3314485549926758,-0.04705476760864258,0.07096612453460693
1783152124445330700,2.98733056640625,-0.3327369689941406,-0.0632786750793457,0.08958554267883301
1783152124455065900,2.99706591796875,-0.31330394744873047,-0.061604976654052734,0.09953069686889648
1783152124464770600,3.0067705078125,-0.28772735595703125,-0.030399322509765625,0.07465255260467529
1783152124474475000,3.01647509765625,-0.25155162811279297,-0.0006847381591796875,0.043236494064331055
1783152124484210200,3.026210205078125,-0.21663379669189453,-0.0032062530517578125,0.002755284309387207
1783152124493915000,3.035914794921875,-0.18541526794433594,0.023878097534179688,-0.03488433361053467
1783152124503649800,3.04564990234375,-0.1741189956665039,0.03046131134033203,-0.06473422050476074
1783152124513354500,3.0553544921875,-0.1258993148803711,0.07326650619506836,-0.10805749893188477
1783152124523059200,3.06505908203125,-0.04140949249267578,0.11400651931762695,-0.13220500946044922
1783152124532763600,3.074763671875,0.022294998168945312,0.1266155242919922,-0.14026904106140137
1783152124542498800,3.084498779296875,0.12703227996826172,0.1370077133178711,-0.12304162979125977
1783152124552203300,3.094203369140625,0.20933914184570312,0.13715314865112305,-0.11031556129455566
1783152124561908000,3.103907958984375,0.24639320373535156,0.13191604614257812,-0.0953603982925415
1783152124571612700,3.11361279296875,0.2719697952270508,0.1305093765258789,-0.082572340965271
1783152124581347600,3.12334765625,0.28147125244140625,0.1493821144104004,-0.07671153545379639
1783152124591052300,3.13305224609375,0.28447628021240234,0.16938352584838867,-0.05625808238983154
1783152124600756700,3.1427568359375,0.27146434783935547,0.13331270217895508,-0.0235903263092041
1783152124610461400,3.15246142578125,0.2661323547363281,0.10372734069824219,-0.00489199161529541
1783152124620196600,3.162196533203125,0.2802438735961914,0.09534978866577148,-0.02107846736907959
1783152124629901000,3.171901123046875,0.2874326705932617,0.06302261352539062,-0.04522514343261719
1783152124639605800,3.181605712890625,0.2782754898071289,0.03783273696899414,-0.06721735000610352
1783152124649310200,3.191310302734375,0.3293743133544922,0.009801387786865234,-0.07265079021453857
1783152124659015000,3.201014892578125,0.37615394592285156,0.012038230895996094,-0.06956279277801514
1783152124668750000,3.21075,0.3971529006958008,-0.005860328674316406,-0.0448908805847168
1783152124678454500,3.22045458984375,0.38533782958984375,-0.017951011657714844,-0.020797371864318848
1783152124688159200,3.2301591796875,0.3578042984008789,-0.03179788589477539,0.02433454990386963
1783152124697863700,3.23986376953125,0.3002662658691406,-0.049818992614746094,0.05707573890686035
1783152124707598800,3.249598876953125,0.22709274291992188,-0.06708288192749023,0.06323444843292236
1783152124717303600,3.259303466796875,0.14045238494873047,-0.07358932495117188,0.09049546718597412
1783152124727008000,3.269008056640625,0.030550003051757812,-0.08306264877319336,0.09613418579101562
1783152124736712700,3.278712646484375,-0.04799938201904297,-0.07809638977050781,0.07830619812011719
1783152124746448000,3.28844775390625,-0.06935501098632812,-0.06531476974487305,0.07987689971923828
1783152124756152300,3.29815234375,-0.12216758728027344,-0.08024072647094727,0.09333658218383789
1783152124765887500,3.307887451171875,-0.1442708969116211,-0.09417581558227539,0.12136602401733398
1783152124775592000,3.317592041015625,-0.15004444122314453,-0.090423583984375,0.1474604606628418
1783152124785327000,3.3273271484375,-0.18469905853271484,-0.10515451431274414,0.18102526664733887
1783152124795031800,3.33703173828125,-0.21477699279785156,-0.08101940155029297,0.2006314992904663
1783152124804736300,3.346736328125,-0.24744415283203125,-0.07781267166137695,0.19417917728424072
1783152124814441000,3.35644091796875,-0.2923622131347656,-0.07381582260131836,0.16155219078063965
1783152124824145400,3.3661455078125,-0.35442543029785156,-0.06641912460327148,0.1385037899017334
1783152124833880600,3.375880615234375,-0.3764657974243164,-0.053030967712402344,0.09623408317565918
1783152124843585300,3.385585205078125,-0.36106300354003906,-0.01921558380126953,0.06808316707611084
1783152124853289700,3.395289794921875,-0.36070919036865234,-0.04392385482788086,0.07327353954315186
1783152124862994400,3.404994384765625,-0.34906005859375,-0.04826021194458008,0.06673085689544678
1783152124882434000,3.42443408203125,-0.227569580078125,0.014996051788330078,0.04028141498565674
1783152124892138800,3.434138671875,-0.21349048614501953,0.020563125610351562,0.028895139694213867
1783152124901843200,3.44384326171875,-0.18079376220703125,0.00771331787109375,0.0363004207611084
1783152124911578400,3.453578369140625,-0.1268911361694336,0.014386177062988281,0.024904370307922363
1783152124921283000,3.463282958984375,-0.0637197494506836,0.03557586669921875,0.030117392539978027
1783152124930987500,3.472987548828125,-0.04394721984863281,0.05458402633666992,0.012940287590026855
1783152124940692200,3.482692138671875,-0.028990745544433594,0.05884218215942383,-0.03123152256011963
1783152124950427100,3.49242724609375,-0.010041236877441406,0.0754694938659668,-0.06834912300109863
1783152124960131800,3.5021318359375,0.041192054748535156,0.07607364654541016,-0.09998464584350586
1783152124969836500,3.51183642578125,0.08910083770751953,0.0677042007446289,-0.11364984512329102
1783152124979541000,3.521541015625,0.14577102661132812,0.064300537109375,-0.10692393779754639
1783152124989245700,3.53124560546875,0.23321819305419922,0.07819414138793945,-0.10836184024810791
1783152124998980600,3.540980712890625,0.3016071319580078,0.1057596206665039,-0.11020314693450928
1783152125008685300,3.550685302734375,0.3153066635131836,0.1131887435913086,-0.08915519714355469
1783152125018390000,3.56039013671875,0.31532764434814453,0.112060546875,-0.06878626346588135
1783152125028094500,3.570094482421875,0.3018522262573242,0.1213226318359375,-0.0650864839553833
1783152125037829600,3.57982958984375,0.27265167236328125,0.12421512603759766,-0.06069815158843994
1783152125047534000,3.5895341796875,0.23494625091552734,0.11843395233154297,-0.05750751495361328
1783152125066974000,3.608973876953125,0.1310443878173828,0.12298583984375,-0.11145317554473877
1783152125076708900,3.618708984375,0.08816909790039062,0.1340503692626953,-0.12419676780700684
1783152125086413600,3.62841357421875,0.0526123046875,0.1258859634399414,-0.1251434087753296
1783152125096118300,3.6381181640625,0.0003528594970703125,0.12023258209228516,-0.11452925205230713
1783152125105822700,3.64782275390625,-0.006598472595214844,0.10774564743041992,-0.11120867729187012
1783152125115527400,3.65752734375,-0.018091201782226562,0.08467912673950195,-0.08497297763824463
1783152125134967000,3.676967041015625,-0.0026035308837890625,0.0022263526916503906,-0.04896223545074463
1783152125144671700,3.686671630859375,-0.0022211074829101562,0.013586044311523438,-0.068245530128479
1783152125154376200,3.696376220703125,-0.025422096252441406,0.003513336181640625,-0.09004330635070801
1783152125164111400,3.706111328125,-0.07165718078613281,-0.008788108825683594,-0.08516430854797363
1783152125173815800,3.71581591796875,-0.09098243713378906,-0.023502826690673828,-0.06065702438354492
1783152125183520500,3.7255205078125,-0.06544780731201172,-0.018902301788330078,-0.0391845703125
1783152125193225200,3.73522509765625,-0.06444549560546875,-0.009015083312988281,-0.029134154319763184
1783152125202960100,3.744960205078125,-0.0852813720703125,-0.03850078582763672,-0.004511117935180664
1783152125212664800,3.754664794921875,-0.05934619903564453,-0.047607421875,0.007470607757568359
1783152125222369300,3.764369384765625,-0.010602951049804688,-0.05347394943237305,0.010622739791870117
1783152125232074000,3.774073974609375,0.030210494995117188,-0.05643129348754883,0.019736289978027344
1783152125241809200,3.78380908203125,0.08225822448730469,-0.04285764694213867,0.00623774528503418
1783152125251513600,3.793513671875,0.1195516586303711,-0.01824045181274414,-0.004899382591247559
1783152125261218300,3.80321826171875,0.11881637573242188,0.02396678924560547,-0.005536079406738281
1783152125270922800,3.8129228515625,0.08544540405273438,0.03379011154174805,-0.010547637939453125
1783152125280658000,3.822657958984375,0.03889656066894531,0.06582117080688477,-0.01715254783630371
1783152125290362600,3.832362548828125,-0.027891159057617188,0.06612062454223633,0.0010616779327392578
1783152125300067000,3.842067138671875,-0.06535911560058594,0.07806921005249023,0.04180777072906494
1783152125309771800,3.851771728515625,-0.12133979797363281,0.08324527740478516,0.013242840766906738
1783152125319476200,3.861476318359375,-0.11793041229248047,0.10327720642089844,0.009033441543579102
1783152125329211400,3.87121142578125,-0.04191875457763672,0.1258845329284668,0.02618885040283203
1783152125338946600,3.880946533203125,-0.0028390884399414062,0.10871410369873047,0.06138157844543457
1783152125348651000,3.890651123046875,0.03313636779785156,0.09207582473754883,0.09148621559143066
1783152125358355700,3.900355712890625,0.09459590911865234,0.09200620651245117,0.10068631172180176
1783152125368091000,3.9100908203125,0.1013174057006836,0.10546875,0.07987499237060547
1783152125377795300,3.91979541015625,0.10360908508300781,0.12752485275268555,0.05520594120025635
1783152125387500000,3.9295,0.08493614196777344,0.10642099380493164,0.05228888988494873
1783152125397204500,3.93920458984375,0.07604789733886719,0.11142539978027344,0.0375591516494751
1783152125406939600,3.948939697265625,0.06722259521484375,0.12117767333984375,-0.00522458553314209
1783152125416644400,3.958644287109375,0.06792354583740234,0.06978416442871094,0.014302372932434082
1783152125426348800,3.968348876953125,0.06393909454345703,0.045256614685058594,0.01078951358795166
1783152125436053500,3.978053466796875,0.07185649871826172,0.02827167510986328,0.005782127380371094
1783152125445758000,3.987758056640625,0.05376720428466797,0.021137714385986328,-0.005432724952697754
1783152125455493000,3.9974931640625,0.05966663360595703,0.004605770111083984,0.000910639762878418
1783152125465197800,4.00719775390625,0.0728464126586914,-0.016713619232177734,-0.0060263872146606445
1783152125474902300,4.01690234375,0.07912731170654297,-0.026405811309814453,-0.007209300994873047
1783152125484607000,4.02660693359375,0.0998849868774414,-0.034410953521728516,0.0037637948989868164
1783152125494342100,4.036342041015625,0.0854196548461914,-0.05253171920776367,0.009609818458557129
1783152125504046600,4.046046630859375,0.0291748046875,-0.052242279052734375,-0.0015935897827148438
1783152125513751300,4.055751220703125,0.002227783203125,-0.054648399353027344,-0.034095168113708496
1783152125523455700,4.065455810546875,-0.038458824157714844,-0.05927419662475586,-0.05681121349334717
1783152125533191000,4.07519091796875,-0.08578300476074219,-0.060868263244628906,-0.07168972492218018
1783152125542895600,4.0848955078125,-0.08090877532958984,-0.06629705429077148,-0.05976593494415283
1783152125552600000,4.09460009765625,-0.053020477294921875,-0.0659480094909668,-0.04965329170227051
1783152125562304800,4.1043046875,-0.02834796905517578,-0.0741724967956543,-0.06052219867706299
1783152125572039700,4.114039794921875,-0.00183868408203125,-0.08665990829467773,-0.04724478721618652
1783152125581744400,4.123744384765625,0.024202346801757812,-0.10127544403076172,-0.0390164852142334
1783152125591449000,4.133448974609375,0.02393054962158203,-0.08754634857177734,-0.06442749500274658
1783152125601153500,4.143153564453125,0.023772239685058594,-0.07437801361083984,-0.04993927478790283
1783152125610858200,4.152858154296875,-0.009352684020996094,-0.09203863143920898,-0.03361093997955322
1783152125620593200,4.16259326171875,-0.041909217834472656,-0.0976419448852539,-0.02220940589904785
1783152125630328300,4.172328369140625,-0.052959442138671875,-0.10503005981445312,-0.046009063720703125
1783152125640033000,4.182032958984375,-0.06184196472167969,-0.09979581832885742,-0.06694149971008301
1783152125649737500,4.191737548828125,-0.04754066467285156,-0.11031770706176758,-0.06215775012969971
1783152125659472600,4.20147265625,-0.01287078857421875,-0.10799646377563477,-0.06288349628448486
1783152125669177300,4.21117724609375,0.018402099609375,-0.10971212387084961,-0.021940946578979492
1783152125678881800,4.2208818359375,0.06304931640625,-0.10165739059448242,0.006008505821228027
1783152125688586500,4.23058642578125,0.10445308685302734,-0.11941814422607422,0.061503052711486816
1783152125698321400,4.2403212890625,0.12639999389648438,-0.13225841522216797,0.08079302310943604
1783152125708026000,4.250026123046875,0.14346981048583984,-0.12641382217407227,0.07635152339935303
1783152125717730800,4.259730712890625,0.1393108367919922,-0.11874914169311523,0.06729352474212646
1783152125727435300,4.269435302734375,0.11205101013183594,-0.10718631744384766,0.04184269905090332
1783152125737170400,4.27917041015625,0.12794971466064453,-0.0777750015258789,-0.009513258934020996
1783152125746875000,4.288875,0.2002410888671875,-0.047287940979003906,-0.021687626838684082
1783152125756579600,4.29857958984375,0.19841289520263672,-0.05802726745605469,0.008263468742370605
1783152125766284300,4.3082841796875,0.21053409576416016,-0.06184530258178711,0.06081986427307129
1783152125775988700,4.31798876953125,0.2481861114501953,-0.03739738464355469,0.12038624286651611
1783152125785724000,4.327723876953125,0.29931163787841797,-0.06511163711547852,0.17402780055999756
1783152125795428400,4.337428466796875,0.3689537048339844,-0.07192564010620117,0.227980375289917
1783152125805133000,4.347133056640625,0.4171409606933594,-0.04233694076538086,0.2377699613571167
1783152125814837800,4.356837646484375,0.44126033782958984,-0.005856513977050781,0.20118248462677002
1783152125824572700,4.36657275390625,0.44252967834472656,0.00681304931640625,0.20688700675964355
1783152125834277400,4.37627734375,0.39473533630371094,0.04572582244873047,0.22302138805389404
1783152125843981800,4.38598193359375,0.3170490264892578,0.06086397171020508,0.23549795150756836
1783152125853686500,4.3956865234375,0.2618560791015625,0.08864402770996094,0.2616952657699585
1783152125863421700,4.405421630859375,0.19307708740234375,0.0938725471496582,0.27845412492752075
1783152125873126100,4.415126220703125,0.105712890625,0.09635305404663086,0.30111366510391235
1783152125882830800,4.424830810546875,0.04988384246826172,0.09880542755126953,0.31617432832717896
1783152125892535300,4.434535400390625,0.01826000213623047,0.0895071029663086,0.3217000365257263
1783152125902270500,4.4442705078125,-0.03708648681640625,0.04722929000854492,0.3152163624763489
1783152125912005600,4.454005615234375,-0.10187530517578125,0.02231121063232422,0.31332820653915405
1783152125921710000,4.4637099609375,-0.15472126007080078,0.005350589752197266,0.27033698558807373
1783152125931414800,4.473414794921875,-0.224517822265625,-0.02719879150390625,0.23386383056640625
1783152125941119500,4.483119384765625,-0.2612886428833008,-0.0678110122680664,0.18484127521514893
1783152125950854400,4.4928544921875,-0.2819786071777344,-0.09464550018310547,0.11142879724502563
1783152125960559000,4.50255908203125,-0.2581300735473633,-0.11952924728393555,0.032330214977264404
1783152125970263600,4.512263671875,-0.2424793243408203,-0.15425920486450195,-0.05271589756011963
1783152125979968300,4.52196826171875,-0.21318721771240234,-0.1803274154663086,-0.11988580226898193
1783152125989703400,4.531703369140625,-0.1460895538330078,-0.2103252410888672,-0.15024060010910034
1783152125999407900,4.541407958984375,-0.0935831069946289,-0.2305607795715332,-0.18791425228118896
1783152126009112600,4.551112548828125,-0.07240962982177734,-0.2364192008972168,-0.22223711013793945
1783152126018817000,4.560817138671875,-0.07067298889160156,-0.23982477188110352,-0.2565433979034424
1783152126028552200,4.57055224609375,-0.0909271240234375,-0.25953149795532227,-0.2883845567703247
1783152126038257000,4.5802568359375,-0.06895160675048828,-0.27100706100463867,-0.28624212741851807
1783152126047961300,4.58996142578125,-0.036037445068359375,-0.28338050842285156,-0.3141227960586548
1783152126057666000,4.599666015625,-0.03274822235107422,-0.2750124931335449,-0.33496057987213135
1783152126067370500,4.60937060546875,0.027338027954101562,-0.2964944839477539,-0.311275839805603
1783152126077105700,4.619105712890625,0.111053466796875,-0.3147916793823242,-0.26356256008148193
1783152126086810400,4.628810302734375,0.21613407135009766,-0.30893421173095703,-0.23810458183288574
1783152126096514800,4.638514892578125,0.30903148651123047,-0.25531625747680664,-0.19576025009155273
1783152126106219500,4.648219482421875,0.3184089660644531,-0.24054241180419922,-0.1537644863128662
1783152126115954700,4.65795458984375,0.3213338851928711,-0.22922754287719727,-0.06039273738861084
1783152126125659100,4.6676591796875,0.3065061569213867,-0.23404455184936523,-0.0643836259841919
1783152126135363800,4.67736376953125,0.2671670913696289,-0.21007680892944336,-0.12421345710754395
1783152126145068300,4.687068359375,0.2293682098388672,-0.16666889190673828,-0.2242586612701416
1783152126154803500,4.696803466796875,0.19718265533447266,-0.09370803833007812,-0.29536914825439453
1783152126164508200,4.706508056640625,0.11507987976074219,-0.05748748779296875,-0.36650824546813965
1783152126174212600,4.716212646484375,0.04716968536376953,-0.038222312927246094,-0.3857966661453247
1783152126183917300,4.725917236328125,-0.011494636535644531,-0.028370380401611328,-0.377025842666626
1783152126193652200,4.73565234375,-0.018144607543945312,-0.020378589630126953,-0.31601691246032715
1783152126203387400,4.745387451171875,-0.008780479431152344,-0.04981040954589844,-0.23576724529266357
1783152126213092000,4.755092041015625,-0.01930522918701172,-0.059012413024902344,-0.16436433792114258
1783152126222796500,4.764796630859375,0.015036582946777344,-0.07689619064331055,-0.10080838203430176
1783152126232501200,4.774501220703125,0.04913330078125,-0.11826515197753906,-0.0227663516998291
1783152126242236400,4.784236328125,0.09281730651855469,-0.14057207107543945,0.031477928161621094
1783152126251940900,4.79394091796875,0.1316671371459961,-0.12964153289794922,0.06596851348876953
1783152126261645600,4.8036455078125,0.1083364486694336,-0.12609481811523438,0.09465301036834717
1783152126271350000,4.81335009765625,0.05169486999511719,-0.16328668594360352,0.10390150547027588
1783152126281085200,4.823085205078125,-0.0023784637451171875,-0.17175722122192383,0.07753455638885498
1783152126290790000,4.832789794921875,-0.0969858169555664,-0.1822662353515625,-0.0054465532302856445
1783152126310199000,4.852198974609375,-0.2671175003051758,-0.15108919143676758,-0.1563730239868164
1783152126329638700,4.871638671875,-0.3113365173339844,-0.12591028213500977,-0.18485474586486816
1783152126339343400,4.88134326171875,-0.29773807525634766,-0.133209228515625,-0.12424123287200928
1783152126349047800,4.8910478515625,-0.2597980499267578,-0.15872621536254883,-0.06227302551269531
1783152126358752500,4.90075244140625,-0.16351032257080078,-0.2318415641784668,-0.004656314849853516
1783152126368487400,4.9104873046875,-0.04212474822998047,-0.19783735275268555,0.012931108474731445
1783152126378192100,4.920192138671875,0.06167316436767578,-0.1366443634033203,-0.06072044372558594
1783152126387896800,4.929896728515625,0.23685264587402344,-0.12359428405761719,-0.14477813243865967
1783152126397601300,4.939601318359375,0.31940460205078125,-0.13407087326049805,-0.18479478359222412
1783152126407336400,4.94933642578125,0.3297138214111328,-0.15074682235717773,-0.13479650020599365
1783152126417041000,4.959041015625,0.2997894287109375,-0.17724084854125977,-0.05578172206878662
1783152126426745600,4.96874560546875,0.2990264892578125,-0.16352558135986328,-0.03126978874206543
1783152126436450300,4.9784501953125,0.27425193786621094,-0.12322044372558594,-0.06954777240753174
1783152126446185200,4.988185302734375,0.20556068420410156,-0.09096813201904297,-0.1267688274383545
1783152126455890000,4.997889892578125,0.12567996978759766,-0.0653376579284668,-0.1486903429031372
1783152126465594400,5.007594482421875,0.009922027587890625,-0.07339191436767578,-0.12593162059783936
1783152126475299000,5.017299072265625,-0.18339824676513672,-0.029076576232910156,-0.06517314910888672
1783152126485034200,5.0270341796875,-0.3785877227783203,0.0075130462646484375,-0.00045299530029296875
1783152126494769400,5.036769287109375,-0.4827003479003906,0.07317686080932617,0.06170856952667236
1783152126504473900,5.046473876953125,-0.46689605712890625,0.086334228515625,0.13525736331939697
1783152126514178600,5.056178466796875,-0.36435508728027344,0.10344600677490234,0.13458716869354248
1783152126523913500,5.06591357421875,-0.17947959899902344,0.10405158996582031,0.12065649032592773
1783152126533618200,5.0756181640625,-0.019458770751953125,0.09379005432128906,0.06398224830627441
1783152126543323000,5.085322998046875,0.06600666046142578,0.11438608169555664,0.009657144546508789
1783152126553027300,5.09502734375,0.1563739776611328,0.14532709121704102,-0.005500674247741699
1783152126562732000,5.10473193359375,0.19220352172851562,0.12872934341430664,0.08437633514404297
1783152126572467000,5.114467041015625,0.03431224822998047,0.15233564376831055,0.13122820854187012
1783152126582171600,5.124171630859375,-0.19358158111572266,0.24207830429077148,0.12490767240524292
1783152126591876000,5.1338759765625,-0.29056549072265625,0.29554319381713867,0.05979764461517334
1783152126601580800,5.143580810546875,-0.29988670349121094,0.30829572677612305,0.05459320545196533
1783152126611316000,5.15331591796875,-0.2845945358276367,0.2888832092285156,0.11035668849945068
1783152126621020400,5.1630205078125,-0.35073089599609375,0.3105912208557129,0.14899826049804688
1783152126630725000,5.17272509765625,-0.37175559997558594,0.30229616165161133,0.17365658283233643
1783152126640429600,5.1824296875,-0.24936676025390625,0.3709688186645508,0.22688883543014526
1783152126650164700,5.192164794921875,-1.2143745422363281,1.9324889183044434,-0.9915117621421814
1783152126659869400,5.201869384765625,-1.6248912811279297,2.331913471221924,-1.6343719959259033
1783152126669574000,5.211573974609375,0.19797229766845703,-0.11976814270019531,-0.6411714553833008
1783152126679276000,5.221276123046875,1.930293083190918,-0.36678504943847656,0.7441308498382568
1783152126688980500,5.23098046875,1.4721450805664062,-0.9664230346679688,1.2535626888275146
1783152126698715600,5.240715576171875,0.4585294723510742,-0.8438692092895508,0.943942666053772
1783152126708420400,5.25042041015625,-0.11890602111816406,-0.2799568176269531,0.6649070382118225
1783152126718124800,5.260124755859375,0.06995677947998047,-0.2514786720275879,0.8325932025909424
1783152126727829500,5.26982958984375,0.18625259399414062,-0.29775094985961914,1.0054011344909668
1783152126737564700,5.279564697265625,0.09103965759277344,0.13853120803833008,0.7560673952102661
1783152126747269000,5.28926904296875,0.30228137969970703,-0.12244892120361328,0.939308226108551
1783152126756973800,5.298973876953125,0.17317962646484375,-0.4754328727722168,1.1261435747146606
1783152126766678300,5.30867822265625,-0.1148538589477539,-0.30513453483581543,0.8878989219665527
1783152126776413400,5.318413330078125,-0.04965019226074219,-0.06773543357849121,0.5792293548583984
1783152126786148600,5.328148681640625,0.19932937622070312,-0.044815778732299805,0.38088613748550415
1783152126795853000,5.33785302734375,0.36424732208251953,-0.11527276039123535,0.23357421159744263
1783152126805557800,5.347557861328125,0.4284181594848633,-0.10294604301452637,0.02453148365020752
1783152126815293000,5.35729296875,0.2942161560058594,-0.0753931999206543,-0.11675649881362915
1783152126824997400,5.366997314453125,0.0021524429321289062,-0.08139300346374512,-0.178089439868927
1783152126834702000,5.3767021484375,-0.14978408813476562,-0.1353304386138916,-0.19080650806427002
1783152126844406500,5.386406494140625,-0.2270660400390625,-0.13980603218078613,-0.21386057138442993
1783152126854111200,5.396111328125,-0.33281898498535156,-0.1801764965057373,-0.26408374309539795
1783152126863846400,5.405846435546875,-0.4360504150390625,-0.24412107467651367,-0.2671104669570923
1783152126873550800,5.41555078125,-0.5991125106811523,-0.2591996192932129,-0.279982328414917
1783152126883255600,5.425255615234375,-0.6528396606445312,-0.17182397842407227,-0.3640332818031311
1783152126892960000,5.4349599609375,-0.4785623550415039,-0.019670724868774414,-0.43159085512161255
1783152126902695200,5.444695068359375,-0.39952850341796875,0.07103610038757324,-0.4612106680870056
1783152126912400000,5.45439990234375,-0.2672290802001953,0.02561640739440918,-0.4702564477920532
1783152126922104300,5.464104248046875,-0.15224266052246094,-0.06983327865600586,-0.43639183044433594
1783152126931809000,5.47380908203125,-0.007777214050292969,-0.09397029876708984,-0.43962836265563965
1783152126941544000,5.4835439453125,0.2295246124267578,-0.03318166732788086,-0.4354158639907837
1783152126960953300,5.502953369140625,0.44191551208496094,-0.05766153335571289,-0.3314927816390991
1783152126970657800,5.51265771484375,0.28896141052246094,-0.03397011756896973,-0.2933000326156616
1783152126990097400,5.532097412109375,-0.07549285888671875,0.12801647186279297,-0.36937081813812256
1783152126999802000,5.541802001953125,-0.1595783233642578,0.22425150871276855,-0.47497987747192383
1783152127009506800,5.5515068359375,-0.12441539764404297,0.3084602355957031,-0.4810645580291748
1783152127019211300,5.561211181640625,-0.1191854476928711,0.2731904983520508,-0.3718951940536499
1783152127028946400,5.570946533203125,-0.22022724151611328,0.12443256378173828,-0.2178705930709839
1783152127038651000,5.58065087890625,-0.21690940856933594,-0.015420913696289062,-0.044936954975128174
1783152127048355600,5.59035546875,-0.09261703491210938,-0.0366206169128418,0.003028392791748047
1783152127058090800,5.6000908203125,0.02851390838623047,-0.007068157196044922,0.02839791774749756
1783152127067826000,5.609825927734375,0.19027423858642578,-0.012244701385498047,0.05684316158294678
1783152127077530400,5.6195302734375,0.336273193359375,-0.10231208801269531,0.0752558708190918
1783152127087235000,5.629235107421875,0.5992937088012695,-0.10385370254516602,0.06339395046234131
1783152127096939500,5.638939453125,0.6133155822753906,-0.10278844833374023,0.05528378486633301
1783152127106674700,5.6486748046875,0.6046485900878906,-0.12833309173583984,0.09907913208007812
1783152127116379100,5.658379150390625,0.6190195083618164,-0.1052558422088623,0.09006690979003906
1783152127126083800,5.668083740234375,0.5414485931396484,-0.021802425384521484,0.09675514698028564
1783152127135788500,5.67778857421875,0.3142738342285156,0.013104438781738281,0.09399974346160889
1783152127145523500,5.6875234375,0.12337112426757812,0.00135040283203125,0.10638213157653809
1783152127155228200,5.697228271484375,0.010607719421386719,0.033667564392089844,0.05489969253540039
1783152127164932600,5.7069326171875,-0.19450092315673828,0.09272384643554688,-0.0028095245361328125
1783152127174637300,5.71663720703125,-0.35375213623046875,0.08222007751464844,-0.002667665481567383
1783152127184342000,5.726342041015625,-0.5229072570800781,0.12366771697998047,-0.00272524356842041
1783152127194077000,5.736076904296875,-0.6170320510864258,0.18347978591918945,0.0025893449783325195
1783152127203781600,5.74578173828125,-0.6208209991455078,0.2186141014099121,0.041462063789367676
1783152127213486000,5.755486083984375,-0.5377969741821289,0.2710561752319336,0.06450307369232178
1783152127223190800,5.765190673828125,-0.49708080291748047,0.3405623435974121,0.09257733821868896
1783152127232926000,5.774926025390625,-0.4737071990966797,0.2657461166381836,0.20235717296600342
1783152127242630400,5.78463037109375,-0.3804893493652344,0.1503162384033203,0.30839526653289795
1783152127252335000,5.794335205078125,-0.2573127746582031,0.11915254592895508,0.3157076835632324
1783152127262039600,5.80403955078125,-0.2274951934814453,0.14392566680908203,0.24319779872894287
1783152127271744300,5.813744140625,-0.1636972427368164,0.14661073684692383,0.16424298286437988
1783152127281479400,5.8234794921875,-0.13507366180419922,0.1192164421081543,0.10532224178314209
1783152127291183900,5.833183837890625,-0.11320972442626953,0.09049463272094727,0.056787967681884766
1783152127300888600,5.842888671875,-0.2729673385620117,0.09955644607543945,-0.049666762351989746
1783152127310623700,5.852623779296875,-0.4542427062988281,0.08998632431030273,-0.1456136703491211
1783152127320328200,5.862328125,-0.5115842819213867,0.0460209846496582,-0.24609804153442383
1783152127330033000,5.872032958984375,-0.5391254425048828,0.05493593215942383,-0.31622815132141113
1783152127339767800,5.881767822265625,-0.4853343963623047,0.08699893951416016,-0.3797658681869507
1783152127349472500,5.891472412109375,-0.42742443084716797,0.14288711547851562,-0.40313076972961426
1783152127359207700,5.901207763671875,-0.4251976013183594,0.19430255889892578,-0.3028322458267212
1783152127368912100,5.910912109375,-0.34169864654541016,0.17128849029541016,-0.1503363847732544
1783152127378616800,5.920616943359375,-0.1688385009765625,0.07018375396728516,0.011998176574707031
1783152127388321300,5.9303212890625,0.08459758758544922,0.04683375358581543,0.10844027996063232
1783152127398056400,5.940056396484375,0.24002456665039062,0.01798701286315918,0.13056600093841553
1783152127407761200,5.94976123046875,0.25277233123779297,-0.007900476455688477,0.11849439144134521
1783152127417465600,5.959465576171875,0.17311668395996094,0.019780397415161133,0.06553125381469727
1783152127427170300,5.96917041015625,0.11360740661621094,0.017466068267822266,0.018695473670959473
1783152127436905500,5.978905517578125,0.11472606658935547,0.025934457778930664,-0.04062020778656006
1783152127446610000,5.98860986328125,0.1238870620727539,0.05923104286193848,-0.09588050842285156
1783152127456314600,5.998314697265625,0.10097122192382812,0.07335472106933594,-0.11053502559661865
1783152127466019000,6.00801904296875,0.1492013931274414,0.03393077850341797,-0.04066061973571777
1783152127485459000,6.027458984375,0.2343292236328125,0.07423853874206543,-0.002674698829650879
1783152127495163400,6.037163330078125,0.24923229217529297,0.14650487899780273,-0.036206603050231934
1783152127504868000,6.0468681640625,0.2029552459716797,0.1702122688293457,-0.06568801403045654
1783152127524307700,6.0663076171875,-0.05373859405517578,0.10880064964294434,-0.07086992263793945
1783152127534012400,6.076012451171875,-0.02535724639892578,0.1278672218322754,-0.07092714309692383
1783152127543716900,6.085716796875,-0.008915901184082031,0.19482874870300293,-0.12222278118133545
1783152127553421600,6.095421630859375,0.0026645660400390625,0.20221710205078125,-0.10350751876831055
1783152127563156500,6.105156494140625,0.011753082275390625,0.17404961585998535,-0.05118143558502197
1783152127572861200,6.114861083984375,-0.0008230209350585938,0.18924427032470703,-0.0254136323928833
1783152127582566000,6.12456591796875,0.029550552368164062,0.20930862426757812,-0.006911873817443848
1783152127592270300,6.134270263671875,0.06444644927978516,0.22239232063293457,-0.015305042266845703
1783152127602005500,6.144005615234375,0.10229206085205078,0.22066593170166016,-0.0033341646194458008
1783152127611710000,6.1537099609375,0.03338146209716797,0.22171902656555176,0.01479637622833252
1783152127621414700,6.16341455078125,0.01966094970703125,0.18324017524719238,0.019606471061706543
1783152127631149800,6.17314990234375,0.10981178283691406,0.17853522300720215,0.0072519779205322266
1783152127640854300,6.182854248046875,0.1797809600830078,0.18316435813903809,0.0005420446395874023
1783152127650589400,6.19258935546875,0.24645519256591797,0.1754293441772461,-0.012956857681274414
1783152127660294100,6.202294189453125,0.2725381851196289,0.12185287475585938,-0.01460731029510498
1783152127669998600,6.21199853515625,0.3061552047729492,0.06464934349060059,-0.004261493682861328
1783152127679703300,6.221703369140625,0.28617000579833984,0.01756119728088379,0.0036913156509399414
1783152127689438500,6.2314384765625,0.23209381103515625,-0.009672403335571289,0.004392266273498535
1783152127699143000,6.241142822265625,0.14190673828125,-0.02159571647644043,-0.0422588586807251
1783152127708847600,6.25084765625,0.05377006530761719,-0.034651994705200195,-0.07174575328826904
1783152127718552000,6.260552001953125,-0.006710052490234375,-0.0787804126739502,-0.07012724876403809
1783152127728287200,6.270287353515625,-0.06163597106933594,-0.07955002784729004,-0.08793699741363525
1783152127737992000,6.279991943359375,-0.15610504150390625,-0.07934117317199707,-0.08952605724334717
1783152127747696400,6.2896962890625,-0.21879959106445312,-0.11794710159301758,-0.03838706016540527
1783152127757401000,6.299401123046875,-0.20806312561035156,-0.15889334678649902,-0.019696474075317383
1783152127767136000,6.309135986328125,-0.2195148468017578,-0.15004730224609375,-0.0551149845123291
1783152127776840700,6.3188408203125,-0.21581459045410156,-0.13425850868225098,-0.06974363327026367
1783152127786545200,6.328545166015625,-0.16268634796142578,-0.13367366790771484,-0.07749831676483154
1783152127796249900,6.338249755859375,-0.08630943298339844,-0.15371274948120117,-0.062436819076538086
1783152127805954600,6.34795458984375,-0.053336143493652344,-0.1424415111541748,-0.024883151054382324
1783152127815689500,6.357689453125,-0.079925537109375,-0.16996407508850098,0.01677858829498291
1783152127825394200,6.367394287109375,-0.08450889587402344,-0.17927765846252441,0.03738880157470703
1783152127835098600,6.3770986328125,-0.09593868255615234,-0.15582489967346191,0.02720654010772705
1783152127844803300,6.38680322265625,-0.11918258666992188,-0.11358952522277832,-0.009377598762512207
1783152127854538500,6.39653857421875,-0.13295650482177734,-0.08556795120239258,-0.02003788948059082
1783152127864243000,6.406242919921875,-0.1707935333251953,-0.06912446022033691,-0.038329243659973145
1783152127873947600,6.41594775390625,-0.16345691680908203,-0.04972338676452637,-0.040024399757385254
1783152127883652000,6.425652099609375,-0.16119384765625,-0.02500152587890625,-0.027647733688354492
1783152127893387300,6.43538720703125,-0.1453094482421875,0.0027747154235839844,-0.015777111053466797
1783152127903092000,6.445092041015625,-0.13025760650634766,0.031123876571655273,-0.005217075347900391
1783152127912827100,6.4548271484375,-0.14417648315429688,0.05537295341491699,0.002218008041381836
1783152127922531600,6.464531494140625,-0.13233089447021484,0.06355738639831543,0.011930227279663086
1783152127932266800,6.474266845703125,-0.06685543060302734,0.07709550857543945,-0.011142134666442871
1783152127941971200,6.48397119140625,0.00447845458984375,0.12595152854919434,-0.015223383903503418
1783152127951676000,6.493676025390625,-0.01694774627685547,0.10281229019165039,0.029781997203826904
1783152127961380600,6.503380615234375,-0.04227447509765625,0.04374432563781738,0.12117677927017212
1783152127971085000,6.5130849609375,-0.09516429901123047,0.02035689353942871,0.1710669994354248
1783152127980820200,6.5228203125,-0.1260061264038086,0.030353784561157227,0.1707289218902588
1783152127990524700,6.532524658203125,-0.1660604476928711,0.0245821475982666,0.16142451763153076
1783152128000229400,6.5422294921875,-0.16826438903808594,0.010882377624511719,0.1320776343345642
1783152128009933800,6.551933837890625,-0.1332540512084961,0.012950658798217773,0.05260056257247925
1783152128019669000,6.5616689453125,-0.08503341674804688,0.03963208198547363,-0.04083520174026489
1783152128029373700,6.571373779296875,-0.014089584350585938,0.06378507614135742,-0.1153152585029602
1783152128039078100,6.581078125,0.008954048156738281,0.04681134223937988,-0.1317138671875
1783152128048782800,6.590782958984375,0.06042194366455078,0.021549224853515625,-0.10582238435745239
1783152128058518000,6.60051806640625,0.08085155487060547,0.04467320442199707,-0.11055928468704224
1783152128068222500,6.610222412109375,0.044658660888671875,0.07576918601989746,-0.12702292203903198
1783152128077927200,6.61992724609375,0.04446601867675781,0.06571030616760254,-0.1282220482826233
1783152128087631600,6.629631591796875,0.03950691223144531,0.04632735252380371,-0.1232098937034607
1783152128097336300,6.63933642578125,0.06046772003173828,0.04387807846069336,-0.12061679363250732
1783152128107071500,6.649071533203125,0.1492443084716797,0.04883265495300293,-0.10116714239120483
1783152128116776000,6.65877587890625,0.194091796875,0.05634808540344238,-0.05120569467544556
1783152128126480600,6.668480712890625,0.22886371612548828,0.03789019584655762,-0.01773601770401001
1783152128136185000,6.67818505859375,0.26099300384521484,0.0004968643188476562,0.014044642448425293
1783152128145920300,6.687920166015625,0.2789182662963867,-0.004108905792236328,-0.0005042552947998047
1783152128155625000,6.697625,0.2830324172973633,-0.01684403419494629,-0.01573389768600464
1783152128165329400,6.707329345703125,0.2995719909667969,-0.030834436416625977,-0.02009868621826172
1783152128175034000,6.7170341796875,0.232757568359375,-0.027692079544067383,-0.02161771059036255
1783152128184769300,6.726769287109375,0.14328384399414062,-0.018672943115234375,-0.05019193887710571
1783152128194473700,6.7364736328125,0.0675802230834961,-0.029668807983398438,-0.049197614192962646
1783152128204209000,6.746208984375,-0.01137542724609375,-0.03149724006652832,-0.052698493003845215
1783152128223618000,6.7656181640625,-0.15650558471679688,-0.010434150695800781,-0.08636724948883057
1783152128233353200,6.775353271484375,-0.19501686096191406,-0.02468562126159668,-0.08812236785888672
1783152128243057700,6.7850576171875,-0.2098979949951172,-0.028148651123046875,-0.08350473642349243
1783152128252762400,6.794762451171875,-0.21572494506835938,-0.025490283966064453,-0.06079399585723877
1783152128272202000,6.814201904296875,-0.14529895782470703,-0.04276227951049805,-0.042031288146972656
1783152128281906700,6.82390673828125,-0.056862831115722656,-0.05407881736755371,-0.029070913791656494
1783152128291611100,6.833611083984375,0.009074211120605469,-0.02567315101623535,-0.04500269889831543
1783152128301315800,6.84331591796875,0.07451629638671875,0.0030891895294189453,-0.04670339822769165
1783152128311051000,6.853051025390625,0.23890018463134766,-0.05392789840698242,-0.02469426393508911
1783152128320755500,6.86275537109375,0.38073253631591797,-0.04325103759765625,0.037242889404296875
1783152128330460200,6.872460205078125,0.3286895751953125,-0.025252580642700195,0.06680816411972046
1783152128340164600,6.88216455078125,0.22353458404541016,-0.0525660514831543,0.11305582523345947
1783152128359604500,6.9016044921875,-0.027312278747558594,-0.07251739501953125,0.1516088843345642
1783152128369309000,6.911308837890625,-0.18723583221435547,0.0024912357330322266,0.0673757791519165
1783152128379013600,6.921013671875,-0.3314704895019531,0.042939186096191406,-0.005912661552429199
1783152128388748500,6.93074853515625,-0.39836788177490234,0.0069332122802734375,-0.002961575984954834
1783152128398453200,6.940453369140625,-0.38602447509765625,0.012208938598632812,-0.012337863445281982
1783152128408158000,6.950157958984375,-0.29705333709716797,0.04892992973327637,-0.03280073404312134
1783152128417862400,6.9598623046875,-0.18140602111816406,0.051416873931884766,-0.015547037124633789
1783152128427567000,6.969567138671875,-0.06725788116455078,0.0063397884368896484,0.026565492153167725
1783152128437302000,6.979302001953125,0.034272193908691406,-0.016474485397338867,0.04583090543746948
1783152128447006700,6.9890068359375,0.09528923034667969,-0.01871490478515625,0.04972493648529053
1783152128456711200,6.998711181640625,0.15700054168701172,-0.03497600555419922,0.05570155382156372
1783152128466415900,7.008415771484375,0.16712188720703125,-0.041817426681518555,0.07361102104187012
1783152128485886200,7.02788623046875,0.10199451446533203,-0.03587603569030762,0.05608093738555908
1783152128495590700,7.037590576171875,0.06949424743652344,-0.04126453399658203,0.054666221141815186
1783152128505295400,7.04729541015625,0.030292510986328125,-0.05456376075744629,0.03966289758682251
1783152128515030300,7.0570302734375,-0.0014944076538085938,-0.02756214141845703,0.015396654605865479
1783152128524735000,7.06673486328125,-0.07387351989746094,-0.024151325225830078,0.0011096596717834473
1783152128534439700,7.076439697265625,-0.11037158966064453,-0.02280426025390625,0.006407380104064941
1783152128544144100,7.08614404296875,-0.13037586212158203,-0.05645418167114258,-0.00002580881118774414
1783152128553879300,7.09587939453125,-0.1412353515625,-0.04848933219909668,-0.002139151096343994
1783152128563583700,7.105583740234375,-0.13358402252197266,-0.020196199417114258,-0.021798133850097656
1783152128573288400,7.115288330078125,-0.13652801513671875,-0.021383047103881836,-0.029628455638885498
1783152128582993200,7.1249931640625,-0.09514808654785156,-0.012230873107910156,-0.012045681476593018
1783152128592697600,7.134697509765625,-0.08988666534423828,-0.019311904907226562,0.0007413029670715332
1783152128602432800,7.144432861328125,-0.03737163543701172,-0.026703834533691406,0.02151733636856079
1783152128612137200,7.15413720703125,-0.01839733123779297,-0.0345921516418457,0.04224759340286255
1783152128621842000,7.163842041015625,-0.02778911590576172,-0.031081199645996094,0.03867453336715698
1783152128631546600,7.173546630859375,-0.015783309936523438,-0.027934789657592773,0.0345497727394104
1783152128641281500,7.183281494140625,-0.0463714599609375,-0.01786327362060547,0.0015518665313720703
1783152128650986200,7.192986328125,-0.029338836669921875,-0.02693963050842285,-0.014718711376190186
1783152128660690700,7.202690673828125,-0.00555419921875,-0.03350067138671875,-0.014387965202331543
1783152128670395400,7.2123955078125,-0.02227783203125,-0.025638103485107422,-0.012125194072723389
1783152128680130600,7.222130615234375,-0.029497146606445312,-0.012876033782958984,-0.0008348822593688965
1783152128689835000,7.2318349609375,-0.008479118347167969,-0.01647663116455078,0.04076451063156128
1783152128699539700,7.241539794921875,0.014439582824707031,-0.024511337280273438,0.06054133176803589
1783152128709244200,7.251244140625,0.004116058349609375,-0.006613492965698242,0.08503973484039307
1783152128718948900,7.260948974609375,0.022403717041015625,-0.010593414306640625,0.0932111144065857
1783152128728684000,7.27068408203125,0.012450218200683594,-0.005713701248168945,0.0850304365158081
1783152128738388500,7.280388427734375,0.019344329833984375,0.012728691101074219,0.10319942235946655
1783152128748093200,7.29009326171875,0.03335762023925781,0.004635810852050781,0.09534907341003418
1783152128767532800,7.30953271484375,0.007760047912597656,-0.0005486011505126953,0.07632893323898315
1783152128777268000,7.31926806640625,0.010609626770019531,0.01666712760925293,0.05562502145767212
1783152128786972400,7.328972412109375,0.0086212158203125,0.029024124145507812,0.027964234352111816
1783152128796677000,7.338677001953125,-0.042858123779296875,0.03673291206359863,0.017192482948303223
1783152128806412300,7.348412353515625,-0.05350685119628906,0.0328218936920166,0.04520678520202637
1783152128816116700,7.35811669921875,-0.05696582794189453,0.02930593490600586,0.0550268292427063
1783152128825821400,7.367821533203125,-0.04859733581542969,0.030737876892089844,0.048946499824523926
1783152128835526000,7.37752587890625,-0.0709543228149414,0.032131195068359375,0.04297119379043579
1783152128845261000,7.387260986328125,-0.06940460205078125,0.0404205322265625,0.03184974193572998
1783152128854965800,7.3969658203125,-0.03973674774169922,0.01781177520751953,0.028613269329071045
1783152128864670200,7.406670166015625,-0.062331199645996094,0.016356229782104492,-0.0001442432403564453
1783152128874375000,7.416375,-0.035025596618652344,-0.004482269287109375,-0.02987992763519287
1783152128884079400,7.426079345703125,-0.012572288513183594,-0.0024547576904296875,-0.060635387897491455
1783152128893814500,7.435814453125,0.014683723449707031,-0.020612716674804688,-0.04235255718231201
1783152128903519200,7.445519287109375,0.09396553039550781,-0.035491943359375,-0.04345029592514038
1783152128913223700,7.4552236328125,0.13039112091064453,-0.019264936447143555,-0.02174311876296997
1783152128922928400,7.464928466796875,0.13181209564208984,-0.024417638778686523,-0.001440584659576416
1783152128942368000,7.484367919921875,0.13722801208496094,-0.000997781753540039,0.13310450315475464
1783152128952072700,7.49407275390625,0.08432769775390625,0.013404369354248047,0.14152687788009644
1783152128961777200,7.503777099609375,0.011598587036132812,-0.011542558670043945,-0.010721743106842041
1783152128971512300,7.51351220703125,-0.19629764556884766,-0.02270197868347168,-0.3007219433784485
1783152128981217000,7.523217041015625,-0.4833250045776367,-0.014666557312011719,-0.5395765900611877
1783152128990921500,7.53292138671875,-0.5934791564941406,0.1545553207397461,-0.7391934394836426
1783152129000626200,7.542626220703125,-0.4384498596191406,0.2709202766418457,-0.6906891465187073
1783152129010361000,7.552361083984375,-0.3484048843383789,0.3054342269897461,-0.5234413743019104
1783152129020065800,7.562065673828125,-0.695042610168457,0.14785408973693848,-0.18792873620986938
1783152129029770500,7.5717705078125,-0.8947687149047852,0.12978196144104004,-0.06358581781387329
1783152129039475000,7.581474853515625,-0.6857786178588867,0.08851432800292969,0.06427761912345886
1783152129049179600,7.5911796875,-0.45549964904785156,-0.0169980525970459,0.20423325896263123
1783152129058914600,7.60091455078125,-0.46904945373535156,0.22127962112426758,0.11258025467395782
1783152129068649700,7.610649658203125,-0.9369621276855469,1.9686775207519531,-1.1220091581344604
1783152129078354400,7.6203544921875,-0.22013378143310547,1.2144041061401367,-0.7306077480316162
1783152129088059000,7.630058837890625,0.5536870956420898,-0.44933557510375977,0.43142086267471313
1783152129097794000,7.6397939453125,-0.06256771087646484,-0.40666723251342773,0.214108407497406
1783152129107498800,7.649498779296875,-0.2869558334350586,-0.28297901153564453,0.8421174883842468
1783152129117203200,7.659203125,-0.49201011657714844,-0.5646743774414062,0.8882663249969482
1783152129126908000,7.668907958984375,-0.5012722015380859,-0.5082089900970459,0.9104619026184082
1783152129136642800,7.678642822265625,-0.08758163452148438,-0.463348388671875,1.073808193206787
1783152129146347500,7.688347412109375,0.2080392837524414,-0.380629301071167,1.0358580350875854
1783152129156052200,7.69805224609375,0.45614147186279297,-0.19704651832580566,0.8381632566452026
1783152129165756700,7.707756591796875,0.6720485687255859,0.02667832374572754,0.6224530935287476
1783152129175491800,7.717491943359375,0.9253311157226562,0.11024069786071777,0.4408019185066223
1783152129185196300,7.7271962890625,1.0676822662353516,0.05217146873474121,0.3937855660915375
1783152129194901000,7.73690087890625,1.04864501953125,-0.052111148834228516,0.4006635546684265
1783152129204605700,7.746605712890625,0.8539514541625977,-0.09408950805664062,0.3324671983718872
1783152129214310100,7.75631005859375,0.6627521514892578,-0.09696364402770996,0.26048171520233154
1783152129224045300,7.76604541015625,0.5175838470458984,-0.07385945320129395,0.1984362155199051
1783152129233749800,7.775749755859375,0.35575103759765625,-0.025664329528808594,0.11902730166912079
1783152129243454500,7.785454345703125,0.15787696838378906,-0.025396347045898438,0.03433625400066376
1783152129253159200,7.7951591796875,-0.01893138885498047,-0.09128785133361816,0.007174685597419739
1783152129262894000,7.80489404296875,-0.06050300598144531,-0.12892508506774902,0.02232171595096588
1783152129272598800,7.814598876953125,0.0010576248168945312,-0.08132648468017578,0.04737740010023117
1783152129282303200,7.82430322265625,0.08164215087890625,-0.03837323188781738,0.013893313705921173
1783152129292008000,7.834008056640625,0.045119285583496094,-0.0500185489654541,-0.04479961842298508
1783152129301743000,7.8437431640625,-0.007822036743164062,-0.12127876281738281,-0.14811989665031433
1783152129311447600,7.853447509765625,0.054215431213378906,-0.15900230407714844,-0.27115145325660706
1783152129321152300,7.86315234375,0.17629623413085938,-0.15894269943237305,-0.4086143970489502
1783152129330856700,7.872856689453125,0.2482433319091797,-0.05374503135681152,-0.5331494212150574
1783152129340561400,7.8825615234375,0.24128341674804688,0.020913362503051758,-0.6264672875404358
1783152129350296600,7.892296630859375,0.19810009002685547,0.030278682708740234,-0.5808271765708923
1783152129360031500,7.902031494140625,0.15660572052001953,-0.0032949447631835938,-0.45080772042274475
1783152129369736200,7.911736083984375,0.10446929931640625,-0.0838775634765625,-0.29091063141822815
1783152129379441000,7.92144091796875,-0.037138938903808594,-0.16358375549316406,-0.15562711656093597
1783152129389175800,7.93117578125,-0.17253875732421875,-0.18263864517211914,-0.10936342179775238
1783152129398880500,7.940880615234375,-0.2733631134033203,-0.1716160774230957,-0.14931170642375946
1783152129408585000,7.9505849609375,-0.3374967575073242,-0.15395021438598633,-0.19501975178718567
1783152129418289700,7.96028955078125,-0.3605051040649414,-0.13152527809143066,-0.2696989178657532
1783152129428024800,7.97002490234375,-0.3759164810180664,-0.14252424240112305,-0.3223010301589966
1783152129437729300,7.979729248046875,-0.36214733123779297,-0.14414000511169434,-0.3545711636543274
1783152129447434000,7.98943408203125,-0.31907081604003906,-0.1583082675933838,-0.380027711391449
1783152129457138400,7.999138427734375,-0.26558971405029297,-0.16411209106445312,-0.39573901891708374
1783152129466873600,8.00887353515625,-0.1895160675048828,-0.17413806915283203,-0.39698269963264465
1783152129476578300,8.018578369140625,-0.0811452865600586,-0.17461919784545898,-0.37289872765541077
1783152129486282800,8.02828271484375,-0.00487518310546875,-0.1563875675201416,-0.3442211449146271
1783152129495987500,8.037987548828125,0.008580207824707031,-0.14873981475830078,-0.2828200161457062
1783152129505692000,8.04769189453125,0.07668876647949219,-0.1476759910583496,-0.2102127969264984
1783152129515427000,8.057427001953124,0.1590118408203125,-0.13246941566467285,-0.13892671465873718
1783152129525131800,8.0671318359375,0.1843099594116211,-0.14238190650939941,-0.07669985294342041
1783152129534836200,8.076836181640624,0.19123363494873047,-0.16377568244934082,-0.018718093633651733
1783152129544541000,8.086541015625,0.1894388198852539,-0.17301487922668457,-0.0006246566772460938
1783152129554276000,8.096276123046875,0.15987491607666016,-0.1534104347229004,0.02819022536277771
1783152129563980500,8.10598046875,0.14805030822753906,-0.13147401809692383,0.01810261607170105
1783152129573685200,8.115685302734375,0.13238906860351562,-0.09044146537780762,0.007407188415527344
1783152129583389700,8.1253896484375,0.07707023620605469,-0.06130266189575195,0.022428929805755615
1783152129593124900,8.135124755859374,0.039277076721191406,-0.03870511054992676,0.02740141749382019
1783152129602829600,8.14482958984375,-0.014684677124023438,-0.00536346435546875,0.04866158962249756
1783152129612534000,8.154533935546874,-0.07791328430175781,0.00600433349609375,0.0838240385055542
1783152129622238700,8.16423876953125,-0.1458902359008789,0.008091926574707031,0.10923418402671814
1783152129631973600,8.1739736328125,-0.1804819107055664,0.02504444122314453,0.12038543820381165
1783152129641708800,8.183708740234374,-0.17952728271484375,0.03798842430114746,0.12168639898300171
1783152129651413500,8.19341357421875,-0.18863296508789062,0.06635856628417969,0.11468616127967834
1783152129661118000,8.203117919921874,-0.2007007598876953,0.08889031410217285,0.11836853623390198
1783152129670822700,8.21282275390625,-0.1607818603515625,0.09594964981079102,0.10185474157333374
1783152129680557800,8.222557861328125,-0.1739063262939453,0.09683823585510254,0.10849127173423767
1783152129690262300,8.23226220703125,-0.21106243133544922,0.07917141914367676,0.12281608581542969
1783152129699967000,8.241967041015625,-0.15274906158447266,0.09293746948242188,0.11698660254478455
1783152129709671400,8.25167138671875,-0.13277149200439453,0.11392498016357422,0.08570396900177002
1783152129719406600,8.261406494140624,-0.11521530151367188,0.1348438262939453,0.07890242338180542
1783152129729111300,8.271111328125,-0.07502079010009766,0.11322736740112305,0.10405296087265015
1783152129738815700,8.280815673828124,-0.02838134765625,0.09408855438232422,0.0946962833404541
1783152129748520400,8.2905205078125,0.0008420944213867188,0.11550617218017578,0.07107695937156677
1783152129758255400,8.30025537109375,-0.04616737365722656,0.15625238418579102,0.03979763388633728
1783152129767960000,8.3099599609375,-0.07875537872314453,0.12686371803283691,0.0446966290473938
1783152129777664800,8.319664794921875,-0.000762939453125,0.09224367141723633,0.03445616364479065
1783152129787369200,8.329369140625,0.06592750549316406,0.07612490653991699,0.0022273212671279907
1783152129797104400,8.3391044921875,0.08173370361328125,0.04709815979003906,-0.02311207354068756
1783152129806808800,8.348808837890624,0.09261798858642578,-0.0026226043701171875,-0.007648974657058716
1783152129816513500,8.358513427734374,0.13176822662353516,-0.058953285217285156,0.022847771644592285
1783152129826218200,8.36821826171875,0.19875526428222656,-0.07253050804138184,0.05153608322143555
1783152129835922700,8.377922607421874,0.17565536499023438,-0.07041788101196289,0.08080615103244781
1783152129845657900,8.387657958984375,0.10410213470458984,-0.08847665786743164,0.10943816602230072
1783152129855362300,8.3973623046875,0.0743570327758789,-0.12174868583679199,0.1265692561864853
1783152129865067000,8.40706689453125,0.043288230895996094,-0.11331915855407715,0.12013015151023865
1783152129874771700,8.416771728515625,0.02521991729736328,-0.09790253639221191,0.09083686769008636
1783152129884506600,8.426506591796874,0.03371238708496094,-0.06882548332214355,0.10084161162376404
1783152129894211300,8.43621142578125,0.049365997314453125,-0.06372404098510742,0.08212792873382568
1783152129903915800,8.445915771484374,0.012215614318847656,-0.04821443557739258,0.06901633739471436
1783152129913620500,8.455620361328124,-0.022119522094726562,-0.07022500038146973,0.039866626262664795
1783152129923355600,8.465355712890625,0.005336761474609375,-0.07545185089111328,0.0237291157245636
1783152129933090800,8.4750908203125,-0.01694202423095703,-0.07149362564086914,0.017605915665626526
1783152129942795300,8.484795166015624,-0.03881359100341797,-0.05829596519470215,0.007133319973945618
1783152129952500000,8.4945,-0.060317039489746094,-0.07352304458618164,0.011338010430335999
1783152129962204400,8.504204345703124,-0.09340763092041016,-0.052712440490722656,0.034329548478126526
1783152129971939600,8.513939697265625,-0.13580322265625,-0.014648675918579102,0.012176617980003357
1783152129981644000,8.52364404296875,-0.17315196990966797,-0.0209195613861084,0.0051435381174087524
1783152129991348700,8.5333486328125,-0.1372518539428711,-0.016826391220092773,0.015227392315864563
1783152130001053400,8.543053466796875,-0.034122467041015625,0.03298521041870117,0.017649471759796143
1783152130010788400,8.552788330078124,-0.03171825408935547,0.02594280242919922,0.0094708651304245
1783152130020493000,8.5624931640625,0.0012254714965820312,0.016657114028930664,0.050033897161483765
1783152130030197500,8.572197509765624,0.010223388671875,-0.0022592544555664062,0.056342557072639465
1783152130039902200,8.581902099609374,-0.013643264770507812,0.013855218887329102,0.03876711428165436
1783152130049637400,8.591637451171875,-0.015577316284179688,0.00994563102722168,0.033508628606796265
1783152130059341800,8.601341796875,-0.0029401779174804688,0.012011289596557617,0.03780999779701233
1783152130069046500,8.611046630859375,-0.0019435882568359375,0.00847935676574707,0.029907166957855225
1783152130078751000,8.6207509765625,-0.014836311340332031,0.030215740203857422,0.049699172377586365
1783152130088486100,8.630486083984374,-0.06261157989501953,0.006356954574584961,0.05015206336975098
1783152130098190800,8.64019091796875,-0.02939319610595703,0.010598897933959961,0.034529924392700195
1783152130107895300,8.649895263671874,-0.02007770538330078,0.01669168472290039,0.007701322436332703
1783152130117600000,8.65960009765625,-0.010774612426757812,0.017560243606567383,-0.023525968194007874
1783152130127304400,8.669304443359374,0.024415969848632812,0.022692203521728516,-0.033248186111450195
1783152130137039600,8.67903955078125,0.021524429321289062,0.015525102615356445,-0.034063875675201416
1783152130146744300,8.688744384765625,0.025928497314453125,-0.00847315788269043,-0.028093412518501282
1783152130156448800,8.69844873046875,0.035178184509277344,-0.023261070251464844,0.005929514765739441
1783152130166153500,8.708153564453125,0.03733539581298828,-0.024004220962524414,0.008386105298995972
1783152130175888600,8.717888671875,-0.0028429031372070312,-0.02724003791809082,-0.003558918833732605
1783152130185593000,8.727593017578124,-0.05176734924316406,-0.028024911880493164,-0.02159784734249115
1783152130195297800,8.7372978515625,-0.0716390609741211,-0.021692514419555664,-0.01469007134437561
1783152130205032700,8.74703271484375,-0.060713768005371094,-0.00102996826171875,-0.035800665616989136
1783152130214767900,8.756767822265624,0.00164031982421875,0.012610435485839844,-0.05743612349033356
1783152130224472600,8.76647265625,-0.010085105895996094,0.0003523826599121094,-0.04488414525985718
1783152130234177000,8.776177001953124,-0.026378631591796875,-0.011596918106079102,-0.012257471680641174
1783152130243881700,8.7858818359375,-0.040027618408203125,-0.02340245246887207,-0.0203838050365448
1783152130253617000,8.795616943359375,-0.07920074462890625,0.01648116111755371,-0.03943513333797455
1783152130263321300,8.8053212890625,-0.07755088806152344,0.022318601608276367,-0.0402940958738327
1783152130273026000,8.815026123046875,-0.07345199584960938,0.018344640731811523,-0.023675203323364258
1783152130282730500,8.82473046875,-0.060065269470214844,0.012236356735229492,-0.02171669900417328
1783152130292435200,8.834435302734375,-0.056572914123535156,0.04452991485595703,-0.03737160563468933
1783152130302170400,8.84417041015625,-0.08179569244384766,0.046791791915893555,-0.06055709719657898
1783152130311874800,8.853874755859374,-0.055233001708984375,0.03361797332763672,-0.06655091047286987
1783152130321579500,8.86357958984375,-0.01059722900390625,0.005064725875854492,-0.06473429501056671
1783152130331284000,8.873283935546874,0.028289794921875,0.013065814971923828,-0.06709454953670502
1783152130341019100,8.88301904296875,0.07096290588378906,0.021657705307006836,-0.08801206946372986
1783152130350723800,8.892723876953125,0.0893096923828125,0.03740715980529785,-0.09901419281959534
1783152130360428300,8.90242822265625,0.12389469146728516,0.03860616683959961,-0.07910342514514923
1783152130370133000,8.912133056640625,0.1510782241821289,0.008606433868408203,-0.050117239356040955
1783152130379868200,8.9218681640625,0.18534564971923828,-0.003361225128173828,-0.011942163109779358
1783152130389572600,8.931572509765624,0.1772632598876953,-0.007230043411254883,-0.004907324910163879
1783152130399277300,8.94127734375,0.1863574981689453,0.027412891387939453,-0.028435930609703064
1783152130408981800,8.950981689453124,0.17707252502441406,0.03635430335998535,-0.03972223401069641
1783152130418717000,8.960717041015625,0.13789081573486328,0.024888038635253906,-0.034374773502349854
1783152130428421400,8.97042138671875,0.10912513732910156,0.02678847312927246,-0.02966254949569702
1783152130438126000,8.9801259765625,0.03387737274169922,0.037779808044433594,-0.021107986569404602
1783152130447830800,8.989830810546875,-0.054355621337890625,0.04421186447143555,-0.008194461464881897
1783152130457535200,8.99953515625,-0.10375785827636719,0.04193282127380371,0.005385249853134155
1783152130467270400,9.0092705078125,-0.11034107208251953,0.035991668701171875,0.022177517414093018
1783152130476974800,9.018974853515624,-0.09600353240966797,0.02407670021057129,0.030019447207450867
1783152130486679600,9.028679443359374,-0.08926200866699219,0.03198957443237305,0.03545744717121124
1783152130496414700,9.038414794921875,-0.06646728515625,0.02642822265625,0.05439978837966919
1783152130506150000,9.04814990234375,-0.04439258575439453,0.05476880073547363,0.030010759830474854
1783152130515854300,9.057854248046874,-0.020565032958984375,0.04562687873840332,0.026897266507148743
1783152130525559000,9.06755908203125,-0.011302947998046875,0.025000333786010742,0.031489863991737366
1783152130535263500,9.077263427734374,0.033310890197753906,0.0018279552459716797,0.02749161422252655
1783152130544998700,9.08699853515625,0.0633840560913086,-0.007659912109375,0.011984527111053467
1783152130554703400,9.096703369140625,0.03680133819580078,0.0009944438934326172,-0.019953206181526184
1783152130564407800,9.10640771484375,0.043959617614746094,-0.017364978790283203,-0.03277067840099335
1783152130574112500,9.116112548828125,0.027767181396484375,-0.010297536849975586,-0.029459238052368164
1783152130583817000,9.12581689453125,-0.009098052978515625,-0.018100976943969727,-0.021613895893096924
1783152130593552100,9.13555224609375,-0.007442474365234375,-0.04056668281555176,0.010281145572662354
1783152130603256800,9.1452568359375,0.008427619934082031,-0.05118083953857422,0.020942553877830505
1783152130612961300,9.154961181640624,-0.03482341766357422,-0.03568840026855469,-0.025228634476661682
1783152130622666000,9.164666015625,-0.05391216278076172,-0.0531158447265625,-0.0470217764377594
1783152130632401000,9.17440087890625,-0.06344985961914062,-0.03918790817260742,-0.05896022915840149
1783152130642105600,9.184105712890625,-0.09897708892822266,-0.04126310348510742,-0.0895019918680191
1783152130651810000,9.19381005859375,-0.06135845184326172,-0.039937496185302734,-0.08892031013965607
1783152130661514800,9.2035146484375,-0.020112991333007812,-0.03982043266296387,-0.09613798558712006
1783152130671250000,9.21325,-0.07169628143310547,-0.03170299530029297,-0.063960000872612
1783152130680954400,9.222954345703124,-0.047324180603027344,-0.06789278984069824,-0.006162077188491821
1783152130690659000,9.2326591796875,-0.035195350646972656,-0.07031607627868652,0.006424114108085632
1783152130700363500,9.242363525390624,-0.037281036376953125,-0.06357026100158691,-0.004462450742721558
1783152130710098700,9.2520986328125,-0.0014848709106445312,-0.05981040000915527,0.010659575462341309
1783152130719803400,9.261803466796875,0.012653350830078125,-0.051720380783081055,-0.0010061562061309814
1783152130729507800,9.2715078125,0.003124237060546875,-0.02992868423461914,-0.01754458248615265
1783152130739212500,9.281212646484375,0.012800216674804688,-0.0514376163482666,0.006401777267456055
1783152130748917000,9.2909169921875,-0.03629016876220703,-0.07783770561218262,0.028057381510734558
1783152130758652200,9.300652099609374,-0.018596649169921875,-0.06167268753051758,0.021008282899856567
1783152130768356900,9.31035693359375,-0.02949047088623047,-0.029175519943237305,0.003987491130828857
1783152130778092000,9.320092041015625,-0.06856822967529297,-0.03456735610961914,0.0008892863988876343
1783152130787796500,9.32979638671875,-0.09999942779541016,-0.03500175476074219,-0.0019357651472091675
1783152130797531600,9.33953173828125,-0.10027503967285156,-0.033084869384765625,0.007959559559822083
1783152130807236000,9.349236083984374,-0.07222938537597656,0.013283252716064453,0.018357068300247192
1783152130816940800,9.35894091796875,-0.07045555114746094,0.03984880447387695,0.03306417167186737
1783152130826645500,9.3686455078125,-0.08272266387939453,0.006826162338256836,0.07742992043495178
1783152130836380400,9.37838037109375,-0.0948476791381836,-0.004340410232543945,0.0919099897146225
1783152130846085000,9.388085205078125,-0.12831592559814453,0.02562117576599121,0.058226630091667175
1783152130855789600,9.39778955078125,-0.10284042358398438,0.04679989814758301,0.008761778473854065
1783152130865494300,9.407494384765625,-0.05935096740722656,0.026302337646484375,0.01734842360019684
1783152130875229400,9.4172294921875,-0.03572559356689453,0.02351856231689453,0.01227472722530365
1783152130884934000,9.426933837890624,-0.01740550994873047,0.030722379684448242,0.015077665448188782
1783152130894638600,9.436638671875,0.03351402282714844,0.00972127914428711,0.013925358653068542
1783152130904343000,9.446343017578124,0.06485366821289062,0.012325048446655273,0.019474849104881287
1783152130914047700,9.4560478515625,0.060565948486328125,0.02145862579345703,0.02415063977241516
1783152130923783000,9.465782958984375,0.06126213073730469,0.00392460823059082,0.042259544134140015
1783152130933487400,9.4754873046875,0.057526588439941406,0.0024793148040771484,0.05750542879104614
1783152130943192000,9.485192138671875,0.023469924926757812,-0.006607770919799805,0.04448927938938141
1783152130952896500,9.494896484375,0.011278152465820312,-0.004025936126708984,0.013575762510299683
1783152130962631700,9.504631591796874,0.053412437438964844,0.0008733272552490234,0.004544928669929504
1783152130972336400,9.51433642578125,0.04534912109375,0.01054692268371582,-0.018999561667442322
1783152130982040800,9.524040771484374,-0.012012481689453125,-0.012774467468261719,-0.006896495819091797
1783152130991745500,9.53374560546875,0.04677104949951172,-0.026034116744995117,0.012721985578536987
1783152131001480700,9.543480712890625,0.04790210723876953,-0.003242969512939453,0.0010245740413665771
1783152131011185200,9.55318505859375,0.030097007751464844,0.01232457160949707,-0.015627950429916382
1783152131020889900,9.562889892578125,0.055084228515625,0.001424551010131836,-0.002932131290435791
1783152131030594300,9.57259423828125,0.08697700500488281,-0.01699519157409668,0.010116353631019592
1783152131040329500,9.58232958984375,0.074005126953125,-0.02202463150024414,0.001314699649810791
1783152131050034200,9.5920341796875,0.06388187408447266,0.005179405212402344,-0.008046165108680725
1783152131059769000,9.60176904296875,0.0001430511474609375,0.0028281211853027344,-0.008105099201202393
1783152131069473800,9.611473876953125,-0.02929210662841797,-0.028466224670410156,0.006372928619384766
1783152131079178200,9.62117822265625,-0.08407020568847656,-0.00998377799987793,0.002095818519592285
1783152131088913400,9.630913330078124,-0.09825706481933594,0.02787470817565918,-0.030378371477127075
1783152131098618000,9.6406181640625,-0.10088157653808594,0.04276084899902344,-0.05070006847381592
1783152131108322600,9.650322509765624,-0.10861873626708984,0.023265361785888672,-0.0234973281621933
1783152131118027300,9.66002734375,-0.062499046325683594,0.009834766387939453,-0.01988193392753601
1783152131127762400,9.669762451171875,-0.031495094299316406,0.004306793212890625,-0.0068430304527282715
1783152131137467000,9.679466796875,0.027131080627441406,0.010854482650756836,-0.001427188515663147
1783152131147171600,9.689171630859375,0.047183990478515625,0.01006627082824707,0.022091493010520935
1783152131156876000,9.6988759765625,0.024658203125,-0.0027353763580322266,0.023881182074546814
1783152131166611200,9.708611083984374,0.0097503662109375,-0.0040357112884521484,0.01913975179195404
1783152131176316000,9.71831591796875,-0.004708290100097656,-0.015205144882202148,0.015397191047668457
1783152131186020400,9.728020263671874,-0.014182090759277344,0.001997709274291992,-0.0016285628080368042
1783152131195725000,9.73772509765625,-0.01649951934814453,0.004958391189575195,-0.025021344423294067
1783152131205429500,9.747429443359374,-0.021241188049316406,0.010529041290283203,-0.04108680784702301
1783152131215164700,9.75716455078125,-0.028379440307617188,0.028053760528564453,-0.038215264678001404
1783152131224869400,9.766869384765625,-0.0024900436401367188,0.02655339241027832,-0.03566102683544159
1783152131234573800,9.77657373046875,0.03236579895019531,0.041547298431396484,-0.03384093940258026
1783152131244278500,9.786278564453125,0.031414031982421875,0.03724098205566406,-0.02130250632762909
1783152131254013400,9.796013427734374,0.021261215209960938,0.03718376159667969,-0.0001544654369354248
1783152131263718100,9.80571826171875,0.016193389892578125,0.02477860450744629,0.013428986072540283
1783152131273422600,9.815422607421874,0.0020246505737304688,0.037932395935058594,0.03181910514831543
1783152131283127300,9.825127197265624,0.028184890747070312,0.041191816329956055,0.017169326543807983
1783152131292862500,9.834862548828125,-0.016722679138183594,0.0679786205291748,-0.0027008354663848877
1783152131302567000,9.84456689453125,-0.09157180786132812,0.0993356704711914,-0.016977623105049133
1783152131312271600,9.854271728515625,-0.0005559921264648438,0.015198230743408203,0.0481710284948349
1783152131321976000,9.86397607421875,0.0533599853515625,0.060265541076660156,0.06264503300189972
1783152131331711200,9.873711181640624,0.035625457763671875,0.09791874885559082,0.015265807509422302
1783152131341416000,9.883416015625,0.07258415222167969,0.07072257995605469,0.047028690576553345
1783152131351151000,9.893151123046875,0.09984397888183594,0.03843259811401367,0.05242101848125458
1783152131360855600,9.90285546875,0.07753944396972656,0.03170347213745117,0.03149636089801788
1783152131370560300,9.912560302734375,0.06063652038574219,0.04781985282897949,-0.012527212500572205
1783152131380295200,9.922295166015624,0.04181194305419922,0.05384206771850586,-0.032216742634773254
1783152131389999900,9.931999755859374,-0.02375030517578125,0.04563617706298828,-0.05377870798110962
1783152131399704600,9.94170458984375,-0.045929908752441406,0.0471954345703125,-0.07209771871566772
1783152131409409000,9.951408935546874,-0.013763427734375,0.05620002746582031,-0.07771384716033936
1783152131419144200,9.961144287109375,0.0036106109619140625,0.02070140838623047,-0.07625412940979004
1783152131428848600,9.9708486328125,0.004143714904785156,-0.006972312927246094,-0.030757367610931396
1783152131438553300,9.98055322265625,0.0021963119506835938,-0.0409548282623291,-0.012335911393165588
1783152131448258000,9.990258056640625,0.009494781494140625,-0.02446889877319336,-0.048592448234558105
1783152131457993000,9.999992919921874,0.014217376708984375,-0.03853106498718262,-0.06028348207473755
1783152131467697700,10.00969775390625,0.035271644592285156,-0.04750990867614746,-0.061988502740859985
1783152131477402000,10.019402099609374,0.0607147216796875,-0.046987056732177734,-0.087172731757164
1783152131487106800,10.02910693359375,0.097625732421875,-0.053873300552368164,-0.058086737990379333
1783152131496842000,10.038842041015625,0.09897708892822266,-0.08277034759521484,-0.015959829092025757
1783152131506546400,10.04854638671875,0.04894256591796875,-0.08402180671691895,0.00850801169872284
1783152131516251100,10.058251220703125,0.03781414031982422,-0.0934290885925293,0.0229310542345047
1783152131525955600,10.06795556640625,0.005955696105957031,-0.07520055770874023,0.03412926197052002
1783152131535660300,10.077660400390625,-0.06527042388916016,-0.07164216041564941,0.03511686623096466
1783152131545395500,10.0873955078125,-0.10479927062988281,-0.044432640075683594,0.017407536506652832
1783152131564804600,10.1068046875,-0.10543537139892578,-0.03613567352294922,0.019472211599349976
1783152131574509000,10.116509033203124,-0.10271549224853516,-0.023886680603027344,0.01478356122970581
1783152131584244200,10.126244140625,-0.09800529479980469,-0.02045154571533203,0.023801743984222412
1783152131593949000,10.135948974609375,-0.0842733383178711,-0.00456547737121582,0.02964407205581665
1783152131603653400,10.1456533203125,-0.0663003921508789,0.004606723785400391,0.046556368470191956
1783152131623093200,10.16509326171875,-0.06893348693847656,0.002821207046508789,0.047082021832466125
1783152131632828200,10.174828125,-0.03745460510253906,0.005785465240478516,0.057580575346946716
1783152131642532900,10.184532958984375,-0.02060699462890625,0.0015864372253417969,0.05189153552055359
1783152131652237300,10.1942373046875,-0.03215503692626953,-0.00044727325439453125,0.03252194821834564
1783152131661972500,10.203972412109374,0.015455245971679688,-0.0051517486572265625,0.020890966057777405
1783152131671677200,10.21367724609375,0.027090072631835938,0.02523493766784668,0.001985698938369751
1783152131681381600,10.223381591796874,0.008007049560546875,0.019572019577026367,-0.003274396061897278
1783152131691086300,10.23308642578125,-0.015376091003417969,0.011414289474487305,-0.004047319293022156
1783152131700790800,10.242790771484374,0.0016603469848632812,0.019810199737548828,0.009539201855659485
1783152131710526000,10.25252587890625,0.006575584411621094,0.009415149688720703,0.011376410722732544
1783152131720230700,10.262230712890625,0.0018482208251953125,0.009033679962158203,-0.00801306962966919
1783152131729935000,10.27193505859375,0.01349639892578125,-0.0050313472747802734,0.005998134613037109
1783152131739639800,10.281639892578125,0.06236457824707031,-0.013556957244873047,-0.0039030611515045166
1783152131749375000,10.291375,0.07726860046386719,0.013835668563842773,-0.023601338267326355
1783152131759079400,10.301079345703124,0.087188720703125,0.010327816009521484,-0.03805986046791077
1783152131768784100,10.3107841796875,0.12299251556396484,-0.019426584243774414,-0.037626102566719055
1783152131778488600,10.320488525390624,0.14445877075195312,-0.01673269271850586,-0.03461712598800659
1783152131788223700,10.3302236328125,0.15659236907958984,-0.024600505828857422,-0.05285392701625824
1783152131797928400,10.339928466796875,0.14072322845458984,-0.02410292625427246,-0.059726446866989136
1783152131807633000,10.3496328125,0.07371234893798828,-0.017530202865600586,-0.055392101407051086
1783152131817337600,10.359337646484375,0.05973339080810547,-0.032616615295410156,-0.04630269110202789
1783152131827042000,10.3690419921875,0.04599475860595703,-0.02863931655883789,-0.04190962016582489
1783152131836777200,10.378777099609374,-0.00527191162109375,-0.03616905212402344,-0.03723996877670288
1783152131846482000,10.38848193359375,0.019411087036132812,-0.033638715744018555,-0.03681586682796478
1783152131856186400,10.398186279296874,0.010544776916503906,-0.016483783721923828,-0.033966064453125
1783152131865891000,10.40789111328125,0.020539283752441406,-0.02523660659790039,-0.031235992908477783
1783152131875626000,10.4176259765625,0.01871490478515625,-0.03408217430114746,-0.0022280067205429077
1783152131885330700,10.42733056640625,-0.011180877685546875,-0.014908790588378906,-0.0015790760517120361
1783152131895035400,10.437035400390625,-0.03802967071533203,-0.0294649600982666,0.02284972369670868
1783152131904739800,10.44673974609375,-0.05254650115966797,-0.011138916015625,0.009196534752845764
1783152131914475000,10.45647509765625,-0.05044364929199219,-0.004685640335083008,-0.007263198494911194
1783152131924210200,10.466210205078125,-0.06268310546875,0.01861882209777832,-0.024148598313331604
1783152131933914600,10.47591455078125,-0.10560798645019531,-0.00012373924255371094,-0.036431580781936646
1783152131943619300,10.485619384765625,-0.08458232879638672,-0.001291513442993164,-0.01326286792755127
1783152131953354200,10.495354248046874,-0.03830718994140625,0.005308866500854492,-0.004709869623184204
1783152131963059000,10.505058837890624,-0.02115631103515625,0.00504612922668457,0.0315605103969574
1783152131972763600,10.514763671875,-0.023035049438476562,-0.02601933479309082,0.06974370777606964
1783152131982468000,10.524468017578124,0.03645515441894531,-0.02874922752380371,0.08142678439617157
1783152131992172800,10.5341728515625,0.047982215881347656,-0.0010979175567626953,0.052009522914886475
1783152132001907700,10.54390771484375,0.028867721557617188,0.028072595596313477,0.03396745026111603
1783152132011612400,10.5536123046875,0.01971149444580078,-0.009728193283081055,0.07745234668254852
1783152132021317000,10.563317138671875,0.0037050247192382812,-0.021155834197998047,0.08741563558578491
1783152132031021600,10.573021484375,-0.012093544006347656,0.007781267166137695,0.05988316237926483
1783152132040756700,10.5827568359375,0.012337684631347656,0.01279902458190918,0.04243156313896179
1783152132050461200,10.592461181640624,0.0080718994140625,-0.017393112182617188,0.029819250106811523
1783152132060166000,10.602165771484374,-0.014950752258300781,-0.00942683219909668,0.026784151792526245
1783152132079605500,10.62160546875,-0.024351119995117188,0.012505292892456055,0.011142969131469727
1783152132089310200,10.631310302734375,-0.0300750732421875,0.00042939186096191406,0.040047600865364075
1783152132099014700,10.6410146484375,-0.026389122009277344,-0.030018091201782227,0.07217158377170563
1783152132108719400,10.65071923828125,-0.06543731689453125,0.009020566940307617,0.06057719886302948
1783152132118454500,10.66045458984375,-0.07363700866699219,0.0013966560363769531,0.014242470264434814
1783152132128159000,10.670158935546874,0.0003261566162109375,0.006522655487060547,-0.020680531859397888
1783152132137863700,10.67986376953125,0.03756523132324219,0.02855515480041504,-0.049768418073654175
1783152132147568000,10.689568115234374,0.07888317108154297,0.024376869201660156,-0.07584001123905182
1783152132157272800,10.69927294921875,0.11503982543945312,0.019678115844726562,-0.03786711394786835
1783152132167008000,10.709008056640625,0.1297769546508789,0.023528575897216797,-0.008199900388717651
1783152132176712400,10.71871240234375,0.0953378677368164,0.018995285034179688,0.03907693922519684
1783152132186417200,10.728417236328125,0.050292015075683594,-0.003386974334716797,0.05027107894420624
1783152132196121600,10.73812158203125,0.004031181335449219,-0.007569551467895508,0.047593384981155396
1783152132205856800,10.747856689453124,-0.031864166259765625,0.018479585647583008,0.026216506958007812
1783152132215592000,10.757592041015625,-0.08130168914794922,0.01120448112487793,-0.00669512152671814
1783152132225296400,10.76729638671875,-0.10189247131347656,0.006957530975341797,-0.020267724990844727
1783152132235001000,10.7770009765625,-0.10141468048095703,0.006262302398681641,-0.04318681359291077
1783152132244736300,10.786736328125,-0.06625938415527344,0.011820077896118164,-0.04510185122489929
1783152132254440700,10.796440673828124,-0.051117897033691406,0.007016658782958984,-0.0519280880689621
1783152132264145400,10.8061455078125,-0.0036878585815429688,-0.027276992797851562,-0.029966183006763458
1783152132273849900,10.815849853515624,0.047530174255371094,-0.02062821388244629,-0.014464974403381348
1783152132283585000,10.8255849609375,0.10270500183105469,-0.014369964599609375,-0.03622458130121231
1783152132293289700,10.835289794921875,0.1503276824951172,0.0001850128173828125,-0.020057134330272675
1783152132302994200,10.844994140625,0.13889598846435547,-0.012882232666015625,-0.004715718328952789
1783152132312699000,10.854698974609375,0.09772586822509766,-0.015620946884155273,0.021455541253089905
1783152132322403300,10.8644033203125,0.0201568603515625,-0.0032219886779785156,0.02336544543504715
1783152132332138500,10.874138427734374,-0.02759838104248047,-0.008260250091552734,0.03539293259382248
1783152132341843200,10.88384326171875,0.0055484771728515625,-0.0016455650329589844,0.002970181405544281
1783152132351547600,10.893547607421874,-0.0959615707397461,0.011878490447998047,-0.0008448511362075806
1783152132361252400,10.90325244140625,-0.15117835998535156,-0.02392268180847168,0.02240021526813507
1783152132370987500,10.912987548828125,-0.102264404296875,-0.004215717315673828,0.010883115231990814
1783152132380692000,10.92269189453125,-0.1274547576904297,0.004266500473022461,0.00124436616897583
1783152132390396700,10.932396728515625,-0.16658973693847656,-0.0008752346038818359,0.017097920179367065
1783152132400101000,10.94210107421875,-0.14428329467773438,-0.030887603759765625,0.0394740030169487
1783152132409836300,10.951836181640624,-0.1628131866455078,-0.021592140197753906,0.03272871673107147
1783152132419541000,10.961541015625,-0.1696786880493164,-0.00436854362487793,0.030882686376571655
1783152132429245400,10.971245361328124,-0.1462078094482422,-0.0030012130737304688,0.02033671736717224
1783152132438950100,10.9809501953125,-0.0645904541015625,0.01085209846496582,0.008019760251045227
1783152132448654600,10.990654541015624,-0.007987022399902344,0.010623693466186523,0.0026455894112586975
1783152132458389800,11.0003896484375,0.028936386108398438,-0.0204012393951416,0.01097259670495987
1783152132468094500,11.010094482421875,0.08197021484375,-0.02094244956970215,0.013791650533676147
1783152132477799000,11.019798828125,0.08965873718261719,-0.02448272705078125,0.0066277459263801575
1783152132487503600,11.029503662109375,0.09044551849365234,-0.0333559513092041,-0.0028733909130096436
1783152132497238500,11.039238525390624,0.07257843017578125,-0.021340608596801758,-0.014339335262775421
1783152132506973700,11.0489736328125,0.07863235473632812,-0.014507293701171875,0.0028693899512290955
1783152132526382800,11.0683828125,0.05059051513671875,-0.0049936771392822266,-0.022340409457683563
1783152132536118000,11.078117919921874,0.05907440185546875,0.007018327713012695,-0.018788129091262817
1783152132545822700,11.08782275390625,0.08622932434082031,0.014169931411743164,-0.026834644377231598
1783152132555527200,11.097527099609374,0.08709049224853516,0.021109819412231445,-0.02081550657749176
1783152132565231900,11.10723193359375,0.1068572998046875,0.022938966751098633,-0.005915597081184387
1783152132574966800,11.116966796875,0.08420562744140625,0.012346267700195312,0.029473133385181427
1783152132584671500,11.12667138671875,0.06454849243164062,0.003598451614379883,0.05953453481197357
1783152132594376200,11.136376220703125,0.038384437561035156,0.020335674285888672,0.03782573342323303
1783152132604080600,11.14608056640625,0.005780220031738281,0.02226710319519043,0.014865808188915253
1783152132623520300,11.165520263671874,-0.04335784912109375,0.011588573455810547,-0.03532381355762482
1783152132633225000,11.175224853515624,-0.04181098937988281,0.035211801528930664,-0.06863197684288025
1783152132642929700,11.1849296875,-0.05229473114013672,0.04020833969116211,-0.05057406425476074
1783152132652634000,11.194634033203124,-0.05334663391113281,0.014883041381835938,-0.01899430900812149
1783152132662369300,11.204369384765625,-0.06395721435546875,-0.014277458190917969,0.017037726938724518
1783152132672073700,11.21407373046875,-0.04623603820800781,-0.02627396583557129,0.024760067462921143
1783152132681778400,11.2237783203125,-0.031250953674316406,-0.016681432723999023,0.042232852429151535
1783152132691483100,11.233483154296875,-0.035430908203125,-0.025846481323242188,0.01037365198135376
1783152132701218000,11.243218017578124,-0.02535533905029297,-0.023269176483154297,-0.03473736345767975
1783152132710922800,11.2529228515625,-0.029378890991210938,-0.009383201599121094,-0.08827657997608185
1783152132720627200,11.262627197265624,-0.07071399688720703,-0.0011227130889892578,-0.11734984815120697
1783152132730332000,11.272331787109374,-0.06638908386230469,-0.007775545120239258,-0.0849229171872139
1783152132740067000,11.282067138671875,-0.0809316635131836,-0.03088974952697754,-0.0661817193031311
1783152132749771500,11.291771484375,-0.10257911682128906,-0.027048587799072266,-0.05178944021463394
1783152132759476200,11.301476318359375,-0.11724853515625,-0.02454376220703125,-0.04768615961074829
1783152132769180700,11.3111806640625,-0.10623836517333984,-0.03979158401489258,-0.05481160432100296
1783152132778915800,11.320915771484374,-0.060545921325683594,-0.04424309730529785,-0.0716458112001419
1783152132788651000,11.330651123046875,0.06647872924804688,-0.026813745498657227,-0.11072681844234467
1783152132798355500,11.34035546875,0.11616230010986328,-0.00515437126159668,-0.10278082638978958
1783152132808060200,11.35006005859375,0.14893054962158203,-0.03187441825866699,-0.04360285401344299
1783152132817764900,11.359764892578125,0.36061763763427734,-0.007967710494995117,-0.04259948432445526
1783152132827499800,11.369499755859374,0.238067626953125,-0.0059244632720947266,0.010155398398637772
1783152132837204500,11.37920458984375,0.24587345123291016,-0.009387731552124023,0.10506783425807953
1783152132846909000,11.388908935546874,0.2735137939453125,-0.01791691780090332,0.18155509233474731
1783152132866348800,11.408348876953125,0.23427677154541016,0.009868860244750977,0.3042101263999939
1783152132876053200,11.41805322265625,0.20637130737304688,0.04268074035644531,0.34037747979164124
1783152132895462400,11.43746240234375,0.06339645385742188,0.1657392978668213,0.2694149613380432
1783152132905197600,11.447197509765624,-0.06172657012939453,0.14079928398132324,0.21973058581352234
1783152132914902300,11.45690234375,-0.11569786071777344,0.13221263885498047,0.11132895946502686
1783152132924606700,11.466606689453124,-0.16068267822265625,0.18039774894714355,-0.016199737787246704
1783152132934311400,11.4763115234375,-0.14417266845703125,0.23497867584228516,-0.1148139089345932
1783152132944016000,11.486015869140624,-0.12340831756591797,0.22137999534606934,-0.11795811355113983
1783152132953751000,11.4957509765625,-0.14839935302734375,0.18707942962646484,-0.05582106113433838
1783152132963455700,11.505455810546875,-0.23331260681152344,0.18214154243469238,-0.016635343432426453
1783152132973160200,11.51516015625,-0.24895095825195312,0.08685064315795898,0.09262964129447937
1783152132982865000,11.524864990234375,-0.2554597854614258,0.05495762825012207,0.15567366778850555
1783152132992600000,11.53460009765625,-0.23156166076660156,0.08906745910644531,0.15844391286373138
1783152133002304500,11.544304443359374,-0.19874954223632812,0.06242632865905762,0.19245663285255432
1783152133012009200,11.55400927734375,-0.20941829681396484,0.029784202575683594,0.22073251008987427
1783152133021713700,11.563713623046874,-0.20836257934570312,-0.023507356643676758,0.1948438584804535
1783152133031448800,11.57344873046875,-0.16677570343017578,-0.030978679656982422,0.11833357810974121
1783152133041153500,11.583153564453125,-0.11088848114013672,-0.03366708755493164,0.05896595120429993
1783152133050858000,11.59285791015625,-0.09560871124267578,-0.010221719741821289,-0.011851340532302856
1783152133060562700,11.602562744140625,-0.09693050384521484,-0.022928237915039062,-0.035742998123168945
1783152133080032800,11.62203271484375,-0.24258804321289062,-0.029293537139892578,0.016481846570968628
1783152133099442000,11.64144189453125,-0.15216445922851562,-0.12678861618041992,-0.11185359954833984
1783152133109146600,11.651146728515625,-0.1156473159790039,-0.1191864013671875,-0.2108258306980133
1783152133118881800,11.6608818359375,-0.1557025909423828,-0.11165595054626465,-0.28475499153137207
1783152133128586200,11.670586181640624,-0.14806461334228516,-0.11602449417114258,-0.31843334436416626
1783152133138291000,11.680291015625,-0.10481834411621094,-0.09864616394042969,-0.3395636975765228
1783152133147995400,11.689995361328124,-0.0952749252319336,-0.10008120536804199,-0.266095370054245
1783152133167435300,11.709435302734375,-0.13382434844970703,-0.14914894104003906,-0.1310705542564392
1783152133177139700,11.7191396484375,0.016300201416015625,-0.21110057830810547,-0.1441173553466797
1783152133186844400,11.728844482421875,0.15923118591308594,-0.20688509941101074,-0.20304083824157715
1783152133196579600,11.73857958984375,0.12824726104736328,-0.15914559364318848,-0.24289941787719727
1783152133206284000,11.748283935546874,0.026433944702148438,-0.08942270278930664,-0.2287173867225647
1783152133215988700,11.75798876953125,0.032440185546875,-0.07746386528015137,-0.18516725301742554
1783152133225693200,11.767693115234374,0.14084148406982422,-0.11994147300720215,-0.19019001722335815
1783152133235398000,11.77739794921875,0.12223243713378906,-0.13828635215759277,-0.19637757539749146
1783152133245132800,11.7871328125,0.010400772094726562,-0.0728445053100586,-0.16215261816978455
1783152133254837500,11.79683740234375,0.015473365783691406,-0.033017635345458984,-0.12056171894073486
1783152133274246700,11.81624658203125,0.07287025451660156,0.004926443099975586,0.0013841986656188965
1783152133283981800,11.82598193359375,0.14842796325683594,0.06562447547912598,0.019142955541610718
1783152133293686300,11.835686279296874,0.2607593536376953,0.004389762878417969,0.057667315006256104
1783152133303391000,11.845390869140624,0.17670345306396484,0.03399300575256348,0.08049026131629944
1783152133313095700,11.855095703125,0.12996673583984375,0.0519413948059082,0.1082051694393158
1783152133322830600,11.86483056640625,0.2444753646850586,0.062399864196777344,0.05649113655090332
1783152133332535300,11.874535400390625,0.2692756652832031,0.07929444313049316,0.02494865655899048
1783152133342239700,11.88423974609375,0.09940624237060547,0.11477899551391602,0.03160908818244934
1783152133351975000,11.893974853515624,0.05475044250488281,0.055553436279296875,0.052021414041519165
1783152133361710000,11.9037099609375,-0.054099082946777344,0.012847185134887695,0.019223153591156006
1783152133371414800,11.913414794921875,-0.24419498443603516,0.05226397514343262,-0.030548393726348877
1783152133381119200,11.923119140625,-0.29167842864990234,0.08944058418273926,-0.06701558828353882
1783152133390824000,11.932823974609375,-0.28112125396728516,0.06626653671264648,-0.09218442440032959
1783152133400528400,11.9425283203125,-0.2128620147705078,0.057228803634643555,-0.049546122550964355
1783152133410263600,11.952263671875,-0.1488361358642578,0.06164121627807617,0.029248327016830444
1783152133419968300,11.96196826171875,-0.11678409576416016,-0.003676891326904297,0.16119828820228577
1783152133429672700,11.971672607421874,-0.08251476287841797,-0.020734786987304688,0.23254793882369995
1783152133439377400,11.98137744140625,-0.014650344848632812,0.038214683532714844,0.1984882950782776
1783152133449112300,11.9911123046875,0.015219688415527344,0.11791300773620605,0.1619175672531128
1783152133458817000,12.000817138671875,0.0884256362915039,0.0726175308227539,0.152883380651474
1783152133468521500,12.010521484375,0.1287555694580078,-0.019140958786010742,0.16446009278297424
1783152133478226200,12.02022607421875,0.1600637435913086,-0.05191922187805176,0.21379387378692627
1783152133487961300,12.02996142578125,0.20864009857177734,-0.07818722724914551,0.1519792675971985
1783152133497665800,12.039665771484374,0.21280670166015625,-0.11070752143859863,0.1057860255241394
1783152133507370500,12.04937060546875,0.45158958435058594,-0.24005508422851562,0.15103119611740112
1783152133536514800,12.078514892578125,0.33304691314697266,0.16386079788208008,-0.25995564460754395
1783152133546219300,12.08821923828125,-0.10855293273925781,0.1619272232055664,-0.3361344337463379
1783152133555924000,12.097924072265625,-0.3977804183959961,0.029385089874267578,-0.2530484199523926
1783152133565628400,12.10762841796875,-0.49481964111328125,-0.04562854766845703,-0.1649354100227356
1783152133575363600,12.117363525390624,-0.539494514465332,-0.006378173828125,-0.17646950483322144
1783152133585068300,12.127068359375,-0.5759496688842773,0.06763029098510742,-0.19859617948532104
1783152133594772700,12.136772705078124,-0.6400823593139648,0.02603626251220703,-0.11211949586868286
1783152133604477400,12.1464775390625,-0.6045103073120117,-0.034615516662597656,0.014241933822631836
1783152133614212600,12.156212646484375,-0.3107309341430664,-0.1026449203491211,0.0677802562713623
1783152133623917000,12.1659169921875,-0.029816627502441406,-0.031838417053222656,0.0333065390586853
1783152133633621800,12.175621826171875,0.06261730194091797,0.03369426727294922,-0.031446218490600586
