time,seconds_elapsed,z,y,x
1782858769953663200,0.253663330078125,0.1164858602643013,-0.0010094419040251523,0.0039056291364133354
1782858769963612400,0.2636123046875,0.11872983979880809,0.006238647794397548,0.002910462352912873
1782858769973560300,0.273560302734375,0.13844400957226752,-0.016483937414269893,-0.023023988441191613
1782858769983539500,0.28353955078125,0.12859306216537952,-0.02454772740975022,-0.005091331789642572
1782858769993488400,0.29348828125,0.13478607158660888,0.010144002936175093,0.006998937242943793
1782858770003437300,0.303437255859375,0.13387187935113906,0.016812402183655647,-0.005001790342666209
1782858770013386200,0.31338623046875,0.12964110991358757,-0.006327111529139801,-0.006275883665401489
1782858770023365400,0.323365478515625,0.1296779347926378,0.010941235994780436,-0.0033450087121222167
1782858770033314300,0.333314208984375,0.1250157882004976,0.0006811415314208716,-0.0034364407220855353
1782858770043262200,0.34326220703125,0.13830255527496338,-0.02516247090776451,-0.005483756040176376
1782858770053211400,0.35321142578125,0.13995558317899703,-0.016650955411093307,-0.016841966204857454
1782858770063190300,0.363190185546875,0.12649755119085312,-0.0018800050603225826,-0.003774732765741646
1782858770073139500,0.373139404296875,0.12916472457349298,0.0023151268082670868,-0.0029170382241718467
1782858770083088400,0.38308837890625,0.13573299704790115,0.004660018567135557,-0.006874762874003499
1782858770093037300,0.393037353515625,0.1297580142915249,-0.002737270343629643,0.0002684782104566693
1782858770103016400,0.403016357421875,0.1297480774194002,-0.009209370700875297,-0.0007550013520754873
1782858770112965400,0.41296533203125,0.1382791743993759,-0.006574674815731122,0.0010412526812404394
1782858770122913300,0.422913330078125,0.1510240896821022,0.0019840956224594264,-0.0031602175965905186
1782858770132862200,0.4328623046875,0.14266951831281185,0.008567775728553533,-0.0018392985905986278
1782858770142841300,0.44284130859375,0.1417734462559223,0.011630213772784918,-0.0014894074406940488
1782858770152790300,0.452790283203125,0.13099486261010168,0.004258123235357925,-0.008322075605485587
1782858770162739200,0.4627392578125,0.13039046697616577,-0.011330892899492755,0.0010260459789540619
1782858770172687400,0.472687255859375,0.12320143225491047,-0.011854606246342882,-0.0078338993628975
1782858770182667300,0.482667236328125,0.12320026321113109,-0.0036145555016584693,-0.008649188668001443
1782858770192615200,0.492615234375,0.12544482726752756,-0.003264107229327783,0.002952776257833466
1782858770202564400,0.502564453125,0.13860767570137977,0.01040795110198669,0.0094618841572199
1782858770212513500,0.512513427734375,0.13605565313100815,0.006888773133046925,0.004943055025907233
1782858770222492400,0.522492431640625,0.1251204176187515,-0.0021024339056573806,-0.004776466287346556
1782858770232441300,0.53244140625,0.1296089612096548,-0.008880449273763224,-0.004011162736965343
1782858770242390300,0.542390380859375,0.12422142295241355,0.001445796627830714,0.008966145662683993
1782858770252369400,0.552369384765625,0.13066168513298035,0.004382060142280534,0.00983564023990184
1782858770262318300,0.562318359375,0.13246025898754596,0.010998583072051406,-0.001974268348189071
1782858770272266500,0.5722666015625,0.12467384289503097,0.004694286162918433,-0.0036357809527777134
1782858770282215400,0.58221533203125,0.12720190006792545,-0.004893461996829137,-0.004634874992724507
1782858770292194300,0.5921943359375,0.13946400026977063,-0.006384540804801509,-0.0034949659762904045
1782858770302143200,0.602143310546875,0.13497487215697765,-0.005521667764615267,-0.012471231174189596
1782858770312092400,0.612092529296875,0.14634908360838889,-0.008043943650694564,-0.01177928512096405
1782858770322040300,0.622040283203125,0.14828443558514118,-0.0040240404848475,0.0015523622748441993
1782858770332020200,0.632020263671875,0.1345072546452284,0.0008352452477440237,0.00694147143466398
1782858770341968400,0.641968505859375,0.13225509180426598,0.00196400268250145,-0.00471765790535137
1782858770351917300,0.651917236328125,0.13898644588589668,-0.010799662966467439,0.005369235415570437
1782858770361866200,0.6618662109375,0.14362871873378752,-0.010210364436963573,-0.0063806044152006506
1782858770371845000,0.67184521484375,0.14123627063930033,-0.00099670115346089,-0.014416373892594129
1782858770381794600,0.681794677734375,0.12538111438155172,0.0013434596313629298,-0.00036021161451935764
1782858770391743500,0.691743408203125,0.1321194827258587,0.004995990789541974,-0.0027973573672585186
1782858770401691400,0.70169140625,0.13675766392052172,-0.00441963394000195,-0.0019367584825493395
1782858770411671300,0.71167138671875,0.14378946225345135,-0.010432090029399842,-0.002447009559627622
1782858770421619500,0.721619384765625,0.14318857375085353,-0.010561378964874893,-0.014596479699853808
1782858770431568400,0.731568359375,0.13121581188440323,-0.00244658943451941,-0.012322488619573413
1782858770441517300,0.741517333984375,0.1400485221594572,-0.005454045888502151,-0.010561543361656368
1782858770451496400,0.751496337890625,0.13765782763063908,0.004479520034231245,-0.00965045639872551
1782858770461445400,0.7614453125,0.14528759185671805,0.005707335662981495,-0.005899013177026063
1782858770471393300,0.771393310546875,0.13046996195316313,0.006343030617479235,-0.005098802710045129
1782858770481342200,0.78134228515625,0.13645488158166408,-0.0017536387342959642,-0.0018402941044420003
1782858770491321300,0.7913212890625,0.14318857375085353,0.002037067918712273,-0.010568320162314921
1782858770501270300,0.801270263671875,0.13660977988243103,0.005517813573405146,-0.008446414371207356
1782858770511219200,0.81121923828125,0.13781038784384728,0.0009599310733377933,0.0017054522110149263
1782858770521168100,0.821168212890625,0.14005612094402312,-0.005705262436904013,-0.0014421433660201728
1782858770531147300,0.831147216796875,0.1367640936613083,-0.006328508901782334,-0.014723978537041693
1782858770541096400,0.841096435546875,0.13436930747926235,0.0011309676581528036,-0.007993939629662782
1782858770551044400,0.85104443359375,0.130328507655859,-0.002815148752275854,-0.009329955740086734
1782858770560993500,0.86099365234375,0.1336211194604635,0.007426852931967005,-0.004881926822662353
1782858770570972400,0.870972412109375,0.13287293144166468,0.0028380821032915264,-0.001351177146937698
1782858770580921300,0.88092138671875,0.1312245797127485,-0.001196351911406964,-0.005519421008601784
1782858770590870300,0.890870361328125,0.13242109602093696,0.0031607838521711526,-0.0057466538932174445
1782858770600819500,0.9008193359375,0.13451660699546336,0.003506574215693399,-0.00004583016941323876
1782858770610798300,0.91079833984375,0.13691490030884743,0.00336393260830082,0.003016169483400881
1782858770620747300,0.920747314453125,0.137812725931406,-0.0034497751276940107,-0.004074336766824126
1782858770630695400,0.9306953125,0.13811667731404303,0.0003521835716906935,-0.017612649183254687
1782858770640674300,0.94067431640625,0.14469897831380366,-0.0007721077505033463,-0.010445990690588951
1782858770650623200,0.950623291015625,0.13467442790567874,-0.004780019084457307,-0.007860175448469817
1782858770660572400,0.960572509765625,0.14036416397988796,-0.004735522355604917,-0.00141748384879902
1782858770670521300,0.970521240234375,0.13378010941445825,-0.009239117385167629,0.0018847177680581808
1782858770680500200,0.980500244140625,0.13467325886189938,-0.00621830825926736,0.003056885086279362
1782858770690449200,0.99044921875,0.12464578584432601,-0.004570102660823613,-0.0007749116289429367
1782858770700397300,1.000397216796875,0.13018179266154764,-0.0007851498951669782,-0.0053492703397758305
1782858770710346200,1.01034619140625,0.14035539615154266,0.003419014663249254,0.0023068887028843163
1782858770720325000,1.0203251953125,0.13706161530315875,0.003132562404684722,0.005328209285438061
1782858770730274600,1.030274658203125,0.13466624459922313,0.002399690686026588,-0.001505947583541274
1782858770740223500,1.040223388671875,0.12928104442954064,-0.004670101569732651,-0.004506736834719777
1782858770750172400,1.05017236328125,0.13466566007733344,0.003199672824144363,-0.001131543046887964
1782858770760151300,1.0601513671875,0.1408025553971529,0.0003810991389211267,-0.014986301001347601
1782858770770100500,1.0701005859375,0.1357177994787693,-0.0040947950329631565,-0.006414196157548576
1782858770780048400,1.08004833984375,0.14185411027669906,-0.008394282325170933,0.002306267648376524
1782858770790011000,1.090010986328125,0.13960779265463352,-0.0055638629385270175,-0.004685490935109555
1782858770799990000,1.099989990234375,0.13092647354900835,-0.007041835669754072,-0.004264269848354161
1782858770809939000,1.10993896484375,0.13720482316613197,-0.008722975423419847,-0.008084503989946097
1782858770819887900,1.119887939453125,0.14228957908451556,-0.0043485688646323975,-0.00827659249594435
1782858770829835800,1.129835693359375,0.13600129259526728,0.005392935951566324,-0.004652428915724158
1782858770839816000,1.13981591796875,0.13196341538131237,0.00429910369971767,0.01125069466959685
1782858770849763800,1.149763916015625,0.1373515381604433,0.005179749858612194,-0.0025506891298107803
1782858770859713000,1.159713134765625,0.12672726829349995,0.00041525713684968646,-0.004237655836064368
1782858770869662000,1.169661865234375,0.13720482316613197,-0.003934389440016821,-0.00043594373185187576
1782858770879641000,1.17964111328125,0.13256547292768955,-0.006166011816449463,-0.005435779579449445
1782858770889590000,1.189590087890625,0.1364578041911125,-0.003966602076031268,-0.005249865085911005
1782858770899539000,1.1995390625,0.1271820263236761,0.0028026363305747506,-0.00953252910748124
1782858770909487000,1.209487060546875,0.1322714584171772,0.004992876383848488,0.00666305635208264
1782858770919467000,1.219467041015625,0.13092413546144963,0.0013170556816272437,-0.0025807189418934283
1782858770929415000,1.229414794921875,0.13017419387698173,-0.006025461701443418,-0.006281601020134985
1782858770939363800,1.23936376953125,0.13062427573204038,-0.002272867702273652,-0.008919639639835804
1782858770949313000,1.24931298828125,0.1273310794055462,0.00840661208378151,-0.004983743229322135
1782858770959292000,1.2592919921875,0.12928045990765094,0.005086957008624449,-0.006354885452054441
1782858770969240800,1.26924072265625,0.1413999367684126,-0.0061860225580167025,-0.0014509659932926296
1782858770979189000,1.27918896484375,0.1322708738952875,0.009248168341303244,0.004285294370073825
1782858770989138000,1.289137939453125,0.12747954796552657,0.0024468086302280425,-0.004498188202083111
1782858770999116800,1.29911669921875,0.1270294661104679,-0.009692240580683574,-0.0018571904403157531
1782858771009066000,1.30906591796875,0.1333165835559368,0.0016043025246355682,-0.0019459281696937976
1782858771019015200,1.31901513671875,0.1372071612536907,0.004668293205136433,-0.008005027279257775
1782858771028964000,1.328964111328125,0.1316653092175722,-0.008972456672461703,-0.012328991425596177
1782858771038943000,1.33894287109375,0.1340577573120594,0.005872015572246164,-0.00889658755781129
1782858771048892000,1.348891845703125,0.1309200438082218,0.005047364783752709,-0.005842478950507939
1782858771058840000,1.358840087890625,0.1300187110543251,-0.0033469449408818036,-0.00006418781001120805
1782858771068820000,1.368820068359375,0.13016893317997455,0.0006563724163454026,0.0009346505016088485
1782858771078768000,1.37876806640625,0.1264279930859804,0.005590559149207547,0.0018250782690010963
1782858771088717000,1.388717041015625,0.1246329263627529,-0.00745959529094398,0.0015917079045437276
1782858771098666000,1.398666015625,0.13645605062544344,0.00221277154549025,-0.0030496516278944908
1782858771108644900,1.408644775390625,0.13720599220991134,0.0071846325407736,-0.007303126087598502
1782858771118594000,1.418593994140625,0.14154606724083424,0.002011650349665433,-0.005696512874867767
1782858771128543000,1.42854296875,0.12987316510379313,-0.0052696657649241386,-0.0008688187237828969
1782858771138491000,1.438490966796875,0.12657938425540924,-0.0019439736746251581,-0.004453837603703141
1782858771148470000,1.448469970703125,0.1319616618156433,-0.0008194996893405913,-0.008431874389201403
1782858771158419000,1.4584189453125,0.13180617899298666,-0.004168198195891455,-0.005131663800030947
1782858771168367900,1.468367919921875,0.1344984868168831,-0.0019686788576189426,-0.006659786682762205
1782858771178317000,1.478317138671875,0.12641688717007638,0.0004510956352110952,-0.003766056268941611
1782858771188296200,1.488296142578125,0.13764029197394848,-0.01067895919624716,-0.0054818654771894215
1782858771198245000,1.4982451171875,0.12701543758511544,-0.004350505093391984,0.0011576638688333332
1782858771208193000,1.508193115234375,0.13464637085497377,0.0006121953479014336,-0.009523286355100571
1782858771218142000,1.518141845703125,0.13479483941495418,-0.002957242370396852,-0.004208210545871407
1782858771228121000,1.52812109375,0.1329986036479473,0.0022260602853260932,0.003107245300337672
1782858771238070000,1.538070068359375,0.13060557103157042,0.0016293365011923013,-0.0029267011016607283
1782858771248019000,1.54801904296875,0.12641630264818668,-0.0019513167308643459,-0.008914525073301047
1782858771257967900,1.5579677734375,0.12177695240974426,0.004888676223857328,-0.0044089572823606425
1782858771267947000,1.567947021484375,0.13254910631477831,0.0018677301006391643,-0.0022453495076857504
1782858771277896000,1.57789599609375,0.14032850814461706,0.0016111432573758064,-0.004353427702840417
1782858771287843800,1.58784375,0.1226724399447441,0.006888773133046925,0.0013770787731744347
1782858771297793000,1.59779296875,0.1352419986605644,0.003500939059350639,0.006858670255728065
1782858771307772000,1.60777197265625,0.12820844676196574,0.0041328346215654165,0.0015678521049208938
1782858771317720800,1.617720947265625,0.12656243312060833,0.006785358424345031,-0.005426591625995934
1782858771327669800,1.627669677734375,0.12551555441617965,-0.002837406249856576,-0.011172697529941796
1782858771337618000,1.637617919921875,0.13045184177458286,-0.002577732400363311,-0.01156555103873834
1782858771347598000,1.64759814453125,0.12790683346688747,0.0020405750500503924,-0.009380242888908832
1782858771357545700,1.657545654296875,0.1289513740837574,0.0034171697660349306,-0.007063271183427423
1782858771367495200,1.6674951171875,0.13927461517751216,-0.0014541443310678004,-0.0006541713261045515
1782858771377444000,1.677444091796875,0.12820377058684826,-0.003753306385222822,-0.004195953852497041
1782858771387423000,1.687423095703125,0.1276040511280298,-0.005246239223564043,-0.0067936239291913805
1782858771397372000,1.697371826171875,0.1308943248450756,-0.00904564063968137,-0.010594751511514186
1782858771407321000,1.707321044921875,0.12386252651214599,-0.004797600406920537,-0.006077475016470998
1782858771417269000,1.71726904296875,0.12864976078867912,-0.005045483353920281,-0.0071157137567177415
1782858771427249000,1.727248779296875,0.13583353481292723,-0.004430283198179677,-0.002871609913557768
1782858771437197000,1.737197021484375,0.13373685479462147,0.000217250346718356,-0.01046016534641385
1782858771447146000,1.74714599609375,0.13373627027273177,-0.0046258879686705764,-0.00925864406954497
1782858771457095000,1.757094970703125,0.1311953536182642,-0.0057525265115778886,0.0034204759679734706
1782858771467073800,1.76707373046875,0.12895195860564707,0.001176733895484358,-0.0032703634401783344
1782858771477023000,1.77702294921875,0.12865677505135537,-0.008298411602107807,-0.00028740210663527247
1782858771486971000,1.786970947265625,0.12820493963062762,-0.009894786548614502,-0.01414047956066206
1782858771496950800,1.79695068359375,0.13822656742930411,-0.0045984611056279386,-0.01144802560629323
1782858771506899000,1.80689892578125,0.13224281684458256,-0.0012530505347065628,-0.008395670564658939
1782858771516847900,1.816847900390625,0.1279056644231081,0.005312116667162627,-0.013035842787008731
1782858771526797000,1.826797119140625,0.12745733613371849,0.008488536479882895,-0.01000805593105033
1782858771536776200,1.836776123046875,0.12745616708993912,-0.0060287039713002736,-0.006346556015126407
1782858771546725000,1.84672509765625,0.14002338771820066,0.0006261873406358063,-0.004628317387774587
1782858771556674000,1.856674072265625,0.13942659086883066,0.0009638491966295987,-0.007864029639679937
1782858771566622000,1.8666220703125,0.12985153779387473,-0.003819092497276142,-0.0011774645478464661
1782858771576601900,1.876601806640625,0.1370335582524538,-0.0054057771668303755,-0.008303042111452668
1782858771586550000,1.886550048828125,0.14047639218270777,-0.003718335536541417,-0.0010660948615521192
1782858771596499000,1.8964990234375,0.1326981593966484,0.0015220584681257606,-0.0004597995314747095
1782858771606447900,1.90644775390625,0.13509060749113558,-0.016663577430648727,-0.011838504494912921
1782858771616427000,1.916427001953125,0.1337403619259596,-0.013641918921377508,-0.009715721920970827
1782858771626376000,1.9263759765625,0.12625380556285382,-0.002931066749524325,-0.01010324166752398
1782858771636323800,1.93632373046875,0.12280629545748233,0.0012677001145668327,-0.0008884915386326611
1782858771646273000,1.94627294921875,0.13552373821139335,0.006485909686889499,-0.003819996679574251
1782858771656252000,1.956251953125,0.13417992238700388,-0.007405006426339969,-0.0017314999677240847
1782858771666200800,1.966200927734375,0.12939268811047078,-0.0006075831048656255,-0.005451981795579194
1782858771676149800,1.976149658203125,0.12534955019950866,-0.0005117763138841838,-0.006198653710726648
1782858771686099000,1.986098876953125,0.12729659261405468,-0.010354905740497633,-0.0051896410649642346
1782858771696078000,1.996078125,0.12923954337537288,-0.009738262546341865,-0.004490388488117605
1782858771706027000,2.006027099609375,0.1293868428915739,-0.009968162312079221,-0.007246116937045008
1782858771715975200,2.01597509765625,0.1289338384270668,-0.0038796179123222825,-0.007007211880944669
1782858771725924000,2.025924072265625,0.12937982862889766,0.0002992021422833204,-0.009428648607898504
1782858771735903000,2.035903076171875,0.1287806936919689,-0.0030146533797495065,-0.014829082879330963
1782858771745852000,2.045851806640625,0.12085048521459102,-0.006271244022902101,-0.00868583088396117
1782858771755801000,2.055801025390625,0.12459259435236453,-0.011053308933973311,-0.010243709584139287
1782858771765750000,2.06575,0.12848667918145656,-0.005414499329403043,-0.012096369979809968
1782858771775729000,2.07572900390625,0.13402677765190601,-0.0020223544067703185,-0.011803999437112361
1782858771785677800,2.085677734375,0.12893851460218428,-0.0034134160395245996,-0.013298055653460324
1782858771795658800,2.09565869140625,0.12938801193535326,0.005585745976772159,-0.004771360853966325
1782858771805607700,2.105607666015625,0.1352256320476532,0.0037345742852892723,-0.006990059816744178
1782858771815586800,2.1155869140625,0.13193418928682804,-0.0013900295862928032,-0.0036147016321308907
1782858771825535700,2.12553564453125,0.11832067447602748,-0.009042590166069567,-0.007413527659513056
1782858771835484700,2.135484619140625,0.12805004132986067,-0.0013315225983969866,-0.005947966885287315
1782858771845432800,2.145432861328125,0.11922492983937263,-0.002761235741106793,-0.0028295243375003336
1782858771855412700,2.155412841796875,0.1367319449573755,-0.0006744469291530549,-0.0019408318694680929
1782858771865360600,2.165360595703125,0.1362836166679859,0.0019065277410671114,-0.008366426203865558
1782858771875309800,2.175309814453125,0.1388239488005638,-0.00850001685512252,-0.004472505771555006
1782858771885259000,2.185259033203125,0.13194178807139395,-0.011759548374032602,-0.005783844098448753
1782858771895238000,2.19523779296875,0.12775310420989988,-0.0066320127598475664,-0.013087390311155467
1782858771905186800,2.205186767578125,0.13284136725962162,-0.008437829205952584,-0.00871648175055161
1782858771915135700,2.2151357421875,0.12670681002736092,-0.004499886968825012,-0.009766867586318402
1782858771925084000,2.225083984375,0.12326397609710693,-0.0002889182102866471,-0.004622855761367828
1782858771935063800,2.235063720703125,0.12430910123586654,-0.005699672946333885,-0.0007040383498184383
1782858771945012000,2.245011962890625,0.13732698824107645,-0.009054664196353404,-0.009346888608578591
1782858771954961000,2.2549609375,0.1367331140011549,-0.014404528191173448,-0.006705160194449126
1782858771964939800,2.264939697265625,0.13179741116464136,-0.0012019870677497236,-0.003300009659770876
1782858771974888700,2.274888671875,0.13524082961678505,-0.0007298577776644378,-0.0027600027652457354
1782858771984838000,2.284837890625,0.130005851572752,-0.009615010626008733,0.005967201308719814
1782858771994785800,2.294785888671875,0.12701309949755668,-0.006858514992101118,0.0020456256845034658
1782858772004765700,2.304765625,0.1291045188188553,-0.010900967916473745,-0.0014845029367133973
1782858772014713900,2.3147138671875,0.13299509651660918,-0.00345959326880984,-0.0072867229420691725
1782858772024662800,2.324662841796875,0.12207388952970503,0.00032969774524681266,-0.0007621800115332007
1782858772034612000,2.334612060546875,0.12417173859179019,0.0013061232956591993,0.00070486033372581
1782858772044590800,2.3445908203125,0.12821370745897293,0.0006629117549862712,-0.0015476130344904957
1782858772054540000,2.3545400390625,0.13195523207485674,-0.005376934664836153,-0.0035333434916101393
1782858772064489000,2.364489013671875,0.12731646635830401,0.0053853645664639765,-0.013852255470119416
1782858772074436900,2.374436767578125,0.13465163155198095,-0.011063264072407037,-0.006194507258571684
1782858772084416800,2.384416748046875,0.13061258529424666,-0.00628652379042469,0.0024170528127811846
1782858772094365000,2.394364990234375,0.1303150636523962,-0.004619065502239391,-0.0027064824797213075
1782858772104313900,2.40431396484375,0.12537643820643424,-0.009149575938191264,-0.00045461189970374103
1782858772114262800,2.4142626953125,0.12762275582849977,-0.0022752971213776617,-0.008413900341093539
1782858772124242000,2.424241943359375,0.1262754328727722,-0.0022915267369709906,-0.01160053102057427
1782858772134190800,2.43419091796875,0.13076514550745486,0.001356063384609297,-0.003984356928430497
1782858772144138800,2.444138671875,0.13136544948816298,0.01278199589010328,-0.0027328590299934147
1782858772154087700,2.454087646484375,0.12822189076542853,0.002635627466905862,-0.004156279429234564
1782858772164066800,2.46406689453125,0.12463000375330448,-0.0035456458507571367,0.006927369844075292
1782858772174015700,2.474015625,0.13136369592249392,0.001559887994173914,0.0037635903172194957
1782858772183964700,2.483964599609375,0.13031214104294775,0.006643739730259403,-0.0012752806328237055
1782858772193913900,2.493913818359375,0.11834054822027683,0.001454473124630749,-0.0016749474748969078
1782858772203893000,2.50389306640625,0.12896598713099955,-0.0007350271431263536,-0.004349975370429456
1782858772213842000,2.513842041015625,0.14363047229945658,0.00036412973781116306,-0.007236618456337601
1782858772223789800,2.523789794921875,0.13629589162766934,0.0018262290464714167,0.0004056033925153315
1782858772233739000,2.533739013671875,0.12836451410651206,-0.002812664534244686,-0.010824687809869647
1782858772243718000,2.5437177734375,0.1232780046224594,0.0030392489648889747,-0.013931038061063735
1782858772253666800,2.553666748046875,0.13314882577359677,-0.0002821688090916723,-0.0140702090697363
1782858772263615700,2.56361572265625,0.12432020715177058,0.0024125867002177982,0.00015195742500945925
1782858772273565000,2.57356494140625,0.12821253841519356,0.004278270974243059,-0.0016113989857025443
1782858772283543800,2.583543701171875,0.12626549600064754,0.0014700999520253389,-0.0033972229565493763
1782858772293492000,2.593491943359375,0.12686638450324533,0.0028108653028029945,-0.0022077209110371765
1782858772303441000,2.60344091796875,0.1327028355717659,0.0011843874789774418,-0.012655008509568869
1782858772313389800,2.613389892578125,0.12746668848395346,-0.0017815405213739723,-0.005296992163266986
1782858772323368700,2.62336865234375,0.12851239814460277,-0.0012303820451721548,-0.003710124830622226
1782858772333317600,2.633317626953125,0.1289601419121027,0.0026019169935490934,-0.0038608584129251537
1782858772343266800,2.643266845703125,0.1315045656979084,-0.0009582871055230498,-0.010599044094141571
1782858772353214700,2.653214599609375,0.1358434716850519,0.00035158991664648053,-0.011355634615104644
1782858772363195000,2.66319482421875,0.1346457863330841,-0.004298044253792614,-0.010920658997632563
1782858772373142800,2.673142822265625,0.122972884196043,0.0017800518171861767,-0.008262655302137135
1782858772383092000,2.683092041015625,0.12461948235929012,0.0041889030572026965,-0.000450392382312566
1782858772393070800,2.69307080078125,0.13015607369840143,-0.01041959587400779,0.002193180929031223
1782858772403020000,2.70302001953125,0.1306061555534601,-0.004967148287547752,0.011016374457068741
1782858772412969000,2.712968994140625,0.13763795388638972,0.0026008666807785627,0.004421287040971219
1782858772422918000,2.72291796875,0.13075403959155082,-0.006038375981943681,-0.000574183158762753
1782858772432896800,2.732896728515625,0.12761106539070605,-0.007306441422691569,-0.008483860304765403
1782858772442845700,2.742845703125,0.12910919499397278,-0.001739272282226011,-0.005697042597830295
1782858772452793900,2.7527939453125,0.12013093876838683,-0.0007528367944527417,-0.007581632501725107
1782858772462742800,2.76274267578125,0.1225245559066534,0.00310662424582988,-0.008496573655866086
1782858772472722000,2.772721923828125,0.13314824125170707,-0.005478130016988143,-0.0011539740744046867
1782858772482670800,2.7826708984375,0.12222352713346481,-0.013992047533299773,-0.010504132352303713
1782858772492619800,2.792619873046875,0.12566343845427036,-0.005851420308789238,-0.007072349539026618
1782858772502567700,2.802567626953125,0.14302140049040316,0.00170233780532144,-0.0029575528976507484
1782858772512547800,2.8125478515625,0.1370376499056816,0.001288514573732391,0.005056844998151064
1782858772522495700,2.822495849609375,0.1282102003276348,0.007548935808520764,0.005432254181802272
1782858772532445000,2.83244482421875,0.12237667186856269,0.0028121804770547894,-0.0016647548744454978
1782858772542393900,2.842393798828125,0.12402268550992011,0.0023370737785939127,-0.006099193657934665
1782858772552373000,2.852373046875,0.12402151646614074,-0.006789504876499995,-0.009639039955567568
1782858772562322000,2.862322021484375,0.13644611375331878,-0.0006482439088169485,-0.007232106678001582
1782858772572270800,2.872270751953125,0.13375322140753268,-0.004394956156471744,-0.0022705570141784846
1782858772582219000,2.882218994140625,0.12971008349657057,-0.0011334518761839717,0.005511329033691436
1782858772592199000,2.892198974609375,0.13030863391160963,0.0005345726675819605,0.0024833595146425066
1782858772602146800,2.902146728515625,0.12207798118293285,-0.008681017711525782,0.00047022959394380447
1782858772612095700,2.912095703125,0.1213303776860237,-0.00032397125735878944,0.0024658603905700145
1782858772622045000,2.922044921875,0.12297522228360175,-0.005279894897993654,-0.002391699175816029
1782858772632023800,2.93202392578125,0.13105799097418785,-0.005915461988328025,-0.006088909725937992
1782858772641972700,2.94197265625,0.13165829495489598,-0.007606684744590893,-0.003836016232613474
1782858772651921000,2.9519208984375,0.13510112888514994,0.0013799922494683414,-0.0021436061662621795
1782858772661869800,2.961869873046875,0.1256751288920641,0.006519492296082899,-0.0030028716104105115
1782858772671848700,2.9718486328125,0.1262713412195444,0.001095594950672239,-0.005044350842759013
1782858772681797600,2.981797607421875,0.1379401517033577,0.0011186652990058065,-0.007056256920751184
1782858772691747000,2.9917470703125,0.1298573830127716,-0.001787696267524734,-0.003104468821361661
1782858772701696000,3.001696044921875,0.12417173859179019,-0.0002835479154251516,-0.004421031312644481
1782858772711675000,3.0116748046875,0.1253700084656477,-0.003874083220679313,-0.005717482597660273
1782858772721623800,3.021623779296875,0.1303062958240509,-0.01051295497957617,-0.00546801961492747
1782858772731572000,3.031572021484375,0.1226724399447441,0.0008553381877020001,-0.007830236967932433
1782858772741521000,3.04152099609375,0.12342179700732231,-0.00183428448876366,-0.0103146924611181
1782858772751499800,3.051499755859375,0.12790858703255653,0.0023370737785939127,-0.0026658947410061955
1782858772761449000,3.061448974609375,0.1307505324602127,0.0013728775220923125,-0.0032734504464082418
1782858772771398000,3.07139794921875,0.13045125725269316,-0.0032709022962953893,-0.012243322436138987
1782858772781345800,3.081345703125,0.13149638239145278,-0.0007269443013705313,-0.0025347974409349262
1782858772791340300,3.09134033203125,0.13015139752328395,-0.0045027456461917605,0.0015006320876069367
1782858772801288400,3.101288330078125,0.1320972708940506,-0.0012747417767066508,-0.0007916801006533205
1782858772811237600,3.111237548828125,0.13329261815845966,0.001791166866244748,-0.007386274326406419
1782858772821186600,3.1211865234375,0.13389058405160903,-0.006755757870525121,-0.010991422678902744
1782858772831165400,3.13116552734375,0.13358955527842045,-0.0043858321350999175,-0.0012187281399965286
1782858772841114600,3.141114501953125,0.12879939839243887,-0.0014738902111537753,0.0008511004040017724
1782858772851063600,3.1510634765625,0.13194529520273207,0.0006892883052583784,-0.0015362513902597128
1782858772861042400,3.16104248046875,0.13628653927743434,-0.0032879173631779847,-0.000896254719980061
1782858772870991400,3.170991455078125,0.1314998895227909,-0.0006423621573019773,-0.00372912179203704
1782858772880939500,3.180939453125,0.1309036771953106,-0.00009191606715321541,0.002296294243633747
1782858772890888400,3.190888427734375,0.13239654610157012,-0.0026153975296299902,0.00040735695818439125
1782858772900867600,3.20086767578125,0.1362882928431034,-0.002454380015330389,-0.012547164220921694
1782858772910816500,3.21081640625,0.13569032694995403,-0.007624156469199806,-0.006894618351943791
1782858772920765400,3.220765380859375,0.12476561283171177,-0.000766509126778692,-0.011590758545231073
1782858772930714400,3.23071435546875,0.13568857338428497,-0.005426089302496984,-0.0039629670805297786
1782858772940693500,3.240693603515625,0.13314473412036895,-0.004377822358580306,-0.0026182562069967386
1782858772950642400,3.250642333984375,0.13419044378101824,0.0038583285291213538,-0.014091361455619334
1782858772960590300,3.26059033203125,0.13733283345997332,0.0013786496757529675,-0.004283230277150869
1782858772970539500,3.27053955078125,0.1377823307931423,0.0021095668993424623,-0.00604211144214496
1782858772980518700,3.2805185546875,0.12341770535409449,-0.004641039872029796,-0.009584624620899557
1782858772990467600,3.290467529296875,0.11997428690195083,-0.0015644545714370906,-0.005885459575708955
1782858773000416500,3.30041650390625,0.128206108674407,0.0048691495394799856,0.0005351845889352262
1782858773010364400,3.310364501953125,0.12985153779387473,0.001969802235625684,-0.0006639986003749072
1782858773020344600,3.320344482421875,0.13688392064869404,0.000031911241915076967,-0.01147429255871102
1782858773030292500,3.33029248046875,0.1259586220085621,-0.0060255804324522615,-0.006860825680196285
1782858773040241400,3.340241455078125,0.12132044081389903,-0.007011869789753109,-0.0030111827810294927
1782858773050190300,3.3501904296875,0.12490940521657466,-0.0025714122574310746,-0.0017644889218732713
1782858773060169500,3.36016943359375,0.12670856359302995,-0.005897378342365846,-0.008556541948486119
1782858773070118400,3.370118408203125,0.12191957575082778,-0.007116773202642798,-0.0066186874873936175
1782858773080067300,3.3800673828125,0.13688216708302497,-0.005918959986511618,-0.008939148057904094
1782858773090015500,3.390015380859375,0.13882745593190193,-0.006618934082565829,-0.002395443769171834
1782858773099995400,3.399995361328125,0.12999942183196544,-0.0017073975729290395,-0.005788629871420562
1782858773109943300,3.409943359375,0.12955284710824488,-0.00316512210057117,-0.007321922119613736
1782858773119892500,3.419892578125,0.13000175991952417,0.0020358075433876363,-0.008335556141566485
1782858773129841700,3.429841552734375,0.12670973263680935,-0.0037643757685087618,-0.0020883505813777447
1782858773139820500,3.439820556640625,0.12940262498259544,-0.012812865952402353,-0.007725260489806532
1782858773149769500,3.44976953125,0.12297171515226363,-0.002807531701400876,-0.004329608435835689
1782858773159717600,3.459717529296875,0.12147943076789379,0.0063229102780576795,-0.00019309315299615261
1782858773169666600,3.46966650390625,0.12537293107509612,0.004820542891090736,0.0010328136464580894
1782858773179645400,3.4796455078125,0.12626958765387533,0.0029387385993264615,-0.003416914037708193
1782858773189594600,3.4895947265625,0.1187865384221077,-0.009716434307023882,0.003762092479877174
1782858773199543600,3.49954345703125,0.13150631926357745,-0.0003843962077051401,-0.004647898871079087
1782858773209492500,3.509492431640625,0.13733926320075987,-0.005564894984988495,0.0013998203279450535
1782858773219471400,3.519471435546875,0.12611585839688777,-0.009725640526786447,0.0008912132186815142
1782858773229420500,3.529420654296875,0.12686521545946597,-0.004467126343538985,-0.004137866989709436
1782858773239368400,3.539368408203125,0.12103051795661449,0.004650675350055099,0.007609324226249009
1782858773249317400,3.5493173828125,0.13060498650968075,0.003569437718298286,0.006442454137653112
1782858773259296500,3.559296630859375,0.12671499333381653,0.005727894393820316,-0.003610226386412978
1782858773269245400,3.569245361328125,0.12372457934617996,-0.005571434323629364,0.000051364861056208605
1782858773279194400,3.5791943359375,0.13105799097418785,-0.0029937841216567903,0.0007042210129089653
1782858773289173200,3.58917333984375,0.1261193655282259,0.0035531441706232723,-0.009637816112861037
1782858773299122700,3.599122802734375,0.12941080828905105,0.008177168975770473,-0.007252729340922087
1782858773309070300,3.6090703125,0.13450082490444182,0.004074711226159706,0.00014662366276606915
1782858773319019500,3.61901953125,0.13584873238205908,-0.005797041506739333,-0.002331182893924415
1782858773328998700,3.62899853515625,0.13046119412481785,-0.0038587577873840924,-0.005956004061270505
1782858773338947600,3.638947509765625,0.12971417514979838,0.0014078301044646649,-0.004841832274291664
1782858773348896500,3.648896484375,0.13555179526209832,0.00018181370715610683,-0.012355112247541546
1782858773358845400,3.658845458984375,0.12926818494796752,0.005496277595032006,-0.010258450495544821
1782858773368824600,3.668824462890625,0.13061609242558478,0.004338257533172145,-0.0024296565660275517
1782858773378773500,3.6787734375,0.11954583235681056,-0.000491336314054206,-0.0074506813321262595
1782858773388721400,3.688721435546875,0.12582944267094134,0.002425884573208168,-0.008664514101296662
1782858773398670300,3.69867041015625,0.1246335108846426,-0.0018803886528126895,-0.009209617296047507
1782858773408649500,3.7086494140625,0.12373159360885619,0.0014310922490432857,0.002504932025633752
1782858773418598400,3.718598388671875,0.1394417884379625,-0.009201863247854634,-0.0016378851338289678
1782858773428547300,3.72854736328125,0.1330079559981823,-0.009900028979312627,-0.004496982625685632
1782858773438496300,3.738496337890625,0.12507950108647345,-0.008790670364769175,-0.004885744481254369
1782858773448475400,3.748475341796875,0.1324099901050329,-0.013271286377543583,-0.0049946299495175475
1782858773458423300,3.75842333984375,0.13420681039392948,-0.005624543617200106,-0.004178071135934442
1782858773468372200,3.768372314453125,0.12223521757125853,-0.0014881105327513068,0.0019692725126631556
1782858773478321700,3.77832177734375,0.1268722297221422,-0.0031772143971640614,-0.0006420242305845022
1782858773488300500,3.788300537109375,0.12717208945155142,0.0011965711071155966,-0.0010921426182612776
1782858773498249500,3.79824951171875,0.12941548446416853,-0.00009738682671450078,-0.005548117380123585
1782858773508198400,3.808198486328125,0.1412415313363075,0.003417635556915775,-0.0017316460981965064
1782858773518146600,3.818146484375,0.13435761704146862,-0.005146514309290797,-0.0026403036420233547
1782858773528126500,3.82812646484375,0.11699907048344611,-0.0022774616790004073,-0.0021265819662250576
1782858773538074400,3.838074462890625,0.12552782937586307,-0.0032495124483946708,-0.002392502893414348
1782858773548023600,3.8480234375,0.13435469443202017,-0.0029135128265246747,-0.000577288431301713
1782858773557972500,3.857972412109375,0.12567629793584345,-0.0007794690730515867,-0.0010160634410567582
1782858773567951400,3.867951416015625,0.13630173684656618,-0.007086387197533622,0.003099847445171326
1782858773577900300,3.877900390625,0.14064239639937876,-0.01111692135524936,-0.00403075335342437
1782858773587849500,3.887849365234375,0.12373276265263557,0.0022483269160613415,-0.007538505746051668
1782858773597797400,3.89779736328125,0.12672609924972056,0.0011961875146254896,-0.005985686813481152
1782858773607777300,3.90777734375,0.13870003015995025,0.0041999267747160045,-0.004043941628560424
1782858773617725400,3.917725341796875,0.13001695748865605,0.00035327955023385584,-0.0034522958783432837
1782858773627674600,3.927674560546875,0.13151099543869493,0.005055511557590216,-0.006331267114449292
1782858773637623600,3.93762353515625,0.13360825997889042,-0.002160447703208774,0.0017582053115591406
1782858773647602400,3.9476025390625,0.13330898477137088,-0.005001909073675051,0.0016307978059165178
1782858773657551600,3.957551513671875,0.12777356247603894,0.003853067832114175,-0.009110906161926686
1782858773667499500,3.96749951171875,0.1289677406966686,-0.002022080412134528,-0.0059777044364251195
1782858773677448400,3.977448486328125,0.12462591210007667,0.002386931669153273,0.003098313075210899
1782858773687427600,3.987427490234375,0.12223171043992041,0.005274798597767949,-0.004277622520271689
1782858773697376500,3.99737646484375,0.13240706749558448,0.003173396738572046,0.0012699468705803156
1782858773707325400,4.007325439453125,0.14004150789678096,0.00040112814679741857,0.0012310213659889996
1782858773717274400,4.0172744140625,0.13210896133184433,-0.0037357615953776983,-0.0025457754926756023
1782858773727253500,4.02725341796875,0.12522387799322604,-0.005798338414682075,-0.004016889224853366
1782858773737202400,4.037202392578125,0.1270166066288948,-0.005461169749032706,-0.004988930861093104
1782858773747150300,4.047150390625,0.14167992275357247,0.003467959238355979,0.0018855214856564999
1782858773757130500,4.057130615234375,0.13479133228361606,-0.0022379699188284576,-0.005180288714729249
1782858773767078400,4.067078369140625,0.12745616708993912,-0.0024665088445413857,-0.0025984737942926586
1782858773777027300,4.07702734375,0.12386252651214599,-0.010821664735721423,-0.003349474824685603
1782858773786976500,4.0869765625,0.12775310420989988,-0.009553909822227433,-0.007458681975491345
1782858773796978000,4.09697802734375,0.13478373349905012,-0.002839908734196797,-0.0023697613386437296
1782858773806927000,4.106927001953125,0.1322410632789135,-0.0014837722843512892,-0.0030582915920764208
1782858773816875000,4.116875,0.12400807246267795,-0.005908447725651785,-0.002559383892919868
1782858773826824200,4.12682421875,0.12879647578299044,-0.007297363067092374,-0.00400793873341754
1782858773836803000,4.136802978515625,0.1364268245309591,-0.0038795905128587035,-0.010200783757865428
1782858773846752300,4.146752197265625,0.13208499593436718,0.0001983355836942792,-0.003506035359576344
1782858773856701200,4.156701171875,0.1307411801099777,-0.000932823870703578,0.002025313548836857
1782858773866650000,4.166650146484375,0.12999533017873763,-0.0021253946561366316,0.0031970607419498265
1782858773876629000,4.17662890625,0.13104337792694568,0.0015348448844626544,-0.0010168488923460244
1782858773886578200,4.186578125,0.1356833126872778,-0.006430069580115378,0.0023732502036727964
1782858773896526000,4.196526123046875,0.12864917626678943,-0.003121328624617308,-0.003414174091350287
1782858773906475000,4.20647509765625,0.1331377198576927,-0.0019443937997333704,-0.004171732726693153
1782858773916454100,4.2164541015625,0.13044248942434786,0.004706405858974904,-0.007648742921184748
1782858773926403000,4.226403076171875,0.12415595650076866,-0.006600165450014173,-0.0004738463231362402
1782858773936352000,4.23635205078125,0.1271475395321846,-0.004950936938263476,-0.00040549379466101526
1782858773946300000,4.2462998046875,0.1231084932744503,-0.0035942798986099657,-0.005268788982089608
1782858773956280000,4.256280029296875,0.13418167595267294,-0.00615349939474836,-0.007672525655571371
1782858773966228000,4.26622802734375,0.12550152589082716,-0.016640351818688212,-0.007874112642277031
1782858773976177000,4.276177001953125,0.12699790192842483,-0.004571710096020251,0.0005549670016393065
1782858773986126000,4.2861259765625,0.12984101639986037,0.00393421591008082,0.0011957673895172775
1782858773996105200,4.296105224609375,0.13373568575084208,-0.006267572494782507,0.0046019773701205845
1782858774006054100,4.30605419921875,0.12415946363210677,-0.0030800284998491407,-0.00468808475099504
1782858774016003000,4.316003173828125,0.12041676997244358,0.0003266746710985899,0.0003539097378961742
1782858774025951200,4.325951171875,0.1279015727698803,0.0009237272487953304,0.0006662088237702846
1782858774035931100,4.33593115234375,0.13732757276296614,-0.005677351516671479,-0.0029838746489956975
1782858774045879000,4.345879150390625,0.13658113830983637,0.00558912524394691,0.005188252825476229
1782858774055828000,4.355827880859375,0.12790391085743905,0.00036271409885957833,-0.0008638137551024556
1782858774065777200,4.365777099609375,0.13209376376271248,-0.0063150283657014365,-0.01095459779985249
1782858774075756000,4.375756103515625,0.13568506625294685,-0.0076935319109819825,-0.00820394738484174
1782858774085705000,4.385705078125,0.12461422166228293,-0.007627572268992662,-0.0030304902696982024
1782858774095654000,4.39565380859375,0.12221651287078857,-0.0050912039254792036,-0.0069966174216941
1782858774105602000,4.40560205078125,0.12924831120371819,0.001167911268211901,0.003430686834733933
1782858774115581000,4.415580810546875,0.1273047759205103,-0.006249470582511275,-0.0013118497835472225
1782858774125530000,4.425530029296875,0.1292518183350563,-0.002078632904961705,-0.007919102561473846
1782858774135479000,4.43547900390625,0.12461422166228293,-0.0018716938897036014,-0.008806973045598715
1782858774145428200,4.44542822265625,0.12161854697763919,-0.0043823067374527454,-0.007667977344617247
1782858774155407000,4.455406982421875,0.1231166765809059,-0.00178034407813102,-0.003742456197645515
1782858774165356000,4.46535595703125,0.13254501466155053,-0.00033546076575294135,-0.012721315211430191
1782858774175304200,4.47530419921875,0.12850421483814717,-0.0028038967058993873,-0.01615028501311317
1782858774185284000,4.4852841796875,0.13134499122202395,-0.004367894619610161,-0.013522603390645234
1782858774195232300,4.495232177734375,0.1290992581218481,0.0017316826308146117,-0.006377864468842745
1782858774205181200,4.50518115234375,0.13209376376271248,-0.004398161893710494,-0.010627685666736214
1782858774215130000,4.515130126953125,0.13015081300139428,-0.008650613440107554,-0.004709565930441022
1782858774225109000,4.52510888671875,0.13449088803231715,-0.00844778434438631,-0.011632405729871242
1782858774235058200,4.53505810546875,0.13164952712655068,-0.007033497099671512,-0.009468962351977825
1782858774245007000,4.545007080078125,0.1296960549712181,-0.0047836540799587966,-0.007162438975274563
1782858774254955000,4.554955078125,0.13044248942434786,-0.008354644434526562,-0.0011612623317167163
1782858774264935000,4.564934814453125,0.13014321421682834,-0.008979954992327838,-0.012639171619620174
1782858774274883000,4.574883056640625,0.1298451080530882,-0.004318703449331223,-0.007957571408338844
1782858774284832000,4.58483203125,0.1271522157073021,-0.002025551010854542,-0.0026030403715558348
1782858774294781000,4.594781005859375,0.12760229756236074,-0.007609817416593432,-0.010682046202477067
1782858774304760000,4.604760009765625,0.1331383043795824,-0.006497380928974598,-0.006914601694047451
1782858774314709200,4.614709228515625,0.12460954548716545,-0.0012581468349322676,0.0019478095995262264
1782858774324657200,4.6246572265625,0.12580781536102295,0.002372647415474057,-0.007603771268296987
1782858774334606000,4.634606201171875,0.1249117433041334,-0.0008211801897734404,-0.007880213589500635
1782858774344585200,4.644585205078125,0.12162146958708762,0.004270279464032501,-0.0008970401712693274
1782858774354534100,4.6545341796875,0.1280576401144266,-0.004603009416582062,-0.0029623569369316097
1782858774364483000,4.664483154296875,0.133743284535408,-0.0007253277330193668,-0.0039040947664529084
1782858774374432000,4.674431884765625,0.13104863862395286,-0.0001825534926727414,-0.004671261480357498
1782858774384411100,4.6844111328125,0.13194529520273207,0.005773943758942186,-0.004847841889970004
1782858774394360000,4.694360107421875,0.12401333315968513,-0.003953413800895214,0.00031355946119874715
1782858774404308000,4.704307861328125,0.12820318606495856,-0.007073208055552095,-0.010497720877826213
1782858774414257200,4.714257080078125,0.13344459384977816,0.0034127310529351233,-0.007689020132645964
1782858774424236000,4.724236083984375,0.12865794409513473,0.000018978695105761287,-0.001055244673974812
1782858774434185000,4.73418505859375,0.13195055589973925,-0.0030051457658875733,-0.008471640144009142
1782858774444134000,4.7441337890625,0.12342121248543261,-0.007286138420179486,-0.004025529189035296
1782858774454082000,4.75408203125,0.12432137619554996,-0.005038085498753935,-0.0020737010015174744
1782858774464062000,4.76406201171875,0.129556354239583,-0.011497180243954061,-0.007298669108189642
1782858774474010000,4.774010009765625,0.1404758076608181,-0.010164689531177282,-0.00814136701002717
1782858774483959300,4.783959228515625,0.13030512678027154,-0.004205918124085292,-0.004225636604707688
1782858774493908200,4.793908203125,0.12971008349657057,0.0033850484615657477,0.007718392357602715
1782858774503887000,4.80388720703125,0.13464870894253253,0.0029063615665305405,0.0025460312210023404
1782858774513836000,4.8138359375,0.12207681213915347,-0.012935688614472746,-0.0018046565354801712
1782858774523785200,4.82378515625,0.11818448087573051,-0.002865070574916899,-0.009609521600138395
1782858774533733000,4.833733154296875,0.13120295240283011,-0.0018831103328615425,-0.008201700628828256
1782858774543713000,4.843713134765625,0.12252104877531528,-0.010483674086164683,-0.011141827467642723
1782858774553661200,4.8536611328125,0.1274608432650566,-0.0015876710502430796,-0.0031823380968533455
1782858774563610000,4.863610107421875,0.1265641866862774,0.0013695165212266147,0.00036770080123096704
1782858774573559000,4.87355908203125,0.1294084702014923,0.011525502156140281,-0.004624554528109729
1782858774583538200,4.8835380859375,0.13314882577359677,0.0015635595222935079,-0.007135532702039927
1782858774593487000,4.893487060546875,0.13838672642707825,-0.003460661847889423,0.0016915880824439227
1782858774603435000,4.90343505859375,0.12641513360440731,-0.002519426341867074,-0.0030457426377572118
1782858774613384000,4.913384033203125,0.11892916176319121,-0.013812617579475044,-0.006669394761323929
1782858774623363000,4.923363037109375,0.12551204728484153,-0.007062083873338997,-0.0006057838734239339
1782858774633312000,4.93331201171875,0.13015139752328395,-0.0032889220101758837,-0.004639861695095896
1782858774643261200,4.94326123046875,0.1346416946798563,-0.014303232374321668,-0.00389445015527308
1782858774653240300,4.953240234375,0.13479250132739543,-0.005482979722041636,-0.011743738883547484
1782858774663189200,4.963189208984375,0.1349421389311552,-0.004928843837464228,-0.00705596465980634
1782858774673138200,4.97313818359375,0.1328466279566288,-0.01037902640160173,-0.007326013772841543
1782858774683086000,4.983086181640625,0.1298532913595438,0.0012726137517020107,-0.004072893728408963
1782858774693066200,4.993066162109375,0.1319493868559599,0.004373977300524711,-0.002876048626657575
1782858774703014100,5.00301416015625,0.14002806389331818,-0.0017944274024106561,-0.00968846858786419
1782858774712963000,5.012963134765625,0.127159814491868,-0.00020054580708965658,-0.00406315778568387
1782858774722912000,5.022912109375,0.12775894942879676,-0.006304506971687078,0.0028066183859482407
1782858774732891100,5.03289111328125,0.12820727771818638,-0.005975439414102584,0.009317808644566685
1782858774742840000,5.042840087890625,0.12296996158659458,-0.006424407024309038,-0.006248575533367693
1782858774752789000,5.0527890625,0.12341828987598419,-0.0010712824933230877,-0.008789894046634435
1782858774762737200,5.062737060546875,0.11832710421681403,-0.0027864523807540533,-0.0007107420852407812
1782858774772717000,5.072717041015625,0.13149404430389403,-0.004566796458885074,-0.008265596177894621
1782858774782665000,5.0826650390625,0.13897124831676483,-0.0014731412924826144,-0.00536857782844454
1782858774792623400,5.092623291015625,0.13418518308401106,-0.010630699607729912,-0.005968772211298346
1782858774802572300,5.102572265625,0.12356208226084708,-0.0047408378515392535,-0.005202811073791235
1782858774812551200,5.11255126953125,0.13149287526011466,-0.0012687595604918896,-0.008662577872537077
1782858774822500400,5.122500244140625,0.1337345167070627,-0.00372979764547199,-0.0006983027287758886
1782858774832448300,5.1324482421875,0.13103987079560755,-0.006527246344275772,-0.0027684052674099803
1782858774842397400,5.1423974609375,0.1283463939279318,-0.0005556976540014147,-0.00558203791603446
1782858774852376300,5.152376220703125,0.13508242418467997,-0.002707213132083416,-0.002100095818098634
1782858774862325500,5.162325439453125,0.12835048558115958,-0.00414126452319324,-0.0007055727197788655
1782858774872274400,5.1722744140625,0.1201192483305931,-0.009799399882741271,-0.0026100181016139685
1782858774882223400,5.182223388671875,0.1293956107199192,-0.010844543287809937,0.0009004925036802887
1782858774892202500,5.192202392578125,0.1338835697889328,-0.0032125688383355736,-0.003351593716535717
1782858774902151400,5.2021513671875,0.1331342127263546,0.00007905658558011055,-0.005501410427875816
1782858774912099300,5.212099365234375,0.132236387103796,-0.003118040688987821,-0.0006881466609425842
1782858774922048300,5.22204833984375,0.1323848556637764,-0.0063464281509630375,-0.004236431993357837
1782858774932027400,5.23202734375,0.1349286949276924,-0.00507470944840461,-0.006271353620756417
1782858774941976300,5.241976318359375,0.129243050506711,-0.005387921849731356,-0.0065343884711153806
1782858774951925200,5.25192529296875,0.12415537197887896,-0.008492116676457226,0.0012133578451350331
1782858774961873400,5.261873291015625,0.13028992921113966,-0.0072651504310779266,-0.0012352408833801746
1782858774971853300,5.271853271484375,0.1344803666383028,-0.023536815067846325,-0.0007912599755451082
1782858774981801200,5.28180126953125,0.13043898229300974,-0.008983699585683643,-0.008369787204731255
1782858774991750100,5.291750244140625,0.13881810358166694,-0.012220215555187314,-0.003675236180331558
1782858775001699300,5.30169921875,0.13343231889009474,-0.007998542739544064,0.0001004646997898817
1782858775011678200,5.31167822265625,0.12370821273326874,-0.0029348296091891825,-0.010213588440511375
1782858775021627400,5.32162744140625,0.12535481089651584,-0.009481840099859981,-0.0019787892596796154
1782858775031576300,5.331576416015625,0.12475450691580772,-0.007451813843287527,-0.004135547168459743
1782858775041524500,5.3415244140625,0.12729425452649593,-0.002352043018862605,-0.0006580803162418306
1782858775051504400,5.35150439453125,0.13432955999076365,-0.0005862389227375388,-0.006763484519254416
1782858775061452300,5.361452392578125,0.13178455168306827,0.0022092187483794988,-0.004073478250298649
1782858775071401500,5.3714013671875,0.12594868513643742,0.0009704159347340464,-0.00688219726178795
1782858775081350400,5.381350341796875,0.12565057897269724,-0.0030979660153388974,-0.0014138853859156368
1782858775091329300,5.391329345703125,0.13418050690889358,0.0025943090758286415,0.0026728542047552762
1782858775101278200,5.4012783203125,0.13148761456310748,-0.0065669207675382495,-0.006855272722244263
1782858775111226400,5.411226318359375,0.12819675632417202,-0.010726451599784194,-0.0011037417245097457
1782858775121206300,5.421206298828125,0.1323854401856661,-0.007006115902401506,-0.0011573168089613318
1782858775131154200,5.431154296875,0.13372750244438647,0.0031018202065490183,-0.004978811325877904
1782858775141103400,5.441103271484375,0.13043138350844383,-0.005686831731069833,-0.0034974684606306253
1782858775151052300,5.45105224609375,0.1337257488787174,-0.007793996610771865,-0.01006402390198782
1782858775161031200,5.46103125,0.12908347603082657,-0.002964347964618355,-0.007768716039042919
1782858775170980400,5.47098046875,0.1284837565720081,-0.006837152543663978,-0.00517968592653051
1782858775180929500,5.480929443359375,0.13042904542088507,0.002423555618803948,-0.005021061298716813
1782858775190877400,5.49087744140625,0.13566636155247688,-0.007770597468875348,-0.009479684675391764
1782858775200857300,5.500857421875,0.13207447454035282,-0.010402754337061195,0.004180518821347505
1782858775210805500,5.510805419921875,0.12563830401301385,-0.012816044290177523,-0.004151913781370967
1782858775220754400,5.52075439453125,0.12728490217626093,-0.010626553155574947,-0.0041783268642611796
1782858775230703400,5.530703369140625,0.12967968835830687,-0.0028406485197134314,0.003467310784384608
1782858775240682200,5.54068212890625,0.12758476190567017,-0.009630217328295112,-0.003667966189328581
1782858775250631400,5.55063134765625,0.12608487873673438,-0.007706774985045194,-0.005668163563217967
1782858775260580400,5.560580322265625,0.12787819189429284,-0.0035222193093970415,-0.015509923016652464
1782858775270528300,5.5705283203125,0.13132044130265713,-0.003599796323943883,-0.014669654533918946
1782858775280507400,5.58050732421875,0.12473580221533774,-0.009322539618611335,0.00001232975861057639
1782858775290456300,5.590456298828125,0.12922142319679258,-0.008007200970035046,-0.007532349999900907
1782858775300405200,5.6004052734375,0.1200929448455572,-0.0020683489729650317,0.0026848917024210094
1782858775310354200,5.610354248046875,0.12428338227272033,0.0010918320910073816,0.0022567294182255864
1782858775320333300,5.620333251953125,0.13071838375627995,-0.007589231286291033,-0.0029756000109948215
1782858775330282500,5.630282470703125,0.12847498874366284,-0.00644513928508386,-0.010628617248497903
1782858775340230100,5.640230224609375,0.13116554300189018,0.0016530279040336607,-0.00543797153653577
1782858775350179300,5.650179443359375,0.13505787426531313,0.004853102586977184,-0.004340184628777206
1782858775360158500,5.660158447265625,0.1320621995806694,-0.003428330480866134,-0.01149392884094268
1782858775370107400,5.670107421875,0.127570148858428,-0.0005401347586885094,-0.0064708034493029115
1782858775380056300,5.680056396484375,0.1227817455381155,-0.004835347734577953,-0.0013024609006941318
1782858775390005200,5.690005126953125,0.12442951274514198,-0.0008924187950789928,-0.002415609774366021
1782858775399984400,5.699984375,0.12966741339862345,-0.004331179338414222,-0.008825842142850161
1782858775409933300,5.709933349609375,0.13655015864968298,-0.004620097548700869,-0.00662316273311153
1782858775419881200,5.719881103515625,0.1316132867693901,-0.001662142792250961,0.003659344491455704
1782858775429830400,5.729830322265625,0.12937164532244205,-0.005641969676036388,-0.0005594787799753249
1782858775439809300,5.739809326171875,0.12473580221533774,-0.0023215200164355336,-0.0008714308059774339
1782858775449758200,5.74975830078125,0.13341419871151447,-0.008978000497259199,-0.004549078139103949
1782858775459707100,5.75970703125,0.13640636626482008,-0.0043925541368313135,-0.001850979895237833
1782858775469655300,5.7696552734375,0.13101941252946853,-0.01245862742094323,0.002616319978237152
1782858775479635200,5.77963525390625,0.12832593566179273,-0.008156473247613757,0.0016092070286162197
1782858775489583400,5.789583251953125,0.13266367260515688,-0.004515595994610339,-0.00632531229769811
1782858775499532300,5.7995322265625,0.12847440422177314,-0.0031784291067160665,-0.0043250418585725125
1782858775509481500,5.8094814453125,0.12099252403378485,-0.005057867911458016,-0.002158237479813397
1782858775519460400,5.81946044921875,0.12682663701474667,0.00327525881100446,-0.007170019493531435
1782858775529409500,5.829409423828125,0.13116320491433142,-0.00122062783613801,-0.005708879166096448
1782858775539358500,5.8393583984375,0.12786942406594753,-0.003466452267859131,-0.004904102121852338
1782858775549306400,5.849306396484375,0.12652327015399933,-0.005893807278946042,-0.010673442770913243
1782858775559286300,5.859286376953125,0.13101064470112322,-0.005983768851030618,-0.008289652906917034
1782858775569234400,5.869234375,0.13295651807188988,-0.0037446116221137343,-0.005560757665988058
1782858775579183400,5.879183349609375,0.12592471973896027,-0.006222673907130956,0.0019318996443413196
1782858775589162200,5.889162353515625,0.1323620593100786,-0.005056589269824325,-0.0037024529808200894
1782858775599111400,5.899111328125,0.1266769994109869,-0.005044259511213749,-0.00302628901861608
1782858775609060400,5.909060302734375,0.13026947094500063,-0.008450524290744214,0.0002902881834656
1782858775619008300,5.91900830078125,0.12174071205258369,-0.003355520972982049,-0.003108469143044203
1782858775628988200,5.92898828125,0.12907178559303284,-0.011137845412269235,-0.008414704058691859
1782858775638936300,5.938936279296875,0.12473229508399962,-0.0011334792756475507,-0.00452450995342806
1782858775648885200,5.94888525390625,0.12353227164447307,-0.008602025058027356,-0.013072631133440881
1782858775658834200,5.958834228515625,0.13505144452452658,-0.009091068950295447,-0.00380905516045168
1782858775668813300,5.968813232421875,0.13415537246763706,-0.005961538752913474,-0.005316920706443488
1782858775678762500,5.978762451171875,0.12726678199768066,-0.002462663786485791,-0.00871613469067961
1782858775688711400,5.98871142578125,0.13325228614807128,0.00009043649611994623,-0.00901763838790357
1782858775698659300,5.998659423828125,0.13385083656311034,0.005387830518186092,-0.006254585149046033
1782858775708639500,6.008639404296875,0.12905951063334942,-0.0034788002927787598,-0.0008516483932733535
1782858775718587400,6.01858740234375,0.12935761679708957,-0.009889525851607323,-0.0066242039127275346
1782858775728536300,6.028536376953125,0.12860825973451137,-0.008968794277496635,-0.01120917534912005
1782858775738485200,6.0384853515625,0.12411679353415965,-0.004326722359005362,-0.010029299648478627
1782858775748464400,6.04846435546875,0.13204641748964785,-0.009111910808924584,-0.009933456324879079
1782858775758413300,6.058413330078125,0.1344412036716938,-0.009357209073193372,-0.0036584311760030686
1782858775768361200,6.068361328125,0.13369418469667435,-0.011681304639205336,-0.009344605319947004
1782858775778310400,6.078310302734375,0.13369009304344653,-0.00644824455762282,-0.004362798319384456
1782858775788289300,6.088289306640625,0.13323767310082912,-0.01092853177683428,-0.006233414496853947
1782858775798270200,6.098270263671875,0.1375783326536417,-0.009725877988804131,-0.0038007257235236464
1782858775808219100,6.10821923828125,0.1335398709177971,-0.00994730218714103,-0.007211337884608655
1782858775818168000,6.11816796875,0.12396189523339271,-0.008401460984628647,-0.0013298420979641378
1782858775828147200,6.128147216796875,0.13608137209415436,-0.014792531994916498,-0.006547759409341961
1782858775838096100,6.13809619140625,0.12785598006248475,-0.0045631249307654794,-0.005565579971577972
1782858775848044000,6.1480439453125,0.12606149786114693,-0.009654347122553735,-0.0023304705078713594
1782858775857993200,6.1579931640625,0.13010054411888122,-0.01002884299075231,-0.002618420603778213
1782858775867972000,6.16797216796875,0.13039981932640074,0.0045847522406838835,-0.011723207552172243
1782858775877921000,6.177921142578125,0.12635960402488708,0.0028801220135763286,0.002272073117829859
1782858775887870200,6.1878701171875,0.1330944652378559,-0.00653256184021011,0.004419917067792266
1782858775897819400,6.1978193359375,0.12875263664126396,-0.010121288780868053,-0.002322068005707115
1782858775907798300,6.20779833984375,0.12471183681786059,0.00011579013308510183,-0.0034660686753690243
1782858775917747200,6.217747314453125,0.13204349488019942,0.003062931234575808,-0.01348800700129941
1782858775927695400,6.2276953125,0.12231295898258686,-0.01099935025703162,-0.0064005694909952575
1782858775937644300,6.237644287109375,0.13024375198185442,-0.012159352213423699,-0.006312398017197847
1782858775947623200,6.247623046875,0.13473521818220616,-0.0027907084307633337,-0.008770531759038566
1782858775957572000,6.257572021484375,0.12440846995711326,0.0012966339481063187,0.0020008732273243367
1782858775967521300,6.267521240234375,0.13024492102563381,0.0049621159194037315,-0.006884955474454909
1782858775977469200,6.27746923828125,0.13952420602440832,-0.0005074015328660607,-0.004131510314159095
1782858775987449000,6.287448974609375,0.12755495128929614,-0.010484258608054369,0.00144124831687659
1782858775997397200,6.297397216796875,0.13967325910627842,-0.013014891330525278,0.001447404063027352
1782858776007346200,6.30734619140625,0.1335387018740177,-0.009256123318895698,-0.01351642937818542
1782858776017295000,6.317295166015625,0.13114566925764082,-0.012464673569239675,-0.011421320262458175
1782858776027274200,6.327274169921875,0.133987614685297,-0.009191661514248698,-0.005624872410763055
1782858776037223200,6.33722314453125,0.13667933798730372,-0.010243636518903075,-0.003508848371170461
1782858776047172400,6.34717236328125,0.13592530474960804,-0.006472465683426708,0.00000991860581561923
1782858776057120300,6.357120361328125,0.12754442989528178,-0.007540697703137993,-0.007397672503255307
1782858776067100200,6.36710009765625,0.13233283321559428,-0.005711144188418984,-0.007885291623417287
1782858776077048300,6.37704833984375,0.13861702805161474,-0.0055708954675123094,-0.006858250130619853
1782858776086997200,6.386997314453125,0.13637187947332857,-0.014159220793750137,-0.008309910243656486
1782858776096976400,6.396976318359375,0.12993804703354836,-0.007841379416454583,-0.010127535858564077
1782858776106925300,6.40692529296875,0.13203414252996443,-0.0036713819891214367,-0.005968827010225504
1782858776116874200,6.416874267578125,0.12994096964299678,-0.004368789668753743,-0.012217767869774252
1782858776126822100,6.426822265625,0.12769699010848998,-0.003489906208682805,-0.006636241410393267
1782858776136802300,6.43680224609375,0.12619944502711294,-0.014800404774118214,-0.00465325089963153
1782858776146750200,6.446750244140625,0.1324842243850231,-0.012699212977476417,-0.0003101436614058912
1782858776156699100,6.45669921875,0.12186287712752818,-0.0010660765952430664,0.006037106473464518
1782858776166648000,6.46664794921875,0.12725275347232817,-0.008954966681543736,-0.00040235198950394987
1782858776176627200,6.476627197265625,0.1332382576227188,-0.010745978284161538,0.00003914470029994845
1782858776186576100,6.486576171875,0.13039631219506262,-0.010832688453234731,-0.007281005587335676
1782858776196525000,6.496525146484375,0.1326414607733488,-0.0050354551502503455,-0.017102032779995353
1782858776206473200,6.50647314453125,0.13503449338972567,-0.006185191440954804,-0.0034387788096442817
1782858776216453400,6.516453369140625,0.12905074280500411,-0.0019529058997519314,-0.003210175951849669
1782858776226401300,6.5264013671875,0.12306816126406192,-0.0030585473204031584,-0.006438563413824885
1782858776236350200,6.53635009765625,0.12531214079856873,-0.003808945562597364,-0.006323339536320418
1782858776246299400,6.54629931640625,0.12980185343325137,-0.010663578964024782,-0.008245978161972015
1782858776256278300,6.5562783203125,0.1314478670746088,-0.004919920745491981,-0.002036364665813744
1782858776266227200,6.566227294921875,0.14087503611147403,-0.012236910961661487,-0.0026354630701243874
1782858776276175400,6.57617529296875,0.12860767521262167,-0.0026800876631401477,0.005218538365885615
1782858776286124300,6.586124267578125,0.1307066933184862,-0.002675247091241181,-0.0011346665857359765
1782858776296103200,6.596103271484375,0.1262187342494726,-0.008746164502762258,0.0029213673394173382
1782858776306052000,6.606052001953125,0.12651917850077152,-0.0018399835771881043,-0.003609532266668975
1782858776316001300,6.616001220703125,0.12517185554504393,-0.005014412362221628,-0.007078231290541589
1782858776325950200,6.6259501953125,0.1244236675262451,-0.012480894051678479,-0.007835972588974982
1782858776335929000,6.63592919921875,0.1290641868084669,-0.005985613748244941,-0.010782876228448002
1782858776345878000,6.6458779296875,0.13355156135559082,-0.00342553573558107,0.000624159780330956
1782858776355826200,6.655826171875,0.12412439231872557,0.001426489139162004,0.00207286075130105
1782858776365775000,6.665775146484375,0.1301098964691162,-0.0007662351321429014,-0.0033836876215413213
1782858776375754200,6.675754150390625,0.13160568798482417,-0.005643668442778289,-0.007076386393327265
1782858776385703400,6.685703369140625,0.12487316485941409,-0.005418810178339481,-0.006307867972552776
1782858776395652400,6.69565234375,0.12846446734964848,-0.003306768194120377,-0.005585252786427736
1782858776405601300,6.705601318359375,0.1334036773175001,-0.007272109894827008,-0.000056059302482753986
1782858776415580200,6.715580078125,0.1354997728139162,-0.007957279147394001,-0.004994355954881757
1782858776425529300,6.725529296875,0.13639584487080572,-0.0003173405871726572,-0.001367945618648082
1782858776435477200,6.735477294921875,0.131307581821084,-0.004066975444275886,-0.004659571042563766
1782858776445426200,6.74542626953125,0.13071020044982432,-0.009393504229281096,-0.00001004646997898817
1782858776455405300,6.7554052734375,0.12981471291482446,-0.014406765814032404,-0.003548997718468308
1782858776465354200,6.765354248046875,0.13639818295836448,-0.014987835371308027,-0.006435038016177713
1782858776475303200,6.77530322265625,0.12741992673277855,-0.009754008104745297,-0.0016445158040151
1782858776485251000,6.7852509765625,0.13145838846862315,-0.0016647183418273925,-0.007015376921091229
1782858776495231200,6.795231201171875,0.12248188580870628,-0.006032960021309554,-0.0038712336764670906
1782858776505179100,6.80517919921875,0.14133447031676769,0.0022302067374810573,-0.014180866369977592
1782858776515128000,6.815128173828125,0.13654314438700677,-0.0065873425010591746,-0.001964724201709032
1782858776525077000,6.825076904296875,0.1280143854945898,-0.009441891681961715,-0.006868059138581156
1782858776535056100,6.83505615234375,0.12367255689799785,-0.0009685345049016178,-0.015318619961943477
1782858776545005300,6.84500537109375,0.12666647801697253,-0.006676061964128166,-0.015981212056521324
1782858776554954200,6.854954345703125,0.13354980778992176,-0.0026466603175736964,-0.0038593971082009374
1782858776564933400,6.864933349609375,0.12636720280945302,0.0006516323091462254,-0.002822108216024935
1782858776574882300,6.87488232421875,0.13010872742533683,-0.008717340267077088,-0.0028433154008351263
1782858776584830200,6.884830322265625,0.13130582825541495,-0.007967837074026466,-0.0014847221324220299
1782858776594779100,6.894779052734375,0.12517302458882332,0.0024416575310751793,-0.0024816424815915523
1782858776604758300,6.90475830078125,0.13145838846862315,-0.001051463548000902,-0.005094784122053534
1782858776614707200,6.914707275390625,0.135199913084507,-0.007598748033307492,-0.009581793342996388
1782858776624656100,6.92465625,0.13070961592793465,-0.004695628736633807,-0.008954674420598894
1782858776634604300,6.934604248046875,0.12427344540059566,-0.007469787891395389,-0.007346033647563308
1782858776644584200,6.944584228515625,0.13459551745057105,-0.007413637257367372,-0.01550382206942886
1782858776654532000,6.954531982421875,0.1239712475836277,-0.0065229537616483865,-0.0033732210264541206
1782858776664481300,6.964481201171875,0.12906009515523909,-0.0010000621543265879,0.0016432371623814105
1782858776674430200,6.97443017578125,0.13399813607931135,-0.007733626459352672,-0.0015139482269063591
1782858776684409000,6.9844091796875,0.12531857053935527,-0.0053649793655611575,0.001029416112974286
1782858776694358000,6.99435791015625,0.11618775410056113,-0.010370751763600855,-0.005382314092852175
1782858776704307200,7.00430712890625,0.13773615356385707,-0.011667038651835172,-0.003864128082245588
1782858776714255000,7.014255126953125,0.13563947354555128,-0.005093724676128477,0.004847220835462213
1782858776724235300,7.0242353515625,0.1319002870172262,-0.002765427859034389,-0.0038215127832256254
1782858776734183400,7.034183349609375,0.1239712475836277,-0.008337912495434283,-0.0020222996078431603
1782858776744132400,7.04413232421875,0.12486673511862754,-0.008228552103135734,-0.002559950148500502
1782858776754081300,7.054081298828125,0.13085282379090785,-0.006794884304516017,0.0011339176670648156
1782858776764060200,7.06406005859375,0.1292079791933298,-0.004927044606022536,-0.0009600589375011623
1782858776774009300,7.07400927734375,0.12711363726258276,-0.006957746716029942,-0.010426774533465504
1782858776783957200,7.083957275390625,0.1342979958087206,0.0018203107623383401,-0.009805756558291613
1782858776793908500,7.093908447265625,0.12636720280945302,0.0005776902901008725,-0.004686678245197981
1782858776803887400,7.103887451171875,0.12337386621236801,-0.010283201344311236,-0.00164120960207656
1782858776813836300,7.113836181640625,0.12621990329325197,-0.01318374509140849,-0.00829677676744759
1782858776823785200,7.12378515625,0.13145605038106442,-0.0064381980876438314,-0.0022452216435223816
1782858776833734400,7.133734375,0.14133037866353987,-0.006745035547111183,0.00006606923984363675
1782858776843713300,7.14371337890625,0.14222878880798817,0.00024246698636561632,-0.007773520078323781
1782858776853662500,7.153662353515625,0.13130641277730465,-0.0065123775687068695,-0.008298238072171806
1782858776863610400,7.1636103515625,0.12891279563903807,-0.002743910146970302,-0.0007922280899249017
1782858776873559600,7.1735595703125,0.13025894955098627,-0.0004855002283118665,-0.0037091384499333795
1782858776883538400,7.183538330078125,0.12816577666401863,-0.0017540040604770183,-0.008008406546432525
1782858776893487400,7.1934873046875,0.1256213528782129,0.00493442419487983,-0.015764171772357075
1782858776903436500,7.2034365234375,0.12232698750793933,-0.006924830827116966,-0.011711699777469038
1782858776913385500,7.213385498046875,0.12412146970927715,-0.008169533658586442,-0.0013805311055853963
1782858776923364400,7.2233642578125,0.1330991414129734,0.0022431027516722677,-0.005252952092140913
1782858776933312500,7.2333125,0.13339841662049293,-0.005122603710740805,-0.0058180386289954185
1782858776943261400,7.243261474609375,0.13339607853293417,-0.007029697707388549,-0.008722180838976055
1782858776953210400,7.25321044921875,0.12830898452699183,-0.00945940907234326,-0.002805157081224024
1782858776963189200,7.263189208984375,0.12531857053935527,-0.0031409283742308614,0.002387735386751592
1782858776973138400,7.273138427734375,0.12472411177754401,-0.01025176502643153,-0.010432364024035632
1782858776983087400,7.28308740234375,0.12292904505431651,-0.005224621046800166,-0.00749800933888182
1782858776993035300,7.29303515625,0.12876666516661645,-0.00859678262732923,-0.0019110395194031297
1782858777003015200,7.30301513671875,0.12711772891581058,-0.01079790940079838,-0.008868804501742125
1782858777012963300,7.31296337890625,0.1305588092803955,-0.0005926321309059858,-0.0089263616415672
1782858777022912300,7.322912353515625,0.13295184189677237,-0.00045201808381825685,-0.001064432627428323
1782858777032861400,7.332861328125,0.1256213528782129,-0.0034952582372352477,0.003273797506280243
1782858777042840600,7.342840576171875,0.12202888134419917,-0.001948759447596967,-0.011043883518502115
1782858777052789500,7.35278955078125,0.1293617084503174,-0.006282642199750989,-0.016578593427781015
1782858777062738400,7.362738525390625,0.13444704889059067,-0.014345591945014894,-0.00041762262387201187
1782858777072717300,7.37271728515625,0.13788812925517557,-0.0029905053191818295,0.0022662096326239406
1782858777082666500,7.38266650390625,0.12801321645081043,-0.010280899789370596,-0.002938135811127722
1782858777092614400,7.392614501953125,0.1320575234055519,-0.007080843372736126,-0.004414108381513506
1782858777102563300,7.402563232421875,0.13355331492125988,-0.000666738546732813,-0.0018768632551655173
1782858777112542500,7.41254248046875,0.13130933538675307,0.0004174216944724321,-0.00008625351134687661
1782858777122491400,7.422491455078125,0.12786708597838878,0.0011348675151355563,-0.006823178817238658
1782858777132440300,7.4324404296875,0.12936287749409675,-0.005510178256221116,-0.004992547590285539
1782858777142388200,7.44238818359375,0.13355389944314955,-0.005771496073529124,-0.004509769042022526
1782858777152368400,7.452368408203125,0.13908932173848151,-0.006589918050635605,-0.0012302724473178385
1782858777162316300,7.46231640625,0.13369944539368153,-0.010437368992716073,-0.0008486161859706043
1782858777172265200,7.47226513671875,0.1293617084503174,-0.010693736640270799,0.0014640081379562616
1782858777182214100,7.482214111328125,0.12756664172708987,-0.01277963953623548,0.003885481397528201
1782858777192193300,7.492193359375,0.12980886769592762,-0.0067481225533410905,-0.006628971419390291
1782858777202142500,7.502142578125,0.12905775706768036,-0.008090221344679594,0.0010930742000229655
1782858777212091400,7.51209130859375,0.12501812628805636,-0.006890325769316405,0.001589132354967296
1782858777222039600,7.52203955078125,0.13175357202291488,-0.004965696115978062,-0.0017368702625855802
1782858777232019500,7.53201953125,0.13758943856954572,-0.010728460893779993,-0.0025483693085610864
1782858777241967400,7.54196728515625,0.12606442047059535,-0.008032919933181256,-0.001683861433714628
1782858777251916300,7.551916259765625,0.12456570634543895,-0.00950538537222892,-0.00048628567960113284
1782858777261865500,7.561865478515625,0.13204758653342724,-0.003387870606314391,0.00040169440237805245
1782858777271844400,7.57184423828125,0.13084814761579036,-0.003331044118851423,-0.008759571973606944
1782858777281793300,7.581793212890625,0.12770400437116622,-0.009116312989406287,-0.00023897812133654952
1782858777291741400,7.591741455078125,0.12890052067935465,-0.008854100122954695,0.005291859330423176
1782858777301690400,7.6016904296875,0.1242582478314638,-0.005504314771015197,0.00021610870240256188
1782858777311669200,7.611669189453125,0.12964286347925663,-0.0021079503309912977,-0.007231631753966212
1782858777321618400,7.621618408203125,0.12470540707707405,-0.0020442557113245128,-0.0025905096835456788
1782858777331567400,7.6315673828125,0.12605273003280162,-0.00920200024517253,-0.009465601351112126
1782858777341516500,7.6415166015625,0.12410861022770404,-0.012618311494681983,-0.003011274112574756
1782858777351495200,7.6514951171875,0.13248656247258186,-0.011059355082269757,-0.006914309433102607
1782858777361444400,7.6614443359375,0.1312912152081728,-0.010861549221538007,-0.011479334060009568
1782858777371392500,7.671392578125,0.12485738276839256,-0.008489796855207532,-0.010368614605441688
1782858777381341400,7.681341552734375,0.130994278088212,-0.005324245496373624,-0.009705730249918996
1782858777391320600,7.691320556640625,0.1332382576227188,0.0005401712913066149,-0.004822323856223374
1782858777401269500,7.70126953125,0.1378776078611612,-0.0004979213184677064,-0.007321684657596052
1782858777411218400,7.711218505859375,0.13263970720767973,-0.004103873388562352,-0.006904062033724039
1782858777421166300,7.721166259765625,0.12575988456606865,-0.008045286224409937,-0.0015328355904668568
1782858777431146500,7.731146484375,0.12590835312604903,-0.004760510666389018,-0.005190700510889291
1782858777441094400,7.741094482421875,0.13488777839541435,-0.006695314653869718,-0.013683419975545256
1782858777451043300,7.751043212890625,0.13803192164003847,-0.0073624733257107436,-0.004809409575723111
1782858777460992300,7.7609921875,0.12770517341494558,-0.010230137716513127,-0.00024475027499720455
1782858777470971400,7.770971435546875,0.12994798390567303,-0.005657167245168238,-0.013183891221880913
1782858777480920300,7.78092041015625,0.13368833947777747,-0.006880388897191733,-0.008263879144843667
1782858777490869200,7.790869140625,0.13578443497419357,-0.004421341839898377,-0.006431220357585698
1782858777500817400,7.8008173828125,0.12979893082380295,-0.00006108253747224807,-0.004086739590670913
1782858777510797300,7.81079736328125,0.1203676701337099,-0.010370094176474958,-0.018709924634359776
1782858777520745200,7.8207451171875,0.12425474070012568,-0.008374719108175485,-0.011031736422982066
1782858777530694400,7.8306943359375,0.12245792041122913,-0.011492138742655514,0.00007109247483313084
1782858777540643300,7.840643310546875,0.13891805682480335,-0.004760419334843754,-0.0039574689215049145
1782858777550622500,7.85062255859375,0.13352876500189303,-0.005901680058147758,0.00840796379065141
1782858777560571400,7.8605712890625,0.13113047168850897,-0.006197356802783906,-0.00818228354230523
1782858777570520300,7.870520263671875,0.12155424956977366,-0.0040511933532543475,-0.0008360306990332901
1782858777580499500,7.88049951171875,0.12619184624254703,-0.007501516470219939,0.0019464578926563262
1782858777590447400,7.890447265625,0.12678630500435828,-0.0028165552580729125,-0.004815528789255768
1782858777600396300,7.900396240234375,0.14100363092720508,-0.005336940581165254,-0.012642002897523343
1782858777610345500,7.910345458984375,0.1398053610533476,-0.0037242994864471256,-0.0011792363798245786
1782858777620324400,7.920324462890625,0.1293295597463846,0.002383260141033679,-0.005861402846686542
1782858777630273300,7.930273193359375,0.1296300039976835,0.00035224750377237796,0.0011760032431222499
1782858777640222200,7.94022216796875,0.12558978869616985,-0.010544902754109351,-0.0010976407772861421
1782858777650170400,7.95017041015625,0.1383101540595293,-0.005832395947910845,-0.0009480762387625872
1782858777660150300,7.960150390625,0.1246902095079422,-0.011381170915160327,-0.006332527489773929
1782858777670098400,7.970098388671875,0.12798048322498798,-0.01778278158577159,-0.0027405308797955512
1782858777680047400,7.98004736328125,0.1350116970360279,-0.005712970819324255,-0.010135865295492113
1782858777689996500,7.98999658203125,0.1282809274762869,-0.008181187563762068,-0.007650478220544755
1782858777699975400,7.999975341796875,0.12543839752674102,-0.005842643347289413,-0.0029160518434830007
1782858777709924400,8.00992431640625,0.12573241203725338,-0.005004201495461166,-0.000937353915348649
1782858777719873500,8.01987353515625,0.1255827744334936,-0.006265800662804395,-0.009825210177432745
1782858777729821400,8.029821533203124,0.13067396009266374,0.0015093816496431827,-0.0049754137923941014
1782858777739801300,8.03980126953125,0.12902853097319603,-0.008166738913301379,-0.0034903993990272283
1782858777749749500,8.04974951171875,0.12304594943225383,-0.013763389876578002,-0.005039528537169099
1782858777759698400,8.059698486328125,0.13037702297270298,-0.009063322426844388,-0.004115399429574608
1782858777769647400,8.0696474609375,0.1212520517528057,-0.007672068997845053,-0.002491725484188646
1782858777779626500,8.07962646484375,0.1300800858527422,-0.0033479769873432813,-0.004169358106516302
1782858777789575400,8.089575439453125,0.13262217155098915,-0.0027254063758999107,-0.002344407701678574
1782858777799552800,8.099552734375,0.13007540967762468,-0.015512717761937527,-0.005905990907084197
1782858777809501700,8.109501708984375,0.13202128304839134,-0.013165369184501468,-0.007310925801564007
1782858777819480600,8.11948046875,0.1288771398037672,-0.00866908067855984,-0.00490181883322075
1782858777829429500,8.129429443359374,0.12663082218170166,-0.008467091833055019,-0.011923077505826949
1782858777839378700,8.139378662109374,0.12797639157176016,-0.007358746998663991,0.0006549567773938179
1782858777849327600,8.14932763671875,0.1282756667792797,-0.011657613236363976,-0.0007235833005048334
1782858777859306500,8.159306396484375,0.12842705794870854,-0.007769154430460184,-0.009757898828573525
1782858777869255400,8.16925537109375,0.12483107928335666,-0.009165029235649854,-0.006247223826497793
1782858777879203600,8.17920361328125,0.13470365400016307,-0.01103297853199765,-0.005653495717048645
1782858777889152500,8.189152587890625,0.13275661158561705,-0.014840809849742799,-0.002724620924610644
1782858777899131600,8.199131591796874,0.12363047132194041,-0.012375442649517208,-0.00880558480611071
1782858777909080600,8.20908056640625,0.12647417031526564,-0.005813691247440874,-0.005470083707850426
1782858777919029500,8.219029541015624,0.13156243336498735,-0.0015317944108508526,-0.004776018762774765
1782858777928977400,8.228977294921876,0.13006722637116908,-0.00794957076497376,-0.00725895815230906
1782858777938957600,8.23895751953125,0.12617723319530486,-0.01007657285630703,-0.006296652458794415
1782858777948905700,8.24890576171875,0.12931845383048057,-0.012268529942631721,-0.005345379615947604
1782858777958854700,8.258854736328125,0.12932313000559806,-0.009212521639186889,-0.005575681240484118
1782858777968803600,8.268803466796875,0.127530985891819,-0.0031157939329743384,-0.008769508845731615
1782858777978782700,8.27878271484375,0.12603519437611102,-0.0004405103091150522,-0.008414868455473333
1782858777988731600,8.288731689453124,0.13666063328683375,0.002573741211835295,-0.008048354964330791
1782858777998680600,8.2986806640625,0.12618717006742952,-0.0012337430460378526,-0.001022767176479101
1782858778008628500,8.30862841796875,0.12439268786609171,-0.015103369776066392,-0.007429382815770804
1782858778018608600,8.318608642578125,0.12708850282132625,-0.004365647863596678,-0.0062185457212850445
1782858778028556500,8.328556640625,0.12963292660713194,-0.0019485585181973873,-0.0037956842222250996
1782858778038505500,8.33850537109375,0.13247370299100875,-0.008322824524156749,-0.01434860588600859
1782858778048454400,8.348454345703125,0.1249906537592411,-0.00546599205462262,-0.015186189221311359
1782858778058433500,8.35843359375,0.1324754565566778,-0.010321560593321918,-0.00729669634681195
1782858778068382500,8.368382568359374,0.13202771278917788,-0.006636095279920846,-0.012419427921716124
1782858778078330600,8.37833056640625,0.12604220863878726,-0.006649173957202583,-0.004762702623475343
1782858778088310500,8.388310546875,0.13726210631132124,-0.0156684563129209,-0.0035711364850401876
1782858778098258400,8.398258544921875,0.13187398353219032,-0.007166585427429526,-0.010643193763121962
1782858778108207600,8.40820751953125,0.12932663713693618,-0.008041084973327815,-0.0017283398962579667
1782858778118156500,8.418156494140625,0.13591069170236586,-0.010452383898757397,-0.003962875748984515
1782858778128135700,8.4281357421875,0.12902853097319603,-0.010967475547734647,-0.003838847510516643
1782858778138084600,8.438084716796874,0.12663608287870884,-0.002056147078517824,-0.010257281451765448
1782858778148033500,8.448033447265624,0.12454115642607211,-0.011633720904123037,-0.009043722677230834
1782858778157981700,8.457981689453124,0.11960253098011016,-0.002552881086897105,-0.005750782079063356
1782858778167961600,8.467961669921875,0.12648878336250782,-0.005279164245631546,-0.007488255129847675
1782858778177909500,8.477909423828125,0.13052724509835242,-0.005184617829974741,-0.006039590691495686
1782858778187858700,8.487858642578125,0.13950257871448993,-0.006436389723047614,-0.005404069266933947
1782858778197807600,8.4978076171875,0.13232055825591085,-0.009832260972727089,-0.005572831696271896
1782858778207786500,8.507786376953124,0.12738485541939734,-0.01119452576925978,-0.005712039237562566
1782858778217735400,8.5177353515625,0.12558978869616985,-0.005591956521850079,-0.006176094819046556
1782858778227684600,8.5276845703125,0.13097966504096983,-0.013657901941798627,-0.006298058964591473
1782858778237632500,8.537632568359374,0.13442074540555476,-0.006352638696040957,-0.007223832040000706
1782858778247612400,8.5476123046875,0.1317255149722099,-0.012473313533421605,-0.004354688078165054
1782858778257560600,8.557560546875,0.11765958021879196,-0.012084478612616658,-0.003982950422633439
1782858778267509800,8.567509765625,0.12304536491036415,-0.008795611401367932,-0.006144749832712113
1782858778277458700,8.577458740234375,0.13052782962024212,-0.009921217897813767,-0.0016921726043336092
1782858778287437600,8.5874375,0.1327729781985283,-0.007221420887205749,0.004921546446997672
1782858778297386800,8.59738671875,0.12559212678372858,-0.00248230006871745,-0.0048063773684203625
1782858778307334700,8.607334716796874,0.13846329879462718,-0.0028793913612142202,0.00021366101698949933
1782858778317283600,8.61728369140625,0.12768939132392407,-0.011871219454426318,-0.0006701178139075637
1782858778327262700,8.6272626953125,0.13352467334866522,-0.006068378394562751,-0.0006515957765281201
1782858778337211600,8.637211669921875,0.1305330903172493,-0.012468345097359269,-0.0007835881257429718
1782858778347160600,8.64716064453125,0.12514613658189772,-0.0024829393895342946,-0.0019403752117417752
1782858778357109500,8.657109619140625,0.13158055354356765,0.00016390359112992883,0.0025982180659659205
1782858778367088600,8.667088623046874,0.1324760410785675,-0.012386786027438939,-0.0007098653024062514
1782858778377037600,8.67703759765625,0.13636603425443172,-0.012244345349445938,-0.007178495060931891
1782858778386985500,8.6869853515625,0.12993278633654118,-0.0055948425986804065,0.0019556823787279425
1782858778396934400,8.696934326171874,0.1326286012917757,-0.0031337131821550426,-0.0016894874569028614
1782858778406913500,8.70691357421875,0.12470131542384624,-0.0069666241422295565,-0.002586838155426085
1782858778416862500,8.716862548828125,0.12200842307806015,-0.004520747093763202,-0.00844157379930839
1782858778426811600,8.726811767578125,0.1323322486937046,-0.007667082295473664,-0.0029440540952607986
1782858778436759600,8.736759521484375,0.1384668059259653,-0.01441604509903118,-0.005236822941247374
1782858778446739700,8.74673974609375,0.13621931926012038,-0.00943341611456126,-0.0002114142609760165
1782858778456687600,8.7566875,0.12679156570136546,-0.008350899841170758,-0.0044768348868004975
1782858778466636500,8.766636474609374,0.1291857673615217,-0.006607508506253361,-0.009216083569452166
1782858778476585700,8.776585693359374,0.13382453307807446,-0.01159134306712076,-0.006914967020228505
1782858778486564600,8.786564697265625,0.1305325057953596,-0.007345321261510253,-0.0014398600773885845
1782858778496513500,8.796513427734375,0.12874094620347024,-0.010583462932519614,-0.0034754027592949566
1782858778506462500,8.80646240234375,0.13068915766179562,-0.011524451843369752,-0.0017811112631112337
1782858778516410600,8.81641064453125,0.12575170125961302,-0.011609335381537675,-0.0019291779642924664
1782858778526390500,8.826390625,0.12978957847356795,-0.015577818887401371,0.005160743764042854
1782858778536338700,8.836338623046874,0.12904489758610724,-0.015907416167948395,-0.007005823641456663
1782858778546287600,8.84628759765625,0.11378361556828022,-0.002915047196485102,-0.003714453945867717
1782858778556236500,8.856236572265624,0.1299433077305555,-0.0014619805776514112,-0.00837190609658137
1782858778566215400,8.86621533203125,0.12919804232120513,-0.0026581315596587956,-0.0055167723937891424
1782858778576164600,8.87616455078125,0.1324889005601406,-0.0043242198746651405,0.007323255560174584
1782858778586112500,8.886112548828125,0.1242582478314638,-0.006187018071860075,0.0016674582881852982
1782858778596092700,8.8960927734375,0.12919161258041859,-0.010788739713653921,-0.00512925264723599
1782858778606040600,8.90604052734375,0.12814356483221054,-0.010926595548074692,-0.004698313884064555
1782858778615989800,8.91598974609375,0.1308370416998863,-0.011865995290037243,0.007900653589330613
1782858778625938700,8.925938720703124,0.12604688481390475,-0.003501322651840746,0.00389978391751647
1782858778635917600,8.93591748046875,0.12799451175034046,-0.011553349144291132,-0.013184110417589545
1782858778645866800,8.94586669921875,0.12964110991358757,-0.00447570237563923,-0.00463947810260579
1782858778655815700,8.955815673828125,0.1371200674921274,-0.009560805353894829,-0.0018372436308301983
1782858778665763600,8.965763671875,0.1341267308950424,-0.008533106273971497,-0.001271280311141163
1782858778675743500,8.975743408203124,0.12485153754949568,0.0030263438175432383,0.0004897014793939889
1782858778685691600,8.985691650390624,0.13682196132838725,0.0014222513554617761,-0.010511658071633428
1782858778695640600,8.995640625,0.1314338385492563,-0.005948021684214473,-0.008300247366167605
1782858778705589500,9.005589599609374,0.12604630029201508,-0.006473671259824186,-0.006467570312600582
1782858778715568600,9.015568603515625,0.13352934952378273,-0.0020672529944218694,-0.008997673312108963
1782858778725517600,9.025517578125,0.1326326929450035,-0.0017911942657083272,-0.00994129257146269
1782858778735466500,9.035466552734375,0.13293255267441273,-0.002615644124802202,-0.008340707240719348
1782858778745414400,9.045414306640625,0.1278448741465807,0.002035360018815845,-0.0037302543031983077
1782858778755393500,9.0553935546875,0.12455050877630709,-0.0047569670024327935,-0.00605345482006669
1782858778765342500,9.065342529296874,0.1293394966185093,-0.007041680406127125,-0.0077731182195246214
1782858778775291600,9.075291748046874,0.12050853990912437,-0.0064202240395359695,-0.006296159268449991
1782858778785240600,9.085240478515624,0.1296352646946907,-0.0065484535290859635,0.002154310223367065
1782858778795240700,9.09524072265625,0.13592004405260086,-0.001815780717693269,0.0065453117239288984
1782858778805190000,9.10518994140625,0.1315793844997883,-0.004178034603316337,-0.0003238616595044732
1782858778815137800,9.1151376953125,0.1315793844997883,-0.006020794659480452,-0.0066916248594410714
1782858778825086700,9.125086669921876,0.1405623169004917,-0.0014088073519989846,-0.004565590882487595
1782858778835065900,9.13506591796875,0.13457739727199078,-0.00003614902561530471,-0.003660075143817812
1782858778845014800,9.145014892578125,0.13083937978744506,-0.010728223431762307,-0.002977627571299672
1782858778854963700,9.154963623046875,0.13383388542830943,-0.0028645043193362653,-0.007892853875365109
1782858778864912600,9.16491259765625,0.12799568079411983,-0.009438402816932649,-0.0002674735634587705
1782858778874891800,9.174891845703126,0.13173720541000367,-0.005534253251552581,-0.00606236877888441
1782858778884840700,9.1848408203125,0.12799568079411983,0.0009327690717764198,-0.006592877192702144
1782858778894788900,9.194788818359376,0.12500409776270388,0.0007199117723852396,0.00028292686091735956
1782858778904737800,9.20473779296875,0.1330816057562828,-0.0036379911761730906,-0.003027531127631664
1782858778914716700,9.214716552734375,0.13831775284409523,-0.006637757514044642,-0.006830339210387319
1782858778924665600,9.22466552734375,0.1377174488633871,-0.004846800710354,0.0026529804605059325
1782858778934614800,9.23461474609375,0.13562310693264007,-0.0040920002876780924,-0.008247384667769074
1782858778944562700,9.244562744140625,0.13113222525417803,-0.0037583844191394745,-0.010355207134597004
1782858778954542600,9.25454248046875,0.12977964160144329,-0.004324493869300931,0.0031874161307699975
1782858778964490800,9.26449072265625,0.13067922078967092,-0.00704462128188461,-0.007904580845776945
1782858778974440000,9.27443994140625,0.12439502595365047,-0.011505601012427358,-0.011199494205322116
1782858778984388900,9.284388916015626,0.12783785988390445,-0.0021732706521637737,-0.0013065342876128852
1782858778994367700,9.29436767578125,0.13382628664374352,0.001655000665411353,-0.005989413140527903
1782858779004317000,9.30431689453125,0.13307926766872405,-0.013321326931193471,-0.008455547525733709
1782858779014265900,9.314265869140625,0.12918518283963204,-0.006114701754320413,-0.00450500153535977
1782858779024213800,9.3242138671875,0.13352291978299616,0.000958396703377366,0.0010213972033001483
1782858779034193700,9.334193603515626,0.11945581598579882,-0.011266056635510176,-0.0023804288631305097
1782858779044141800,9.344141845703126,0.1140717848598957,-0.018954784507211296,-0.010973156369850039
1782858779054090800,9.3540908203125,0.12918518283963204,-0.009127692899946123,-0.0032721170058473944
1782858779064039700,9.364039794921876,0.13741408200263977,-0.0019595548362471163,-0.005877203204017132
1782858779074018800,9.374018798828125,0.12559329582750797,-0.006460720446705818,-0.005833236198127269
1782858779083967700,9.3839677734375,0.12918342927396298,-0.004837430093809962,-0.00737845634613186
1782858779093915600,9.39391552734375,0.13561959980130195,-0.007846932374406606,-0.004269694942142814
1782858779103864600,9.403864501953125,0.13456862944364548,-0.016029763905983416,-0.00033768925545737147
1782858779113843700,9.41384375,0.133821610468626,-0.004612060372717678,-0.002848302103206515
1782858779123792600,9.423792724609376,0.12753741563260554,-0.01191200812254101,0.0020644582491368053
1782858779133741800,9.433741943359376,0.13352291978299616,-0.006148512692376971,-0.004422657014150172
1782858779143721000,9.443720947265625,0.13217793491482735,-0.0026105660908855494,-0.008445263593737035
1782858779153670000,9.453669921875,0.13621990378201007,-0.0026936412644572552,-0.0034777591131627556
1782858779163618800,9.463618896484375,0.1279880820095539,-0.007888780488446354,-0.004214348025713115
1782858779173566700,9.473566650390625,0.13202654374539852,-0.008756886826176195,-0.01243749330136925
1782858779183547000,9.483546875,0.13606851261258124,-0.0011694639044813812,-0.0031499336645938454
1782858779193494800,9.493494873046876,0.1317260994940996,-0.00037884324975311757,-0.010127700255345552
1782858779203443700,9.503443603515626,0.13546703958809375,-0.009611731823533773,-0.01495186900878325
1782858779213392600,9.513392578125,0.13217384326159953,-0.00008411635318771004,-0.004655187128391116
1782858779223371800,9.523371826171875,0.13232932608425615,-0.005093651610892266,0.00010861147362738847
1782858779233320700,9.53332080078125,0.13666998563706875,-0.00042262759255245325,-0.00867969340411946
1782858779243268600,9.5432685546875,0.1260486383795738,-0.002724146000575274,-0.013345383660215884
1782858779253217800,9.5532177734375,0.12619886050522328,-0.0047659540264867245,-0.00858861758718267
1782858779263196700,9.56319677734375,0.13323241240382194,0.003159395612683147,-0.00630202275365591
1782858779273145600,9.5731455078125,0.1281447338759899,0.0020173311717808246,-0.006972779888380318
1782858779283094500,9.583094482421876,0.124254156178236,-0.004646985555626451,-0.005069156490452587
1782858779293044000,9.5930439453125,0.12440204021632671,0.0074005220474675296,-0.011692501886654645
1782858779303022800,9.60302294921875,0.12858780146837234,-0.0036296982718631624,-0.011831252770218997
1782858779312971800,9.6129716796875,0.13262977033555506,-0.011232757154107093,-0.00519318472892046
1782858779322920000,9.622919921875,0.1333779583543539,-0.00753885280592367,-0.00605055047692731
1782858779332868900,9.632868896484375,0.12140519648790359,0.0034667810614220796,-0.016402451409585773
1782858779342847700,9.64284765625,0.13845628453195094,0.0009925181686878204,-0.0096092110728845
1782858779352796700,9.652796630859376,0.13516484177112578,-0.0065276847356930375,-0.00700533045111224
1782858779362745900,9.662745849609376,0.12618717006742952,-0.008896368362102657,-0.0075801711970008906
1782858779372694800,9.67269482421875,0.12349252415597438,-0.005539806209504604,-0.005635028478596359
1782858779382673700,9.682673583984375,0.1282803429543972,-0.012852631707210092,-0.008693995924107729
1782858779392622600,9.69262255859375,0.13022563180327415,-0.0030744938082061706,-0.007090268788207322
1782858779402570800,9.70257080078125,0.13037468488514423,-0.006750424108281731,-0.018106022190768272
1782858779412519700,9.712519775390625,0.12768062349557877,-0.002983326659724116,-0.010395995802711696
1782858779422498800,9.722498779296876,0.12633330053985117,-0.005301522207912058,-0.007675174270384013
1782858779432447700,9.73244775390625,0.12887889336943625,-0.007462536166701466,-0.008983242927957326
1782858779442396700,9.742396728515626,0.1273866089850664,-0.003507496664300561,-0.00999375341106206
1782858779452344600,9.752344482421876,0.13756371960639951,-0.008570059017185121,-0.001669650245271623
1782858779462324700,9.76232470703125,0.1345762282282114,-0.011340181317646057,-0.010852635262720286
1782858779472273000,9.77227294921875,0.13203238896429537,-0.0031224428694695233,-0.004106266275048256
1782858779482221800,9.782221923828125,0.12784312058091163,-0.002633325911965221,-0.012313355465047061
1782858779492170800,9.792170654296875,0.1312865390330553,-0.007903795394487679,-0.010250321988016366
1782858779502150000,9.80214990234375,0.12515022823512553,-0.0101395002909936,-0.002525445090699941
1782858779512098800,9.812098876953126,0.1323322486937046,-0.0038568946238607166,-0.0028727972236461934
1782858779522047700,9.8220478515625,0.12514847466945647,-0.005856781470496207,-0.008143467635568231
1782858779531995600,9.83199560546875,0.12919219710230825,-0.011342482872586697,0.001465907834097743
1782858779541975800,9.841975830078125,0.13682254585027695,-0.014695391763374208,-0.01096789567284286
1782858779551923700,9.851923828125,0.12679565735459328,-0.00549326365403831,-0.01022922440106049
1782858779561872600,9.86187255859375,0.12888824571967125,-0.011221815634984523,-0.006000391192268579
1782858779571821600,9.871821533203125,0.13143208498358724,-0.0013179324644617735,0.0007335567052476108
1782858779581800700,9.88180078125,0.13053016770780085,-0.004491265270952135,-0.0042732568724080915
1782858779591749600,9.89174951171875,0.1308288583934307,-0.014801646883133799,0.000754836955294013
1782858779601697800,9.90169775390625,0.12724515468776226,-0.007009659566357731,-0.0035661863152869045
1782858779611646700,9.911646728515626,0.14236965858340261,0.00663801324237138,0.001558974678721279
1782858779621625600,9.92162548828125,0.12352759546935557,-0.004591090649925172,-0.006483169740531593
1782858779631574800,9.93157470703125,0.1331125854164362,0.001588511300459504,-0.004821447073388844
1782858779641523700,9.941523681640625,0.13701660711765287,0.014988949616160242,0.020967823096364736
1782858779651502800,9.9515029296875,0.09798632697761059,-0.027729371386859564,0.005095807035360485
1782858779661451800,9.96145166015625,0.1538432387560606,-0.0020961137627251445,-0.017692564285360275
1782858779671400700,9.971400634765626,0.17753683355450628,0.029011903744377194,0.016306178827723488
1782858779681348900,9.981348876953126,0.1139805994451046,-0.047948348877299575,0.020484277363121507
1782858779691328800,9.991328857421875,0.09469546873867511,-0.063942073355522,0.01017821573303081
1782858779701276700,10.001276611328125,0.12209376327395438,0.017668242694856597,-0.01645640095337294
1782858779711225900,10.011225830078125,0.1478524739086628,0.0058458856171462684,-0.0048522258041426534
1782858779721174800,10.0211748046875,0.12797113087475298,-0.029345163419889284,0.0089872889154125
1782858779731153700,10.031153564453126,0.12095511463284492,0.005914484740793704,-0.015950615988858042
1782858779741102600,10.0411025390625,0.13489070100486278,0.02990183832142502,-0.02065265619996935
1782858779751050800,10.05105078125,0.13461656023859978,0.015162041160743683,0.02934983046185225
1782858779760999700,10.060999755859376,0.1267243456840515,-0.012992478569317609,0.041226027485495434
1782858779770978800,10.070978759765625,0.13185177170038223,-0.0069717387087643145,0.0022722375146113334
1782858779780927700,10.080927734375,0.14161387178003787,0.010452420431375503,-0.016292853555269538
1782858779790877000,10.090876953125,0.13222002049088477,-0.02264628683575429,-0.022055280406353996
1782858779800850700,10.1008505859375,0.1169821193486452,-0.031119799276441335,-0.03190493090529926
1782858779810829600,10.11082958984375,0.11699673239588737,-0.008883399282675236,-0.025216201255843042
1782858779820778500,10.120778564453126,0.12269172916710376,-0.0002632631792221218,-0.0013044427952263503
1782858779830726700,10.1307265625,0.12179799519777297,-0.009324822907242923,0.008117556876176968
1782858779840675800,10.14067578125,0.1242021337300539,0.018384455539658666,0.028913694933755323
1782858779850654700,10.15065478515625,0.12466858219802379,0.03532894140407443,-0.004022341718105599
1782858779860604000,10.16060400390625,0.1447328805834055,-0.020089122299384324,-0.04235500411596149
1782858779870552800,10.170552734375,0.14503157126903532,-0.04385234826793894,-0.05663333037788979
1782858779880501800,10.180501708984375,0.12064005733430384,-0.013776194559223949,-0.021307174585945905
1782858779890480600,10.190480712890626,0.12963175756335257,0.023075974356755614,0.014537242059595883
1782858779900428800,10.2004287109375,0.14460896194279194,0.003623633857257664,-0.004783909808285534
1782858779910377700,10.210377685546876,0.13054711884260176,-0.030941447034850716,-0.017774433882534503
1782858779920326700,10.22032666015625,0.10645312654972076,-0.00793188897781074,-0.03104510833872482
1782858779930305800,10.230305908203125,0.13024550554752348,-0.007923705671355127,-0.02165726666525006
1782858779940254700,10.240254638671875,0.13653028490543365,-0.00999836565409787,-0.015546948825102299
1782858779950203600,10.25020361328125,0.12186287712752818,-0.0053743591152597215,-0.011691323709720746
1782858779960151600,10.260151611328125,0.11662380743026733,-0.0018213884745724499,0.012005294162873178
1782858779970131700,10.270131591796876,0.12141221075057983,0.011935115003492683,0.005454977470263838
1782858779980079600,10.28007958984375,0.13637246399521827,-0.005926604436850175,-0.01273481401382014
1782858779990028500,10.290028564453126,0.1302326460659504,-0.003057551806559786,-0.017594172811647876
1782858779999977700,10.299977783203126,0.11676117007434367,-0.006939096814487129,-0.0032235194906126705
1782858780009956600,10.30995654296875,0.13935703276395797,-0.012299199075531213,-0.0029093663743697106
1782858780019905800,10.31990576171875,0.15028583853542804,-0.000018293708516284822,-0.004343618694879115
1782858780029854700,10.329854736328125,0.13427812206447123,0.010667478821007534,-0.012375625312607734
1782858780039803000,10.339802978515625,0.11736731927394867,0.001545439343713224,0.0017196359999943523
1782858780049782800,10.34978271484375,0.13218553369939326,-0.000805644693924114,-0.004602452294155955
1782858780059730700,10.359730712890626,0.13772738573551177,-0.006876735635381191,-0.01940658339532092
1782858780069679600,10.3696796875,0.13159224398136138,-0.021100089440215377,-0.007570535718975588
1782858780079628800,10.37962890625,0.11229074666202067,-0.0034546156995929776,0.007122180030122399
1782858780089607700,10.389607666015625,0.12411387092471123,-0.005431861456157639,-0.0009810286602936684
1782858780099556600,10.399556640625,0.13488894743919372,0.005136796632874757,-0.008189708796935155
1782858780109504800,10.4095048828125,0.13055121049582957,0.01049277070807293,-0.0032554581319913264
1782858780119453700,10.41945361328125,0.1203764379620552,-0.008736656888900324,-0.01571593045014888
1782858780129432600,10.4294326171875,0.12815642431378363,-0.008767152491863817,-0.014100933001562952
1782858780139381800,10.4393818359375,0.1357914492368698,-0.012297345045162365,-0.0005787314697168767
1782858780149330700,10.44933056640625,0.13355389944314955,-0.006825973562523722,-0.006393244701065123
1782858780159279900,10.45927978515625,0.14193302073180675,-0.011060131400404497,-0.016743026741873474
1782858780169258500,10.469258544921875,0.13265607382059097,-0.017104471332253887,-0.00583496236433275
1782858780179207700,10.479207763671875,0.12457915034890174,-0.0029462277860380706,-0.010445561432326212
1782858780189155800,10.48915576171875,0.14567162273824213,-0.0064954994991421695,-0.019226167060807348
1782858780199104800,10.499104736328125,0.1304062490671873,-0.004591894367523491,-0.008720208077598362
1782858780209084000,10.509083984375,0.12890811946392058,-0.011561258456110954,-0.007921066189697012
1782858780219032800,10.51903271484375,0.14042963043153286,-0.013667500887205824,0.00041371363373473284
1782858780228981800,10.528981689453126,0.13339783209860323,-0.0023688297568820417,0.0009017620121594518
1782858780238960600,10.538960693359375,0.13953238933086395,0.011501628090208396,0.009261338350130245
1782858780248909800,10.548909912109375,0.12097908003032207,0.002812061746045947,-0.00046482276646420356
1782858780258857700,10.558857666015625,0.1311596977829933,-0.013343630094546824,-0.01844584860438481
1782858780268806700,10.568806640625,0.15585691666603088,-0.0067684803547803304,-0.001290715663973242
1782858780278785800,10.578785888671876,0.11920271800756453,-0.0029164080365095286,0.0100527535893023
1782858780288734700,10.588734619140626,0.1142681842148304,-0.004819583909865468,-0.0010841876406688243
1782858780298683600,10.59868359375,0.13476912045180797,-0.008051405437942593,-0.00453720503821969
1782858780308632600,10.608632568359376,0.13926701639294622,-0.011104308468848465,-0.004058865203056484
1782858780318611700,10.61861181640625,0.1329904203414917,-0.007175791647192091,-0.013625442710611968
1782858780328561000,10.628560791015625,0.13224749301970004,0.005741676324000582,-0.016445669496804476
1782858780338508500,10.638508544921875,0.12297463776171207,-0.01708568443339318,-0.013440934722870588
1782858780348457700,10.648457763671875,0.1380968035697937,-0.00042993411617353556,-0.002154365022294223
1782858780358436900,10.658436767578126,0.14185060314536094,-0.011377097528241575,0.0006858085733838379
1782858780368385800,10.6683857421875,0.12914075917601583,-0.00992586667346768,0.0046741658234968776
1782858780378334700,10.678334716796876,0.124811790060997,0.0008119922363199293,0.004246414531255141
1782858780388283600,10.68828369140625,0.12167816821038722,-0.000761385427089408,-0.007537418900663033
1782858780398262800,10.6982626953125,0.13395663502514363,-0.019576587933674453,-0.009428694273671134
1782858780408210700,10.708210693359375,0.14323942715525625,-0.02708241525283083,-0.003967606723029166
1782858780418159600,10.71815966796875,0.1317260994940996,-0.007722474877675994,0.001629455232201144
1782858780428108800,10.72810888671875,0.11976444354355334,0.015532564106723292,0.008085307707544415
1782858780438087700,10.738087646484376,0.1407242294639349,0.002689768806938082,-0.006140694712102413
1782858780448036600,10.74803662109375,0.13833879563212395,-0.012919038873771205,-0.013144435994327068
1782858780457985500,10.757985595703126,0.12816460762023926,-0.0027125103617087003,-0.027504412657720967
1782858780467933700,10.76793359375,0.12277590031921863,-0.003916196196200326,-0.01204192724567838
1782858780477913600,10.77791357421875,0.12711480630636215,-0.011607919742586091,-0.005417275808379054
1782858780487861800,10.78786181640625,0.1305547176271677,-0.008877563196932897,-0.004987926214095204
1782858780497810700,10.797810791015625,0.12487141129374503,0.011288706858735531,0.006223979948228224
1782858780507759900,10.807759765625,0.13250818978250026,0.008926507772039622,-0.003043441082816571
1782858780517738800,10.81773876953125,0.1346025317132473,-0.011436609163135289,-0.016860396910691633
1782858780527687700,10.827687744140626,0.1256219374001026,-0.019020543219801036,-0.011260814204812048
1782858780537636900,10.837636962890626,0.12667115419209002,-0.010335653050756082,-0.011838303565513342
1782858780547584800,10.847584716796876,0.15286182650327682,-0.00018926636124961076,0.000016868936410173772
1782858780557564700,10.857564697265625,0.1314689098626375,0.00388027549944818,0.006679824823793023
1782858780567512800,10.867512939453125,0.11126958692073821,0.0022904033589642493,0.009340751128736884
1782858780577461800,10.877461669921875,0.12324001069962978,-0.007675174270384013,0.0006440061251167207
1782858780587410700,10.88741064453125,0.1311684656113386,-0.008624182090908289,-0.011605481190327555
1782858780597389800,10.897389892578126,0.132363228353858,-0.005666747924266383,-0.015357536333380266
1782858780607338800,10.9073388671875,0.12907003202736378,-0.02055389026692137,-0.002782872184179723
1782858780617286700,10.91728662109375,0.13654782056212425,-0.013062054940499364,0.0032904198475182055
1782858780627235600,10.927235595703126,0.12726678199768066,-0.01481867108317092,0.020982518341997637
1782858780637214700,10.937214599609375,0.11559738699197769,-0.020621987067069858,-0.0035522399883251635
1782858780647163600,10.94716357421875,0.1528624110251665,0.0010688530742190777,-0.01896656627655029
1782858780657112600,10.957112548828125,0.14568389769792556,-0.003832490834966302,-0.013903364602848887
1782858780667061800,10.967061767578125,0.11201543685197829,-0.006829663356952368,-0.020764610408153385
1782858780677041000,10.977041015625,0.12084171738624572,0.008591302734613417,-0.00488899588426575
1782858780686989800,10.98698974609375,0.1362619893580675,0.009342294631851836,-0.003059880760964006
1782858780696937700,10.996937744140626,0.1439011059343815,-0.005018860208475962,-0.003921676088916137
1782858780706886700,11.00688671875,0.13972060537934303,0.003922516339132562,0.008788259211974217
1782858780716865800,11.01686572265625,0.1165332065373659,0.0021936923856846987,-0.0067650006229057905
1782858780726814700,11.026814697265625,0.13030161964893341,-0.03163027868238277,-0.017369999533798544
1782858780736763600,11.036763671875,0.1431762987911701,-0.024719448981154708,-0.014977560572465881
1782858780746711800,11.0467119140625,0.1333048931181431,0.004633057494973764,0.006445395013410598
1782858780756691700,11.056691650390626,0.10981120480597019,-0.0005170187445823103,0.007830310033168643
1782858780766639600,11.0666396484375,0.12581541414558886,-0.02093287964714691,-0.019646420033182947
1782858780776588800,11.0765888671875,0.12999766826629638,-0.00938535745544359,-0.02648960045883432
1782858780786567700,11.086567626953125,0.13567629842460155,-0.0064707760498393324,-0.016252092286618426
1782858780796516600,11.0965166015625,0.1407628079086542,0.005347489374643191,0.0017887465802952647
1782858780806474800,11.106474853515625,0.13807692982554434,-0.012258246010635047,-0.0007273461601696908
1782858780816423700,11.116423583984375,0.13748890080451964,-0.017585642445320262,-0.005289329446619377
1782858780826402600,11.126402587890626,0.14377484920620917,-0.009323224605200811,-0.009183761335583403
1782858780836351700,11.136351806640626,0.10890694944262504,-0.004463354350719601,-0.00403726529260166
1782858780846299600,11.146299560546876,0.0982774188786745,-0.010170982274645938,-0.007012746572587639
1782858780856248600,11.15624853515625,0.14510755911469458,-0.0006930968306958675,-0.010271045115636661
1782858780866227700,11.166227783203125,0.1361269648015499,0.004358049079030752,-0.011205512954154983
1782858780876176600,11.1761767578125,0.1310422088831663,0.011075255904300137,-0.001855482540419325
1782858780886125600,11.18612548828125,0.1299924075692892,-0.005438373395334929,-0.009824853984406218
1782858780896073500,11.196073486328125,0.12011281858980655,-0.0167720793064218,-0.01243921946757473
1782858780906053600,11.2060537109375,0.11143033044040203,-0.007547839829977601,-0.0021855547450017184
1782858780916001500,11.21600146484375,0.132227034753561,-0.004504362214542925,0.0014377046529203653
1782858780925950500,11.225950439453126,0.14224983159601687,0.003139448803197592,-0.0046670967618934805
1782858780935899400,11.2358994140625,0.1305810211122036,-0.011475753863435238,-0.005059639743436127
1782858780945878500,11.24587841796875,0.12384791346490383,-0.00478607436590828,-0.011338537349831312
1782858780955827500,11.255827392578125,0.1350719027906656,-0.006316279607871547,-0.011185922337695955
1782858780965776600,11.265776611328125,0.1374731187134981,-0.013916041421331465,0.004646903357235715
1782858780975724800,11.275724853515625,0.13164192834198474,0.0003684405867476016,-0.00608761281799525
1782858780985704700,11.28570458984375,0.12910510334074496,-0.001881283701956272,-0.007144547125557437
1782858780995652600,11.295652587890626,0.12611585839688777,-0.02312355809183791,-0.0008421499125659466
1782858781005601500,11.3056015625,0.12671499333381653,-0.003120963298436254,-0.00613959873355925
1782858781015550700,11.31555078125,0.12327508201301098,0.00428397919582203,-0.009208082926087081
1782858781025529600,11.325529541015625,0.1336000766724348,-0.018458607621258123,-0.007239367535850033
1782858781035478500,11.335478515625,0.1225245559066534,-0.023082860755268483,-0.00789890915681608
1782858781045427500,11.345427490234375,0.12282558467984199,-0.0028664770807139573,-0.021485517694381995
1782858781055375600,11.355375732421875,0.1469236686259508,-0.003545344456657767,0.0011627784353680907
1782858781065354500,11.3653544921875,0.14124971464276312,-0.00967962769428268,-0.0032698702498339116
1782858781075303700,11.3753037109375,0.13587620491087435,-0.00618783092261292,-0.01877961060339585
1782858781085252600,11.385252685546876,0.1345411569148302,-0.0033413737166207284,-0.0009647259794641286
1782858781095201500,11.395201416015626,0.12108137136101722,-0.00035761779863387346,-0.0042874041287694125
1782858781105180400,11.405180419921875,0.12497428714632987,-0.01863032919266261,-0.025230759504158047
1782858781115129300,11.41512939453125,0.12932313000559806,-0.019605585699295623,-0.01731776702306233
1782858781125077500,11.425077392578125,0.14461188455224036,0.003019676614739001,0.005556026691943407
1782858781135026700,11.435026611328125,0.14389642975926398,-0.014076227818569167,0.0039064602534752335
1782858781145005800,11.445005859375,0.1353951433956623,-0.02327193532027304,-0.0025526253585703667
1782858781154954800,11.454954833984376,0.12344576240479946,0.013011959587922318,0.0034366690509486943
1782858781164903700,11.464903564453126,0.10954466282427311,0.00044251960311084983,-0.005594002348463982
1782858781174852600,11.4748525390625,0.13513970732986927,-0.020821044169971718,-0.02292688474226743
1782858781184831700,11.484831787109375,0.13634791407585142,-0.002395571633335203,-0.0026396825875155626
1782858781194780700,11.49478076171875,0.12379822910428047,-0.009546913825860247,0.011049628272699192
1782858781204728600,11.504728515625,0.14252163427472114,-0.007042520656343549,-0.003058766516111791
1782858781214677500,11.514677490234375,0.14687223069965838,0.000581042157812044,-0.01662132745780982
1782858781224656600,11.52465673828125,0.11021452490985392,0.000693133363313973,-0.014620974820293486
1782858781234605600,11.53460546875,0.12039222005307673,-0.003823595142457634,-0.0008614939338527619
1782858781244554500,11.544554443359376,0.13850070819556712,-0.0012267013838980346,-0.007370117776049301
1782858781254502700,11.554502685546876,0.12727554982602596,-0.011801917077880352,-0.004430767255369574
1782858781264482600,11.564482666015625,0.11859598428606986,-0.007428113307291641,-0.0015652034901082515
1782858781274430500,11.574430419921875,0.12742226482033728,-0.006092444256739691,-0.011891029266593977
1782858781284379400,11.58437939453125,0.13923720577657223,-0.02265502726463601,-0.026796154790511353
1782858781294328600,11.59432861328125,0.12471417490541935,-0.020615027603320776,-0.009341719243116676
1782858781304307700,11.6043076171875,0.117670686134696,0.0026318098083138466,-0.0027498923631850626
1782858781314256600,11.614256591796876,0.13951134654283523,-0.009908879006048664,0.0028287206199020145
1782858781324205600,11.62420556640625,0.13546645506620406,-0.011282706376211716,-0.0003588873071130365
1782858781334184700,11.634184814453125,0.12379530649483203,0.0006631766164675355,-0.00502870574905537
1782858781344133600,11.644133544921875,0.14623860897123814,-0.009862071589101105,-0.0017661054902244357
1782858781354081500,11.65408154296875,0.1312736795514822,-0.010655751850595698,-0.016056889374926685
1782858781364030700,11.66403076171875,0.12543722848296165,-0.015884090091288088,-0.0060757305839564645
1782858781374009600,11.674009521484376,0.13501345060169695,-0.011071164251072331,-0.0036907077440991995
1782858781383958500,11.68395849609375,0.1303717622756958,0.0020595446120016277,-0.006758470417419448
1782858781393907500,11.693907470703126,0.12377952440381049,-0.014752072120364754,0.0076279923941008744
1782858781403855600,11.703855712890626,0.12302315307855605,-0.0020786694375798105,-0.001488092266442254
1782858781413835500,11.71383544921875,0.12765665809810162,0.009688861313508823,-0.003806205616239458
1782858781423783400,11.723783447265625,0.13408230723142622,-0.010303933605086057,-0.012150867512868717
1782858781433732600,11.733732666015625,0.12958324224650858,-0.017275069525651634,-0.025434154855459926
1782858781443681500,11.743681640625,0.12792904529869556,-0.012688207526272161,-0.0167499679393135
1782858781453660400,11.753660400390626,0.11894786646366119,-0.01073089944603853,-0.006811789773544296
1782858781463609600,11.763609619140626,0.1436351484745741,-0.008299224452860653,-0.014040234056580812
1782858781473558800,11.773558837890626,0.1367325294792652,-0.009225700781168416,-0.011422571504628285
1782858781483506700,11.783506591796876,0.0973538742929697,-0.005800822632713243,-0.03384466679622419
1782858781493486600,11.793486572265625,0.1184288110256195,-0.036841912383446467,-0.023177690298715605
1782858781503434800,11.803434814453125,0.16014906090199946,-0.01205304229473695,-0.008218176839593798
1782858781513383700,11.8133837890625,0.12046937694251536,0.008835596351884306,-0.007443922797776758
1782858781523332600,11.82333251953125,0.09515841007530688,0.0012032657093834131,0.015723611433105543
1782858781533311500,11.8333115234375,0.13929624248743055,0.012263534107105806,0.022876889854390174
1782858781543260700,11.8432607421875,0.15426643260419368,0.013870896238507702,0.012445749673061073
1782858781553208600,11.85320849609375,0.12972060489058493,-0.02354950101948343,-0.003928589886892587
1782858781563157500,11.863157470703126,0.09753741416633128,-0.028404594634147358,-0.009603219723515213
1782858781573136600,11.87313671875,0.12551029371917247,-0.008917100622877478,-0.007838237611297517
1782858781583085600,11.88308544921875,0.15647534082531928,-0.011505025623692199,-0.007517344227014109
1782858781593034500,11.893034423828125,0.1334177058428526,-0.010055046011088415,-0.007007896867534146
1782858781602983400,11.9029833984375,0.11051613820493221,-0.008784204091364517,0.012515216446388512
1782858781612962600,11.912962646484376,0.12593056495785712,-0.027581377750914543,-0.0029453692695125934
1782858781622911700,11.922911865234376,0.16843582773208618,-0.013588837027270347,0.0013376874777022748
1782858781632859400,11.932859375,0.1340308693051338,-0.00443668553950265,-0.002373533331463113
1782858781642808600,11.94280859375,0.10890110422372817,-0.014692295623989774,-0.000583553775306791
1782858781652787700,11.95278759765625,0.13659808944463728,-0.007648505459167063,-0.00404442568575032
1782858781662736600,11.962736572265625,0.16025544388592242,0.005063868393981829,0.0030790695186238733
1782858781672685600,11.972685546875,0.11642565450966358,0.01020463794907555,0.030771506428578867
1782858781682634500,11.982634521484375,0.09862754749059677,-0.004824250951828435,0.007174494739249348
1782858781692613600,11.992613525390626,0.12825520851314068,-0.020813637181650847,-0.024476023013563827
1782858781702562600,12.0025625,0.15055530312657356,-0.020559735485818235,-0.006151809761160984
1782858781712510500,12.012510498046876,0.12751871093213557,0.00862936058952473,0.00016850670101121066
1782858781722459600,12.022459716796876,0.12707681238353252,-0.014160755163710563,-0.0015101123020052909
1782858781732438500,12.0324384765625,0.13650222785472868,-0.027431466152518985,-0.005889624294172972
1782858781742387500,12.042387451171875,0.11255436603426933,0.006732084733992815,-0.012668132852623238
1782858781752336400,12.05233642578125,0.123774848228693,0.00443388166106306,0.006472438283963129
1782858781762284500,12.062284423828125,0.14427812255322933,-0.026543714399402958,-0.013447099602175876
1782858781772264400,12.072264404296876,0.14712942033112048,-0.002023139858059585,-0.014680577786732464
