time,seconds_elapsed,z,y,x
1782858769794361300,0.094361328125,0.024159131571650505,-0.0023150858469307423,-0.0006791060441173613
1782858769804310300,0.104310302734375,0.02750539407134056,0.018258100375533104,-0.00817910023033619
1782858769814258400,0.114258544921875,0.02599911019206047,0.015840481966733932,-0.014828480780124664
1782858769824207400,0.124207275390625,0.025659557431936264,0.006577741354703903,-0.008511463180184364
1782858769834186200,0.134186279296875,0.026009229943156242,0.006131395697593689,-0.001954760169610381
1782858769844135200,0.14413525390625,0.026089657098054886,0.007784419693052769,-0.005505286622792482
1782858769854084400,0.15408447265625,0.027844680473208427,0.002662362065166235,-0.009382050484418869
1782858769864063200,0.164063232421875,0.024048078805208206,0.015787752345204353,-0.007428088691085577
1782858769874012200,0.17401220703125,0.02544970065355301,0.012374910525977612,-0.00774740194901824
1782858769883961300,0.18396142578125,0.02558232471346855,-0.00006817692337790504,-0.002353968098759651
1782858769893909500,0.193909423828125,0.027399133890867233,0.009664079174399376,-0.007245928514748812
1782858769903889400,0.203889404296875,0.027669178321957588,0.010090983472764492,-0.009150621481239796
1782858769913837300,0.21383740234375,0.025356221944093704,0.005656288005411625,-0.010037986561655998
1782858769923786500,0.223786376953125,0.025896845385432243,0.004239752423018217,-0.00657667638733983
1782858769933735400,0.2337353515625,0.026444656774401665,0.008113319985568523,-0.006593986880034208
1782858769943714300,0.24371435546875,0.027027355507016182,0.006133792456239462,-0.008158594369888306
1782858769953663200,0.253663330078125,0.026222549378871918,0.008620386011898518,-0.005291700828820467
1782858769963612400,0.2636123046875,0.02598446235060692,0.010309096425771713,-0.0079173119738698
1782858769973560300,0.273560302734375,0.02629019320011139,0.007760184817016125,-0.008446748368442059
1782858769983539500,0.28353955078125,0.026342658326029778,0.008070443756878376,-0.00957060232758522
1782858769993488400,0.29348828125,0.026331739500164986,0.0086054727435112,-0.006331665441393852
1782858770003437300,0.303437255859375,0.0273264292627573,0.006450442597270012,-0.008006793446838856
1782858770013386200,0.31338623046875,0.02713947556912899,0.008172974921762943,-0.008411594666540623
1782858770023365400,0.323365478515625,0.02816878817975521,0.009245163761079311,-0.00609357887879014
1782858770033314300,0.333314208984375,0.02779221720993519,0.007418501656502485,-0.010129333473742008
1782858770043262200,0.34326220703125,0.0258646197617054,0.008889098651707172,-0.013405021280050278
1782858770053211400,0.35321142578125,0.02701776847243309,0.008294947445392609,-0.008518386632204056
1782858770063190300,0.363190185546875,0.024588434025645256,0.006124471314251423,-0.0071164988912642
1782858770073139500,0.373139404296875,0.02755972184240818,0.0070978570729494095,-0.0062887887470424175
1782858770083088400,0.38308837890625,0.02696184255182743,0.009362875483930111,-0.00726536987349391
1782858770093037300,0.393037353515625,0.0264851376414299,0.00632074661552906,-0.0075820195488631725
1782858770103016400,0.403016357421875,0.026219353079795837,0.00848802737891674,-0.007744472473859787
1782858770112965400,0.41296533203125,0.025185514241456985,0.008023837581276894,-0.007622233126312494
1782858770122913300,0.422913330078125,0.02653041109442711,0.006958573590964079,-0.0052208611741662025
1782858770132862200,0.4328623046875,0.026023078709840775,0.006562827620655298,-0.007641940843313932
1782858770142841300,0.44284130859375,0.026981282979249954,0.006834203843027353,-0.00637773796916008
1782858770152790300,0.452790283203125,0.026614567264914513,0.005857356358319521,-0.0075881448574364185
1782858770162739200,0.4627392578125,0.02623107098042965,0.008823585696518421,-0.007209709845483303
1782858770172687400,0.472687255859375,0.02502785436809063,0.007458182517439127,-0.007654457353055477
1782858770182667300,0.482667236328125,0.025304824113845825,0.00993092730641365,-0.007124488707631826
1782858770192615200,0.492615234375,0.026135995984077454,0.0059929112903773785,-0.005368666257709265
1782858770202564400,0.502564453125,0.025360217317938805,0.007940215058624744,-0.008136489428579807
1782858770212513500,0.512513427734375,0.026396986097097397,0.00833649281412363,-0.009725597687065601
1782858770222492400,0.522492431640625,0.02569950371980667,0.008154865354299545,-0.006933273747563362
1782858770232441300,0.53244140625,0.0262457188218832,0.009464342147111893,-0.009221994318068027
1782858770242390300,0.542390380859375,0.02786385454237461,0.009497098624706268,-0.008761267177760601
1782858770252369400,0.552369384765625,0.02737596444785595,0.007083741948008537,-0.00866406224668026
1782858770262318300,0.562318359375,0.026269154623150826,0.006227003410458565,-0.007015032693743706
1782858770272266500,0.5722666015625,0.028054537251591682,0.009826265275478363,-0.008772186003625393
1782858770282215400,0.58221533203125,0.025197764858603477,0.006101568229496479,-0.006449909880757332
1782858770292194300,0.5921943359375,0.026014823466539383,0.006366020068526268,-0.008184160105884075
1782858770302143200,0.602143310546875,0.025252891704440117,0.008140218444168568,-0.006625944748520851
1782858770312092400,0.612092529296875,0.027030019089579582,0.008496815338730812,-0.007253918331116438
1782858770322040300,0.622040283203125,0.02653280831873417,0.009132245555520058,-0.00923531036823988
1782858770332020200,0.632020263671875,0.025859294459223747,0.007671235594898462,-0.007026217877864838
1782858770341968400,0.641968505859375,0.02834988199174404,0.008359662257134914,-0.006842459551990032
1782858770351917300,0.651917236328125,0.024504011496901512,0.00920574925839901,-0.007266967557370663
1782858770361866200,0.6618662109375,0.027035878971219063,0.005922337528318167,-0.007528756279498339
1782858770371845000,0.67184521484375,0.027104321867227554,0.006417152937501669,-0.006624080706387758
1782858770381794600,0.681794677734375,0.02689339965581894,0.0070669641718268394,-0.008340754546225071
1782858770391743500,0.691743408203125,0.025915753096342087,0.006942328065633774,-0.0049100699834525585
1782858770401691400,0.70169140625,0.02678127959370613,0.00740278884768486,-0.0059870523400604725
1782858770411671300,0.71167138671875,0.02527020312845707,0.007576426956802607,-0.004993693437427282
1782858770421619500,0.721619384765625,0.024211063981056213,0.007103449665009975,-0.006590791046619415
1782858770431568400,0.731568359375,0.027179690077900887,0.007041397970169783,-0.0067726848646998405
1782858770441517300,0.741517333984375,0.026689400896430016,0.008257663808763027,-0.003989148885011673
1782858770451496400,0.751496337890625,0.026033731177449226,0.00785366166383028,-0.007214769721031189
1782858770461445400,0.7614453125,0.025664616376161575,0.007920240983366966,-0.006340986583381891
1782858770471393300,0.771393310546875,0.02768569067120552,0.008108792826533318,-0.007437409833073616
1782858770481342200,0.78134228515625,0.026337064802646637,0.010540791787207127,-0.008162855170667171
1782858770491321300,0.7913212890625,0.02653573639690876,0.008156197145581245,-0.0074619110673666
1782858770501270300,0.801270263671875,0.02532213367521763,0.007318366784602404,-0.005388906225562096
1782858770511219200,0.81121923828125,0.026189526543021202,0.008393485099077225,-0.006716492120176554
1782858770521168100,0.821168212890625,0.026205237954854965,0.007756190374493599,-0.0065407236106693745
1782858770531147300,0.831147216796875,0.0255181435495615,0.007025685161352158,-0.006909837480634451
1782858770541096400,0.841096435546875,0.026498185470700264,0.009499495849013329,-0.005434446502476931
1782858770551044400,0.85104443359375,0.025855831801891327,0.005930326879024506,-0.005880792159587145
1782858770560993500,0.86099365234375,0.025562085211277008,0.007507983595132828,-0.007610515225678682
1782858770570972400,0.870972412109375,0.02580389939248562,0.007112504448741674,-0.007624896243214607
1782858770580921300,0.88092138671875,0.027692614123225212,0.007337008602917194,-0.005826197564601898
1782858770590870300,0.890870361328125,0.026136528700590134,0.006973487325012684,-0.006881874520331621
1782858770600819500,0.9008193359375,0.025682726874947548,0.006359096150845289,-0.0065103634260594845
1782858770610798300,0.91079833984375,0.025473933666944504,0.008734636008739471,-0.008470450527966022
1782858770620747300,0.920747314453125,0.026679547503590584,0.004730040207505226,-0.00726403808221221
1782858770630695400,0.9306953125,0.026334667578339577,0.005903162993490696,-0.007547398563474417
1782858770640674300,0.94067431640625,0.0249644722789526,0.007297061383724213,-0.005089034326374531
1782858770650623200,0.950623291015625,0.026765035465359688,0.006205165293067694,-0.006734868045896292
1782858770660572400,0.960572509765625,0.028020715340971947,0.0057375142350792885,-0.0059998356737196445
1782858770670521300,0.970521240234375,0.025678465142846107,0.006929012481123209,-0.009005745872855186
1782858770680500200,0.980500244140625,0.026870230212807655,0.007951400242745876,-0.004084490239620209
1782858770690449200,0.99044921875,0.026129605248570442,0.006089051254093647,-0.005690109916031361
1782858770700397300,1.000397216796875,0.025661421939730644,0.008981244638562202,-0.008812133222818375
1782858770710346200,1.01034619140625,0.026520557701587677,0.007783621083945036,-0.009244364686310291
1782858770720325000,1.0203251953125,0.027812456712126732,0.009096292778849602,-0.006219812668859959
1782858770730274600,1.030274658203125,0.0261841993778944,0.007098922040313482,-0.00869149249047041
1782858770740223500,1.040223388671875,0.02713042125105858,0.008953813463449478,-0.007044593803584576
1782858770750172400,1.05017236328125,0.02749207802116871,0.006870955694466829,-0.006955377757549286
1782858770760151300,1.0601513671875,0.026573553681373596,0.007495999336242676,-0.008559932000935078
1782858770770100500,1.0701005859375,0.025957297533750534,0.005251220893114805,-0.004160656593739986
1782858770780048400,1.08004833984375,0.02635091356933117,0.006864297669380903,-0.006667756475508213
1782858770790011000,1.090010986328125,0.028137361630797386,0.006007558666169643,-0.007589210290461779
1782858770799990000,1.099989990234375,0.026312829926609993,0.008735966868698597,-0.007457649800926447
1782858770809939000,1.10993896484375,0.026795394718647003,0.006867227144539356,-0.008719189092516899
1782858770819887900,1.119887939453125,0.02599058859050274,0.009563944302499294,-0.008883239701390266
1782858770829835800,1.129835693359375,0.02630164474248886,0.007573763839900494,-0.006771087180823088
1782858770839816000,1.13981591796875,0.02743695117533207,0.011030014604330063,-0.005381183233112097
1782858770849763800,1.149763916015625,0.027893150225281715,0.0075849490240216255,-0.006457899231463671
1782858770859713000,1.159713134765625,0.027887823060154915,0.007345797028392553,-0.005790244787931442
1782858770869662000,1.169661865234375,0.026791134849190712,0.004728442523628473,-0.006706638727337122
1782858770879641000,1.17964111328125,0.027050526812672615,0.008350341580808163,-0.00714792450889945
1782858770889590000,1.189590087890625,0.026006832718849182,0.005615008994936943,-0.006837133318185806
1782858770899539000,1.1995390625,0.02652694843709469,0.006928479764610529,-0.007903196848928928
1782858770909487000,1.209487060546875,0.025238245725631714,0.0075729647651314735,-0.005354018881917
1782858770919467000,1.219467041015625,0.024271517992019653,0.006900783162564039,-0.006676811259239912
1782858770929415000,1.229414794921875,0.026612702757120132,0.006683735176920891,-0.00683233980089426
1782858770939363800,1.23936376953125,0.026745859533548355,0.008170577697455883,-0.0068267472088336945
1782858770949313000,1.24931298828125,0.02623559907078743,0.0070099723525345325,-0.007755924016237259
1782858770959292000,1.2592919921875,0.026374349370598793,0.00833542738109827,-0.006898918654769659
1782858770969240800,1.26924072265625,0.02731710858643055,0.008113852702081203,-0.009061405435204506
1782858770979189000,1.27918896484375,0.025529861450195312,0.007260842248797417,-0.0065292720682919025
1782858770989138000,1.289137939453125,0.02672242373228073,0.00863130483776331,-0.0067423246800899506
1782858770999116800,1.29911669921875,0.02743402123451233,0.007655789144337177,-0.005315669346600771
1782858771009066000,1.30906591796875,0.026508839800953865,0.007118895649909973,-0.007833954878151417
1782858771019015200,1.31901513671875,0.026680346578359604,0.007959389127790928,-0.008078965358436108
1782858771028964000,1.328964111328125,0.026186862960457802,0.008362858556210995,-0.009035573340952396
1782858771038943000,1.33894287109375,0.026338929310441017,0.006755108013749123,-0.006382798310369253
1782858771048892000,1.348891845703125,0.027714718133211136,0.006876548286527395,-0.004478371702134609
1782858771058840000,1.358840087890625,0.025000425055623055,0.0073266224935650826,-0.008438225835561752
1782858771068820000,1.368820068359375,0.024991635233163834,0.00740278884768486,-0.006376406643539667
1782858771078768000,1.37876806640625,0.025480059906840324,0.008390288800001144,-0.008497614413499832
1782858771088717000,1.388717041015625,0.026382338255643845,0.003846669802442193,-0.006640325766056776
1782858771098666000,1.398666015625,0.023391075432300568,0.00695005152374506,-0.007656588219106197
1782858771108644900,1.408644775390625,0.02496686950325966,0.006868026219308376,-0.007029147353023291
1782858771118594000,1.418593994140625,0.02672402188181877,0.0067846691235899925,-0.007000918034464121
1782858771128543000,1.42854296875,0.02738874778151512,0.007444866932928562,-0.006192648317664862
1782858771138491000,1.438490966796875,0.025953037664294243,0.010644122026860714,-0.008974053896963596
1782858771148470000,1.448469970703125,0.026678748428821564,0.008478972129523754,-0.009276589378714561
1782858771158419000,1.4584189453125,0.02707449346780777,0.00839508231729269,-0.00911786500364542
1782858771168367900,1.468367919921875,0.025172464549541473,0.00788748450577259,-0.008499212563037872
1782858771178317000,1.478317138671875,0.024513864889740944,0.007065366487950087,-0.008377505466341972
1782858771188296200,1.488296142578125,0.025238776579499245,0.007425691932439804,-0.0070730894804000854
1782858771198245000,1.4982451171875,0.026250513270497322,0.007768707349896431,-0.006509032100439072
1782858771208193000,1.508193115234375,0.02641323208808899,0.009107211604714394,-0.008171643130481243
1782858771218142000,1.518141845703125,0.027659591287374496,0.006973487325012684,-0.006866161711513996
1782858771228121000,1.52812109375,0.026704048737883568,0.00771810719743371,-0.007877097465097904
1782858771238070000,1.538070068359375,0.02419002540409565,0.007212905213236809,-0.008028099313378334
1782858771248019000,1.54801904296875,0.02678341045975685,0.006278402172029018,-0.00686243362724781
1782858771257967900,1.5579677734375,0.02455194853246212,0.0073569826781749725,-0.008113053627312183
1782858771267947000,1.567947021484375,0.027282221242785454,0.00926167517900467,-0.007174023427069187
1782858771277896000,1.57789599609375,0.027586886659264565,0.006921821739524603,-0.007888815365731716
1782858771287843800,1.58784375,0.025427328422665596,0.009968744590878487,-0.006481068674474955
1782858771297793000,1.59779296875,0.02497885376214981,0.005465338937938213,-0.007112504448741674
1782858771307772000,1.60777197265625,0.02600204013288021,0.007469634059816599,-0.0070792147889733315
1782858771317720800,1.617720947265625,0.026705913245677948,0.007637945935130119,-0.007558583747595549
1782858771327669800,1.627669677734375,0.026880349963903427,0.005877862684428692,-0.008333031088113785
1782858771337618000,1.637617919921875,0.02629045955836773,0.007837949320673943,-0.009060340002179146
1782858771347598000,1.64759814453125,0.027650270611047745,0.008951949886977673,-0.007419033907353878
1782858771357545700,1.657545654296875,0.02695944532752037,0.006371346767991781,-0.00788535363972187
1782858771367495200,1.6674951171875,0.02539590373635292,0.007823302410542965,-0.007203584536910057
1782858771377444000,1.677444091796875,0.025494175031781197,0.006721286103129387,-0.006214486435055733
1782858771387423000,1.687423095703125,0.026028670370578766,0.007473096251487732,-0.00535348616540432
1782858771397372000,1.697371826171875,0.027109116315841675,0.008113586343824863,-0.008441953919827938
1782858771407321000,1.707321044921875,0.027291541919112206,0.009101086296141148,-0.008221444673836231
1782858771417269000,1.71726904296875,0.026011893525719643,0.0070914654061198235,-0.0067718857899308205
1782858771427249000,1.727248779296875,0.027756264433264732,0.008110124617815018,-0.007664311211556196
1782858771437197000,1.737197021484375,0.025587385520339012,0.007510913070291281,-0.006931941956281662
1782858771447146000,1.74714599609375,0.029168538749217987,0.007186806295067072,-0.006393184419721365
1782858771457095000,1.757094970703125,0.026028670370578766,0.00506852800026536,-0.007607852108776569
1782858771467073800,1.76707373046875,0.02666223794221878,0.007476824801415205,-0.006650978233665228
1782858771477023000,1.77702294921875,0.02653839997947216,0.007062969263643026,-0.007119694724678993
1782858771486971000,1.786970947265625,0.025434520095586777,0.01258157193660736,-0.008482168428599834
1782858771496950800,1.79695068359375,0.024587634950876236,0.008988169021904469,-0.006165483966469765
1782858771506899000,1.80689892578125,0.025350097566843033,0.007399859372526407,-0.006869623903185129
1782858771516847900,1.816847900390625,0.026126408949494362,0.008979113772511482,-0.002817091764882207
1782858771526797000,1.826797119140625,0.02683534286916256,0.0054128747433424,-0.0064802695997059345
1782858771536776200,1.836776123046875,0.025709357112646103,0.009187639690935612,-0.008854477666318417
1782858771546725000,1.84672509765625,0.025617212057113647,0.007327155210077763,-0.0060946443118155
1782858771556674000,1.856674072265625,0.02701989933848381,0.005066930316388607,-0.009009207598865032
1782858771566622000,1.8666220703125,0.027392208576202393,0.007737548090517521,-0.007964981719851494
1782858771576601900,1.876601806640625,0.026694195345044136,0.009679791517555714,-0.005595034919679165
1782858771586550000,1.886550048828125,0.02816133014857769,0.0062757390551269054,-0.006421946454793215
1782858771596499000,1.8964990234375,0.02520522102713585,0.008112520910799503,-0.006647516507655382
1782858771606447900,1.90644775390625,0.026875821873545647,0.009179916232824326,-0.006390787661075592
1782858771616427000,1.916427001953125,0.025961559265851974,0.010022540576756,-0.00993172638118267
1782858771626376000,1.9263759765625,0.026191124692559242,0.008300540037453175,-0.007309844717383385
1782858771636323800,1.93632373046875,0.026036927476525307,0.009850500151515007,-0.007850199937820435
1782858771646273000,1.94627294921875,0.026255305856466293,0.005885053426027298,-0.00785739067941904
1782858771656252000,1.956251953125,0.02570376545190811,0.0059897154569625854,-0.007168697193264961
1782858771666200800,1.966200927734375,0.02568991668522358,0.008078432641923428,-0.007469101343303919
1782858771676149800,1.976149658203125,0.02665717713534832,0.0076512619853019714,-0.009484048932790756
1782858771686099000,1.986098876953125,0.027060646563768387,0.008610532619059086,-0.0062882560305297375
1782858771696078000,1.996078125,0.026645192876458168,0.009387643076479435,-0.009251555427908897
1782858771706027000,2.006027099609375,0.02570536360144615,0.011233746074140072,-0.006862965878099203
1782858771715975200,2.01597509765625,0.02678420953452587,0.007311975117772818,-0.007929029874503613
1782858771725924000,2.025924072265625,0.02629418857395649,0.009935721755027771,-0.0075780246406793594
1782858771735903000,2.035903076171875,0.028120318427681923,0.006247243378311396,-0.005490372888743877
1782858771745852000,2.045851806640625,0.026248915120959282,0.006075202953070402,-0.006873885169625282
1782858771755801000,2.055801025390625,0.027121897786855698,0.006777478381991386,-0.004956408869475126
1782858771765750000,2.06575,0.025481924414634705,0.005923402961343527,-0.006776147056370974
1782858771775729000,2.07572900390625,0.027275828644633293,0.00717642018571496,-0.004875715356320143
1782858771785677800,2.085677734375,0.027242805808782578,0.009091232903301716,-0.006866428069770336
1782858771795658800,2.09565869140625,0.02576555125415325,0.005405418109148741,-0.006213421002030373
1782858771805607700,2.105607666015625,0.02616901881992817,0.007567904889583588,-0.006136721931397915
1782858771815586800,2.1155869140625,0.026199113577604294,0.007069627288728952,-0.005730856209993362
1782858771825535700,2.12553564453125,0.02792990207672119,0.007237939164042473,-0.007412376347929239
1782858771835484700,2.135484619140625,0.025793513283133507,0.007188404444605112,-0.007595335599035025
1782858771845432800,2.145432861328125,0.027813522145152092,0.0065135592594742775,-0.007001183927059174
1782858771855412700,2.155412841796875,0.026369821280241013,0.008302670903503895,-0.007639011368155479
1782858771865360600,2.165360595703125,0.027357054874300957,0.009503223933279514,-0.007134342100471258
1782858771875309800,2.175309814453125,0.02731098234653473,0.006567088887095451,-0.006177734583616257
1782858771885259000,2.185259033203125,0.02785533294081688,0.007012103218585253,-0.006688529159873724
1782858771895238000,2.19523779296875,0.027030285447835922,0.006599845830351114,-0.006083192303776741
1782858771905186800,2.205186767578125,0.02786838263273239,0.009554089978337288,-0.006857373286038637
1782858771915135700,2.2151357421875,0.02689899131655693,0.007217965554445982,-0.0070429956540465355
1782858771925084000,2.225083984375,0.027356257662177086,0.0073266224935650826,-0.006617955397814512
1782858771935063800,2.235063720703125,0.026568228378891945,0.009767409414052963,-0.007925833575427532
1782858771945012000,2.245011962890625,0.026031333953142166,0.006874151527881622,-0.005842176266014576
1782858771954961000,2.2549609375,0.025368206202983856,0.004820321686565876,-0.0057313889265060425
1782858771964939800,2.264939697265625,0.026851853355765343,0.007306648883968592,-0.009224656969308853
1782858771974888700,2.274888671875,0.026684341952204704,0.007561246864497662,-0.006844590418040752
1782858771984838000,2.284837890625,0.027218304574489594,0.0068312743678689,-0.0062973108142614365
1782858771994785800,2.294785888671875,0.02792084775865078,0.007774299941956997,-0.009091499261558056
1782858772004765700,2.304765625,0.026195118203759193,0.00953731220215559,-0.007983091287314892
1782858772014713900,2.3147138671875,0.025671008974313736,0.0067686899565160275,-0.00649731419980526
1782858772024662800,2.324662841796875,0.025247300043702126,0.006681338418275118,-0.008129033260047436
1782858772034612000,2.334612060546875,0.026193253695964813,0.008508799597620964,-0.007060306146740913
1782858772044590800,2.3445908203125,0.028439098969101906,0.009494169615209103,-0.006686931010335684
1782858772054540000,2.3545400390625,0.026818031445145607,0.00917405728250742,-0.0073042516596615314
1782858772064489000,2.364489013671875,0.026088058948516846,0.0059993029572069645,-0.007270696107298136
1782858772074436900,2.374436767578125,0.02599990926682949,0.007374825421720743,-0.0052115400321781635
1782858772084416800,2.384416748046875,0.02870328351855278,0.00734366662800312,-0.006955910474061966
1782858772094365000,2.394364990234375,0.026708044111728668,0.008261658251285553,-0.007484547793865204
1782858772104313900,2.40431396484375,0.026856647804379463,0.006893326062709093,-0.00449807895347476
1782858772114262800,2.4142626953125,0.026631610468029976,0.009350092150270939,-0.008672583848237991
1782858772124242000,2.424241943359375,0.02588512748479843,0.006865363102406263,-0.007899202406406403
1782858772134190800,2.43419091796875,0.026987941935658455,0.008385228924453259,-0.007779093459248543
1782858772144138800,2.444138671875,0.02394980750977993,0.0073684342205524445,-0.006616623606532812
1782858772154087700,2.454087646484375,0.026563966646790504,0.007713845930993557,-0.006046973634511232
1782858772164066800,2.46406689453125,0.027402330189943314,0.007454720325767994,-0.0052019525319337845
1782858772174015700,2.474015625,0.02654452621936798,0.009854228235781193,-0.009249957278370857
1782858772183964700,2.483964599609375,0.026850257068872452,0.009488044306635857,-0.00899615790694952
1782858772193913900,2.493913818359375,0.026320554316043854,0.008037952706217766,-0.007963118143379688
1782858772203893000,2.50389306640625,0.026568759232759476,0.009182845242321491,-0.005572930909693241
1782858772213842000,2.513842041015625,0.026796193793416023,0.006102900020778179,-0.005520733073353767
1782858772223789800,2.523789794921875,0.02612108364701271,0.008035289123654366,-0.006730074528604746
1782858772233739000,2.533739013671875,0.025044366717338562,0.0072898706421256065,-0.0067780110985040665
1782858772243718000,2.5437177734375,0.02629232406616211,0.007673099637031555,-0.008987103588879108
1782858772253666800,2.553666748046875,0.027656661346554756,0.00956634059548378,-0.007930893450975418
1782858772263615700,2.56361572265625,0.024710139259696007,0.006420082412660122,-0.004332430195063353
1782858772273565000,2.57356494140625,0.02623826265335083,0.008740494959056377,-0.007237140089273453
1782858772283543800,2.583543701171875,0.026912573724985123,0.005829659756273031,-0.00996315199881792
1782858772293492000,2.593491943359375,0.025310415774583817,0.00606428412720561,-0.007695470005273819
1782858772303441000,2.60344091796875,0.02671629935503006,0.008154066279530525,-0.0075604477897286415
1782858772313389800,2.613389892578125,0.028114192187786102,0.008556736633181572,-0.007831024937331676
1782858772323368700,2.62336865234375,0.026638802140951157,0.009512810967862606,-0.006570018362253904
1782858772333317600,2.633317626953125,0.025177791714668274,0.008637430146336555,-0.007547132205218077
1782858772343266800,2.643266845703125,0.027416976168751717,0.007424360606819391,-0.007494401652365923
1782858772353214700,2.653214599609375,0.026874756440520287,0.005419799126684666,-0.007368167862296104
1782858772363195000,2.66319482421875,0.02725345827639103,0.008334096521139145,-0.0073567163199186325
1782858772373142800,2.673142822265625,0.0264209546148777,0.008347944356501102,-0.009513610042631626
1782858772383092000,2.683092041015625,0.025065138936042786,0.007236873731017113,-0.00535614974796772
1782858772393070800,2.69307080078125,0.02695039100944996,0.0060112872160971165,-0.0067748152650892735
1782858772403020000,2.70302001953125,0.027000458911061287,0.008051801472902298,-0.007985754869878292
1782858772412969000,2.712968994140625,0.025554629042744637,0.00805952399969101,-0.006734601687639952
1782858772422918000,2.72291796875,0.026391394436359406,0.005902630276978016,-0.0070826769806444645
1782858772432896800,2.732896728515625,0.027364779263734818,0.007576959673315287,-0.007909588515758514
1782858772442845700,2.742845703125,0.026496855542063713,0.0056922403164207935,-0.008153267204761505
1782858772452793900,2.7527939453125,0.026764502748847008,0.006582801695913076,-0.006299441214650869
1782858772462742800,2.76274267578125,0.02804521657526493,0.0096259955316782,-0.007019826211035252
1782858772472722000,2.772721923828125,0.025136511772871017,0.008619586937129498,-0.0075812204740941525
1782858772482670800,2.7826708984375,0.027755731716752052,0.008609733544290066,-0.008243015967309475
1782858772492619800,2.792619873046875,0.025418540462851524,0.007282147649675608,-0.008190818130970001
1782858772502567700,2.802567626953125,0.026741333305835724,0.007766576483845711,-0.0070917317643761635
1782858772512547800,2.8125478515625,0.027351729571819305,0.006440855097025633,-0.00706856232136488
1782858772522495700,2.822495849609375,0.027648938819766045,0.006117547396570444,-0.006322610657662153
1782858772532445000,2.83244482421875,0.026419622823596,0.006074936594814062,-0.006215285509824753
1782858772542393900,2.842393798828125,0.02653360553085804,0.008554605767130852,-0.006436061579734087
1782858772552373000,2.852373046875,0.026760507375001907,0.007241667713969946,-0.005242965184152126
1782858772562322000,2.862322021484375,0.02534344047307968,0.007559649180620909,-0.007001183927059174
1782858772572270800,2.872270751953125,0.02725798636674881,0.00941853504627943,-0.006518353242427111
1782858772582219000,2.882218994140625,0.027234550565481186,0.008348743431270123,-0.007925833575427532
1782858772592199000,2.892198974609375,0.02497752197086811,0.005844307132065296,-0.008035821840167046
1782858772602146800,2.902146728515625,0.026510169729590416,0.005839246790856123,-0.007246993947774172
1782858772612095700,2.912095703125,0.027211114764213562,0.00860467366874218,-0.010232130996882915
1782858772622045000,2.922044921875,0.026938140392303467,0.0076882797293365,-0.007910920307040215
1782858772632023800,2.93202392578125,0.026133865118026733,0.008411061950027943,-0.00484215933829546
1782858772641972700,2.94197265625,0.025111477822065353,0.006989998742938042,-0.006299707572907209
1782858772651921000,2.9519208984375,0.026320554316043854,0.008624646812677383,-0.00809015054255724
1782858772661869800,2.961869873046875,0.027215907350182533,0.0062520368956029415,-0.007113303057849407
1782858772671848700,2.9718486328125,0.026096582412719727,0.011353055946528912,-0.00974663719534874
1782858772681797600,2.981797607421875,0.025714151561260223,0.006619553081691265,-0.009305884130299091
1782858772691747000,2.9917470703125,0.02546035312116146,0.008926383219659328,-0.005540706682950258
1782858772701696000,3.001696044921875,0.027819646522402763,0.007715976797044277,-0.009209477342665195
1782858772711675000,3.0116748046875,0.027781829237937927,0.008173507638275623,-0.007292001508176327
1782858772721623800,3.021623779296875,0.02623826265335083,0.0076294238679111,-0.00890694186091423
1782858772731572000,3.031572021484375,0.02569284662604332,0.007127151824533939,-0.007930627092719078
1782858772741521000,3.04152099609375,0.025774072855710983,0.008380968123674393,-0.007586546707898378
1782858772751499800,3.051499755859375,0.02503238245844841,0.008334362879395485,-0.008095743134617805
1782858772761449000,3.061448974609375,0.02664812281727791,0.008870457299053669,-0.006185724399983883
1782858772771398000,3.07139794921875,0.02779887430369854,0.008983640931546688,-0.008404670283198357
1782858772781345800,3.081345703125,0.026931216940283775,0.008538360707461834,-0.006238987669348717
1782858772791340300,3.09134033203125,0.02785320207476616,0.007451258134096861,-0.005221393425017595
1782858772801288400,3.101288330078125,0.02798476256430149,0.005356415640562773,-0.006358030717819929
1782858772811237600,3.111237548828125,0.026385001838207245,0.008219047449529171,-0.00818096473813057
1782858772821186600,3.1211865234375,0.026747724041342735,0.009312807582318783,-0.006970824208110571
1782858772831165400,3.13116552734375,0.025161013007164,0.00881106872111559,-0.00657587731257081
1782858772841114600,3.141114501953125,0.026518693193793297,0.007113835774362087,-0.006293848622590303
1782858772851063600,3.1510634765625,0.02618473209440708,0.007428088691085577,-0.006308229640126228
1782858772861042400,3.16104248046875,0.027714451774954796,0.007645668927580118,-0.004837099462747574
1782858772870991400,3.170991455078125,0.026146914809942245,0.005206213798373938,-0.0052964948117733
1782858772880939500,3.180939453125,0.02690405212342739,0.00806058943271637,-0.007497597485780716
1782858772890888400,3.190888427734375,0.026558905839920044,0.00777616398409009,-0.009499495849013329
1782858772900867600,3.20086767578125,0.027048928663134575,0.006386792752891779,-0.0073258234187960625
1782858772910816500,3.21081640625,0.025237713009119034,0.007271495182067156,-0.007848868146538734
1782858772920765400,3.220765380859375,0.02624225616455078,0.006955910474061966,-0.007691475562751293
1782858772930714400,3.23071435546875,0.02611682191491127,0.008685100823640823,-0.007794806268066168
1782858772940693500,3.240693603515625,0.02497725561261177,0.006964965257793665,-0.008027033880352974
1782858772950642400,3.250642333984375,0.026572221890091896,0.008349808864295483,-0.006925816647708416
1782858772960590300,3.26059033203125,0.025597505271434784,0.007075219880789518,-0.007638478651642799
1782858772970539500,3.27053955078125,0.027588484808802605,0.008204666897654533,-0.008038485422730446
1782858772980518700,3.2805185546875,0.02623133733868599,0.008866994641721249,-0.006650978233665228
1782858772990467600,3.290467529296875,0.027401264756917953,0.006619819439947605,-0.007110906299203634
1782858773000416500,3.30041650390625,0.026881149038672447,0.005547098349779844,-0.007703459821641445
1782858773010364400,3.310364501953125,0.027778368443250656,0.006901049055159092,-0.00782516598701477
1782858773020344600,3.320344482421875,0.027158915996551514,0.009428922086954117,-0.006244580261409283
1782858773030292500,3.33029248046875,0.026068884879350662,0.007865912280976772,-0.00703900121152401
1782858773040241400,3.340241455078125,0.026607109233736992,0.006582268979400396,-0.005561745725572109
1782858773050190300,3.3501904296875,0.027849474921822548,0.008176969364285469,-0.008162855170667171
1782858773060169500,3.36016943359375,0.027338679879903793,0.007770038675516844,-0.008316253311932087
1782858773070118400,3.370118408203125,0.028139226138591766,0.008326106704771519,-0.008097874000668526
1782858773080067300,3.3800673828125,0.028667330741882324,0.006439789664000273,-0.006649913266301155
1782858773090015500,3.390015380859375,0.0267780851572752,0.007314638234674931,-0.00635057408362627
1782858773099995400,3.399995361328125,0.026583140715956688,0.006024602800607681,-0.007958324626088142
1782858773109943300,3.409943359375,0.026148779317736626,0.00743101816624403,-0.006712231319397688
1782858773119892500,3.419892578125,0.026970896869897842,0.0073050507344305515,-0.007010771427303553
1782858773129841700,3.429841552734375,0.02786705084145069,0.0073053170926868916,-0.006222209427505732
1782858773139820500,3.439820556640625,0.026882480829954147,0.006326605565845966,-0.00803022924810648
1782858773149769500,3.44976953125,0.026512034237384796,0.006650179624557495,-0.006733004003763199
1782858773159717600,3.459717529296875,0.027784226462244987,0.007963650859892368,-0.005276521202176809
1782858773169666600,3.46966650390625,0.027469174936413765,0.008798818103969097,-0.005095425993204117
1782858773179645400,3.4796455078125,0.026464363560080528,0.008351407013833523,-0.005136705003678799
1782858773189594600,3.4895947265625,0.026572754606604576,0.007508249953389168,-0.01025743130594492
1782858773199543600,3.49954345703125,0.02701830118894577,0.008502141572535038,-0.006643521599471569
1782858773209492500,3.509492431640625,0.026261698454618454,0.00896846130490303,-0.0075945365242660046
1782858773219471400,3.519471435546875,0.02418203465640545,0.008358864113688469,-0.006906109396368265
1782858773229420500,3.529420654296875,0.02761697955429554,0.006617689039558172,-0.007881359197199345
1782858773239368400,3.539368408203125,0.02678154595196247,0.00833702553063631,-0.008310927078127861
1782858773249317400,3.5493173828125,0.026255305856466293,0.006024336442351341,-0.008670720271766186
1782858773259296500,3.559296630859375,0.025661688297986984,0.008702144958078861,-0.0076057217083871365
1782858773269245400,3.569245361328125,0.02586275525391102,0.004936701618134975,-0.005369731690734625
1782858773279194400,3.5791943359375,0.02713947556912899,0.007892011664807796,-0.007863249629735947
1782858773289173200,3.58917333984375,0.02642122097313404,0.007733287289738655,-0.008899219334125519
1782858773299122700,3.599122802734375,0.026991670951247215,0.007583617232739925,-0.006475742440670729
1782858773309070300,3.6090703125,0.026914970949292183,0.006682137493044138,-0.006385461427271366
1782858773319019500,3.61901953125,0.02798076719045639,0.005799033213406801,-0.007084807381033897
1782858773328998700,3.62899853515625,0.026505909860134125,0.00878097489476204,-0.00635057408362627
1782858773338947600,3.638947509765625,0.026316292583942413,0.0070280819199979305,-0.006038983818143606
1782858773348896500,3.648896484375,0.028014590963721275,0.007467237301170826,-0.007357781287282705
1782858773358845400,3.658845458984375,0.026445988565683365,0.006433397997170687,-0.00577932596206665
1782858773368824600,3.668824462890625,0.025431856513023376,0.006268548313528299,-0.006848052144050598
1782858773378773500,3.6787734375,0.026701118797063828,0.006992661859840155,-0.005053614266216755
1782858773388721400,3.688721435546875,0.025800438597798347,0.009403355419635773,-0.007474694401025772
1782858773398670300,3.69867041015625,0.026434270665049553,0.008978314697742462,-0.006114351563155651
1782858773408649500,3.7086494140625,0.026877686381340027,0.008331965655088425,-0.008927981369197369
1782858773418598400,3.718598388671875,0.026871562004089355,0.009977532550692558,-0.00771624268963933
1782858773428547300,3.72854736328125,0.028111794963479042,0.00692128948867321,-0.007209709845483303
1782858773438496300,3.738496337890625,0.026313096284866333,0.005234176758676767,-0.008243548683822155
1782858773448475400,3.748475341796875,0.02605956420302391,0.007362042553722858,-0.008055263198912144
1782858773458423300,3.75842333984375,0.026194585487246513,0.0060270000249147415,-0.006740460637956858
1782858773468372200,3.768372314453125,0.02599112130701542,0.00977619830518961,-0.007910920307040215
1782858773478321700,3.77832177734375,0.026910709217190742,0.005873868241906166,-0.007464307826012373
1782858773488300500,3.788300537109375,0.025894714519381523,0.009416138753294945,-0.00628985371440649
1782858773498249500,3.79824951171875,0.026155438274145126,0.008099738508462906,-0.005359079223126173
1782858773508198400,3.808198486328125,0.02690192125737667,0.007662180811166763,-0.0065649584867060184
1782858773518146600,3.818146484375,0.026917634531855583,0.006325806491076946,-0.009347961284220219
1782858773528126500,3.82812646484375,0.02695092372596264,0.006234460044652224,-0.007094128523021936
1782858773538074400,3.838074462890625,0.025547437369823456,0.008198275230824947,-0.006760966964066029
1782858773548023600,3.8480234375,0.026811640709638596,0.007896006107330322,-0.007273092865943909
1782858773557972500,3.857972412109375,0.0257509034126997,0.007858987897634506,-0.00814927276223898
1782858773567951400,3.867951416015625,0.024986576288938522,0.0070070428773760796,-0.006975884083658457
1782858773577900300,3.877900390625,0.025073129683732986,0.007660582661628723,-0.007660849019885063
1782858773587849500,3.887849365234375,0.028056668117642403,0.009986321441829205,-0.007441138383001089
1782858773597797400,3.89779736328125,0.02797411009669304,0.007772435434162617,-0.006141782272607088
1782858773607777300,3.90777734375,0.024957546964287758,0.006494651082903147,-0.007290936075150967
1782858773617725400,3.917725341796875,0.02527526207268238,0.005351355765014887,-0.008290153928101063
1782858773627674600,3.927674560546875,0.02911900356411934,0.006476807873696089,-0.006036853417754173
1782858773637623600,3.93762353515625,0.025606026872992516,0.006049104034900665,-0.005941512528806925
1782858773647602400,3.9476025390625,0.027042802423238754,0.0064954496920108795,-0.005586779210716486
1782858773657551600,3.957551513671875,0.026207368820905685,0.00860041193664074,-0.009707221761345863
1782858773667499500,3.96749951171875,0.028607942163944244,0.008638229221105576,-0.008406533859670162
1782858773677448400,3.977448486328125,0.027773307636380196,0.009374327026307583,-0.005821669939905405
1782858773687427600,3.987427490234375,0.026022013276815414,0.008101602084934711,-0.008391354233026505
1782858773697376500,3.99737646484375,0.027173031121492386,0.007209177128970623,-0.004200603812932968
1782858773707325400,4.007325439453125,0.027965322136878967,0.006374276243150234,-0.007340470794588327
1782858773717274400,4.0172744140625,0.0252800565212965,0.007758853491395712,-0.006252835970371962
1782858773727253500,4.02725341796875,0.02738821506500244,0.009811352007091045,-0.008094144985079765
1782858773737202400,4.037202392578125,0.027544010430574417,0.008085090667009354,-0.007420898415148258
1782858773747150300,4.047150390625,0.0273866169154644,0.008253135718405247,-0.00686136819422245
1782858773757130500,4.057130615234375,0.025434520095586777,0.00863530021160841,-0.0075902752578258514
1782858773767078400,4.067078369140625,0.026313096284866333,0.008869391866028309,-0.007473628968000412
1782858773777027300,4.07702734375,0.026920830830931664,0.007237140089273453,-0.005871737375855446
1782858773786976500,4.0869765625,0.02564331144094467,0.009748500771820545,-0.007523163687437773
1782858773796978000,4.09697802734375,0.024385234341025352,0.006795854307711124,-0.007865113206207752
1782858773806927000,4.106927001953125,0.02640364319086075,0.008341286331415176,-0.0068022459745407104
1782858773816875000,4.116875,0.027644410729408264,0.008468586020171642,-0.008743690326809883
1782858773826824200,4.12682421875,0.025920547544956207,0.006140983197838068,-0.008987103588879108
1782858773836803000,4.136802978515625,0.02576342038810253,0.009429454803466797,-0.009099489077925682
1782858773846752300,4.146752197265625,0.027833495289087296,0.005988650489598513,-0.007530886679887772
1782858773856701200,4.156701171875,0.02640976943075657,0.005903429351747036,-0.005832855589687824
1782858773866650000,4.166650146484375,0.025615081191062927,0.00726297264918685,-0.00663473317399621
1782858773876629000,4.17662890625,0.026084864512085915,0.007894407957792282,-0.006542587652802467
1782858773886578200,4.186578125,0.02677755244076252,0.006488792132586241,-0.006779076531529427
1782858773896526000,4.196526123046875,0.0265399981290102,0.007005711551755667,-0.00908803753554821
1782858773906475000,4.20647509765625,0.025920014828443527,0.008384962566196918,-0.009343167766928673
1782858773916454100,4.2164541015625,0.027330957353115082,0.00830693170428276,-0.009008941240608692
1782858773926403000,4.226403076171875,0.025952238589525223,0.009730657562613487,-0.008103999309241772
1782858773936352000,4.23635205078125,0.02593998797237873,0.009137305431067944,-0.006447513122111559
1782858773946300000,4.2462998046875,0.026331739500164986,0.006061621010303497,-0.006373477168381214
1782858773956280000,4.256280029296875,0.026504311710596085,0.00878949649631977,-0.006098106037825346
1782858773966228000,4.26622802734375,0.025122929364442825,0.006871222052723169,-0.005082110408693552
1782858773976177000,4.276177001953125,0.02756504900753498,0.007770571392029524,-0.008739962242543697
1782858773986126000,4.2861259765625,0.025239309296011925,0.005980394314974546,-0.005094626918435097
1782858773996105200,4.296105224609375,0.02594052068889141,0.006163619924336672,-0.005079979542642832
1782858774006054100,4.30605419921875,0.028075575828552246,0.007318366784602404,-0.007452323567122221
1782858774016003000,4.316003173828125,0.02858077920973301,0.006639526691287756,-0.008387892507016659
1782858774025951200,4.325951171875,0.027478495612740517,0.0073295519687235355,-0.005304217804223299
1782858774035931100,4.33593115234375,0.02526700682938099,0.007539142854511738,-0.007642739452421665
1782858774045879000,4.345879150390625,0.025547703728079796,0.0068155620247125626,-0.0067878649570047855
1782858774055828000,4.355827880859375,0.026504844427108765,0.006930077914148569,-0.006220878101885319
1782858774065777200,4.365777099609375,0.02636502869427204,0.00839614775031805,-0.0076091839000582695
1782858774075756000,4.375756103515625,0.02526274509727955,0.007614243775606155,-0.007140467409044504
1782858774085705000,4.385705078125,0.02658820152282715,0.00951121374964714,-0.00896926037967205
1782858774095654000,4.39565380859375,0.02791818417608738,0.009525860659778118,-0.008608668111264706
1782858774105602000,4.40560205078125,0.025796443223953247,0.004767591133713722,-0.004721518140286207
1782858774115581000,4.415580810546875,0.026524284854531288,0.007770571392029524,-0.008199074305593967
1782858774125530000,4.425530029296875,0.02576155588030815,0.007262706756591797,-0.005600361619144678
1782858774135479000,4.43547900390625,0.026742665097117424,0.008443019352853298,-0.009127185679972172
1782858774145428200,4.44542822265625,0.026250513270497322,0.007512244861572981,-0.007303186692297459
1782858774155407000,4.455406982421875,0.026766899973154068,0.0067998492158949375,-0.005973736755549908
1782858774165356000,4.46535595703125,0.025859827175736427,0.007494934368878603,-0.005077849142253399
1782858774175304200,4.47530419921875,0.026614300906658173,0.00965369213372469,-0.0059995693154633045
1782858774185284000,4.4852841796875,0.026713902130723,0.008081895299255848,-0.0076280920766294
1782858774195232300,4.495232177734375,0.025305623188614845,0.005909554194658995,-0.006551642436534166
1782858774205181200,4.50518115234375,0.02630564011633396,0.004414988216012716,-0.006932741031050682
1782858774215130000,4.515130126953125,0.026458505541086197,0.003746002446860075,-0.009771403856575489
1782858774225109000,4.52510888671875,0.026447853073477745,0.006970824208110571,-0.005110606085509062
1782858774235058200,4.53505810546875,0.025522669777274132,0.008103200234472752,-0.0057036918587982655
1782858774245007000,4.545007080078125,0.026092054322361946,0.00854608416557312,-0.0068179587833583355
1782858774254955000,4.554955078125,0.026706978678703308,0.008490423671901226,-0.00893996562808752
1782858774264935000,4.564934814453125,0.026869697496294975,0.007405984681099653,-0.0065077003091573715
1782858774274883000,4.574883056640625,0.026277143508195877,0.007220362313091755,-0.006428604479879141
1782858774284832000,4.58483203125,0.0280366949737072,0.008050736039876938,-0.0062371231615543365
1782858774294781000,4.594781005859375,0.02677249163389206,0.007735950406640768,-0.006183327175676823
1782858774304760000,4.604760009765625,0.02594398334622383,0.00737296137958765,-0.006177202332764864
1782858774314709200,4.614709228515625,0.027876105159521103,0.007671501953154802,-0.004369182046502829
1782858774324657200,4.6246572265625,0.027368508279323578,0.00592420157045126,-0.0062616243958473206
1782858774334606000,4.634606201171875,0.025176726281642914,0.00791704561561346,-0.004284493625164032
1782858774344585200,4.644585205078125,0.028052939102053642,0.007922105491161346,-0.005122590344399214
1782858774354534100,4.6545341796875,0.025225462391972542,0.008670453913509846,-0.006278668530285358
1782858774364483000,4.664483154296875,0.025542112067341805,0.006324474699795246,-0.006391853094100952
1782858774374432000,4.674431884765625,0.026449451223015785,0.008859005756676197,-0.00811997801065445
1782858774384411100,4.6844111328125,0.026642262935638428,0.008095210418105125,-0.007583084981888533
1782858774394360000,4.694360107421875,0.02623506635427475,0.007814247161149979,-0.007066165097057819
1782858774404308000,4.704307861328125,0.0261828675866127,0.005130846053361893,-0.002969424705952406
1782858774414257200,4.714257080078125,0.02713228575885296,0.0062275356613099575,-0.007241667713969946
1782858774424236000,4.724236083984375,0.02785906195640564,0.007677893154323101,-0.004831506870687008
1782858774434185000,4.73418505859375,0.02670964039862156,0.00686083547770977,-0.008681905455887318
1782858774444134000,4.7441337890625,0.023989755660295486,0.004798217210918665,-0.008589226752519608
1782858774454082000,4.75408203125,0.026017218828201294,0.004087419714778662,-0.006527407560497522
1782858774464062000,4.76406201171875,0.027726968750357628,0.008380169048905373,-0.008799084462225437
1782858774474010000,4.774010009765625,0.02748914808034897,0.009327189065515995,-0.005339637864381075
1782858774483959300,4.783959228515625,0.027173031121492386,0.006103166379034519,-0.005392368417233229
1782858774493908200,4.793908203125,0.028064124286174774,0.006196909584105015,-0.0063785370439291
1782858774503887000,4.80388720703125,0.025184981524944305,0.007415572181344032,-0.009252620860934258
1782858774513836000,4.8138359375,0.026751453056931496,0.008918393403291702,-0.008625978603959084
1782858774523785200,4.82378515625,0.025919215753674507,0.004749747924506664,-0.00657507823780179
1782858774533733000,4.833733154296875,0.027032949030399323,0.007685616612434387,-0.008462460711598396
1782858774543713000,4.843713134765625,0.026370620355010033,0.008220379240810871,-0.006962035782635212
1782858774553661200,4.8536611328125,0.024384701624512672,0.00649731419980526,-0.00768668157979846
1782858774563610000,4.863610107421875,0.02737916074693203,0.007056045345962048,-0.006804642733186483
1782858774573559000,4.87355908203125,0.02636103332042694,0.006911968346685171,-0.006615025922656059
1782858774583538200,4.8835380859375,0.027094202116131783,0.007465106900781393,-0.007905594073235989
1782858774593487000,4.893487060546875,0.026671558618545532,0.006130064371973276,-0.003979029133915901
1782858774603435000,4.90343505859375,0.027104055508971214,0.010575146414339542,-0.008052866905927658
1782858774613384000,4.913384033203125,0.028596756979823112,0.009858223609626293,-0.008175904862582684
1782858774623363000,4.923363037109375,0.025017201900482178,0.006162022240459919,-0.0065284729935228825
1782858774633312000,4.93331201171875,0.027060380205512047,0.009286176413297653,-0.0072901370003819466
1782858774643261200,4.94326123046875,0.025607891380786896,0.007060572504997253,-0.005294098053127527
1782858774653240300,4.953240234375,0.02690591663122177,0.0062975771725177765,-0.007849400863051414
1782858774663189200,4.963189208984375,0.025121331214904785,0.009178318083286285,-0.008756473660469055
1782858774673138200,4.97313818359375,0.026340527459979057,0.007445399183779955,-0.00851385947316885
1782858774683086000,4.983086181640625,0.02762656845152378,0.006629673298448324,-0.005598230753093958
1782858774693066200,4.993066162109375,0.026765568181872368,0.009732788428664207,-0.0068147629499435425
1782858774703014100,5.00301416015625,0.026283802464604378,0.007865912280976772,-0.0073228939436376095
1782858774712963000,5.012963134765625,0.027707528322935104,0.006871488410979509,-0.008988700807094574
1782858774722912000,5.022912109375,0.026160230860114098,0.004553206264972687,-0.008653941564261913
1782858774732891100,5.03289111328125,0.025555694475769997,0.008799883536994457,-0.009709618985652924
1782858774742840000,5.042840087890625,0.026217222213745117,0.008459797129034996,-0.009790845215320587
1782858774752789000,5.0527890625,0.027473969385027885,0.008557002991437912,-0.006232329644262791
1782858774762737200,5.062737060546875,0.025743713602423668,0.009578591212630272,-0.007299990858882666
1782858774772717000,5.072717041015625,0.025782328099012375,0.010610566474497318,-0.0057380469515919685
1782858774782665000,5.0826650390625,0.02605183981359005,0.0086643286049366,-0.008274175226688385
1782858774792623400,5.092623291015625,0.0259274709969759,0.008562329225242138,-0.005789445713162422
1782858774802572300,5.102572265625,0.026810575276613235,0.006789462640881538,-0.006059224251657724
1782858774812551200,5.11255126953125,0.026487799361348152,0.008346080780029297,-0.0060144830495119095
1782858774822500400,5.122500244140625,0.02593679167330265,0.004431500099599361,-0.010208428837358952
1782858774832448300,5.1324482421875,0.0257522352039814,0.008594819344580173,-0.008616657927632332
1782858774842397400,5.1423974609375,0.025125592947006226,0.0059809270314872265,-0.005061337724328041
1782858774852376300,5.152376220703125,0.02792777121067047,0.004995557479560375,-0.006366020068526268
1782858774862325500,5.162325439453125,0.026700319722294807,0.007935953326523304,-0.007515972945839167
1782858774872274400,5.1722744140625,0.02690431848168373,0.012006063014268875,-0.006629939656704664
1782858774882223400,5.182223388671875,0.026580477133393288,0.007379885762929916,-0.006222475785762072
1782858774892202500,5.192202392578125,0.025852901861071587,0.006878145970404148,-0.008668855763971806
1782858774902151400,5.2021513671875,0.026255838572978973,0.005328719038516283,-0.010057427920401096
1782858774912099300,5.212099365234375,0.02719087526202202,0.006508233025670052,-0.005693838465958834
1782858774922048300,5.22204833984375,0.027348533272743225,0.008355934172868729,-0.00954077485948801
1782858774932027400,5.23202734375,0.02532346546649933,0.006235791835933924,-0.007561513222754002
1782858774941976300,5.241976318359375,0.02628912776708603,0.008378570899367332,-0.006583068054169416
1782858774951925200,5.25192529296875,0.026023078709840775,0.006351372692734003,-0.007078415714204311
1782858774961873400,5.261873291015625,0.026344522833824158,0.008219047449529171,-0.009240370243787766
1782858774971853300,5.271853271484375,0.027712320908904076,0.009956227615475655,-0.006347378250211477
1782858774981801200,5.28180126953125,0.026065155863761902,0.007288539316505194,-0.005834719631820917
1782858774991750100,5.291750244140625,0.027608724310994148,0.007760983891785145,-0.008007326163351536
1782858775001699300,5.30169921875,0.024950623512268066,0.007062703371047974,-0.007161506451666355
1782858775011678200,5.31167822265625,0.02756345085799694,0.00788428820669651,-0.00523657351732254
1782858775021627400,5.32162744140625,0.026997528970241547,0.006997988559305668,-0.0068091703578829765
1782858775031576300,5.331576416015625,0.027522969990968704,0.008606537245213985,-0.00809015054255724
1782858775041524500,5.3415244140625,0.02761005610227585,0.008436361327767372,-0.00695058424025774
1782858775051504400,5.35150439453125,0.025465145707130432,0.007005178835242987,-0.006726612336933613
1782858775061452300,5.361452392578125,0.026821760460734367,0.008624913170933723,-0.008258196525275707
1782858775071401500,5.3714013671875,0.02816479280591011,0.006098106037825346,-0.00860573910176754
1782858775081350400,5.381350341796875,0.026145316660404205,0.007001183927059174,-0.005870938766747713
1782858775091329300,5.391329345703125,0.02599218487739563,0.007595867849886417,-0.007921306416392326
1782858775101278200,5.4012783203125,0.02708248421549797,0.005688245873898268,-0.006421413738280535
1782858775111226400,5.411226318359375,0.02696637064218521,0.00806325301527977,-0.009879528544843197
1782858775121206300,5.421206298828125,0.026861974969506264,0.009348760358989239,-0.005049353465437889
1782858775131154200,5.431154296875,0.02671736478805542,0.010326939634978771,-0.009485913440585136
1782858775141103400,5.441103271484375,0.026224946603178978,0.009610549546778202,-0.00649598240852356
1782858775151052300,5.45105224609375,0.026609240099787712,0.007995874620974064,-0.007227020338177681
1782858775161031200,5.46103125,0.02684439718723297,0.009973538108170033,-0.009266468696296215
1782858775170980400,5.47098046875,0.026691265404224396,0.004592887591570616,-0.00785499345511198
1782858775180929500,5.480929443359375,0.02640817128121853,0.006953247357159853,-0.006698116194456816
1782858775190877400,5.49087744140625,0.026706712320446968,0.007068828213959932,-0.00746217742562294
1782858775200857300,5.500857421875,0.028005268424749374,0.009561014361679554,-0.00663446681573987
1782858775210805500,5.510805419921875,0.024815866723656654,0.007339405361562967,-0.007727428339421749
1782858775220754400,5.52075439453125,0.026041986420750618,0.008287757635116577,-0.006172408349812031
1782858775230703400,5.530703369140625,0.02671310305595398,0.004811000544577837,-0.0054786549881100655
1782858775240682200,5.54068212890625,0.026084598153829575,0.008749282918870449,-0.009701096452772617
1782858775250631400,5.55063134765625,0.02786385454237461,0.0073473951779305935,-0.009777262806892395
1782858775260580400,5.560580322265625,0.02653147652745247,0.008856075815856457,-0.00561128044500947
1782858775270528300,5.5705283203125,0.027454260736703873,0.006807572208344936,-0.006573214195668697
1782858775280507400,5.58050732421875,0.026281138882040977,0.0076057217083871365,-0.00854155607521534
1782858775290456300,5.590456298828125,0.025424400344491005,0.006969226058572531,-0.007897870615124702
1782858775300405200,5.6004052734375,0.0265426617115736,0.007414240390062332,-0.007786550559103489
1782858775310354200,5.610354248046875,0.026547187939286232,0.007714911364018917,-0.0041188448667526245
1782858775320333300,5.620333251953125,0.02568751946091652,0.008963135071098804,-0.0041529336012899876
1782858775330282500,5.630282470703125,0.026197515428066254,0.00800279900431633,-0.0073503246530890465
1782858775340230100,5.640230224609375,0.026524551212787628,0.00848403200507164,-0.005392368417233229
1782858775350179300,5.650179443359375,0.02906094677746296,0.007836351171135902,-0.008012652397155762
1782858775360158500,5.660158447265625,0.026128539815545082,0.009543970227241516,-0.008496815338730812
1782858775370107400,5.670107421875,0.027578631415963173,0.009440906345844269,-0.008270978927612305
1782858775380056300,5.680056396484375,0.026559172198176384,0.009324791841208935,-0.007595069240778685
1782858775390005200,5.690005126953125,0.026863571256399155,0.00688933115452528,-0.007842210121452808
1782858775399984400,5.699984375,0.025956233963370323,0.00694951880723238,-0.007125820033252239
1782858775409933300,5.709933349609375,0.026313096284866333,0.007978297770023346,-0.005938050337135792
1782858775419881200,5.719881103515625,0.025493908673524857,0.0054243262857198715,-0.00782756321132183
1782858775429830400,5.729830322265625,0.027110978960990906,0.007613444700837135,-0.005569202359765768
1782858775439809300,5.739809326171875,0.02503957226872444,0.007895207032561302,-0.008890430442988873
1782858775449758200,5.74975830078125,0.026883546262979507,0.005050951149314642,-0.00803289283066988
1782858775459707100,5.75970703125,0.026020947843790054,0.008286159485578537,-0.005650694947689772
1782858775469655300,5.7696552734375,0.02695172280073166,0.00836632028222084,-0.006298375781625509
1782858775479635200,5.77963525390625,0.0268342774361372,0.007127684075385332,-0.007934089750051498
1782858775489583400,5.789583251953125,0.026755981147289276,0.009527725167572498,-0.0062128882855176926
1782858775499532300,5.7995322265625,0.026815634220838547,0.008354069665074348,-0.005776396486908197
1782858775509481500,5.8094814453125,0.02623852901160717,0.007562045939266682,-0.006428604479879141
1782858775519460400,5.81946044921875,0.0252853836864233,0.009822004474699497,-0.00782756321132183
1782858775529409500,5.829409423828125,0.026578880846500397,0.007547664921730757,-0.007289338391274214
1782858775539358500,5.8393583984375,0.027765318751335144,0.010889665223658085,-0.008728777058422565
1782858775549306400,5.849306396484375,0.02737596444785595,0.005203816574066877,-0.0075995963998138905
1782858775559286300,5.859286376953125,0.02563106082379818,0.008055263198912144,-0.008165784180164337
1782858775569234400,5.869234375,0.027122696861624718,0.00809281412512064,-0.00803262647241354
1782858775579183400,5.879183349609375,0.026732278987765312,0.006924751214683056,-0.0062677497044205666
1782858775589162200,5.889162353515625,0.02509310282766819,0.005786782596260309,-0.007985488511621952
1782858775599111400,5.899111328125,0.026103239506483078,0.006342850625514984,-0.006389455869793892
1782858775609060400,5.909060302734375,0.02642042189836502,0.007363107521086931,-0.006327936891466379
1782858775619008300,5.91900830078125,0.02569364570081234,0.0036674391012638807,-0.007522630970925093
1782858775628988200,5.92898828125,0.027147730812430382,0.0070741549134254456,-0.005272259935736656
1782858775638936300,5.938936279296875,0.027785025537014008,0.009966081008315086,-0.009107744321227074
1782858775648885200,5.94888525390625,0.027962658554315567,0.00827763695269823,-0.008779909461736679
1782858775658834200,5.958834228515625,0.026392191648483276,0.007508249953389168,-0.005812615156173706
1782858775668813300,5.968813232421875,0.026158899068832397,0.007488276343792677,-0.007635016459971666
1782858775678762500,5.978762451171875,0.0264771468937397,0.0072837453335523605,-0.010000968351960182
1782858775688711400,5.98871142578125,0.026377812027931213,0.00866406224668026,-0.005053082015365362
1782858775698659300,5.998659423828125,0.026639865711331367,0.008559399284422398,-0.006614226847887039
1782858775708639500,6.008639404296875,0.026042785495519638,0.008231031708419323,-0.007517837453633547
1782858775718587400,6.01858740234375,0.026990871876478195,0.0073077138513326645,-0.0062584285624325275
1782858775728536300,6.028536376953125,0.027408454567193985,0.00950881652534008,-0.007523696403950453
1782858775738485200,6.0384853515625,0.02846572920680046,0.007657120935618877,-0.01017061248421669
1782858775748464400,6.04846435546875,0.02509416826069355,0.007644337601959705,-0.005352953914552927
1782858775758413300,6.058413330078125,0.027353061363101006,0.008828911930322647,-0.006157760974019766
1782858775768361200,6.068361328125,0.026937874034047127,0.007438475266098976,-0.008123972453176975
1782858775778310400,6.078310302734375,0.02689899131655693,0.008449943736195564,-0.008494684472680092
1782858775788289300,6.088289306640625,0.027041204273700714,0.00857164990156889,-0.007446997333317995
1782858775798270200,6.098270263671875,0.026918699964880943,0.0054450989700853825,-0.0037497307639569044
1782858775808219100,6.10821923828125,0.025616945698857307,0.00595589354634285,-0.00908590666949749
1782858775818168000,6.11816796875,0.027272367849946022,0.005137770436704159,-0.01025503408163786
1782858775828147200,6.128147216796875,0.026761040091514587,0.008161523379385471,-0.00726323900744319
1782858775838096100,6.13809619140625,0.026496589183807373,0.004038949962705374,-0.0041004689410328865
1782858775848044000,6.1480439453125,0.02634904906153679,0.008866195566952229,-0.00905741099268198
1782858775857993200,6.1579931640625,0.024829715490341187,0.006677609868347645,-0.007678159512579441
1782858775867972000,6.16797216796875,0.028023911640048027,0.006491188891232014,-0.007266701199114323
1782858775877921000,6.177921142578125,0.027937091886997223,0.005919940769672394,-0.006618221756070852
1782858775887870200,6.1878701171875,0.027172498404979706,0.008681372739374638,-0.008079231716692448
1782858775897819400,6.1978193359375,0.027939489111304283,0.008262990042567253,-0.00935994554311037
1782858775907798300,6.20779833984375,0.02672135829925537,0.004932973068207502,-0.00714685907587409
1782858775917747200,6.217747314453125,0.023919980973005295,0.008825449272990227,-0.007093063089996576
1782858775927695400,6.2276953125,0.026762105524539948,0.008882441557943821,-0.008007326163351536
1782858775937644300,6.237644287109375,0.026995131745934486,0.008588960394263268,-0.0073444657027721405
1782858775947623200,6.247623046875,0.026876354590058327,0.006078931502997875,-0.006329535041004419
1782858775957572000,6.257572021484375,0.025827068835496902,0.006228601094335318,-0.009739979170262814
1782858775967521300,6.267521240234375,0.026455042883753777,0.007663245778530836,-0.007510646712034941
1782858775977469200,6.27746923828125,0.02564064785838127,0.007829959504306316,-0.007616374175995588
1782858775987449000,6.287448974609375,0.02780419960618019,0.008580705150961876,-0.006956443190574646
1782858775997397200,6.297397216796875,0.02581881359219551,0.008926116861402988,-0.007858721539378166
1782858776007346200,6.30734619140625,0.027239875867962837,0.00552179804071784,-0.00908271037042141
1782858776017295000,6.317295166015625,0.027958396822214127,0.007268565706908703,-0.008950085379183292
1782858776027274200,6.327274169921875,0.026693129912018776,0.009908556938171387,-0.00689039658755064
1782858776037223200,6.33722314453125,0.025786323472857475,0.012030297890305519,-0.007955661043524742
1782858776047172400,6.34717236328125,0.0280942190438509,0.00996075477451086,-0.007892278023064137
1782858776057120300,6.357120361328125,0.02636263146996498,0.009212139993906021,-0.007426224648952484
1782858776067100200,6.36710009765625,0.027634024620056152,0.0067998492158949375,-0.00628905463963747
1782858776077048300,6.37704833984375,0.026763703674077988,0.006896788254380226,-0.009572199545800686
1782858776086997200,6.386997314453125,0.025706429034471512,0.00755059439688921,-0.00669438811019063
1782858776096976400,6.396976318359375,0.025801237672567368,0.006083192303776741,-0.007013967260718346
1782858776106925300,6.40692529296875,0.02708408236503601,0.006870689336210489,-0.007475226651877165
1782858776116874200,6.416874267578125,0.024990305304527283,0.0062818643637001514,-0.006201170384883881
1782858776126822100,6.426822265625,0.02599138766527176,0.007626228034496307,-0.008155398070812225
1782858776136802300,6.43680224609375,0.028051340952515602,0.008702144958078861,-0.008093879558146
1782858776146750200,6.446750244140625,0.027999943122267723,0.007473362609744072,-0.004186489153653383
1782858776156699100,6.45669921875,0.026768231764435768,0.0037734329234808683,-0.006680007092654705
1782858776166648000,6.46664794921875,0.026938673108816147,0.007655789144337177,-0.0064714811742305756
1782858776176627200,6.476627197265625,0.026201244443655014,0.006991596892476082,-0.0070339408703148365
1782858776186576100,6.486576171875,0.02598606050014496,0.010818825103342533,-0.00595615990459919
1782858776196525000,6.496525146484375,0.024811606854200363,0.007383081596344709,-0.005694637540727854
1782858776206473200,6.50647314453125,0.026132535189390182,0.007786284200847149,-0.007468569092452526
1782858776216453400,6.516453369140625,0.025921078398823738,0.007376689929515123,-0.006464024540036917
1782858776226401300,6.5264013671875,0.026739202439785004,0.00686136819422245,-0.00788615271449089
1782858776236350200,6.53635009765625,0.02580682933330536,0.008168714120984077,-0.006308229640126228
1782858776246299400,6.54629931640625,0.026334667578339577,0.009342635050415993,-0.006903179921209812
1782858776256278300,6.5562783203125,0.02598845772445202,0.009466738440096378,-0.006382798310369253
1782858776266227200,6.566227294921875,0.02781005948781967,0.007964449934661388,-0.007446198258548975
1782858776276175400,6.57617529296875,0.026885677129030228,0.004788363818079233,-0.005276787560433149
1782858776286124300,6.586124267578125,0.02528485096991062,0.006115416996181011,-0.006730873137712479
1782858776296103200,6.596103271484375,0.026099776849150658,0.006141249556094408,-0.006049370393157005
1782858776306052000,6.606052001953125,0.02508671022951603,0.008582835085690022,-0.008017978630959988
1782858776316001300,6.616001220703125,0.025742381811141968,0.005678125657141209,-0.006976150441914797
1782858776325950200,6.6259501953125,0.026985011994838715,0.006865096744149923,-0.0062829297967255116
1782858776335929000,6.63592919921875,0.02635890245437622,0.007366569712758064,-0.008788431994616985
1782858776345878000,6.6458779296875,0.025539448484778404,0.007171360310167074,-0.006786266807466745
1782858776355826200,6.655826171875,0.027100326493382454,0.008305334486067295,-0.005049087107181549
1782858776365775000,6.665775146484375,0.027482757344841957,0.007891745306551456,-0.005403287708759308
1782858776375754200,6.675754150390625,0.027938690036535263,0.0075750951655209064,-0.006274141371250153
1782858776385703400,6.685703369140625,0.026249181479215622,0.007154848426580429,-0.007950601167976856
1782858776395652400,6.69565234375,0.024959677830338478,0.006500243674963713,-0.006397977937012911
1782858776405601300,6.705601318359375,0.026857713237404823,0.008643555454909801,-0.005221926141530275
1782858776415580200,6.715580078125,0.026274746283888817,0.00824727676808834,-0.006959372665733099
1782858776425529300,6.725529296875,0.027754133567214012,0.007098922040313482,-0.006399576086550951
1782858776435477200,6.735477294921875,0.02684040181338787,0.007613178342580795,-0.007220628671348095
1782858776445426200,6.74542626953125,0.026373017579317093,0.008406533859670162,-0.005595301277935505
1782858776455405300,6.7554052734375,0.027905134484171867,0.009488044306635857,-0.007782555650919676
1782858776465354200,6.765354248046875,0.026212695986032486,0.007211041171103716,-0.006225937977433205
1782858776475303200,6.77530322265625,0.027456657961010933,0.008579639717936516,-0.007936486043035984
1782858776485251000,6.7852509765625,0.02641136758029461,0.006578007712960243,-0.007911186665296555
1782858776495231200,6.795231201171875,0.02400413528084755,0.007208644412457943,-0.007730624172836542
1782858776505179100,6.80517919921875,0.02695012465119362,0.00818123109638691,-0.00920468382537365
1782858776515128000,6.815128173828125,0.026684874668717384,0.00632021389901638,-0.006826214492321014
1782858776525077000,6.825076904296875,0.027783960103988647,0.007753793615847826,-0.008815862238407135
1782858776535056100,6.83505615234375,0.026859577745199203,0.009268865920603275,-0.006286125164479017
1782858776545005300,6.84500537109375,0.026697391644120216,0.007433681283146143,-0.0062669506296515465
1782858776554954200,6.854954345703125,0.02630803734064102,0.006727145053446293,-0.007441937457770109
1782858776564933400,6.864933349609375,0.025200694799423218,0.008411328308284283,-0.007595867849886417
1782858776574882300,6.87488232421875,0.02605343796312809,0.008924252353608608,-0.0051564122550189495
1782858776584830200,6.884830322265625,0.02707076631486416,0.007114634849131107,-0.00532419141381979
1782858776594779100,6.894779052734375,0.024896562099456787,0.00552312983199954,-0.005242432467639446
1782858776604758300,6.90475830078125,0.025420671328902245,0.0036916739773005247,-0.008350607939064503
1782858776614707200,6.914707275390625,0.02659379318356514,0.0073529877699911594,-0.006907973438501358
1782858776624656100,6.92465625,0.02521507441997528,0.007493868935853243,-0.007157777901738882
1782858776634604300,6.934604248046875,0.026079270988702774,0.006897054612636566,-0.006660299375653267
1782858776644584200,6.944584228515625,0.025294970721006393,0.008931709453463554,-0.006423544604331255
1782858776654532000,6.954531982421875,0.02684173360466957,0.0037004624027758837,-0.004988367203623056
1782858776664481300,6.964481201171875,0.02546115219593048,0.009163671173155308,-0.007495466619729996
1782858776674430200,6.97443017578125,0.025974076241254807,0.008325041271746159,-0.006052566226571798
1782858776684409000,6.9844091796875,0.0278587955981493,0.007346596103161573,-0.008008657954633236
1782858776694358000,6.99435791015625,0.025730131193995476,0.007171360310167074,-0.00711729796603322
1782858776704307200,7.00430712890625,0.026488864794373512,0.010965299792587757,-0.007595335599035025
1782858776714255000,7.014255126953125,0.02702522650361061,0.007613977417349815,-0.008932242169976234
1782858776724235300,7.0242353515625,0.025916552171111107,0.0065415226854383945,-0.005030444823205471
1782858776734183400,7.034183349609375,0.025706162676215172,0.006429669912904501,-0.008524245582520962
1782858776744132400,7.04413232421875,0.02593679167330265,0.008620918728411198,-0.0067599015310406685
1782858776754081300,7.054081298828125,0.02508857473731041,0.0028796761762350798,-0.006622216198593378
1782858776764060200,7.06406005859375,0.027049994096159935,0.009147957898676395,-0.005088502075523138
1782858776774009300,7.07400927734375,0.02630643919110298,0.007638478651642799,-0.0057494984939694405
1782858776783957200,7.083957275390625,0.026996996253728867,0.006109025329351425,-0.006168946158140898
1782858776793908500,7.093908447265625,0.0262390598654747,0.009927998296916485,-0.010269681923091412
1782858776803887400,7.103887451171875,0.026977289468050003,0.004327903036028147,-0.005225654691457748
1782858776813836300,7.113836181640625,0.025845978409051895,0.006737531162798405,-0.008462194353342056
1782858776823785200,7.12378515625,0.025966620072722435,0.008279235102236271,-0.0062216767109930515
1782858776833734400,7.133734375,0.026135196909308434,0.006985737942159176,-0.007054447196424007
1782858776843713300,7.14371337890625,0.027248665690422058,0.006126602180302143,-0.00666322885081172
1782858776853662500,7.153662353515625,0.024941835552453995,0.006846987176686525,-0.007290936075150967
1782858776863610400,7.1636103515625,0.026696592569351196,0.00697934627532959,-0.006383863277733326
1782858776873559600,7.1735595703125,0.02617114968597889,0.008226770907640457,-0.007027283310890198
1782858776883538400,7.183538330078125,0.026312297210097313,0.0076094502583146095,-0.006188387516885996
1782858776893487400,7.1934873046875,0.02748914808034897,0.008215852081775665,-0.008851815015077591
1782858776903436500,7.2034365234375,0.025799106806516647,0.007844340987503529,-0.008588960394263268
1782858776913385500,7.213385498046875,0.026503246277570724,0.008740494959056377,-0.006932208314538002
1782858776923364400,7.2233642578125,0.028673456981778145,0.01062121894210577,-0.007232080213725567
1782858776933312500,7.2333125,0.0264236181974411,0.007621966768056154,-0.008761267177760601
1782858776943261400,7.243261474609375,0.026005767285823822,0.0076123797334730625,-0.008758870884776115
1782858776953210400,7.25321044921875,0.025741849094629288,0.006203034892678261,-0.006876281928271055
1782858776963189200,7.263189208984375,0.026161029934883118,0.005962285213172436,-0.006905843038111925
1782858776973138400,7.273138427734375,0.02540069818496704,0.006192381959408522,-0.0073196981102228165
1782858776983087400,7.28308740234375,0.027753068134188652,0.006105563137680292,-0.007272027432918549
1782858776993035300,7.29303515625,0.026198048144578934,0.0089404983446002,-0.0057497648522257805
1782858777003015200,7.30301513671875,0.02569018304347992,0.007744472473859787,-0.007817443460226059
1782858777012963300,7.31296337890625,0.02570376545190811,0.007119694724678993,-0.00758015550673008
1782858777022912300,7.322912353515625,0.02738555148243904,0.008855543099343777,-0.006226470693945885
1782858777032861400,7.332861328125,0.02804148755967617,0.00839827861636877,-0.006590258330106735
1782858777042840600,7.342840576171875,0.025534654036164284,0.0070344735868275166,-0.0062246061861515045
1782858777052789500,7.35278955078125,0.027706462889909744,0.007903196848928928,-0.008023571223020554
1782858777062738400,7.362738525390625,0.026316825300455093,0.008972455747425556,-0.007386277429759502
1782858777072717300,7.37271728515625,0.026686204597353935,0.005967078730463982,-0.008646219037473202
1782858777082666500,7.38266650390625,0.026133598759770393,0.007794007193297148,-0.008159925229847431
1782858777092614400,7.392614501953125,0.027834560722112656,0.007924235425889492,-0.005868807900696993
1782858777102563300,7.402563232421875,0.0270148403942585,0.006190784275531769,-0.01022733747959137
1782858777112542500,7.41254248046875,0.02634478732943535,0.00686083547770977,-0.006942062173038721
1782858777122491400,7.422491455078125,0.027751736342906952,0.009861418977379799,-0.008734103292226791
1782858777132440300,7.4324404296875,0.02798103354871273,0.007077350746840239,-0.005423261318355799
1782858777142388200,7.44238818359375,0.027151992544531822,0.008768457919359207,-0.0064962487667799
1782858777152368400,7.452368408203125,0.02588006667792797,0.006870156619697809,-0.010299509391188622
1782858777162316300,7.46231640625,0.027054520323872566,0.009463010355830193,-0.006126335822045803
1782858777172265200,7.47226513671875,0.02761724591255188,0.00532632227987051,-0.007742075715214014
1782858777182214100,7.482214111328125,0.026707245036959648,0.007513842545449734,-0.008389489725232124
1782858777192193300,7.492193359375,0.02636396326124668,0.007626494392752647,-0.008391354233026505
1782858777202142500,7.502142578125,0.026610571891069412,0.00768668157979846,-0.007463242392987013
1782858777212091400,7.51209130859375,0.02611708827316761,0.006929012481123209,-0.006397977937012911
1782858777222039600,7.52203955078125,0.026558373123407364,0.006683735176920891,-0.005567604675889015
1782858777232019500,7.53201953125,0.025674469769001007,0.006414756178855896,-0.007904528640210629
1782858777241967400,7.54196728515625,0.026513632386922836,0.008845156989991665,-0.007414506748318672
1782858777251916300,7.551916259765625,0.02767317369580269,0.008524511940777302,-0.007877896539866924
1782858777261865500,7.561865478515625,0.027032682672142982,0.007834753952920437,-0.007330351043492556
1782858777271844400,7.57184423828125,0.026203108951449394,0.007653392385691404,-0.009110407903790474
1782858777281793300,7.581793212890625,0.026911508291959763,0.007847269997000694,-0.007349791936576366
1782858777291741400,7.591741455078125,0.027112310752272606,0.007592406123876572,-0.008506668731570244
1782858777301690400,7.6016904296875,0.02503078430891037,0.00896766223013401,-0.008259261026978493
1782858777311669200,7.611669189453125,0.026030268520116806,0.008503473363816738,-0.007404652889817953
1782858777321618400,7.621618408203125,0.027963457629084587,0.007514907978475094,-0.007163903210312128
1782858777331567400,7.6315673828125,0.026186330243945122,0.008669654838740826,-0.004989698529243469
1782858777341516500,7.6415166015625,0.02508644387125969,0.006767358630895615,-0.007845672778785229
1782858777351495200,7.6514951171875,0.024958079680800438,0.006432333029806614,-0.007564442697912455
1782858777361444400,7.6614443359375,0.026926688849925995,0.0075692362152040005,-0.005254949443042278
1782858777371392500,7.671392578125,0.026496855542063713,0.007963118143379688,-0.00821079220622778
1782858777381341400,7.681341552734375,0.027037743479013443,0.006421680096536875,-0.008440889418125153
1782858777391320600,7.691320556640625,0.028149612247943878,0.006554571911692619,-0.00515827676281333
1782858777401269500,7.70126953125,0.027894482016563416,0.009358348324894905,-0.007630755193531513
1782858777411218400,7.711218505859375,0.02598685957491398,0.007164702285081148,-0.005789712071418762
1782858777421166300,7.721166259765625,0.028436169028282166,0.006061354652047157,-0.0064986455254256725
1782858777431146500,7.731146484375,0.02610909938812256,0.008617988787591457,-0.009140501730144024
1782858777441094400,7.741094482421875,0.025168735533952713,0.006470948923379183,-0.006455502472817898
1782858777451043300,7.751043212890625,0.025675535202026367,0.005793174263089895,-0.005100485868752003
1782858777460992300,7.7609921875,0.027051324024796486,0.008725847117602825,-0.008065382950007915
1782858777470971400,7.770971435546875,0.026764502748847008,0.006050169467926025,-0.00694951880723238
1782858777480920300,7.78092041015625,0.02816452644765377,0.007879228331148624,-0.004896221682429314
1782858777490869200,7.790869140625,0.024263260886073112,0.008738364093005657,-0.009104016236960888
1782858777500817400,7.8008173828125,0.025734391063451767,0.006184126250445843,-0.0072991917841136456
1782858777510797300,7.81079736328125,0.024950623512268066,0.00860334187746048,-0.007867776788771152
1782858777520745200,7.8207451171875,0.025912024080753326,0.00890960544347763,-0.008958874270319939
1782858777530694400,7.8306943359375,0.026221750304102898,0.00782649777829647,-0.007970042526721954
1782858777540643300,7.840643310546875,0.026084065437316895,0.005891977343708277,-0.0075873457826673985
1782858777550622500,7.85062255859375,0.02690218761563301,0.010126669891178608,-0.00824088603258133
1782858777560571400,7.8605712890625,0.026427611708641052,0.008263789117336273,-0.005882123950868845
1782858777570520300,7.870520263671875,0.026682477444410324,0.004846953321248293,-0.006748716346919537
1782858777580499500,7.88049951171875,0.026126675307750702,0.009016131982207298,-0.00884755328297615
1782858777590447400,7.890447265625,0.027646008878946304,0.00971547793596983,-0.009521599858999252
1782858777600396300,7.900396240234375,0.026672624051570892,0.006506368983536959,-0.0051630702801048756
1782858777610345500,7.910345458984375,0.026871828362345695,0.007676029112190008,-0.008904012851417065
1782858777620324400,7.920324462890625,0.02720711939036846,0.007155647501349449,-0.005254416726529598
1782858777630273300,7.930273193359375,0.026389263570308685,0.007218231912702322,-0.008135956712067127
1782858777640222200,7.94022216796875,0.026708044111728668,0.009876066818833351,-0.007907990366220474
1782858777650170400,7.95017041015625,0.026135463267564774,0.00811917893588543,-0.006653109099715948
1782858777660150300,7.960150390625,0.026205504313111305,0.007648598402738571,-0.007939948700368404
1782858777670098400,7.970098388671875,0.027811923995614052,0.008340754546225071,-0.006857639644294977
1782858777680047400,7.98004736328125,0.027240408584475517,0.008447812870144844,-0.006762298755347729
1782858777689996500,7.98999658203125,0.027705663815140724,0.006714894436299801,-0.008097074925899506
1782858777699975400,7.999975341796875,0.023988690227270126,0.006967628374695778,-0.007938084192574024
1782858777709924400,8.00992431640625,0.025061678141355515,0.008903746493160725,-0.006107693538069725
1782858777719873500,8.01987353515625,0.025183916091918945,0.00509782275184989,-0.005123655777424574
1782858777729821400,8.029821533203124,0.026797525584697723,0.006019809283316135,-0.007798002101480961
1782858777739801300,8.03980126953125,0.025706429034471512,0.0057532270438969135,-0.006357498001307249
1782858777749749500,8.04974951171875,0.02593625895678997,0.006372145377099514,-0.008530104532837868
1782858777759698400,8.059698486328125,0.026098445057868958,0.006208094768226147,-0.007411044556647539
1782858777769647400,8.0696474609375,0.026546655222773552,0.006197708658874035,-0.005329784471541643
1782858777779626500,8.07962646484375,0.02671043947339058,0.007078682072460651,-0.0051721250638365746
1782858777789575400,8.089575439453125,0.027090739458799362,0.010283263400197029,-0.008836368098855019
1782858777799552800,8.099552734375,0.026580477133393288,0.005927131045609713,-0.006219279952347279
1782858777809501700,8.109501708984375,0.026739735156297684,0.006974020041525364,-0.0075913406908512115
1782858777819480600,8.11948046875,0.026388198137283325,0.009219330735504627,-0.0097423754632473
1782858777829429500,8.129429443359374,0.02630217745900154,0.006013151258230209,-0.008755674585700035
1782858777839378700,8.139378662109374,0.02527979016304016,0.008521849289536476,-0.006654174067080021
1782858777849327600,8.14932763671875,0.026813238859176636,0.007516239304095507,-0.00774686923250556
1782858777859306500,8.159306396484375,0.026795394718647003,0.008859803900122643,-0.010339456610381603
1782858777869255400,8.16925537109375,0.027120035141706467,0.009269931353628635,-0.007893876172602177
1782858777879203600,8.17920361328125,0.026080070063471794,0.00809094961732626,-0.008449411019682884
1782858777889152500,8.189152587890625,0.02509683184325695,0.007761782966554165,-0.004510063212364912
1782858777899131600,8.199131591796874,0.026759175583720207,0.005033374298363924,-0.006623814348131418
1782858777909080600,8.20908056640625,0.026574885472655296,0.008768191561102867,-0.005271727219223976
1782858777919029500,8.219029541015624,0.026572754606604576,0.006336725316941738,-0.007021158002316952
1782858777928977400,8.228977294921876,0.02630084566771984,0.007288539316505194,-0.005379585549235344
1782858777938957600,8.23895751953125,0.026620958000421524,0.010627610608935356,-0.004050667863339186
1782858777948905700,8.24890576171875,0.027678232640028,0.008770322427153587,-0.005150287412106991
1782858777958854700,8.258854736328125,0.025676600635051727,0.0075545888394117355,-0.00621022516861558
1782858777968803600,8.268803466796875,0.02634851634502411,0.0054368432611227036,-0.005558549892157316
1782858777978782700,8.27878271484375,0.026802586391568184,0.008252337574958801,-0.007199855986982584
1782858777988731600,8.288731689453124,0.026453977450728416,0.006360960192978382,-0.006857906002551317
1782858777998680600,8.2986806640625,0.02496873214840889,0.005850698333233595,-0.007626494392752647
1782858778008628500,8.30862841796875,0.026924824342131615,0.005944175645709038,-0.008050203323364258
1782858778018608600,8.318608642578125,0.027781296521425247,0.007290936075150967,-0.004520183429121971
1782858778028556500,8.328556640625,0.025963956490159035,0.00493217445909977,-0.00762889115139842
1782858778038505500,8.33850537109375,0.02664838917553425,0.010265154764056206,-0.009182579815387726
1782858778048454400,8.348454345703125,0.025661155581474304,0.0075668394565582275,-0.006146575789898634
1782858778058433500,8.35843359375,0.02726730704307556,0.007681621704250574,-0.00558118661865592
1782858778068382500,8.368382568359374,0.02694826014339924,0.006053631659597158,-0.00606401776894927
1782858778078330600,8.37833056640625,0.02550962008535862,0.00720678037032485,-0.008711200207471848
1782858778088310500,8.388310546875,0.028130704537034035,0.01088753528892994,-0.007712248247116804
1782858778098258400,8.398258544921875,0.025003885850310326,0.007396397180855274,-0.009387909434735775
1782858778108207600,8.40820751953125,0.02682948298752308,0.008235293440520763,-0.007416903506964445
1782858778118156500,8.418156494140625,0.026040388271212578,0.005348159931600094,-0.0075841499492526054
1782858778128135700,8.4281357421875,0.0234129149466753,0.005948702804744244,-0.006530869752168655
1782858778138084600,8.438084716796874,0.02618340030312538,0.00800066813826561,-0.008725847117602825
1782858778148033500,8.448033447265624,0.02750326320528984,0.006140983197838068,-0.007002782076597214
1782858778157981700,8.457981689453124,0.027828967198729515,0.005314604379236698,-0.005380117800086737
1782858778167961600,8.467961669921875,0.026090456172823906,0.008834770880639553,-0.0062855929136276245
1782858778177909500,8.477909423828125,0.02767264097929001,0.007419832982122898,-0.007934089750051498
1782858778187858700,8.487858642578125,0.02630750462412834,0.008767925202846527,-0.006259493995457888
1782858778197807600,8.4978076171875,0.02780286967754364,0.006930077914148569,-0.00675271125510335
1782858778207786500,8.507786376953124,0.02719646692276001,0.006750048138201237,-0.004939631093293428
1782858778217735400,8.5177353515625,0.02635171264410019,0.007363640237599611,-0.008113852702081203
1782858778227684600,8.5276845703125,0.025718413293361664,0.007077616639435291,-0.006666158325970173
1782858778237632500,8.537632568359374,0.025902170687913895,0.00890614278614521,-0.006686931010335684
1782858778247612400,8.5476123046875,0.027295004576444626,0.008859005756676197,-0.006590524688363075
1782858778257560600,8.557560546875,0.026628414168953896,0.007543137297034264,-0.005843241699039936
1782858778267509800,8.567509765625,0.026692330837249756,0.007203584536910057,-0.00896579772233963
1782858778277458700,8.577458740234375,0.02810540422797203,0.006669087801128626,-0.007995874620974064
1782858778287437600,8.5874375,0.025056084617972374,0.006374542135745287,-0.006411293987184763
1782858778297386800,8.59738671875,0.025624670088291168,0.009040633216500282,-0.007028880994766951
1782858778307334700,8.607334716796874,0.027968252077698708,0.005401156842708588,-0.007620369084179401
1782858778317283600,8.61728369140625,0.02521294541656971,0.0067633637227118015,-0.00746164470911026
1782858778327262700,8.6272626953125,0.02743215672671795,0.007154315710067749,-0.006261890754103661
1782858778337211600,8.637211669921875,0.026070216670632362,0.006894657853990793,-0.00800279900431633
1782858778347160600,8.64716064453125,0.026611370965838432,0.006171609275043011,-0.008076568134129047
1782858778357109500,8.657109619140625,0.02744094468653202,0.008101602084934711,-0.008016115054488182
1782858778367088600,8.667088623046874,0.026214560493826866,0.006826214492321014,-0.006000368390232325
1782858778377037600,8.67703759765625,0.02630137838423252,0.007081877905875444,-0.009190835058689117
1782858778386985500,8.6869853515625,0.027712320908904076,0.005378786474466324,-0.0062096924521028996
1782858778396934400,8.696934326171874,0.02515542134642601,0.005311142187565565,-0.006070143077522516
1782858778406913500,8.70691357421875,0.025852369144558907,0.0062429821118712425,-0.006715160794556141
1782858778416862500,8.716862548828125,0.027651600539684296,0.0070219566114246845,-0.008549013175070286
1782858778426811600,8.726811767578125,0.0269479937851429,0.006759102921932936,-0.006872553378343582
1782858778436759600,8.736759521484375,0.025480858981609344,0.009187373332679272,-0.007249657064676285
1782858778446739700,8.74673974609375,0.02653094381093979,0.00980469398200512,-0.008102134801447392
1782858778456687600,8.7566875,0.026756513863801956,0.00845580268651247,-0.006558034103363752
1782858778466636500,8.766636474609374,0.027485154569149017,0.006536995060741901,-0.006666424684226513
1782858778476585700,8.776585693359374,0.02412237972021103,0.009693640284240246,-0.006075469311326742
1782858778486564600,8.786564697265625,0.027834827080368996,0.007059241179376841,-0.006568686570972204
1782858778496513500,8.796513427734375,0.02793229930102825,0.006536728702485561,-0.004829110112041235
1782858778506462500,8.80646240234375,0.024020647630095482,0.006743922829627991,-0.008292551152408123
1782858778516410600,8.81641064453125,0.027037743479013443,0.008792959153652191,-0.00441019469872117
1782858778526390500,8.826390625,0.027574369683861732,0.005124987103044987,-0.007026484236121178
1782858778536338700,8.836338623046874,0.02641589380800724,0.005998237524181604,-0.005456550512462854
1782858778546287600,8.84628759765625,0.025168735533952713,0.009890980087220669,-0.005354018881917
1782858778556236500,8.856236572265624,0.02791312336921692,0.00618146313354373,-0.005447229836136103
1782858778566215400,8.86621533203125,0.02628593146800995,0.007291735149919987,-0.008759935386478901
1782858778576164600,8.87616455078125,0.02652907930314541,0.009169796481728554,-0.007849667221307755
1782858778586112500,8.886112548828125,0.026079803705215454,0.009344233199954033,-0.006961236707866192
1782858778596092700,8.8960927734375,0.027873976156115532,0.00914502888917923,-0.007893077097833157
1782858778606040600,8.90604052734375,0.0269533209502697,0.006024336442351341,-0.008155398070812225
1782858778615989800,8.91598974609375,0.026453977450728416,0.008538094349205494,-0.006487726699560881
1782858778625938700,8.925938720703124,0.02539111115038395,0.00869149249047041,-0.005313272587954998
1782858778635917600,8.93591748046875,0.026690732687711716,0.008723716251552105,-0.005110073368996382
1782858778645866800,8.94586669921875,0.02630803734064102,0.007840612903237343,-0.007558850105851889
1782858778655815700,8.955815673828125,0.026979686692357063,0.011950935237109661,-0.007410245481878519
1782858778665763600,8.965763671875,0.02671629935503006,0.005061870440840721,-0.007158843334764242
1782858778675743500,8.975743408203124,0.026858512312173843,0.007959389127790928,-0.008885104209184647
1782858778685691600,8.985691650390624,0.024220384657382965,0.005761216394603252,-0.006353503558784723
1782858778695640600,8.995640625,0.025723738595843315,0.00612340634688735,-0.007954329252243042
1782858778705589500,9.005589599609374,0.026337331160902977,0.008784969337284565,-0.007258445490151644
1782858778715568600,9.015568603515625,0.02635570801794529,0.0062214103527367115,-0.005462143570184708
1782858778725517600,9.025517578125,0.026255572214722633,0.007729558739811182,-0.007477623876184225
1782858778735466500,9.035466552734375,0.02587607130408287,0.006561496295034885,-0.00592606607824564
1782858778745414400,9.045414306640625,0.027236148715019226,0.006893592420965433,-0.008434764109551907
1782858778755393500,9.0553935546875,0.02815227583050728,0.0075484635308384895,-0.005320996046066284
1782858778765342500,9.065342529296874,0.027483023703098297,0.007537811063230038,-0.00711836339905858
1782858778775291600,9.075291748046874,0.025070466101169586,0.005751628894358873,-0.009861951693892479
1782858778785240600,9.085240478515624,0.026431873440742493,0.007200655061751604,-0.008902148343622684
1782858778795240700,9.09524072265625,0.026944799348711967,0.0067572384141385555,-0.006660832092165947
1782858778805190000,9.10518994140625,0.026986610144376755,0.006981476675719023,-0.006115682888776064
1782858778815137800,9.1151376953125,0.026200179010629654,0.006596916355192661,-0.006019276566803455
1782858778825086700,9.125086669921876,0.026036661118268967,0.005565473809838295,-0.007107710465788841
1782858778835065900,9.13506591796875,0.027001790702342987,0.006429669912904501,-0.006557235028594732
1782858778845014800,9.145014892578125,0.027033215388655663,0.005392102058976889,-0.006111422087997198
1782858778854963700,9.154963623046875,0.02545502595603466,0.009167399257421494,-0.008016115054488182
1782858778864912600,9.16491259765625,0.02628832869231701,0.007888282649219036,-0.007463508751243353
1782858778874891800,9.174891845703126,0.028733909130096436,0.007750597782433033,-0.007179882377386093
1782858778884840700,9.1848408203125,0.0256893839687109,0.008676046505570412,-0.005770271178334951
1782858778894788900,9.194788818359376,0.026733608916401863,0.010299509391188622,-0.007486412301659584
1782858778904737800,9.20473779296875,0.025892050936818123,0.010095776990056038,-0.00791384931653738
1782858778914716700,9.214716552734375,0.026863038539886475,0.009910421445965767,-0.008204666897654533
1782858778924665600,9.22466552734375,0.024995364248752594,0.007531419396400452,-0.0065535069443285465
1782858778934614800,9.23461474609375,0.026274746283888817,0.008923985995352268,-0.00977433379739523
1782858778944562700,9.244562744140625,0.026557041332125664,0.007989482954144478,-0.010181264951825142
1782858778954542600,9.25454248046875,0.026985811069607735,0.009411877952516079,-0.008532235398888588
1782858778964490800,9.26449072265625,0.02684146724641323,0.008011055178940296,-0.006480802316218615
1782858778974440000,9.27443994140625,0.028750687837600708,0.007921839132905006,-0.00794207863509655
1782858778984388900,9.284388916015626,0.026629745960235596,0.007737015374004841,-0.00808881875127554
1782858778994367700,9.29436767578125,0.023261912167072296,0.00683074165135622,-0.0062304651364684105
1782858779004317000,9.30431689453125,0.027461718767881393,0.008668855763971806,-0.007272293791174889
1782858779014265900,9.314265869140625,0.025785258039832115,0.007439540233463049,-0.009089901112020016
1782858779024213800,9.3242138671875,0.026012159883975983,0.006786266807466745,-0.009107211604714394
1782858779034193700,9.334193603515626,0.028811408206820488,0.006434197071939707,-0.008101069368422031
1782858779044141800,9.344141845703126,0.024294953793287277,0.00729413190856576,-0.005813414230942726
1782858779054090800,9.3540908203125,0.027759458869695663,0.008355401456356049,-0.006307696923613548
1782858779064039700,9.364039794921876,0.025542911142110825,0.005687180440872908,-0.0059931776486337185
1782858779074018800,9.374018798828125,0.026205504313111305,0.010647318325936794,-0.0076147764921188354
1782858779083967700,9.3839677734375,0.02622920647263527,0.006962568499147892,-0.0062829297967255116
1782858779093915600,9.39391552734375,0.026994865387678146,0.008190551772713661,-0.009189236909151077
1782858779103864600,9.403864501953125,0.024463530629873276,0.008704542182385921,-0.009221195243299007
1782858779113843700,9.41384375,0.028027374297380447,0.004742290824651718,-0.005768673028796911
1782858779123792600,9.423792724609376,0.026571689173579216,0.006868558935821056,-0.005188902840018272
1782858779133741800,9.433741943359376,0.026546655222773552,0.008164453320205212,-0.00569996377453208
1782858779143721000,9.443720947265625,0.027963990345597267,0.006499710958451033,-0.006047772243618965
1782858779153670000,9.453669921875,0.028067320585250854,0.00726430444046855,-0.006646983791142702
1782858779163618800,9.463618896484375,0.026312030851840973,0.008201470598578453,-0.008048338815569878
1782858779173566700,9.473566650390625,0.026032399386167526,0.008657404221594334,-0.006911968346685171
1782858779183547000,9.483546875,0.02684972435235977,0.006460029631853104,-0.007168164476752281
1782858779193494800,9.493494873046876,0.026820428669452667,0.0072943982668221,-0.010262491181492805
1782858779203443700,9.503443603515626,0.026547187939286232,0.006121275946497917,-0.008294414728879929
1782858779213392600,9.513392578125,0.027150660753250122,0.006660299375653267,-0.0051995557732880116
1782858779223371800,9.523371826171875,0.026859045028686523,0.00481313094496727,-0.006132993847131729
1782858779233320700,9.53332080078125,0.027056651189923286,0.008008924312889576,-0.008187356404960155
1782858779243268600,9.5432685546875,0.026803916320204735,0.007498396094888449,-0.004351338837295771
1782858779253217800,9.5532177734375,0.02702602557837963,0.0087218526750803,-0.007647000718861818
1782858779263196700,9.56319677734375,0.02617967315018177,0.007952997460961342,-0.010153833776712418
1782858779273145600,9.5731455078125,0.027005784213542938,0.007497064769268036,-0.006194246467202902
1782858779283094500,9.583094482421876,0.026026807725429535,0.009199890308082104,-0.007874168455600739
1782858779293044000,9.5930439453125,0.027589283883571625,0.009929063729941845,-0.006629673298448324
1782858779303022800,9.60302294921875,0.027600202709436417,0.0067686899565160275,-0.007758587133139372
1782858779312971800,9.6129716796875,0.02834881655871868,0.005886118393391371,-0.006176403257995844
1782858779322920000,9.622919921875,0.02611096203327179,0.009929596446454525,-0.00896553136408329
1782858779332868900,9.632868896484375,0.025856098160147667,0.009150088764727116,-0.008528240956366062
1782858779342847700,9.64284765625,0.02527100220322609,0.008104798384010792,-0.006388657260686159
1782858779352796700,9.652796630859376,0.026388464495539665,0.005873868241906166,-0.006854710169136524
1782858779362745900,9.662745849609376,0.026503512635827065,0.007434480357915163,-0.009133843705058098
1782858779372694800,9.67269482421875,0.024828383699059486,0.007980694994330406,-0.006389189511537552
1782858779382673700,9.682673583984375,0.026757843792438507,0.0075665730983018875,-0.006088785361498594
1782858779392622600,9.69262255859375,0.027149861678481102,0.006707437336444855,-0.007109308615326881
1782858779402570800,9.70257080078125,0.027176227420568466,0.008915730752050877,-0.009207879193127155
1782858779412519700,9.712519775390625,0.027954936027526855,0.00854235514998436,-0.006147108506411314
1782858779422498800,9.722498779296876,0.02628593146800995,0.007184675894677639,-0.0059633501805365086
1782858779432447700,9.73244775390625,0.026220951229333878,0.006184126250445843,-0.006909571588039398
1782858779442396700,9.742396728515626,0.028374915942549706,0.007791077718138695,-0.007637146860361099
1782858779452344600,9.752344482421876,0.025010811164975166,0.0051657333970069885,-0.005289836786687374
1782858779462324700,9.76232470703125,0.026188727468252182,0.0075721656903624535,-0.0075426045805215836
1782858779472273000,9.77227294921875,0.027942419052124023,0.005793174263089895,-0.006110090296715498
1782858779482221800,9.782221923828125,0.026020415127277374,0.007273092865943909,-0.00923531036823988
1782858779492170800,9.792170654296875,0.025779930874705315,0.007642739452421665,-0.007221694104373455
1782858779502150000,9.80214990234375,0.024926388636231422,0.007860852405428886,-0.005218996666371822
1782858779512098800,9.812098876953126,0.027114441618323326,0.007905327714979649,-0.008585498668253422
1782858779522047700,9.8220478515625,0.02652961201965809,0.007838748395442963,-0.006384662352502346
1782858779531995600,9.83199560546875,0.025854766368865967,0.008504272438585758,-0.006085056811571121
1782858779541975800,9.841975830078125,0.027946412563323975,0.007654457353055477,-0.006930077914148569
1782858779551923700,9.851923828125,0.024029701948165894,0.00726563623175025,-0.007381483446806669
1782858779561872600,9.86187255859375,0.025957563892006874,0.007588943932205439,-0.00569916469976306
1782858779571821600,9.871821533203125,0.029093436896800995,0.010885670781135559,-0.008741027675569057
1782858779581800700,9.88180078125,0.026980750262737274,0.009283779188990593,-0.0082102594897151
1782858779591749600,9.89174951171875,0.025606026872992516,0.0029491845052689314,-0.007910121232271194
1782858779601697800,9.90169775390625,0.02634585276246071,0.0054664043709635735,-0.005629123654216528
1782858779611646700,9.911646728515626,0.028124045580625534,0.0002495381922926754,-0.004034156445413828
1782858779621625600,9.92162548828125,0.027028687298297882,0.003942543640732765,-0.006840329151600599
1782858779631574800,9.93157470703125,0.02581535093486309,0.004408863373100758,-0.002528937766328454
1782858779641523700,9.941523681640625,0.02702575922012329,-0.0038274950347840786,-0.007986553944647312
1782858779651502800,9.9515029296875,0.027646541595458984,-0.010855576954782009,-0.0028415927663445473
1782858779661451800,9.96145166015625,0.028072115033864975,-0.013965616934001446,0.0022117553744465113
1782858779671400700,9.971400634765626,0.024231037124991417,-0.01925039291381836,-0.0005994775565341115
1782858779681348900,9.981348876953126,0.021217670291662216,-0.012289955280721188,-0.007681355345994234
1782858779691328800,9.991328857421875,0.021694377064704895,-0.0022567627020180225,-0.0065284729935228825
1782858779701276700,10.001276611328125,0.023501330986618996,-0.003915112931281328,-0.00347435986623168
1782858779711225900,10.011225830078125,0.020305272191762924,-0.007505054119974375,-0.003866909770295024
1782858779721174800,10.0211748046875,0.0201066005975008,-0.0075671058148145676,-0.009038502350449562
1782858779731153700,10.031153564453126,0.022976422682404518,-0.00036218989407643676,-0.005338838789612055
1782858779741102600,10.0411025390625,0.021649634465575218,-0.0027206854429095984,-0.003911917097866535
1782858779751050800,10.05105078125,0.019123094156384468,-0.01595339924097061,-0.005542038008570671
1782858779760999700,10.060999755859376,0.023082949221134186,-0.019288210198283195,-0.00324799120426178
1782858779770978800,10.070978759765625,0.02172819897532463,-0.01577123999595642,-0.0023222763556987047
1782858779780927700,10.080927734375,0.02004614658653736,-0.013258547522127628,-0.000316916179144755
1782858779790877000,10.090876953125,0.022816365584731102,-0.013954698108136654,-0.004113518632948399
1782858779800850700,10.1008505859375,0.019848007708787918,-0.005272259935736656,-0.00637827068567276
1782858779810829600,10.11082958984375,0.02147866040468216,0.00023382554354611784,-0.005572664551436901
1782858779820778500,10.120778564453126,0.018611501902341843,0.002016279147937894,-0.005146026145666838
1782858779830726700,10.1307265625,0.020191820338368416,0.0017683389596641064,-0.007173224352300167
1782858779840675800,10.14067578125,0.020769460126757622,-0.00552179804071784,-0.007348992861807346
1782858779850654700,10.15065478515625,0.021926337853074074,-0.003186472225934267,-0.0037087181117385626
1782858779860604000,10.16060400390625,0.023602532222867012,0.004667456261813641,-0.0060059609822928905
1782858779870552800,10.170552734375,0.0220914538949728,0.009868343360722065,-0.009861951693892479
1782858779880501800,10.180501708984375,0.024821460247039795,0.0018703379901126027,-0.0078102522529661655
1782858779890480600,10.190480712890626,0.025227325037121773,-0.0022631543688476086,-0.0011787151452153921
1782858779900428800,10.2004287109375,0.024416392669081688,0.0018583538476377726,-0.004607801325619221
1782858779910377700,10.210377685546876,0.02551201730966568,0.00592606607824564,-0.008642756380140781
1782858779920326700,10.22032666015625,0.02442890964448452,0.0070794811472296715,-0.007171892561018467
1782858779930305800,10.230305908203125,0.02678767219185829,0.0073047843761742115,-0.006441387813538313
1782858779940254700,10.240254638671875,0.024151409044861794,0.008863532915711403,-0.006499710958451033
1782858779950203600,10.25020361328125,0.027161845937371254,0.009100021794438362,-0.008220379240810871
1782858779960151600,10.260151611328125,0.026683542877435684,0.00629012007266283,-0.007542870938777924
1782858779970131700,10.270131591796876,0.026265425607562065,0.008770588785409927,-0.007530088070780039
1782858779980079600,10.28007958984375,0.026221750304102898,0.010277139022946358,-0.007667773403227329
1782858779990028500,10.290028564453126,0.028016187250614166,0.010701113380491734,-0.007330351043492556
1782858779999977700,10.299977783203126,0.026608707383275032,0.007783886976540089,-0.008027832955121994
1782858780009956600,10.30995654296875,0.026186330243945122,0.007219829596579075,-0.005391835700720549
1782858780019905800,10.31990576171875,0.02628912776708603,0.004176635295152664,-0.005420864559710026
1782858780029854700,10.329854736328125,0.02683054842054844,0.006680273450911045,-0.007231547497212887
1782858780039803000,10.339802978515625,0.02847079001367092,0.00782836228609085,-0.007845672778785229
1782858780049782800,10.34978271484375,0.02521454356610775,0.003728425595909357,-0.00515854312106967
1782858780059730700,10.359730712890626,0.027707261964678764,0.008488825522363186,-0.00621049152687192
1782858780069679600,10.3696796875,0.027000725269317627,0.005692773032933474,-0.006901581771671772
1782858780079628800,10.37962890625,0.02756638079881668,0.008068312890827656,-0.008591091260313988
1782858780089607700,10.389607666015625,0.027178891003131866,0.008028898388147354,-0.0059875850565731525
1782858780099556600,10.399556640625,0.028783710673451424,0.009440107271075249,-0.004536428488790989
1782858780109504800,10.4095048828125,0.0263005793094635,0.007592938374727964,-0.005474926438182592
1782858780119453700,10.41945361328125,0.02816346101462841,0.009580455720424652,-0.006196110509335995
1782858780129432600,10.4294326171875,0.027956534177064896,0.0073266224935650826,-0.008024103939533234
1782858780139381800,10.4393818359375,0.02588166482746601,0.0016884441720321774,-0.00529569573700428
1782858780149330700,10.44933056640625,0.027150660753250122,0.007179349660873413,-0.006944725289940834
1782858780159279900,10.45927978515625,0.026031333953142166,0.008505870588123798,-0.008108526468276978
1782858780169258500,10.469258544921875,0.028924059122800827,0.0033164345659315586,-0.0065681543201208115
1782858780179207700,10.479207763671875,0.025739451870322227,0.009701362811028957,-0.007830492220818996
1782858780189155800,10.48915576171875,0.026524817571043968,0.01338824350386858,-0.008685100823640823
1782858780199104800,10.499104736328125,0.027533622458577156,0.0073473951779305935,-0.0073388731107115746
1782858780209084000,10.509083984375,0.02804867923259735,0.01073733251541853,-0.004175037611275911
1782858780219032800,10.51903271484375,0.027187945321202278,0.007837949320673943,-0.0062970444560050964
1782858780228981800,10.528981689453126,0.026030268520116806,0.006766825914382935,-0.006720220670104027
1782858780238960600,10.538960693359375,0.025375131517648697,0.008826781064271927,-0.006445382256060839
1782858780248909800,10.548909912109375,0.025001490488648415,0.0038341530598700047,-0.008344216272234917
1782858780258857700,10.558857666015625,0.025973010808229446,0.0044291033409535885,-0.005604356061667204
1782858780268806700,10.568806640625,0.025118403136730194,0.0027228158432990313,-0.0041465419344604015
1782858780278785800,10.578785888671876,0.02532692812383175,0.004510329570621252,-0.006162022240459919
1782858780288734700,10.588734619140626,0.024354342371225357,0.006299707572907209,-0.00890614278614521
1782858780298683600,10.59868359375,0.022828349843621254,0.003820837242528796,-0.00752156600356102
1782858780308632600,10.608632568359376,0.024337030947208405,0.00031185615807771683,-0.005766276270151138
1782858780318611700,10.61861181640625,0.025370869785547256,0.004248008131980896,-0.005096491426229477
1782858780328561000,10.628560791015625,0.026208167895674706,0.004261590540409088,-0.006518086884170771
1782858780338508500,10.638508544921875,0.026690199971199036,0.005656288005411625,-0.007253918331116438
1782858780348457700,10.648457763671875,0.025121331214904785,-0.00010386328358436003,-0.004564658273011446
1782858780358436900,10.658436767578126,0.024516262114048004,-0.0017193368403241038,-0.007425425574183464
1782858780368385800,10.6683857421875,0.023273363709449768,-0.0018285263795405626,-0.006412891671061516
1782858780378334700,10.678334716796876,0.02382969856262207,0.0005813680472783744,-0.0037318875547498465
1782858780388283600,10.68828369140625,0.02256443165242672,0.00098217383492738,-0.005501558072865009
1782858780398262800,10.6982626953125,0.02286084182560444,0.0012538161827251315,-0.007422229740768671
1782858780408210700,10.708210693359375,0.02237827703356743,0.003305515507236123,-0.00791571382433176
1782858780418159600,10.71815966796875,0.023679763078689575,-0.001567802974022925,-0.008533567190170288
1782858780428108800,10.72810888671875,0.0227990560233593,-0.000734766130335629,-0.004887433256953955
1782858780438087700,10.738087646484376,0.022649651393294334,-0.0008878979133442044,-0.005164668429642916
1782858780448036600,10.74803662109375,0.02117506042122841,0.0022570290602743626,-0.006643787957727909
1782858780457985500,10.757985595703126,0.023026222363114357,0.0065473816357553005,-0.010242517106235027
1782858780467933700,10.76793359375,0.023036077618598938,0.007261641323566437,-0.008233695290982723
1782858780477913600,10.77791357421875,0.022578811272978783,0.007228884380310774,-0.008622250519692898
1782858780487861800,10.78786181640625,0.02569897100329399,0.0080925477668643,-0.008066448383033276
1782858780497810700,10.797810791015625,0.02509736269712448,0.00101120222825557,-0.008843026123940945
1782858780507759900,10.807759765625,0.025980466976761818,0.005899434443563223,-0.005021656397730112
1782858780517738800,10.81773876953125,0.02617381326854229,0.009194563142955303,-0.007017163094133139
1782858780527687700,10.827687744140626,0.026707245036959648,0.006636863574385643,-0.008470982313156128
1782858780537636900,10.837636962890626,0.024531709030270576,0.006316751707345247,-0.006477074231952429
1782858780547584800,10.847584716796876,0.026388464495539665,0.0037534593138843775,-0.004624845460057259
1782858780557564700,10.857564697265625,0.02791152521967888,0.007299990858882666,-0.00612287363037467
1782858780567512800,10.867512939453125,0.02460387907922268,0.006789462640881538,-0.00714712543413043
1782858780577461800,10.877461669921875,0.026872094720602036,0.009965548291802406,-0.0057321880012750626
1782858780587410700,10.88741064453125,0.02305498532950878,0.009584716521203518,-0.005998503882437944
1782858780597389800,10.897389892578126,0.024658475071191788,0.008273642510175705,-0.009003348648548126
1782858780607338800,10.9073388671875,0.022473616525530815,0.00854581780731678,-0.006554305553436279
1782858780617286700,10.91728662109375,0.01877262257039547,0.011447331868112087,-0.009061139076948166
1782858780627235600,10.927235595703126,0.019936157390475273,0.0009432916413061321,-0.009726663120090961
1782858780637214700,10.937214599609375,0.021102622151374817,0.004619519226253033,-0.008463526144623756
1782858780647163600,10.94716357421875,0.022228606045246124,0.0057620154693722725,-0.005023254547268152
1782858780657112600,10.957112548828125,0.023812655359506607,0.005558017175644636,-0.005534847732633352
1782858780667061800,10.967061767578125,0.023518642410635948,0.006413424387574196,-0.011224957183003426
1782858780677041000,10.977041015625,0.02581588365137577,0.005655755288898945,-0.007668572477996349
1782858780686989800,10.98698974609375,0.025201227515935898,0.001368598430417478,-0.003597398055717349
1782858780696937700,10.996937744140626,0.0264249499887228,0.0033342777751386166,-0.0070310113951563835
1782858780706886700,11.00688671875,0.026765568181872368,0.00037044569035060704,-0.004655738361179829
1782858780716865800,11.01686572265625,0.026975691318511963,0.006334062200039625,-0.00698041170835495
1782858780726814700,11.026814697265625,0.026736538857221603,0.006656571291387081,-0.006200638134032488
1782858780736763600,11.036763671875,0.026692597195506096,0.005817409139126539,-0.00304612354375422
1782858780746711800,11.0467119140625,0.026639332994818687,0.005352687556296587,-0.007964449934661388
1782858780756691700,11.056691650390626,0.02683853916823864,0.008123972453176975,-0.005319131538271904
1782858780766639600,11.0666396484375,0.024706145748496056,0.014606107026338577,-0.007702660746872425
1782858780776588800,11.0765888671875,0.025952771306037903,0.012267052195966244,-0.010979680344462395
1782858780786567700,11.086567626953125,0.02502279542386532,0.011567972600460052,-0.008403604850172997
1782858780796516600,11.0965166015625,0.02580576390028,0.0073135728016495705,-0.007282147649675608
1782858780806474800,11.106474853515625,0.024233700707554817,-0.0019707391038537025,-0.006569485645741224
1782858780816423700,11.116423583984375,0.02640843763947487,0.006628874223679304,-0.004002198576927185
1782858780826402600,11.126402587890626,0.0268918015062809,0.008856075815856457,-0.006345780100673437
1782858780836351700,11.136351806640626,0.02532373182475567,0.009408148936927319,-0.009866212494671345
1782858780846299600,11.146299560546876,0.026623621582984924,0.01125212199985981,-0.009184443391859531
1782858780856248600,11.15624853515625,0.026991670951247215,0.013134710490703583,-0.008765261620283127
1782858780866227700,11.166227783203125,0.02864868938922882,0.006798783782869577,-0.005280515644699335
1782858780876176600,11.1761767578125,0.026440927758812904,0.008835037238895893,-0.005524993874132633
1782858780886125600,11.18612548828125,0.026585005223751068,0.011238539591431618,-0.006175604183226824
1782858780896073500,11.196073486328125,0.025187645107507706,0.010972223244607449,-0.008609467186033726
1782858780906053600,11.2060537109375,0.026850257068872452,0.010102168656885624,-0.007516505662351847
1782858780916001500,11.21600146484375,0.02574797347187996,0.007003314793109894,-0.007300789933651686
1782858780925950500,11.225950439453126,0.027040405198931694,0.0069503178820014,-0.008393485099077225
1782858780935899400,11.2358994140625,0.026679813861846924,0.004740959499031305,-0.007310110609978437
1782858780945878500,11.24587841796875,0.025914154946804047,0.0073441993445158005,-0.00734366662800312
1782858780955827500,11.255827392578125,0.02413729391992092,0.0030421288684010506,-0.008073905482888222
1782858780965776600,11.265776611328125,0.024465927854180336,0.0022655511274933815,-0.004620318301022053
1782858780975724800,11.275724853515625,0.02515568770468235,0.005129780620336533,-0.005115665961056948
1782858780985704700,11.28570458984375,0.025907231494784355,0.0008743157959543169,-0.0046906257048249245
1782858780995652600,11.295652587890626,0.025559155270457268,0.007044327445328236,-0.008494418114423752
1782858781005601500,11.3056015625,0.02678048051893711,0.009531186893582344,-0.009000951424241066
1782858781015550700,11.31555078125,0.025374598801136017,0.006701578386127949,-0.005345230456441641
1782858781025529600,11.325529541015625,0.027635889127850533,0.008281099610030651,-0.00871998816728592
1782858781035478500,11.335478515625,0.02659246139228344,0.00777776213362813,-0.008807872422039509
1782858781045427500,11.345427490234375,0.026741333305835724,0.0041734399273991585,-0.006686931010335684
1782858781055375600,11.355375732421875,0.023694144561886787,0.001193096162751317,-0.007816644385457039
1782858781065354500,11.3653544921875,0.024276310577988625,-0.003070358419790864,-0.004860268905758858
1782858781075303700,11.3753037109375,0.02593279629945755,-0.0007395598222501576,-0.004677576012909412
1782858781085252600,11.385252685546876,0.026023078709840775,0.00010120012302650139,-0.004041346721351147
1782858781095201500,11.395201416015626,0.024510934948921204,0.0038397456519305706,-0.007387608755379915
1782858781105180400,11.405180419921875,0.025009213015437126,0.0013275857781991363,-0.010160225443542004
1782858781115129300,11.41512939453125,0.024864869192242622,-0.009065666235983372,-0.005794771946966648
1782858781125077500,11.425077392578125,0.023614250123500824,-0.02009567990899086,-0.0008921589469537139
1782858781135026700,11.435026611328125,0.024350080639123917,-0.019518574699759483,-0.0031755531672388315
1782858781145005800,11.445005859375,0.022044582292437553,-0.012779444456100464,-0.004031493328511715
1782858781154954800,11.454954833984376,0.02316284365952015,-0.010871555656194687,-0.005234443116933107
1782858781164903700,11.464903564453126,0.02322542853653431,-0.0026011094450950623,-0.0062885223887860775
1782858781174852600,11.4748525390625,0.024270452558994293,-0.001531850197352469,-0.0065103634260594845
1782858781184831700,11.484831787109375,0.025725869461894035,-0.006608101539313793,-0.006448045372962952
1782858781194780700,11.49478076171875,0.023745009675621986,-0.009831857867538929,-0.0028122980147600174
1782858781204728600,11.504728515625,0.026743197813630104,-0.006908506155014038,-0.003877029987052083
1782858781214677500,11.514677490234375,0.028077973052859306,0.003385676769539714,-0.005301821045577526
1782858781224656600,11.52465673828125,0.02653839997947216,0.005600095260888338,-0.00891200266778469
1782858781234605600,11.53460546875,0.026556774973869324,0.005365204066038132,-0.005603291094303131
1782858781244554500,11.544554443359376,0.02725985087454319,0.008433165960013866,-0.006013950332999229
1782858781254502700,11.554502685546876,0.02648567035794258,0.006358297076076269,-0.0067628310061991215
1782858781264482600,11.564482666015625,0.029987726360559464,0.011518970131874084,-0.007441937457770109
1782858781274430500,11.574430419921875,0.02570456452667713,0.010095510631799698,-0.007258711848407984
1782858781284379400,11.58437939453125,0.027850806713104248,0.015320632606744766,-0.010188722051680088
1782858781294328600,11.59432861328125,0.02773282863199711,0.015479356981813908,-0.010885670781135559
1782858781304307700,11.6043076171875,0.02676849626004696,0.012655873782932758,-0.008158061653375626
1782858781314256600,11.614256591796876,0.027030551806092262,0.013637781143188477,-0.0072957295924425125
1782858781324205600,11.62420556640625,0.026792464777827263,0.00948218535631895,-0.0073231603018939495
1782858781334184700,11.634184814453125,0.026164758950471878,0.006440056022256613,-0.007513043470680714
1782858781344133600,11.644133544921875,0.025060079991817474,0.00917299184948206,-0.006189186125993729
1782858781354081500,11.65408154296875,0.026744529604911804,0.008013451471924782,-0.008413990959525108
1782858781364030700,11.66403076171875,0.026196982711553574,0.010966364294290543,-0.007421431131660938
1782858781374009600,11.674009521484376,0.02786066010594368,0.007447263691574335,-0.006175337824970484
1782858781383958500,11.68395849609375,0.02418762817978859,0.011321896687150002,-0.009270995855331421
1782858781393907500,11.693907470703126,0.0252840518951416,0.012417521327733994,-0.009621734730899334
1782858781403855600,11.703855712890626,0.02659166418015957,0.010823885910212994,-0.006168147549033165
1782858781413835500,11.71383544921875,0.02634824998676777,0.012240421026945114,-0.007872570306062698
1782858781423783400,11.723783447265625,0.025375397875905037,0.015075089409947395,-0.010268350131809711
1782858781433732600,11.733732666015625,0.02690618298947811,0.016812535002827644,-0.009492571465671062
1782858781443681500,11.743681640625,0.025968216359615326,0.011431618593633175,-0.010415356606245041
1782858781453660400,11.753660400390626,0.025485651567578316,0.006584665738046169,-0.007523430045694113
1782858781463609600,11.763609619140626,0.02509709820151329,0.018444787710905075,-0.0068901302292943
1782858781473558800,11.773558837890626,0.02544650435447693,0.02588166482746601,-0.013095295988023281
1782858781483506700,11.783506591796876,0.026489397510886192,0.02587181143462658,-0.012503541074693203
1782858781493486600,11.793486572265625,0.02527046948671341,0.029949376359581947,-0.007568437606096268
1782858781503434800,11.803434814453125,0.027880100533366203,0.03515772148966789,-0.008599347434937954
1782858781513383700,11.8133837890625,0.02696423977613449,0.028548553586006165,-0.010070477612316608
1782858781523332600,11.82333251953125,0.029087310656905174,0.019099924713373184,-0.010874485597014427
1782858781533311500,11.8333115234375,0.029500633478164673,0.007109042257070541,-0.003163569141179323
1782858781543260700,11.8432607421875,0.02702389471232891,0.010616691783070564,-0.006363889668136835
1782858781553208600,11.85320849609375,0.02881673350930214,0.0142958490177989,-0.008668056689202785
1782858781563157500,11.863157470703126,0.02821672335267067,0.01744157448410988,-0.009588977321982384
1782858781573136600,11.87313671875,0.028727518394589424,0.014517423696815968,-0.00612393906340003
1782858781583085600,11.88308544921875,0.027547737583518028,0.01775342971086502,-0.0062517705373466015
1782858781593034500,11.893034423828125,0.02636422961950302,0.019536150619387627,-0.00782383419573307
1782858781602983400,11.9029833984375,0.025164209306240082,0.009148756973445415,-0.007107710465788841
1782858781612962600,11.912962646484376,0.026933345943689346,0.004363855812698603,-0.006654440425336361
1782858781622911700,11.922911865234376,0.02702575922012329,0.004625111818313599,-0.003963582683354616
1782858781632859400,11.932859375,0.025000957772135735,-0.0006687197601422668,-0.0059630838222801685
