time,seconds_elapsed,z,y,x
1783169557585727000,0.14572705078125,0.025249892845749855,0.08710861951112747,0.09550919383764267
1783169557595676200,0.15567626953125,0.04379108548164368,0.06037607043981552,0.0958452820777893
1783169557605625000,0.165625,0.060399748384952545,0.0026797414757311344,0.113633893430233
1783169557615604200,0.175604248046875,0.0729038193821907,-0.05761049687862396,0.14513057470321655
1783169557625553200,0.18555322265625,0.0689765065908432,-0.11620939522981644,0.1762763261795044
1783169557635501000,0.1955009765625,0.043680209666490555,-0.243160679936409,0.17774878442287445
1783169557645450200,0.2054501953125,0.018833959475159645,-0.3762136995792389,0.1659703403711319
1783169557655429000,0.21542919921875,0.0044856444001197815,-0.43779823184013367,0.1436977982521057
1783169557665378000,0.2253779296875,-0.009190261363983154,-0.46406564116477966,0.08509273082017899
1783169557675327000,0.235326904296875,-0.04124912619590759,-0.46602359414100647,-0.01177309826016426
1783169557685306000,0.24530615234375,-0.08868270367383957,-0.4325684607028961,-0.14305894076824188
1783169557695255000,0.255255126953125,-0.12249819189310074,-0.3350818455219269,-0.28009164333343506
1783169557705203000,0.265202880859375,-0.13864678144454956,-0.1682002693414688,-0.3927023112773895
1783169557715152100,0.275152099609375,-0.14104363322257996,0.00437202537432313,-0.4493299126625061
1783169557725131000,0.285131103515625,-0.14873480796813965,0.15036311745643616,-0.45223402976989746
1783169557735080000,0.295079833984375,-0.1682933270931244,0.25201889872550964,-0.3931509852409363
1783169557745028900,0.30502880859375,-0.19357481598854065,0.29655805230140686,-0.2930009067058563
1783169557754978300,0.314978271484375,-0.21961575746536255,0.283551961183548,-0.16836045682430267
1783169557764957000,0.32495703125,-0.24665406346321106,0.23962466418743134,-0.036591786891222
1783169557774906000,0.334906005859375,-0.273751437664032,0.18954578042030334,0.07981924712657928
1783169557784854300,0.344854248046875,-0.3024695813655853,0.14206244051456451,0.17277489602565765
1783169557794834200,0.354834228515625,-0.3039252758026123,0.15118137001991272,0.2367624044418335
1783169557804782000,0.364781982421875,-0.28101474046707153,0.22964490950107574,0.2762216329574585
1783169557814731000,0.37473095703125,-0.2382664829492569,0.3188994228839874,0.274236798286438
1783169557824680200,0.38468017578125,-0.1876036673784256,0.36277881264686584,0.2467607855796814
1783169557834659000,0.3946591796875,-0.15132209658622742,0.33862951397895813,0.20672255754470825
1783169557844608000,0.40460791015625,-0.1435389220714569,0.25722894072532654,0.16280877590179443
1783169557854557000,0.414556884765625,-0.169420063495636,0.15750527381896973,0.12900687754154205
1783169557864505000,0.424505126953125,-0.22711393237113953,0.06754393875598907,0.10568486154079437
1783169557874484000,0.43448388671875,-0.3073219656944275,-0.008230449631810188,0.08343308418989182
1783169557884433200,0.44443310546875,-0.38904300332069397,-0.07393044978380203,0.03763127326965332
1783169557894382000,0.454382080078125,-0.46509331464767456,-0.1186332106590271,-0.046641528606414795
1783169557904361000,0.46436083984375,-0.5278915762901306,-0.13296470046043396,-0.1530989557504654
1783169557914310000,0.474309814453125,-0.572913646697998,-0.10951875895261765,-0.27202853560447693
1783169557924259000,0.484259033203125,-0.5965260863304138,-0.06800527125597,-0.38552170991897583
1783169557934207000,0.49420703125,-0.5934144854545593,-0.02143084816634655,-0.4823814034461975
1783169557944187100,0.504187255859375,-0.5795456767082214,0.03737667575478554,-0.5483253598213196
1783169557954135300,0.51413525390625,-0.5583986043930054,0.0901288390159607,-0.5661512017250061
1783169557964084200,0.524084228515625,-0.5327006578445435,0.13193710148334503,-0.5313279628753662
1783169557974033200,0.534033203125,-0.49968358874320984,0.1541752964258194,-0.45672717690467834
1783169557984012000,0.544011962890625,-0.45687389373779297,0.13358260691165924,-0.3486221730709076
1783169557993961200,0.553961181640625,-0.4161405861377716,0.11169888824224472,-0.2168428599834442
1783169558003910100,0.56391015625,-0.38148948550224304,0.08791954070329666,-0.062213558703660965
1783169558013889000,0.573888916015625,-0.35620278120040894,0.034379348158836365,0.09014029055833817
1783169558023838000,0.583837890625,-0.3434416651725769,-0.047007955610752106,0.22818665206432343
1783169558033786000,0.5937861328125,-0.33306199312210083,-0.13713225722312927,0.3389699161052704
1783169558043735000,0.603735107421875,-0.3306668996810913,-0.2129569947719574,0.41632962226867676
1783169558053714000,0.6137138671875,-0.33630135655403137,-0.26000574231147766,0.45240986347198486
1783169558063663000,0.6236630859375,-0.3475288152694702,-0.2900305688381195,0.4423849582672119
1783169558073612000,0.633612060546875,-0.35730260610580444,-0.3188371956348419,0.3866487443447113
1783169558083560000,0.643559814453125,-0.3580175042152405,-0.32769450545310974,0.3020322322845459
1783169558093539800,0.653539794921875,-0.3412734270095825,-0.3022650480270386,0.22136110067367554
1783169558103488000,0.663488037109375,-0.3332552909851074,-0.2690262496471405,0.14544925093650818
1783169558113437200,0.673437255859375,-0.35156771540641785,-0.24233660101890564,0.07839298248291016
1783169558123416000,0.683416015625,-0.3844948709011078,-0.20769102871418,0.023266516625881195
1783169558133365200,0.693365234375,-0.42567479610443115,-0.1294308602809906,-0.016819119453430176
1783169558143314200,0.703314208984375,-0.4797893762588501,-0.006587132345885038,-0.057971853762865067
1783169558153263000,0.71326318359375,-0.5345586538314819,0.12512429058551788,-0.13158190250396729
1783169558163242000,0.723241943359375,-0.5767632126808167,0.2637057304382324,-0.22612860798835754
1783169558173191200,0.733191162109375,-0.6166735887527466,0.4242892861366272,-0.3379038870334625
1783169558183139000,0.74313916015625,-0.6616742610931396,0.5637286901473999,-0.43100664019584656
1783169558193088000,0.753087890625,-0.7208837270736694,0.6633749008178711,-0.511637270450592
1783169558203067100,0.763067138671875,-0.7868452072143555,0.7423376441001892,-0.5789382457733154
1783169558213016000,0.77301611328125,-0.8318475484848022,0.8283606767654419,-0.6298009157180786
1783169558222966000,0.782966064453125,-0.8232156038284302,0.9169423580169678,-0.6560735702514648
1783169558232945000,0.79294482421875,-0.772193431854248,0.9967626929283142,-0.6548594832420349
1783169558242894000,0.80289404296875,-0.6884222626686096,1.0490914583206177,-0.6236023306846619
1783169558252842000,0.812842041015625,-0.5970819592475891,1.0544869899749756,-0.5459991097450256
1783169558262791200,0.822791259765625,-0.5480561256408691,0.9900611042976379,-0.42065486311912537
1783169558272770000,0.83277001953125,-0.5493589043617249,0.8509753346443176,-0.25925666093826294
1783169558282719200,0.84271923828125,-0.5687800645828247,0.6778082847595215,-0.06561349332332611
1783169558292668200,0.852668212890625,-0.5646172761917114,0.5372123122215271,0.15075209736824036
1783169558302617000,0.8626171875,-0.5423504710197449,0.32940027117729187,0.33389344811439514
1783169558312596000,0.872595947265625,-0.5201069116592407,-0.005917814560234547,0.4199149012565613
1783169558322545200,0.882545166015625,-0.46398448944091797,-0.29854780435562134,0.4408847689628601
1783169558332493000,0.8924931640625,-0.3589555323123932,-0.44424667954444885,0.4579913318157196
1783169558342473000,0.902472900390625,-0.21729804575443268,-0.4504532217979431,0.5076594948768616
1783169558352421000,0.912421142578125,-0.07006997615098953,-0.4123532474040985,0.6153475642204285
1783169558362370000,0.9223701171875,0.05223102867603302,-0.4193321168422699,0.7530404329299927
1783169558372319000,0.932319091796875,0.1090405136346817,-0.536308765411377,0.8467479944229126
1783169558382298000,0.942298095703125,0.08380679786205292,-0.8586109280586243,0.8240741491317749
1783169558392247000,0.9522470703125,0.00006902031600475311,-1.2716201543807983,0.6780330538749695
1783169558402195000,0.96219482421875,-0.10663335025310516,-1.5953885316848755,0.4549402594566345
1783169558412144000,0.97214404296875,-0.18948215246200562,-1.7102807760238647,0.2203349471092224
1783169558422123000,0.982123046875,-0.2198171317577362,-1.5792006254196167,0.02690828964114189
1783169558432072200,0.992072265625,-0.16575708985328674,-1.2086827754974365,-0.08826703578233719
1783169558442021000,1.002021240234375,-0.043600164353847504,-0.7128750085830688,-0.1404074877500534
1783169558452000300,1.012000244140625,0.11220434308052063,-0.3332342505455017,-0.1791924387216568
1783169558461949200,1.02194921875,0.2430577576160431,-0.22519579529762268,-0.2298661321401596
1783169558471898000,1.031898193359375,0.3122168481349945,-0.3528088927268982,-0.27458271384239197
1783169558481846000,1.041845947265625,0.2925073206424713,-0.6429687142372131,-0.29243531823158264
1783169558491826200,1.051826171875,0.1969645470380783,-0.9890379905700684,-0.27037447690963745
1783169558501774000,1.061774169921875,0.05824025347828865,-1.2924588918685913,-0.1960066854953766
1783169558511723000,1.071722900390625,-0.07009375095367432,-1.4551570415496826,-0.09674535691738129
1783169558521672000,1.081671875,-0.16209471225738525,-1.4541707038879395,-0.014460980892181396
1783169558531651000,1.091651123046875,-0.22498366236686707,-1.3252590894699097,0.02084188163280487
1783169558541600000,1.10160009765625,-0.2672153413295746,-1.123279333114624,-0.003995973616838455
1783169558551548000,1.1115478515625,-0.2828158438205719,-0.9991424679756165,-0.09928467869758606
1783169558561528000,1.121528076171875,-0.24491435289382935,-0.9892923831939697,-0.22536572813987732
1783169558571476000,1.13147607421875,-0.15559060871601105,-0.9730585217475891,-0.32450056076049805
1783169558581425000,1.1414248046875,-0.050791434943675995,-0.9131760597229004,-0.36768603324890137
1783169558591374000,1.1513740234375,0.025786161422729492,-0.8375255465507507,-0.3726315200328827
1783169558601353200,1.161353271484375,0.0792633667588234,-0.769027054309845,-0.35380834341049194
1783169558611302100,1.17130224609375,0.11834897845983505,-0.6862298846244812,-0.32497748732566833
1783169558621251000,1.1812509765625,0.13445952534675598,-0.646608293056488,-0.29785871505737305
1783169558631230200,1.191230224609375,0.1107717752456665,-0.6573642492294312,-0.2664254307746887
1783169558641179100,1.20117919921875,0.057653918862342834,-0.6619637608528137,-0.2169439196586609
1783169558651127000,1.211126953125,-0.025672927498817444,-0.6213912963867188,-0.14749667048454285
1783169558661076000,1.221075927734375,-0.12368343770503998,-0.5607602596282959,-0.07643389701843262
1783169558671055000,1.23105517578125,-0.22928176820278168,-0.4765772223472595,-0.023685459047555923
1783169558681004000,1.241004150390625,-0.3050047755241394,-0.39228004217147827,-0.012913977727293968
1783169558690953000,1.250952880859375,-0.35426127910614014,-0.30892202258110046,-0.03839217126369476
1783169558700902000,1.26090185546875,-0.3782256543636322,-0.15979038178920746,-0.09439890086650848
1783169558710881000,1.270881103515625,-0.38193491101264954,0.06088794022798538,-0.15424944460391998
1783169558720829000,1.280828857421875,-0.36422261595726013,0.2925722897052765,-0.21250373125076294
1783169558730777900,1.29077783203125,-0.31877151131629944,0.4825699031352997,-0.25639182329177856
1783169558740757000,1.300757080078125,-0.26067057251930237,0.6062183976173401,-0.2701050937175751
1783169558750706000,1.310705810546875,-0.20838500559329987,0.6670601963996887,-0.24826927483081818
1783169558760655000,1.320655029296875,-0.1799108386039734,0.6862990260124207,-0.19541633129119873
1783169558770604000,1.33060400390625,-0.16991892457008362,0.6559493541717529,-0.12869882583618164
1783169558780583200,1.340583251953125,-0.17677073180675507,0.6339504718780518,-0.05264648422598839
1783169558790532000,1.350531982421875,-0.19570820033550262,0.6167808175086975,0.0013541649095714092
1783169558800480000,1.36047998046875,-0.2086467742919922,0.5648202896118164,0.03735773637890816
1783169558810429200,1.37042919921875,-0.1950388252735138,0.5220211744308472,0.058953311294317245
1783169558820408000,1.380407958984375,-0.1504824459552765,0.49734944105148315,0.07933623343706131
1783169558830357000,1.39035693359375,-0.07652672380208969,0.4686834216117859,0.09759939461946487
1783169558840306000,1.400305908203125,0.03327278047800064,0.4597715139389038,0.1178371012210846
1783169558850285000,1.41028515625,0.16730967164039612,0.4704015254974365,0.14762163162231445
1783169558860234000,1.42023388671875,0.2841399312019348,0.4612506926059723,0.19008448719978333
1783169558870183000,1.430182861328125,0.3592245578765869,0.39772921800613403,0.25150787830352783
1783169558880131000,1.440131103515625,0.3809117376804352,0.29037630558013916,0.3238045573234558
1783169558890110000,1.45010986328125,0.34633246064186096,0.1657739132642746,0.39111170172691345
1783169558900059000,1.460058837890625,0.28314247727394104,0.05574055388569832,0.4480956196784973
1783169558910008000,1.470008056640625,0.21576929092407227,-0.011579630896449089,0.47450247406959534
1783169558919957200,1.479957275390625,0.1595761626958847,0.00797053799033165,0.45960700511932373
1783169558929936100,1.48993603515625,0.10386975109577179,0.08918629586696625,0.40326571464538574
1783169558939885000,1.499885009765625,0.047579698264598846,0.19234009087085724,0.31829753518104553
1783169558949833200,1.509833251953125,-0.00969398021697998,0.32302355766296387,0.22636361420154572
1783169558959813000,1.519813232421875,-0.0754518061876297,0.4846498668193817,0.15627436339855194
1783169558969761000,1.529760986328125,-0.15384115278720856,0.5823308825492859,0.09943877905607224
1783169558979710200,1.539710205078125,-0.2359665483236313,0.5301363468170166,0.03321358934044838
1783169558989659100,1.5496591796875,-0.34591251611709595,0.2780543267726898,-0.0729043185710907
1783169558999638000,1.559637939453125,-0.467789888381958,-0.09716260433197021,-0.23750410974025726
1783169559009587000,1.5695869140625,-0.5825928449630737,-0.40357154607772827,-0.4369908273220062
1783169559019536100,1.5795361328125,-0.6575702428817749,-0.5197842717170715,-0.6270908713340759
1783169559029484000,1.589484130859375,-0.6647197604179382,-0.4222302734851837,-0.8033894300460815
1783169559039464000,1.5994638671875,-0.6028804779052734,-0.17790362238883972,-0.9460346698760986
1783169559049412000,1.609412109375,-0.457735538482666,0.07309212535619736,-1.0150851011276245
1783169559059361000,1.619361083984375,-0.2659471035003662,0.22634832561016083,-1.0136204957962036
1783169559069340000,1.62933984375,-0.0805082619190216,0.20656263828277588,-0.9550735354423523
1783169559079288800,1.639288818359375,0.07384930551052094,0.054551057517528534,-0.8386077284812927
1783169559089238300,1.64923828125,0.18278910219669342,-0.1434808075428009,-0.6820170283317566
1783169559099186200,1.659186279296875,0.23345834016799927,-0.317146360874176,-0.524501383304596
1783169559109166000,1.669166015625,0.2396981120109558,-0.4286012351512909,-0.3984728753566742
1783169559119114200,1.6791142578125,0.20721471309661865,-0.4578759968280792,-0.2979987859725952
1783169559129063200,1.689063232421875,0.1454155296087265,-0.3422231674194336,-0.16883176565170288
1783169559139012000,1.69901220703125,0.0849585309624672,-0.13137437403202057,0.008284355513751507
1783169559148991200,1.7089912109375,0.05731198936700821,0.03464948758482933,0.20057231187820435
1783169559158940200,1.718940185546875,0.07647988945245743,0.11873892694711685,0.3940737247467041
1783169559168889000,1.72888916015625,0.1299857348203659,0.11988568305969238,0.5652124881744385
1783169559178868000,1.738867919921875,0.18461011350154877,0.01882408931851387,0.7042399644851685
1783169559188817200,1.748817138671875,0.20782355964183807,-0.15295778214931488,0.787285566329956
1783169559198765000,1.75876513671875,0.1833045482635498,-0.3577699661254883,0.8158757090568542
1783169559208714000,1.7687138671875,0.1307728886604309,-0.511107861995697,0.788406252861023
1783169559218693000,1.778693115234375,0.08383879065513611,-0.5649628639221191,0.7150893807411194
1783169559228687000,1.78868701171875,0.04905151575803757,-0.5523828864097595,0.5947187542915344
1783169559238636000,1.798635986328125,0.0053577907383441925,-0.5287529826164246,0.4483337998390198
1783169559248584000,1.808583984375,-0.06508389115333557,-0.47781047224998474,0.2921100854873657
1783169559258564000,1.818564208984375,-0.17083999514579773,-0.37086987495422363,0.15097297728061676
1783169559268512000,1.828511962890625,-0.2938425838947296,-0.2205466777086258,0.03497261181473732
1783169559278461000,1.8384609375,-0.41071760654449463,-0.06144366413354874,-0.05391872674226761
1783169559288440000,1.848440185546875,-0.5023149251937866,0.04556267708539963,-0.11038440465927124
1783169559298389000,1.858388916015625,-0.5563725829124451,0.09017208963632584,-0.1491953283548355
1783169559308338000,1.868337890625,-0.5683885216712952,0.10324448347091675,-0.1504986733198166
1783169559318286800,1.878286865234375,-0.5533230304718018,0.15165436267852783,-0.09882190078496933
1783169559328266000,1.888265869140625,-0.5263500213623047,0.20845186710357666,-0.009248871356248856
1783169559338215000,1.89821484375,-0.4945825934410095,0.2485170215368271,0.08860049396753311
1783169559348162800,1.908162841796875,-0.43983200192451477,0.2670281231403351,0.16540712118148804
1783169559358111700,1.91811181640625,-0.36606350541114807,0.2510904371738434,0.2073465883731842
1783169559368091000,1.9280908203125,-0.2885850667953491,0.20755258202552795,0.21792390942573547
1783169559378039800,1.938039794921875,-0.2186005562543869,0.16948464512825012,0.21050375699996948
1783169559387989000,1.947989013671875,-0.1611441820859909,0.1517229676246643,0.20111851394176483
1783169559397968100,1.957968017578125,-0.12572793662548065,0.14629636704921722,0.1837865263223648
1783169559407917000,1.9679169921875,-0.10318535566329956,0.13089370727539062,0.16244900226593018
1783169559417865000,1.977864990234375,-0.09152063727378845,0.0834999680519104,0.1246839389204979
1783169559427814000,1.98781396484375,-0.0733749195933342,0.03661394491791725,0.07361622154712677
1783169559437793000,1.99779296875,-0.057734668254852295,0.028878219425678253,0.011943083256483078
1783169559447742000,2.007741943359375,-0.053456563502550125,0.03750819340348244,-0.054627954959869385
1783169559457691000,2.01769091796875,-0.0699598640203476,0.04371863231062889,-0.13002249598503113
1783169559467639800,2.027639892578125,-0.09187901020050049,0.035323549062013626,-0.20455531775951385
1783169559477619000,2.037618896484375,-0.10443710535764694,0.053955234587192535,-0.2620728611946106
1783169559487568000,2.04756787109375,-0.08952181041240692,0.07462882250547409,-0.2986111640930176
1783169559497516000,2.05751611328125,-0.060294270515441895,0.07671822607517242,-0.3316314220428467
1783169559507496000,2.067495849609375,-0.011254025623202324,0.06942994892597198,-0.34613311290740967
1783169559517443800,2.07744384765625,0.05081513896584511,0.07068363577127457,-0.3330899178981781
1783169559527392800,2.087392822265625,0.1064901053905487,0.08919127285480499,-0.3076426088809967
1783169559537342000,2.097342041015625,0.1687445193529129,0.10090616345405579,-0.2608772814273834
1783169559547320800,2.10732080078125,0.23853477835655212,0.11275190860033035,-0.19664181768894196
1783169559557270000,2.11727001953125,0.3009769320487976,0.14605653285980225,-0.13322380185127258
1783169559567218000,2.127218017578125,0.34524106979370117,0.14529593288898468,-0.07004457712173462
1783169559577167000,2.1371669921875,0.38654905557632446,0.14217787981033325,-0.01181311346590519
1783169559587146000,2.14714599609375,0.42843177914619446,0.1480352282524109,0.04759908467531204
1783169559597095000,2.157094970703125,0.4656461477279663,0.13941460847854614,0.09267205744981766
1783169559607044000,2.167044189453125,0.48771044611930847,0.12992070615291595,0.12876853346824646
1783169559617023000,2.17702294921875,0.503273069858551,0.19464337825775146,0.16390559077262878
1783169559626972000,2.186971923828125,0.49241751432418823,0.26214173436164856,0.17933382093906403
1783169559636920800,2.1969208984375,0.46004530787467957,0.22632376849651337,0.16305680572986603
1783169559646869000,2.206868896484375,0.41017869114875793,0.04739769175648689,0.1006150022149086
1783169559656849000,2.216848876953125,0.3460260033607483,-0.2256716936826706,-0.019838973879814148
1783169559666796800,2.226796875,0.2730039954185486,-0.45912864804267883,-0.18739469349384308
1783169559676746000,2.23674609375,0.20025095343589783,-0.5081251859664917,-0.3301279544830322
1783169559686695000,2.24669482421875,0.14443589746952057,-0.3410288095474243,-0.40665653347969055
1783169559696673800,2.256673828125,0.0851227343082428,-0.041351769119501114,-0.39983251690864563
1783169559706622700,2.266622802734375,0.01311192661523819,0.28953880071640015,-0.32938152551651
1783169559716572200,2.276572265625,-0.05686240643262863,0.5028793811798096,-0.2284267544746399
1783169559726551000,2.286551025390625,-0.099590964615345,0.5059433579444885,-0.14548340439796448
1783169559736499000,2.2964990234375,-0.0946386307477951,0.3771349787712097,-0.07921906560659409
1783169559746448100,2.3064482421875,-0.039340753108263016,0.25560879707336426,-0.008963547646999359
1783169559756397000,2.31639697265625,0.03953235223889351,0.18957264721393585,0.075998455286026
1783169559766376000,2.3263759765625,0.12804889678955078,0.18495605885982513,0.1604374498128891
1783169559776324900,2.336324951171875,0.2168683111667633,0.17438000440597534,0.23805490136146545
1783169559786274000,2.346274169921875,0.2934408485889435,0.13473725318908691,0.2930760681629181
1783169559796222000,2.356221923828125,0.3497934639453888,0.04517644643783569,0.3074949085712433
1783169559806201900,2.366201904296875,0.39349833130836487,-0.08189602196216583,0.2773979902267456
1783169559816150000,2.37614990234375,0.4281672239303589,-0.18555374443531036,0.212334543466568
1783169559826099000,2.386098876953125,0.44184228777885437,-0.2388254851102829,0.13980841636657715
1783169559836077800,2.396077880859375,0.41675904393196106,-0.24062179028987885,0.07327678799629211
1783169559846027000,2.406027099609375,0.35503149032592773,-0.22949057817459106,0.012342594563961029
1783169559855976000,2.415975830078125,0.2774583399295807,-0.20528268814086914,-0.05223730206489563
1783169559865924900,2.4259248046875,0.21609990298748016,-0.16753904521465302,-0.11782003939151764
1783169559875903700,2.43590380859375,0.16706819832324982,-0.12056270241737366,-0.1887005716562271
1783169559885853000,2.44585302734375,0.1354290395975113,-0.06784383207559586,-0.24565014243125916
1783169559895800800,2.45580078125,0.1132766455411911,-0.007446855306625366,-0.2937270700931549
1783169559905750000,2.46575,0.10431590676307678,0.046294137835502625,-0.3333306610584259
1783169559915729200,2.475729248046875,0.11321261525154114,0.1034206971526146,-0.3522166907787323
1783169559925678000,2.485677978515625,0.14362990856170654,0.17961694300174713,-0.34174275398254395
1783169559935627000,2.495626953125,0.1940244436264038,0.2369493544101715,-0.3078698515892029
1783169559945606000,2.50560595703125,0.2646874487400055,0.2746783494949341,-0.2430431842803955
1783169559955555000,2.51555517578125,0.34025225043296814,0.2717675268650055,-0.16486848890781403
1783169559965503000,2.5255029296875,0.40654098987579346,0.2088271677494049,-0.08152298629283905
1783169559975452000,2.535451904296875,0.4420167803764343,0.11414209753274918,-0.002600063569843769
1783169559985431000,2.54543115234375,0.4555072784423828,0.0434759184718132,0.069306880235672
1783169559995380000,2.5553798828125,0.4462302625179291,0.01320120319724083,0.12975022196769714
1783169560005329000,2.565328857421875,0.43203774094581604,0.027562566101551056,0.1671103835105896
1783169560015277800,2.57527783203125,0.41656583547592163,0.05041062459349632,0.18014894425868988
1783169560025257000,2.585257080078125,0.401367723941803,0.05069824680685997,0.16497425734996796
1783169560035206000,2.595205810546875,0.3938247859477997,0.05141359195113182,0.13793668150901794
1783169560045153800,2.60515380859375,0.3851221203804016,0.07582226395606995,0.11553550511598587
1783169560055134000,2.615134033203125,0.37362968921661377,0.09958186000585556,0.0958247035741806
1783169560065081900,2.625081787109375,0.36045530438423157,0.10584135353565216,0.06374746561050415
1783169560075031000,2.635031005859375,0.355552077293396,0.10104820877313614,0.02702716365456581
1783169560084980000,2.64497998046875,0.34946486353874207,0.07338222116231918,-0.013623859733343124
1783169560094959000,2.654958984375,0.33333009481430054,0.03163991495966911,-0.05185519903898239
1783169560104908000,2.664907958984375,0.30041635036468506,0.02530372142791748,-0.07728492468595505
1783169560114856000,2.67485595703125,0.26526525616645813,0.055296458303928375,-0.07454219460487366
1783169560124804900,2.684804931640625,0.23626691102981567,0.08993832021951675,-0.03911629691720009
1783169560134784000,2.694783935546875,0.2188144028186798,0.1368870586156845,0.018830085173249245
1783169560144733000,2.70473291015625,0.21268673241138458,0.181570366024971,0.09315704554319382
1783169560154681900,2.714681884765625,0.20904044806957245,0.19357874989509583,0.17158633470535278
1783169560164661000,2.724660888671875,0.193401038646698,0.16538865864276886,0.24807071685791016
1783169560174610000,2.73460986328125,0.16711442172527313,0.12321614474058151,0.3192178010940552
1783169560184558800,2.744558837890625,0.13248293101787567,0.0995640754699707,0.37795567512512207
1783169560194507000,2.754507080078125,0.10151813924312592,0.0659625381231308,0.40923723578453064
1783169560204487000,2.76448681640625,0.08105042576789856,0.044115301221609116,0.40801113843917847
1783169560214434800,2.774434814453125,0.07290280610322952,0.03497225046157837,0.38013702630996704
1783169560224383700,2.7843837890625,0.08153916895389557,0.06385529786348343,0.330864280462265
1783169560234336300,2.794336181640625,0.0921240746974945,0.12244239449501038,0.27519547939300537
1783169560244315100,2.804315185546875,0.1037793979048729,0.17985083162784576,0.22791212797164917
1783169560254264000,2.81426416015625,0.1175144612789154,0.21471534669399261,0.19884254038333893
1783169560264212200,2.824212158203125,0.1245097815990448,0.22812676429748535,0.19559241831302643
1783169560274192100,2.834192138671875,0.12656007707118988,0.23701997101306915,0.2165103405714035
1783169560284140000,2.84414013671875,0.12276746332645416,0.24997571110725403,0.2710987627506256
1783169560294089000,2.8540888671875,0.11333762109279633,0.19486667215824127,0.3267116844654083
1783169560304038100,2.8640380859375,0.09814588725566864,0.06264685094356537,0.36251017451286316
1783169560314017000,2.87401708984375,0.08209533244371414,-0.05410189926624298,0.3752889037132263
1783169560323966000,2.883966064453125,0.06420927494764328,-0.13502046465873718,0.3565383851528168
1783169560333915000,2.893914794921875,0.03922213241457939,-0.18731649219989777,0.30012190341949463
1783169560343863000,2.903863037109375,0.009997397661209106,-0.22544708847999573,0.198418989777565
1783169560353843000,2.913843017578125,-0.02772669494152069,-0.24491271376609802,0.05035571753978729
1783169560363791000,2.923791015625,-0.058920569717884064,-0.23623107373714447,-0.12284562736749649
1783169560373740000,2.933739990234375,-0.07773911207914352,-0.185248002409935,-0.29165059328079224
1783169560383719000,2.943718994140625,-0.0864095687866211,-0.12303043901920319,-0.4246129095554352
1783169560393668000,2.953668212890625,-0.08290091156959534,-0.06425899267196655,-0.5017525553703308
1783169560403617000,2.963616943359375,-0.06514907628297806,-0.0020800423808395863,-0.500463604927063
1783169560413565200,2.973565185546875,-0.022236866876482964,0.0601506233215332,-0.4352402985095978
1783169560423545000,2.983545166015625,0.03784431144595146,0.12132555991411209,-0.3124547004699707
1783169560433493200,2.9934931640625,0.0963219702243805,0.18434642255306244,-0.16097845137119293
1783169560443442200,3.003442138671875,0.13639456033706665,0.22277289628982544,-0.009766285307705402
1783169560453391000,3.01339111328125,0.15628959238529205,0.17856980860233307,0.1181216761469841
1783169560463370000,3.023369873046875,0.16811829805374146,0.07937850058078766,0.22190134227275848
1783169560473319200,3.033319091796875,0.19240738451480865,-0.009152961894869804,0.3107725977897644
1783169560483268000,3.04326806640625,0.23020803928375244,-0.07569843530654907,0.3726215958595276
1783169560493247000,3.0532470703125,0.26473942399024963,-0.12776368856430054,0.39779946208000183
1783169560503196000,3.06319580078125,0.28810811042785645,-0.14586012065410614,0.3916763365268707
1783169560513144000,3.07314404296875,0.28768545389175415,-0.1625535637140274,0.35322871804237366
1783169560523093000,3.083093017578125,0.2581315338611603,-0.18780353665351868,0.28757035732269287
1783169560533072000,3.09307177734375,0.21264983713626862,-0.2091597318649292,0.20404385030269623
1783169560543021000,3.10302099609375,0.14343534409999847,-0.21925124526023865,0.12131142616271973
1783169560552970200,3.11297021484375,0.062060676515102386,-0.2249959409236908,0.05154794082045555
1783169560562919200,3.122919189453125,-0.02126430906355381,-0.19052131474018097,0.00021737441420555115
1783169560572898000,3.13289794921875,-0.09073770046234131,-0.13357874751091003,-0.03788508474826813
1783169560582846200,3.14284619140625,-0.14005757868289948,-0.06179297715425491,-0.08905000239610672
1783169560592795100,3.152795166015625,-0.16947223246097565,0.005421117413789034,-0.15649543702602386
1783169560602774000,3.16277392578125,-0.18146498501300812,0.08482512831687927,-0.23400646448135376
1783169560612723200,3.17272314453125,-0.1673973947763443,0.16460631787776947,-0.3030926287174225
1783169560622672100,3.182672119140625,-0.12630188465118408,0.2332192063331604,-0.34332314133644104
1783169560632621000,3.19262109375,-0.06486918032169342,0.28195303678512573,-0.3514240086078644
1783169560642600000,3.202599853515625,0.0037900451570749283,0.28044062852859497,-0.33026278018951416
1783169560652549000,3.212549072265625,0.07621340453624725,0.23486903309822083,-0.2710939943790436
1783169560662497000,3.2224970703125,0.1568422019481659,0.18512490391731262,-0.17802129685878754
1783169560672446000,3.232446044921875,0.2351715862751007,0.13466019928455353,-0.061780788004398346
1783169560682425000,3.242425048828125,0.2971034049987793,0.08314987272024155,0.0525955855846405
1783169560692374000,3.2523740234375,0.3409768044948578,0.02987058460712433,0.1456511914730072
1783169560702323000,3.262322998046875,0.3617313504219055,-0.007565205916762352,0.2031475007534027
1783169560712302000,3.272302001953125,0.36418211460113525,-0.027370117604732513,0.22269289195537567
1783169560722251300,3.282251220703125,0.36129364371299744,-0.025437727570533752,0.19133338332176208
1783169560732200200,3.2922001953125,0.3582063317298889,0.008825385943055153,0.1367851197719574
1783169560742148000,3.302148193359375,0.35940396785736084,0.05845099687576294,0.07638171315193176
1783169560752127200,3.312127197265625,0.36728599667549133,0.09744077920913696,0.015615644864737988
1783169560762076200,3.322076171875,0.37233856320381165,0.14036986231803894,-0.027228226885199547
1783169560772025000,3.332025146484375,0.36802053451538086,0.19223786890506744,-0.047101568430662155
1783169560781974000,3.34197412109375,0.35279709100723267,0.22911040484905243,-0.05073518678545952
1783169560791953200,3.351953125,0.33498671650886536,0.25493091344833374,-0.05011272430419922
1783169560801902000,3.361902099609375,0.32656288146972656,0.27545857429504395,-0.04656246304512024
1783169560811850000,3.37185009765625,0.33555811643600464,0.310788094997406,-0.035477496683597565
1783169560821830100,3.381830078125,0.35843414068222046,0.36563271284103394,-0.017483845353126526
1783169560831778000,3.391778076171875,0.3895265460014343,0.38863152265548706,0.0028653680346906185
1783169560841727000,3.40172705078125,0.4194716513156891,0.38184499740600586,0.024599691852927208
1783169560851676000,3.411676025390625,0.4523014724254608,0.3616732656955719,0.058837730437517166
1783169560861655000,3.421655029296875,0.4771519601345062,0.3190203607082367,0.09424738585948944
1783169560871604000,3.43160400390625,0.48764827847480774,0.2827416658401489,0.1252942681312561
1783169560881553200,3.44155322265625,0.4895559251308441,0.26756536960601807,0.1500566154718399
1783169560891501000,3.4515009765625,0.4834471046924591,0.2636502981185913,0.15903593599796295
1783169560901481200,3.461481201171875,0.48084601759910583,0.2554642856121063,0.1492682546377182
1783169560911429000,3.47142919921875,0.489947110414505,0.24533255398273468,0.13220089673995972
1783169560921378000,3.4813779296875,0.4989025294780731,0.2412502020597458,0.11439606547355652
1783169560931357200,3.491357177734375,0.50248122215271,0.2440999150276184,0.09934395551681519
1783169560941306000,3.50130615234375,0.5029523372650146,0.2676568925380707,0.09280456602573395
1783169560951255000,3.511255126953125,0.5065557360649109,0.28218168020248413,0.10686799883842468
1783169560961203200,3.521203125,0.5115851163864136,0.27599596977233887,0.12955254316329956
1783169560971183000,3.53118310546875,0.5085991621017456,0.2567555010318756,0.15736354887485504
1783169560981131000,3.541131103515625,0.5017976760864258,0.22337542474269867,0.19659483432769775
1783169560991080000,3.551079833984375,0.48448631167411804,0.19077132642269135,0.2363075464963913
1783169561001029000,3.561029052734375,0.4600882828235626,0.18696220219135284,0.27160322666168213
1783169561011008000,3.571008056640625,0.43095648288726807,0.21941982209682465,0.30157148838043213
1783169561020957000,3.58095703125,0.3945436179637909,0.28335487842559814,0.3159453868865967
1783169561030905900,3.59090576171875,0.3505491614341736,0.3582218885421753,0.31865042448043823
1783169561040885000,3.600885009765625,0.31430861353874207,0.4307999610900879,0.3104284405708313
1783169561050834200,3.610834228515625,0.290267676115036,0.4804654121398926,0.2917760908603668
1783169561060782000,3.620781982421875,0.2699355185031891,0.5064123272895813,0.2650781571865082
1783169561070731300,3.630731201171875,0.25087621808052063,0.48260876536369324,0.24250823259353638
1783169561080710100,3.640710205078125,0.2414480745792389,0.4292600452899933,0.2192274034023285
1783169561090659000,3.6506591796875,0.2404084950685501,0.3764979839324951,0.19857743382453918
1783169561100608000,3.66060791015625,0.2438197284936905,0.33947232365608215,0.17123928666114807
1783169561110556200,3.67055615234375,0.24140086770057678,0.28446197509765625,0.13364361226558685
1783169561120536000,3.6805361328125,0.23058202862739563,0.24703152477741241,0.09006230533123016
1783169561130484200,3.690484130859375,0.21728070080280304,0.253244012594223,0.04514988139271736
1783169561140433200,3.70043310546875,0.2066165953874588,0.26234856247901917,-0.006626761518418789
1783169561150412000,3.710412109375,0.2048095166683197,0.25854992866516113,-0.052885591983795166
1783169561160361000,3.72036083984375,0.20935046672821045,0.2888692319393158,-0.08457401394844055
1783169561170310100,3.73031005859375,0.22997115552425385,0.3086966872215271,-0.10387566685676575
1783169561180259000,3.740259033203125,0.25484561920166016,0.28727102279663086,-0.11502259224653244
1783169561190238000,3.750238037109375,0.275333046913147,0.21378615498542786,-0.12069325894117355
1783169561200187000,3.760186767578125,0.2767932415008545,0.1371385157108307,-0.11551900953054428
1783169561210135000,3.770135009765625,0.2651226818561554,0.08862102776765823,-0.10224995762109756
1783169561220084000,3.780083984375,0.24837379157543182,0.08861756324768066,-0.0792306587100029
1783169561230098200,3.79009814453125,0.24172721803188324,0.10762546956539154,-0.054277047514915466
1783169561240047400,3.80004736328125,0.2514600157737732,0.13962842524051666,-0.03358295187354088
1783169561249996500,3.80999658203125,0.2780243754386902,0.1498243808746338,-0.016408707946538925
1783169561259975400,3.819975341796875,0.3027864694595337,0.1327868103981018,0.0015849391929805279
1783169561269924400,3.82992431640625,0.3176124095916748,0.11209286749362946,0.025833001360297203
1783169561279872500,3.83987255859375,0.31890323758125305,0.10229030251502991,0.04541975259780884
1783169561289821400,3.849821533203125,0.29414647817611694,0.1023755818605423,0.06246528401970863
1783169561299800300,3.85980029296875,0.255399614572525,0.08985473215579987,0.0582423098385334
1783169561309749200,3.869749267578125,0.22340847551822662,0.0911349505186081,0.04642198979854584
1783169561319698400,3.879698486328125,0.20131328701972961,0.11968164145946503,0.02171078510582447
1783169561329647400,3.8896474609375,0.1850471794605255,0.14967311918735504,-0.00724443793296814
1783169561339626200,3.899626220703125,0.17896932363510132,0.1746051013469696,-0.03510483354330063
1783169561349575200,3.9095751953125,0.19036321341991425,0.19829532504081726,-0.05181794613599777
1783169561359523300,3.9195234375,0.2065003663301468,0.21336935460567474,-0.05837384611368179
1783169561369503200,3.929503173828125,0.21165822446346283,0.2082480490207672,-0.046996332705020905
1783169561379451400,3.939451416015625,0.20115551352500916,0.18737073242664337,-0.034180134534835815
1783169561389400300,3.949400390625,0.18474480509757996,0.17665806412696838,-0.022580822929739952
1783169561399349500,3.959349609375,0.16798527538776398,0.19162556529045105,-0.021109426394104958
1783169561409328400,3.969328369140625,0.14468245208263397,0.2287909835577011,-0.028531702235341072
1783169561419277300,3.97927734375,0.12859563529491425,0.26453113555908203,-0.04931767284870148
1783169561429225500,3.9892255859375,0.13660666346549988,0.29107430577278137,-0.06406303495168686
1783169561439174400,3.99917431640625,0.17283152043819427,0.2941291928291321,-0.07014463096857071
1783169561449153500,4.009153564453125,0.22278684377670288,0.2998279929161072,-0.05579598993062973
1783169561459102500,4.0191025390625,0.26351749897003174,0.309444397687912,-0.02138422429561615
1783169561469051400,4.029051513671875,0.2909509241580963,0.2928462624549866,0.02518625184893608
1783169561479030300,4.0390302734375,0.3060302734375,0.2570611238479614,0.07687341421842575
1783169561488979500,4.0489794921875,0.30979180335998535,0.20928874611854553,0.12239908427000046
1783169561498928400,4.058928466796875,0.3004523813724518,0.14930902421474457,0.13908085227012634
1783169561508876300,4.068876220703125,0.2913378179073334,0.10456999391317368,0.12055452167987823
1783169561518856200,4.078856201171875,0.2870946228504181,0.09237297624349594,0.07706829905509949
1783169561528804400,4.088804443359375,0.2882770895957947,0.1056387796998024,0.02057318389415741
1783169561538753300,4.098753173828125,0.3005971312522888,0.1231384128332138,-0.03689037263393402
1783169561548732200,4.108732177734375,0.31810396909713745,0.1667046844959259,-0.07974950969219208
1783169561558681300,4.118681396484375,0.32634884119033813,0.21351505815982819,-0.10811084508895874
1783169561568630500,4.128630615234375,0.3037557005882263,0.26288723945617676,-0.10976613312959671
1783169561578579500,4.138579345703125,0.2535732388496399,0.30805790424346924,-0.0941978320479393
1783169561588558300,4.148558349609375,0.1933487057685852,0.33733928203582764,-0.06527096033096313
1783169561598506500,4.158506591796875,0.1517258882522583,0.3547765910625458,-0.029951587319374084
1783169561608455400,4.168455322265625,0.13804513216018677,0.3608582317829132,0.0034950957633554935
1783169561618404400,4.178404296875,0.15835759043693542,0.34829291701316833,0.03154244273900986
1783169561628383500,4.188383544921875,0.20219586789608002,0.3067447543144226,0.05370790511369705
1783169561638332400,4.19833251953125,0.25368568301200867,0.24687553942203522,0.07367309182882309
1783169561648281300,4.20828125,0.3036239743232727,0.1737879514694214,0.0906427800655365
1783169561658260200,4.21826025390625,0.34624573588371277,0.12066667526960373,0.10528616607189178
1783169561668209400,4.22820947265625,0.37330687046051025,0.09813746064901352,0.12044326215982437
1783169561678157300,4.2381572265625,0.3839435279369354,0.07130318880081177,0.13669651746749878
1783169561688106200,4.248106201171875,0.3778122365474701,0.060160018503665924,0.14653222262859344
1783169561698085400,4.25808544921875,0.3472585678100586,0.051392361521720886,0.14957116544246674
1783169561708034300,4.268034423828125,0.2821245491504669,0.06739280372858047,0.15181106328964233
1783169561717983200,4.277983154296875,0.1981809139251709,0.10349328070878983,0.14441333711147308
1783169561727932400,4.287932373046875,0.11894586682319641,0.1476166546344757,0.13437798619270325
1783169561737911600,4.29791162109375,0.05226164683699608,0.1794435679912567,0.11204631626605988
1783169561747860500,4.307860595703125,0.0020345374941825867,0.1756785809993744,0.07503876090049744
1783169561757808400,4.317808349609375,-0.021876387298107147,0.13878580927848816,0.02395719848573208
1783169561767787500,4.32778759765625,-0.024824773892760277,0.08704006671905518,-0.04133285582065582
1783169561777736400,4.337736328125,-0.011832275427877903,0.05986304208636284,-0.1029869019985199
1783169561787685400,4.347685302734375,0.0017030108720064163,0.04016237333416939,-0.16418543457984924
1783169561797634300,4.35763427734375,0.0010260362178087234,0.0014368160627782345,-0.21929794549942017
1783169561807613400,4.367613525390625,-0.013156745582818985,-0.06469569355249405,-0.2777908444404602
1783169561817562400,4.377562255859375,-0.019710518419742584,-0.11889289319515228,-0.3125632107257843
1783169561827510300,4.38751025390625,-0.03179367259144783,-0.1138194128870964,-0.3108223080635071
1783169561837459200,4.397459228515625,-0.057991188019514084,-0.07203308492898941,-0.2686828374862671
1783169561847438300,4.407438232421875,-0.08936754614114761,-0.040474750101566315,-0.20446373522281647
1783169561857387300,4.41738720703125,-0.1134028434753418,-0.016877010464668274,-0.13353975117206573
1783169561867336200,4.427336181640625,-0.122480109333992,0.005018663592636585,-0.06594480574131012
1783169561877315300,4.4373154296875,-0.12412302196025848,0.003356584347784519,-0.015539692714810371
1783169561887264300,4.44726416015625,-0.10794281214475632,-0.012710325419902802,0.01610732451081276
1783169561897213400,4.45721337890625,-0.07608980685472488,-0.03099319338798523,0.031539276242256165
1783169561907161600,4.46716162109375,-0.03735971823334694,-0.047336213290691376,0.04371551424264908
1783169561917141500,4.4771416015625,-0.004320792853832245,-0.07011992484331131,0.051421429961919785
1783169561927089400,4.48708935546875,0.010380648076534271,-0.08988390117883682,0.06420344859361649
1783169561937038300,4.497038330078125,0.007414951920509338,-0.071247898042202,0.08235315978527069
1783169561946987300,4.5069873046875,-0.01667344570159912,-0.02584761194884777,0.10228057205677032
1783169561956966400,4.51696630859375,-0.05150652676820755,0.02312578819692135,0.12918329238891602
1783169561966915300,4.526915283203125,-0.09657680988311768,0.08092541992664337,0.16018491983413696
1783169561976863500,4.536863525390625,-0.14953243732452393,0.11465515196323395,0.1960984468460083
1783169561986843400,4.546843505859375,-0.1963864266872406,0.09820066392421722,0.2094053030014038
1783169561996791300,4.556791259765625,-0.21468155086040497,0.062360648065805435,0.19651585817337036
1783169562006740200,4.566740234375,-0.20284445583820343,0.01577770709991455,0.15302437543869019
1783169562016689400,4.576689453125,-0.1757638305425644,-0.03604874014854431,0.0811920017004013
1783169562026668300,4.586668212890625,-0.13453564047813416,-0.06634952127933502,0.006611073389649391
1783169562036617200,4.5966171875,-0.0727258026599884,-0.05914992839097977,-0.04393945261836052
1783169562046566100,4.606566162109375,-0.006973398849368095,-0.027264004573225975,-0.06316262483596802
1783169562056514300,4.616514404296875,0.039663612842559814,0.032374560832977295,-0.04449892416596413
1783169562066494500,4.626494384765625,0.07068204879760742,0.11415638029575348,0.010844821110367775
1783169562076442400,4.6364423828125,0.07803556323051453,0.20022016763687134,0.10031265020370483
1783169562086391600,4.6463916015625,0.054948676377534866,0.23418515920639038,0.18039296567440033
1783169562096370400,4.656370361328125,0.012032903730869293,0.19035911560058594,0.23201940953731537
1783169562106319400,4.6663193359375,-0.02000865340232849,0.11844392120838165,0.24196498095989227
1783169562116268300,4.676268310546875,-0.030618153512477875,0.05987940728664398,0.21715231239795685
1783169562126216400,4.686216552734375,-0.03040151298046112,-0.01036667637526989,0.16330881416797638
1783169562136196400,4.6961962890625,-0.02311776764690876,-0.06805501133203506,0.09748159348964691
1783169562146144500,4.70614453125,-0.006417643278837204,-0.08097737282514572,0.03494220972061157
1783169562156093400,4.716093505859375,-0.002283351495862007,-0.06469213962554932,-0.016668520867824554
1783169562166042400,4.72604248046875,-0.009254131466150284,-0.0245949849486351,-0.05679979920387268
1783169562176021200,4.736021240234375,-0.014124252833425999,0.036517903208732605,-0.06860106438398361
1783169562185970400,4.745970458984375,-0.007751408964395523,0.10577400773763657,-0.05600399151444435
1783169562195919400,4.75591943359375,-0.005164947360754013,0.16582216322422028,-0.027379274368286133
1783169562205898200,4.765898193359375,-0.013967109844088554,0.19297105073928833,-0.0020315665751695633
1783169562215847200,4.77584716796875,-0.01911473274230957,0.1832028478384018,0.011885314248502254
1783169562225795300,4.78579541015625,-0.010712863877415657,0.14143861830234528,0.017874963581562042
1783169562235767000,4.79576708984375,0.013849472627043724,0.08882521837949753,0.009586673229932785
1783169562245746200,4.80574609375,0.05238358676433563,0.030719369649887085,0.00858251191675663
1783169562255695000,4.815695068359375,0.10069651901721954,-0.0035256848204880953,0.02229699306190014
1783169562265644300,4.825644287109375,0.1492481529712677,-0.0015481316950172186,0.04135570302605629
1783169562275592200,4.83559228515625,0.1958550661802292,0.024431269615888596,0.05683080106973648
1783169562285572400,4.845572265625,0.24212288856506348,0.05578051507472992,0.061554916203022
1783169562295520300,4.855520263671875,0.2763000428676605,0.07300876826047897,0.06103799492120743
1783169562305469200,4.86546923828125,0.28820139169692993,0.06899300962686539,0.05939757451415062
1783169562315448300,4.8754482421875,0.28630760312080383,0.059835731983184814,0.06586425751447678
1783169562325397200,4.885397216796875,0.2753266394138336,0.041969895362854004,0.06939952075481415
1783169562335346200,4.89534619140625,0.2667398154735565,0.010005570016801357,0.06709802150726318
1783169562345295000,4.905295166015625,0.2598607838153839,-0.039179448038339615,0.04756295680999756
1783169562355274200,4.915274169921875,0.2583416998386383,-0.08750516921281815,0.010277634486556053
1783169562365223200,4.92522314453125,0.25853678584098816,-0.13402771949768066,-0.03968384489417076
1783169562375171000,4.935171142578125,0.27219080924987793,-0.16466392576694489,-0.08620181679725647
1783169562385120300,4.945120361328125,0.289089560508728,-0.16345790028572083,-0.10932426154613495
1783169562395099100,4.95509912109375,0.2981743812561035,-0.14274010062217712,-0.11012907326221466
1783169562405048000,4.965048095703125,0.2856161296367645,-0.09870432317256927,-0.09936539083719254
1783169562414997000,4.9749970703125,0.2674514949321747,-0.04499927908182144,-0.08148573338985443
1783169562424976100,4.98497607421875,0.22985368967056274,0.005143004935234785,-0.07449698448181152
1783169562434925000,4.994925048828125,0.18095779418945312,0.02798626758158207,-0.07693351805210114
1783169562444873200,5.004873291015625,0.11679887771606445,0.02793506719172001,-0.08411344140768051
1783169562454822400,5.014822509765625,0.053741879761219025,-0.006628767587244511,-0.11066915839910507
1783169562464801300,5.02480126953125,0.013020409271121025,-0.07746488600969315,-0.14792564511299133
1783169562474750200,5.034750244140625,0.003046071156859398,-0.10901562124490738,-0.17103683948516846
1783169562484699100,5.04469921875,-0.004252614453434944,-0.09959127008914948,-0.1814054250717163
1783169562494648300,5.0546484375,-0.008272124454379082,-0.0717812106013298,-0.18210557103157043
1783169562504627200,5.064627197265625,-0.017693672329187393,-0.03481763228774071,-0.17844069004058838
1783169562514576100,5.074576171875,-0.02470497600734234,-0.027599668130278587,-0.18384771049022675
1783169562524524300,5.084524169921875,-0.02871016226708889,-0.03374141454696655,-0.1842913031578064
1783169562534504200,5.094504150390625,-0.04242756962776184,-0.026186827570199966,-0.17807388305664062
1783169562544452000,5.1044521484375,-0.07928025722503662,-0.051693908870220184,-0.17273159325122833
1783169562554401300,5.1144013671875,-0.11444783210754395,-0.11758077889680862,-0.1722775250673294
1783169562564350200,5.12435009765625,-0.12809695303440094,-0.17445984482765198,-0.16010518372058868
1783169562574329000,5.1343291015625,-0.14195364713668823,-0.2254638969898224,-0.1397184282541275
1783169562584278000,5.144278076171875,-0.1296090930700302,-0.26034489274024963,-0.10470611602067947
1783169562594227200,5.154227294921875,-0.08174969255924225,-0.25266408920288086,-0.030290208756923676
1783169562604175000,5.164175048828125,-0.015408751554787159,-0.2261107861995697,0.05418446287512779
1783169562614154000,5.174154052734375,0.04634729027748108,-0.2110133320093155,0.13263772428035736
1783169562624103400,5.184103515625,0.09425105154514313,-0.19051358103752136,0.19377875328063965
1783169562634052400,5.19405224609375,0.12947481870651245,-0.16038337349891663,0.24678418040275574
1783169562644031200,5.20403125,0.15881098806858063,-0.1241023913025856,0.28380727767944336
1783169562653980200,5.213980224609375,0.18435736000537872,-0.07866086810827255,0.32340767979621887
1783169562663929300,5.223929443359375,0.19819386303424835,-0.05617980659008026,0.34495002031326294
1783169562673877200,5.233877197265625,0.18082046508789062,-0.09306272119283676,0.3311431407928467
1783169562683857200,5.243857177734375,0.1453419178724289,-0.1549801230430603,0.2840580642223358
1783169562693805300,5.253805419921875,0.0991818830370903,-0.17327550053596497,0.21668276190757751
1783169562703754200,5.263754150390625,0.04758455976843834,-0.11431119590997696,0.15128497779369354
1783169562713703200,5.273703125,-0.013734192587435246,0.010094648227095604,0.09881005436182022
1783169562723682000,5.28368212890625,-0.06474635750055313,0.16023971140384674,0.0675283744931221
1783169562733631200,5.29363134765625,-0.10003696382045746,0.3098886013031006,0.07086452096700668
1783169562743580200,5.303580078125,-0.11723913997411728,0.4067458510398865,0.10622821748256683
1783169562753559000,5.31355908203125,-0.13371798396110535,0.39375627040863037,0.16176150739192963
1783169562763508000,5.323508056640625,-0.14106710255146027,0.2784375548362732,0.21391622722148895
1783169562773456100,5.3334560546875,-0.1376023292541504,0.09271270036697388,0.25486207008361816
1783169562783405300,5.3434052734375,-0.11380057036876678,-0.09523265808820724,0.2847617566585541
1783169562793384200,5.35338427734375,-0.08373294770717621,-0.21252360939979553,0.2933177053928375
1783169562803333400,5.36333349609375,-0.06895335018634796,-0.24670062959194183,0.27449142932891846
1783169562813282300,5.3732822265625,-0.08419675379991531,-0.22372792661190033,0.2182379812002182
1783169562823230200,5.383230224609375,-0.11360298842191696,-0.20501352846622467,0.13182349503040314
1783169562833210000,5.393210205078125,-0.14077840745449066,-0.20679651200771332,0.028304817155003548
1783169562843158300,5.403158203125,-0.16515091061592102,-0.23379065096378326,-0.06916539371013641
1783169562853107200,5.413107177734375,-0.1962856501340866,-0.2762105464935303,-0.1458311527967453
1783169562863086300,5.42308642578125,-0.23248478770256042,-0.3387947976589203,-0.1960454136133194
1783169562873035300,5.43303515625,-0.2752293050289154,-0.3814317584037781,-0.22897833585739136
1783169562882984200,5.442984130859375,-0.32512569427490234,-0.38819947838783264,-0.23593252897262573
1783169562892933000,5.45293310546875,-0.37068572640419006,-0.3921249806880951,-0.22335228323936462
1783169562902912300,5.462912353515625,-0.421796053647995,-0.36964377760887146,-0.17750470340251923
1783169562912861200,5.472861083984375,-0.489454984664917,-0.305827796459198,-0.10742920637130737
1783169562922809000,5.48280908203125,-0.5667125582695007,-0.23718032240867615,-0.037361860275268555
1783169562932758000,5.492758056640625,-0.6397790312767029,-0.20171980559825897,0.008037579245865345
1783169562942737200,5.502737060546875,-0.694720447063446,-0.20248101651668549,0.013601981103420258
1783169562952686300,5.512686279296875,-0.724311351776123,-0.22576050460338593,-0.012653591111302376
1783169562962635300,5.52263525390625,-0.72203129529953,-0.278469979763031,-0.05640905350446701
1783169562972614400,5.532614501953125,-0.6964066624641418,-0.33543872833251953,-0.11378925293684006
1783169562982563300,5.542563232421875,-0.6703462600708008,-0.410054475069046,-0.17285381257534027
1783169562992511200,5.55251123046875,-0.6558573246002197,-0.5174430012702942,-0.23702053725719452
1783169563002460200,5.562460205078125,-0.656542956829071,-0.6340475082397461,-0.29091307520866394
1783169563012439300,5.572439208984375,-0.6359719038009644,-0.6987003087997437,-0.2960766851902008
1783169563022388200,5.58238818359375,-0.5891756415367126,-0.6902106404304504,-0.23683106899261475
1783169563032337200,5.592337158203125,-0.558440089225769,-0.7184974551200867,-0.13187670707702637
1783169563042286000,5.6022861328125,-0.5623072385787964,-0.8373932838439941,-0.01485134195536375
1783169563052265200,5.61226513671875,-0.5949152708053589,-0.9540436863899231,0.0800248384475708
1783169563062214100,5.622214111328125,-0.6255860924720764,-1.006908655166626,0.14425751566886902
1783169563072162000,5.632162109375,-0.6410697102546692,-1.0171908140182495,0.1634186953306198
1783169563082142200,5.64214208984375,-0.6356688141822815,-1.0119402408599854,0.11975143849849701
1783169563092090000,5.652090087890625,-0.6140516996383667,-0.9831080436706543,0.009844373911619186
1783169563102039000,5.6620390625,-0.5771005749702454,-0.8756869435310364,-0.11291676014661789
1783169563111988200,5.67198828125,-0.5298422574996948,-0.6715226173400879,-0.21504472196102142
1783169563121967000,5.681967041015625,-0.48777875304222107,-0.42985525727272034,-0.276590496301651
1783169563131916300,5.691916259765625,-0.47403979301452637,-0.2673185169696808,-0.29594820737838745
1783169563141864200,5.7018642578125,-0.48055142164230347,-0.22886662185192108,-0.26553893089294434
1783169563151813400,5.7118134765625,-0.49007222056388855,-0.2536689043045044,-0.19755162298679352
1783169563161792300,5.721792236328125,-0.49824440479278564,-0.2826286852359772,-0.10219673067331314
1783169563171741200,5.7317412109375,-0.5068624019622803,-0.29733574390411377,-0.01398138701915741
1783169563181690000,5.741690185546875,-0.5177929401397705,-0.2831549346446991,0.049417756497859955
1783169563191669200,5.751669189453125,-0.5213988423347473,-0.25572651624679565,0.08207982778549194
1783169563201618200,5.7616181640625,-0.5280578136444092,-0.24215203523635864,0.06867332756519318
1783169563211567000,5.771567138671875,-0.5256189107894897,-0.2309047132730484,0.030333664268255234
1783169563221515300,5.781515380859375,-0.5101209282875061,-0.19726136326789856,-0.015747804194688797
1783169563231533800,5.791533935546875,-0.4787944257259369,-0.15711207687854767,-0.07273092865943909
1783169563241481700,5.801481689453125,-0.44764405488967896,-0.10386742651462555,-0.10648990422487259
1783169563251430700,5.8114306640625,-0.43972036242485046,-0.03664205223321915,-0.11770633608102798
1783169563261379800,5.8213798828125,-0.4523935616016388,-0.003566963830962777,-0.111292764544487
1783169563271359000,5.83135888671875,-0.47424373030662537,-0.01617836207151413,-0.09703606367111206
1783169563281308000,5.841307861328125,-0.49340710043907166,-0.034311290830373764,-0.08021292090415955
1783169563291256000,5.851256103515625,-0.5051284432411194,-0.03809671103954315,-0.06488189846277237
1783169563301236000,5.861236083984375,-0.5008125305175781,-0.031015437096357346,-0.06353360414505005
1783169563311184000,5.871183837890625,-0.4749450087547302,-0.013098487630486488,-0.055222149938344955
1783169563321132800,5.8811328125,-0.4418361783027649,0.005788877140730619,-0.04903784394264221
1783169563331082000,5.89108203125,-0.42156925797462463,0.031088639050722122,-0.039365775883197784
1783169563341060900,5.901060791015625,-0.411968469619751,0.06780891120433807,-0.030723772943019867
1783169563351009800,5.911009765625,-0.4051859378814697,0.10542552918195724,-0.021155834197998047
1783169563360958700,5.920958740234375,-0.38902559876441956,0.17283135652542114,0.00020224135369062424
1783169563370907000,5.930906982421875,-0.3766400218009949,0.27362480759620667,0.050311215221881866
1783169563380886800,5.94088671875,-0.37484052777290344,0.37923663854599,0.11762160062789917
1783169563390834700,5.950834716796875,-0.3853203356266022,0.4844522476196289,0.19723761081695557
1783169563400784000,5.960783935546875,-0.3902374505996704,0.573849618434906,0.27308669686317444
1783169563410762800,5.9707626953125,-0.37363556027412415,0.5449281930923462,0.3227386772632599
1783169563420711700,5.980711669921875,-0.34138157963752747,0.3915040194988251,0.3367733955383301
1783169563430660900,5.990660888671875,-0.2907879054546356,0.21180804073810577,0.3195757567882538
1783169563440610000,6.000610107421875,-0.2337961196899414,0.010740833356976509,0.2681291997432709
1783169563450589000,6.0105888671875,-0.20795148611068726,-0.22707359492778778,0.1649247705936432
1783169563460536800,6.020536865234375,-0.22413833439350128,-0.4209996163845062,0.023936118930578232
1783169563470486000,6.030486083984375,-0.2577844560146332,-0.4659007489681244,-0.09711307287216187
1783169563480435000,6.04043505859375,-0.31011664867401123,-0.33712494373321533,-0.16617071628570557
1783169563490413800,6.050413818359375,-0.3754708766937256,-0.11668712645769119,-0.20042401552200317
1783169563500362800,6.06036279296875,-0.4343484342098236,0.1213245689868927,-0.21253767609596252
1783169563510312000,6.07031201171875,-0.4538595378398895,0.35691338777542114,-0.1789323091506958
1783169563520290800,6.080290771484375,-0.4365130066871643,0.5083684921264648,-0.0920107513666153
1783169563530239700,6.09023974609375,-0.3908112943172455,0.5345723628997803,0.036959752440452576
1783169563540188000,6.10018798828125,-0.330314964056015,0.4528631865978241,0.1928614377975464
1783169563550136800,6.11013671875,-0.26245924830436707,0.297942578792572,0.36063525080680847
1783169563560115700,6.12011572265625,-0.19128738343715668,0.11365222930908203,0.5279445648193359
1783169563570065000,6.13006494140625,-0.1259981244802475,-0.1031932607293129,0.6570361852645874
1783169563580013800,6.140013916015625,-0.0566873624920845,-0.3715860843658447,0.724183976650238
1783169563589963000,6.149962890625,0.014986822381615639,-0.5985923409461975,0.7437129616737366
1783169563599942000,6.15994189453125,0.07121974974870682,-0.7578532099723816,0.7293359637260437
1783169563609890800,6.169890869140625,0.09017693251371384,-0.8351072669029236,0.6810389757156372
1783169563619839000,6.1798388671875,0.06602156907320023,-0.8320987820625305,0.6099655628204346
1783169563629817900,6.18981787109375,0.025885870680212975,-0.7630597949028015,0.5138818621635437
1783169563639767000,6.19976708984375,-0.029321379959583282,-0.6704533100128174,0.39116424322128296
1783169563649716000,6.209716064453125,-0.08327276259660721,-0.5613784790039062,0.2347991019487381
1783169563659665000,6.219664794921875,-0.12385603785514832,-0.43078064918518066,0.07373520731925964
1783169563669643800,6.229643798828125,-0.15651226043701172,-0.28918197751045227,-0.07321615517139435
1783169563679593000,6.239593017578125,-0.1843692660331726,-0.1520773023366928,-0.1825803965330124
1783169563689540900,6.249540771484375,-0.19954130053520203,-0.0258176326751709,-0.24376893043518066
1783169563699489800,6.25948974609375,-0.18940599262714386,0.08351830393075943,-0.253570020198822
1783169563709469000,6.269468994140625,-0.15232893824577332,0.15003792941570282,-0.21518029272556305
1783169563719417900,6.27941796875,-0.09758200496435165,0.15173740684986115,-0.1477871835231781
1783169563729366800,6.28936669921875,-0.03111722692847252,0.09949257969856262,-0.0676899403333664
1783169563739345700,6.299345703125,0.028584707528352737,0.022237587720155716,0.012701787054538727
1783169563749294800,6.309294921875,0.08415821939706802,-0.06398757547140121,0.07949279993772507
1783169563759244000,6.319244140625,0.13090994954109192,-0.17159008979797363,0.12514060735702515
1783169563769191700,6.329191650390625,0.1717146337032318,-0.28118664026260376,0.1486475169658661
1783169563779171800,6.339171875,0.20129063725471497,-0.33960771560668945,0.14792639017105103
1783169563789120000,6.3491201171875,0.2094833254814148,-0.3258817791938782,0.12661711871623993
1783169563799069000,6.35906884765625,0.19912555813789368,-0.24133865535259247,0.09503021836280823
1783169563809017900,6.369017822265625,0.17470195889472961,-0.08592750132083893,0.06043308973312378
1783169563818997000,6.3789970703125,0.14093826711177826,0.08507095277309418,0.024599192664027214
1783169563828946000,6.38894580078125,0.10387691110372543,0.23201884329319,-0.0049696192145347595
1783169563838893800,6.398893798828125,0.06920293718576431,0.3290289044380188,-0.025488587096333504
1783169563848873700,6.408873779296875,0.03976409137248993,0.3518306314945221,-0.037779875099658966
1783169563858822000,6.41882177734375,0.019085446372628212,0.3140883147716522,-0.03856497257947922
1783169563868770800,6.428770751953125,0.019962957128882408,0.2525913715362549,-0.026355979964137077
1783169563878719700,6.4387197265625,0.019399499520659447,0.18797923624515533,-0.006747293286025524
1783169563888699000,6.448698974609375,0.013179419562220573,0.13129225373268127,0.00500976387411356
1783169563898647800,6.458647705078125,-0.006416406482458115,0.08953741192817688,-0.008535005152225494
1783169563908596700,6.4685966796875,-0.03469118848443031,0.0851844772696495,-0.03156149387359619
1783169563918545000,6.478544921875,-0.06953588873147964,0.12835225462913513,-0.06010526046156883
1783169563928525000,6.488525146484375,-0.10458149015903473,0.19061562418937683,-0.08568546175956726
1783169563938472700,6.49847265625,-0.14686694741249084,0.27136218547821045,-0.112415611743927
1783169563948422000,6.508421875,-0.18454590439796448,0.35754045844078064,-0.1329514980316162
1783169563958401000,6.518401123046875,-0.21176652610301971,0.4335077404975891,-0.15900126099586487
1783169563968350000,6.528349853515625,-0.21825292706489563,0.46728968620300293,-0.176700621843338
1783169563978299000,6.538298828125,-0.2087651640176773,0.4935632348060608,-0.18463556468486786
1783169563988247000,6.5482470703125,-0.18983620405197144,0.47727054357528687,-0.18308161199092865
1783169563998227000,6.55822705078125,-0.1594826579093933,0.404501348733902,-0.16195043921470642
1783169564008174800,6.5681748046875,-0.13351817429065704,0.2968449294567108,-0.11488839238882065
1783169564018123800,6.578123779296875,-0.13642339408397675,0.1257355660200119,-0.03841574117541313
1783169564028073000,6.588072998046875,-0.18389955163002014,-0.10307525098323822,0.060432009398937225
1783169564038051800,6.5980517578125,-0.28634288907051086,-0.2609139680862427,0.19277673959732056
1783169564048000800,6.608000732421875,-0.43805065751075745,-0.2683199346065521,0.3414871394634247
1783169564057949700,6.61794970703125,-0.6075870990753174,-0.19043827056884766,0.4668532609939575
1783169564067928800,6.6279287109375,-0.7421478629112244,-0.14110508561134338,0.518898606300354
1783169564077877800,6.637877685546875,-0.7807509303092957,-0.15326431393623352,0.47345301508903503
1783169564087825700,6.64782568359375,-0.7175732851028442,-0.2706764340400696,0.3440665304660797
1783169564097774800,6.65777490234375,-0.5845980644226074,-0.4801357090473175,0.17448407411575317
1783169564107753700,6.667753662109375,-0.4405631721019745,-0.7367491722106934,0.0034705246798694134
1783169564117703000,6.677702880859375,-0.32063737511634827,-0.9003627300262451,-0.14797581732273102
1783169564127651800,6.68765185546875,-0.24759964644908905,-0.9027273654937744,-0.2955314517021179
1783169564137600000,6.69760009765625,-0.21126364171504974,-0.7420695424079895,-0.463773638010025
1783169564147580000,6.707579833984375,-0.20407924056053162,-0.45024752616882324,-0.6438643336296082
1783169564157527800,6.71752783203125,-0.2130536437034607,-0.13494466245174408,-0.8194910883903503
1783169564167477000,6.72747705078125,-0.22716467082500458,0.18275074660778046,-0.9498760104179382
1783169564177455900,6.737455810546875,-0.24874895811080933,0.5203132629394531,-0.9967188835144043
1783169564187404800,6.74740478515625,-0.2737720310688019,0.7786457538604736,-0.9644035696983337
1783169564197353700,6.757353759765625,-0.2690223157405853,0.9016152620315552,-0.853305459022522
1783169564207303000,6.767302978515625,-0.2070649415254593,0.8977457284927368,-0.6751782894134521
1783169564217281800,6.77728173828125,-0.104698047041893,0.7885533571243286,-0.4587321877479553
1783169564227230700,6.787230712890625,0.021247899159789085,0.6100770831108093,-0.23772338032722473
1783169564237180000,6.797179931640625,0.15375620126724243,0.396804541349411,-0.036163490265607834
1783169564247129000,6.807129150390625,0.28577789664268494,0.16957111656665802,0.13709750771522522
1783169564257108000,6.81710791015625,0.3958498239517212,0.00744203245267272,0.283394455909729
1783169564267057000,6.827056884765625,0.4669482111930847,-0.08673133701086044,0.412990003824234
1783169564277005800,6.837005859375,0.48949748277664185,-0.15571334958076477,0.5168179869651794
1783169564286985000,6.84698486328125,0.4714420437812805,-0.18736955523490906,0.5900091528892517
1783169564296934000,6.856933837890625,0.42081016302108765,-0.19538679718971252,0.6206114888191223
1783169564306881800,6.8668818359375,0.34351032972335815,-0.1830720752477646,0.6130395531654358
1783169564316831000,6.8768310546875,0.24852952361106873,-0.12883131206035614,0.5598708987236023
1783169564326809900,6.886809814453125,0.15692958235740662,-0.031964678317308426,0.4784255921840668
1783169564336758800,6.8967587890625,0.08117257058620453,0.0794159471988678,0.38409754633903503
1783169564346708000,6.9067080078125,0.03771191090345383,0.20515523850917816,0.29974353313446045
1783169564356657200,6.9166572265625,0.020370973274111748,0.2950441837310791,0.22708407044410706
1783169564366636000,6.926635986328125,0.013962341472506523,0.3093794584274292,0.1577204316854477
1783169564376585000,6.9365849609375,0.02734946832060814,0.270536869764328,0.093661829829216
1783169564386533000,6.946533203125,0.041347041726112366,0.24888403713703156,0.033433638513088226
1783169564396513000,6.956512939453125,0.0719756931066513,0.20319437980651855,-0.009616835042834282
1783169564406461000,6.9664609375,0.11746727675199509,0.1262149214744568,-0.03636722266674042
1783169564416409900,6.976409912109375,0.15425175428390503,0.06322694569826126,-0.031260717660188675
1783169564426359000,6.986359130859375,0.17096388339996338,-0.0012124981731176376,-0.00433775782585144
1783169564436338000,6.996337890625,0.16033637523651123,-0.08792537450790405,0.03835798799991608
1783169564446286800,7.006286865234375,0.12241188436746597,-0.17883184552192688,0.08319257199764252
1783169564456235800,7.01623583984375,0.0675923153758049,-0.22916026413440704,0.1349513679742813
1783169564466184000,7.026183837890625,0.007671039551496506,-0.2612987756729126,0.19341957569122314
1783169564476162800,7.036162841796875,-0.03731502220034599,-0.2826918661594391,0.23678936064243317
1783169564486112000,7.046112060546875,-0.04309621453285217,-0.26440340280532837,0.25243544578552246
1783169564496061000,7.05606103515625,0.01462160237133503,-0.24066440761089325,0.23414447903633118
1783169564506039800,7.066039794921875,0.10739708691835403,-0.22109629213809967,0.19835291802883148
1783169564515988700,7.07598876953125,0.19740188121795654,-0.2040734589099884,0.147160142660141
1783169564525938000,7.08593798828125,0.2613403797149658,-0.13288557529449463,0.07417968660593033
1783169564535886000,7.095885986328125,0.3003699779510498,-0.03228272125124931,-0.00326578039675951
1783169564545866000,7.105865966796875,0.33160459995269775,0.10176403075456619,-0.06557150185108185
1783169564555814100,7.115814208984375,0.35492128133773804,0.2580975294113159,-0.12696155905723572
1783169564565763000,7.12576318359375,0.3639912009239197,0.4388289451599121,-0.19377335906028748
1783169564575712000,7.1357119140625,0.3713943362236023,0.6560956835746765,-0.25765225291252136
1783169564585691000,7.14569091796875,0.39021995663642883,0.8610885143280029,-0.3058261573314667
1783169564595640000,7.15564013671875,0.4116549789905548,0.9726225137710571,-0.3246266543865204
1783169564605589000,7.165589111328125,0.4328406751155853,0.9845860004425049,-0.3168688714504242
1783169564615568000,7.17556787109375,0.4649556279182434,0.9332572817802429,-0.26512131094932556
1783169564625516800,7.185516845703125,0.5054500699043274,0.8790569305419922,-0.16214165091514587
1783169564635465000,7.19546484375,0.5373309850692749,0.8316972255706787,-0.0366378091275692
1783169564645414000,7.205413818359375,0.5478611588478088,0.7413510680198669,0.09073346108198166
1783169564655392800,7.215392822265625,0.5348304510116577,0.6361467838287354,0.1866328865289688
1783169564665342000,7.225342041015625,0.5039268732070923,0.5997634530067444,0.24158667027950287
1783169564675291100,7.235291015625,0.46735140681266785,0.6319751143455505,0.231728196144104
1783169564685238800,7.24523876953125,0.43808940052986145,0.6529824137687683,0.16339361667633057
1783169564695219000,7.255218994140625,0.42553576827049255,0.657024085521698,0.06994856894016266
1783169564705167000,7.2651669921875,0.3970487415790558,0.6155219674110413,-0.0288696251809597
1783169564715116000,7.275115966796875,0.3321186900138855,0.4508778750896454,-0.13365538418293
1783169564725095000,7.285094970703125,0.21858415007591248,0.18043546378612518,-0.24328547716140747
1783169564735044000,7.295044189453125,0.09106495976448059,-0.07341710478067398,-0.3631480634212494
1783169564744993000,7.304992919921875,0.0021116528660058975,-0.23686809837818146,-0.4662238359451294
1783169564754942000,7.31494189453125,-0.03028675727546215,-0.26059964299201965,-0.5316603183746338
1783169564764920800,7.3249208984375,-0.020343845710158348,-0.1934187412261963,-0.5587470531463623
1783169564774870000,7.3348701171875,0.009596211835741997,-0.13673283159732819,-0.572439968585968
1783169564784818000,7.34481787109375,0.0453542023897171,-0.1009543165564537,-0.5552442073822021
1783169564794766800,7.354766845703125,0.06379552185535431,-0.07796525210142136,-0.5251002311706543
1783169564804746000,7.36474609375,0.07670066505670547,-0.10469513386487961,-0.4934307038784027
1783169564814695000,7.37469482421875,0.0995585098862648,-0.15365245938301086,-0.4516306221485138
1783169564824643800,7.384643798828125,0.12140627950429916,-0.18111151456832886,-0.3886314034461975
1783169564834623000,7.394623046875,0.1475590616464615,-0.1528104990720749,-0.3138851225376129
1783169564844572000,7.404572021484375,0.23573340475559235,-0.00794945377856493,-0.25240445137023926
1783169564854519800,7.414519775390625,0.299640029668808,0.2530856728553772,-0.16288037598133087
1783169564864469000,7.424468994140625,0.3482389748096466,0.3457823097705841,-0.0797753632068634
1783169564874448100,7.4344482421875,0.3224699795246124,0.241746187210083,-0.018483249470591545
1783169564884397000,7.44439697265625,0.25758418440818787,0.08933746814727783,0.0009746048599481583
1783169564894346000,7.454345947265625,0.2218988835811615,-0.07970856130123138,-0.011164982803165913
1783169564904295000,7.464294921875,0.20923581719398499,-0.23378361761569977,-0.04173993691802025
1783169564914274000,7.474274169921875,0.1990818977355957,-0.3470103144645691,-0.08784793317317963
1783169564924223000,7.484222900390625,0.1858891248703003,-0.39949458837509155,-0.14090022444725037
1783169564934171000,7.4941708984375,0.18101297318935394,-0.4408915042877197,-0.20554475486278534
1783169564944151000,7.504151123046875,0.20190148055553436,-0.47791263461112976,-0.2687002718448639
1783169564954099000,7.514098876953125,0.25996220111846924,-0.3932252824306488,-0.33829280734062195
1783169564964048000,7.5240478515625,0.3396010994911194,-0.11475450545549393,-0.3471646010875702
1783169564973996800,7.533996826171875,0.4155322313308716,0.14318668842315674,-0.3376733958721161
1783169564983976000,7.543975830078125,0.4875409007072449,0.26235008239746094,-0.3111592233181
1783169564993924900,7.5539248046875,0.5424478650093079,0.2630882263183594,-0.2692607045173645
1783169565003872800,7.563872802734375,0.5708667635917664,0.184242382645607,-0.20325292646884918
1783169565013822000,7.573822021484375,0.5728691220283508,0.07986268401145935,-0.12143780291080475
1783169565023800800,7.58380078125,0.5677084922790527,-0.016248669475317,-0.028036752715706825
1783169565033750000,7.59375,0.5786933302879333,-0.08595044910907745,0.0702243521809578
1783169565043699000,7.603698974609375,0.6187419295310974,-0.1505073457956314,0.1661199927330017
1783169565053678000,7.613677978515625,0.671345591545105,-0.20521660149097443,0.24898144602775574
1783169565063627000,7.623626953125,0.7234428524971008,-0.2477419525384903,0.319007933139801
1783169565073576000,7.633575927734375,0.7581542134284973,-0.28661254048347473,0.3754042983055115
1783169565083524000,7.643524169921875,0.7592892646789551,-0.3325699269771576,0.411192923784256
1783169565093504000,7.65350390625,0.7291783094406128,-0.37885093688964844,0.43043020367622375
1783169565103452000,7.663451904296875,0.6742926836013794,-0.4272421896457672,0.4398537874221802
1783169565113400800,7.67340087890625,0.6120156645774841,-0.4810056686401367,0.44019484519958496
1783169565123350000,7.68335009765625,0.5559494495391846,-0.5139333009719849,0.43857964873313904
1783169565133329000,7.693328857421875,0.5135785341262817,-0.5051752924919128,0.42274248600006104
1783169565143277800,7.70327783203125,0.48322805762290955,-0.4712628424167633,0.3898734748363495
1783169565153226000,7.71322607421875,0.4580044150352478,-0.40235915780067444,0.3324955701828003
1783169565163206000,7.723205810546875,0.4341486096382141,-0.28786879777908325,0.26811152696609497
1783169565173153800,7.73315380859375,0.4134961664676666,-0.17283615469932556,0.20034202933311462
1783169565183102700,7.743102783203125,0.40115880966186523,-0.09778241068124771,0.15566378831863403
1783169565193052200,7.75305224609375,0.39331403374671936,-0.007102654315531254,0.14643853902816772
1783169565203030800,7.76303076171875,0.3629361689090729,0.07795152068138123,0.16411900520324707
1783169565212980000,7.77297998046875,0.3225575089454651,0.09589704871177673,0.2020202875137329
1783169565222929000,7.782928955078125,0.2777889668941498,0.060531605035066605,0.2509913146495819
1783169565232927500,7.792927490234375,0.23319849371910095,0.011919291689991951,0.2955145835876465
1783169565242907600,7.80290771484375,0.1739996373653412,-0.02448851801455021,0.31222912669181824
1783169565252855600,7.81285546875,0.10831774026155472,-0.03570779412984848,0.3055001497268677
1783169565262804500,7.822804443359375,0.047376617789268494,-0.049449704587459564,0.2708175480365753
1783169565272783600,7.83278369140625,0.017533762380480766,-0.07111252844333649,0.22108882665634155
1783169565282732800,7.84273291015625,0.018788112327456474,-0.05121312290430069,0.1742534041404724
1783169565292681700,7.852681640625,0.023671641945838928,0.007630399893969297,0.1394737809896469
1783169565302629600,7.862629638671875,0.013959359377622604,0.01698288880288601,0.10592568665742874
1783169565312609800,7.87260986328125,-0.010643361136317253,0.0024005291052162647,0.07050509750843048
1783169565322557700,7.8825576171875,-0.05940983444452286,0.05597720295190811,0.03151855245232582
1783169565332506600,7.892506591796875,-0.14142680168151855,0.1644486039876938,-0.013709794729948044
1783169565342455600,7.90245556640625,-0.2337556630373001,0.22162054479122162,-0.07528127729892731
1783169565352434700,7.9124345703125,-0.3289792537689209,0.23258380591869354,-0.1457042098045349
1783169565362383600,7.922383544921875,-0.42232438921928406,0.23247700929641724,-0.24066294729709625
1783169565372332500,7.93233251953125,-0.5056183934211731,0.211083322763443,-0.36919689178466797
1783169565382311700,7.942311767578125,-0.568166196346283,0.1777844876050949,-0.5127924084663391
1783169565392260600,7.952260498046875,-0.6168772578239441,0.1781795769929886,-0.6409279704093933
1783169565402208500,7.96220849609375,-0.6799502372741699,0.193558007478714,-0.7323364615440369
1783169565412157400,7.972157470703125,-0.7550488114356995,0.20142799615859985,-0.7718488574028015
1783169565422136600,7.982136474609375,-0.8393043279647827,0.2240707278251648,-0.7768007516860962
1783169565432085500,7.99208544921875,-0.9203057289123535,0.25284528732299805,-0.7709189057350159
1783169565442034700,8.00203466796875,-1.0015060901641846,0.29527345299720764,-0.7832602858543396
1783169565451983600,8.011983642578125,-1.0593489408493042,0.35710281133651733,-0.8062502145767212
1783169565461962800,8.021962646484376,-1.0630582571029663,0.43672841787338257,-0.8196754455566406
1783169565471911700,8.03191162109375,-1.0030624866485596,0.514872670173645,-0.8019265532493591
1783169565481859600,8.041859619140626,-0.8823314905166626,0.5482498407363892,-0.753667414188385
1783169565491838700,8.051838623046875,-0.7221671342849731,0.515995979309082,-0.6593411564826965
1783169565501787600,8.06178759765625,-0.5476269721984863,0.4472225308418274,-0.5183691382408142
1783169565511736600,8.071736572265625,-0.37413275241851807,0.3601763844490051,-0.33124199509620667
1783169565521685500,8.081685546875,-0.22583995759487152,0.23155663907527924,-0.13249748945236206
1783169565531664600,8.09166455078125,-0.12054651975631714,0.035234734416007996,0.05523671954870224
1783169565541613600,8.101613525390626,-0.07129640877246857,-0.1534976363182068,0.23091080784797668
1783169565551561500,8.1115615234375,-0.08010784536600113,-0.29347822070121765,0.39135321974754333
1783169565561510700,8.1215107421875,-0.14046013355255127,-0.423495888710022,0.5076966285705566
1783169565571489500,8.131489501953125,-0.228580042719841,-0.5331498980522156,0.5692952275276184
1783169565581438500,8.1414384765625,-0.32294195890426636,-0.586235523223877,0.5693575739860535
1783169565591387400,8.151387451171875,-0.4035531282424927,-0.5893633365631104,0.49729329347610474
1783169565601366500,8.161366455078126,-0.45974820852279663,-0.5359432697296143,0.3731950521469116
1783169565611315700,8.171315673828126,-0.48663628101348877,-0.44430506229400635,0.2264658361673355
1783169565621264600,8.1812646484375,-0.49495813250541687,-0.3250335156917572,0.05529755353927612
1783169565631212800,8.191212890625,-0.5120707154273987,-0.18451784551143646,-0.11416205018758774
1783169565641192700,8.201192626953125,-0.5654202103614807,-0.025282111018896103,-0.26324552297592163
1783169565651140600,8.211140625,-0.6403806209564209,0.09838627278804779,-0.36716803908348083
1783169565661089500,8.221089599609375,-0.7211678624153137,0.18756914138793945,-0.42716825008392334
1783169565671038700,8.231038818359375,-0.7846919298171997,0.24704928696155548,-0.43740594387054443
1783169565681017600,8.241017578125,-0.8186419010162354,0.2592007517814636,-0.41769057512283325
1783169565690966500,8.250966552734376,-0.8093125820159912,0.24492259323596954,-0.3822135627269745
1783169565700914700,8.260914794921876,-0.7700445652008057,0.19189134240150452,-0.33772438764572144
1783169565710894600,8.27089453125,-0.7034412622451782,0.13023358583450317,-0.29644182324409485
1783169565720842500,8.280842529296875,-0.6223315000534058,0.10304591059684753,-0.2478514164686203
1783169565730791700,8.290791748046875,-0.5374372005462646,0.11596616357564926,-0.1872308850288391
1783169565740740600,8.30074072265625,-0.46774572134017944,0.1491723209619522,-0.1064968854188919
1783169565750719500,8.310719482421876,-0.41147297620773315,0.13297615945339203,-0.002954043447971344
1783169565760668400,8.32066845703125,-0.366161972284317,0.06276032328605652,0.1028866395354271
1783169565770617600,8.33061767578125,-0.33348581194877625,-0.05604652315378189,0.205715611577034
1783169565780565500,8.3405654296875,-0.3157323896884918,-0.21673500537872314,0.2765599489212036
1783169565790545700,8.350545654296875,-0.31486213207244873,-0.36357855796813965,0.3169306516647339
1783169565800493800,8.360493896484375,-0.3190276026725769,-0.4797688126564026,0.32188814878463745
1783169565810442800,8.37044287109375,-0.3348439931869507,-0.5557644367218018,0.3046968877315521
1783169565820421600,8.380421630859376,-0.3553559482097626,-0.5713503360748291,0.26599210500717163
1783169565830370600,8.39037060546875,-0.3742389678955078,-0.5125748515129089,0.20902015268802643
1783169565840319700,8.40031982421875,-0.37930378317832947,-0.43227866291999817,0.14260971546173096
1783169565850267600,8.410267578125,-0.3564232289791107,-0.3488622009754181,0.07500052452087402
1783169565860247600,8.42024755859375,-0.3176955580711365,-0.26843953132629395,0.014872206375002861
1783169565870195700,8.43019580078125,-0.28269848227500916,-0.19999940693378448,-0.05227977782487869
1783169565880144600,8.44014453125,-0.24356280267238617,-0.1660558134317398,-0.11355724930763245
1783169565890093600,8.450093505859375,-0.1997072845697403,-0.15278320014476776,-0.16245315968990326
1783169565900072400,8.460072509765626,-0.14707444608211517,-0.12591350078582764,-0.20044447481632233
1783169565910021600,8.470021728515626,-0.09477705508470535,-0.07143037766218185,-0.2110438048839569
1783169565919970600,8.479970458984376,-0.04784656688570976,-0.017636923119425774,-0.20059970021247864
1783169565929949400,8.489949462890625,0.0049764253199100494,0.019520966336131096,-0.17590728402137756
1783169565939898400,8.4998984375,0.056027621030807495,0.032151274383068085,-0.15031775832176208
1783169565949846500,8.509846435546875,0.10216038674116135,0.016738425940275192,-0.13276860117912292
1783169565959795700,8.519795654296875,0.1433943808078766,0.014619083143770695,-0.09758743643760681
1783169565969774800,8.52977490234375,0.17196017503738403,0.04751736298203468,-0.05018100142478943
1783169565979723800,8.539723876953126,0.18651381134986877,0.09517835825681686,0.007836760953068733
1783169565989672700,8.549672607421876,0.2021424025297165,0.16797511279582977,0.07457724213600159
1783169565999620600,8.55962060546875,0.22305035591125488,0.28302472829818726,0.14994043111801147
1783169566009600500,8.5696005859375,0.2413550466299057,0.35096943378448486,0.20864395797252655
1783169566019548700,8.579548583984375,0.25050726532936096,0.29368242621421814,0.21979780495166779
1783169566029497600,8.58949755859375,0.25237998366355896,0.12737226486206055,0.19220948219299316
1783169566039476700,8.599476806640626,0.2480027973651886,-0.13334959745407104,0.12773250043392181
1783169566049425700,8.60942578125,0.2123478204011917,-0.429263174533844,0.019229985773563385
1783169566059374600,8.61937451171875,0.15916262567043304,-0.6452034711837769,-0.12457005679607391
1783169566069323500,8.629323486328126,0.1251184642314911,-0.668158233165741,-0.2491443157196045
1783169566079302700,8.639302734375,0.12111173570156097,-0.4876002073287964,-0.3216869533061981
1783169566089251600,8.64925146484375,0.14746496081352234,-0.18642297387123108,-0.3157784342765808
1783169566099199500,8.659199462890625,0.17489710450172424,0.11415444314479828,-0.2551041543483734
1783169566109148400,8.6691484375,0.18139788508415222,0.3337555229663849,-0.16879962384700775
1783169566119127600,8.67912744140625,0.2006267011165619,0.4202054440975189,-0.06664395332336426
1783169566129076700,8.68907666015625,0.2506718635559082,0.38228899240493774,0.05819924920797348
1783169566139025700,8.699025634765626,0.30082449316978455,0.2562303841114044,0.18985262513160706
1783169566149004800,8.7090048828125,0.30494558811187744,0.07607746124267578,0.30433931946754456
1783169566158953700,8.71895361328125,0.2733205258846283,-0.07562258094549179,0.4114604592323303
1783169566168901600,8.728901611328125,0.23749655485153198,-0.14892582595348358,0.49153420329093933
1783169566178850600,8.7388505859375,0.25697916746139526,-0.1548606902360916,0.5253574252128601
1783169566188829700,8.74882958984375,0.33276796340942383,-0.13380077481269836,0.5237879157066345
1783169566198778600,8.758778564453126,0.43566399812698364,-0.09347757697105408,0.49687719345092773
1783169566208727600,8.7687275390625,0.5240881443023682,-0.0496961809694767,0.4492836892604828
1783169566218676500,8.778676513671876,0.5768415927886963,-0.03680887818336487,0.37460121512413025
1783169566228655600,8.788655517578125,0.5948463678359985,-0.02621961571276188,0.2909500300884247
1783169566238626000,8.7986259765625,0.5720142722129822,-0.014885468408465385,0.19322611391544342
1783169566248574000,8.808573974609375,0.5239993929862976,0.026403777301311493,0.09328189492225647
1783169566258554000,8.81855419921875,0.4623304009437561,0.08458772301673889,-0.008196523413062096
1783169566268502000,8.828501953125,0.40415504574775696,0.16675426065921783,-0.099424809217453
1783169566278451200,8.838451171875,0.3572131097316742,0.24181918799877167,-0.18470323085784912
1783169566288400100,8.848400146484375,0.3325471878051758,0.263401597738266,-0.2570628523826599
1783169566298379300,8.858379150390626,0.33590784668922424,0.26322609186172485,-0.29793810844421387
1783169566308328200,8.868328125,0.36204445362091064,0.2864542305469513,-0.29163798689842224
1783169566318276000,8.878276123046875,0.39834174513816833,0.2953190803527832,-0.2532903254032135
1783169566328225000,8.88822509765625,0.44952884316444397,0.2872796952724457,-0.19619451463222504
1783169566338204200,8.8982041015625,0.5008195042610168,0.24519190192222595,-0.1447313278913498
1783169566348153000,8.908153076171875,0.5487947463989258,0.15166686475276947,-0.09831426292657852
1783169566358102000,8.91810205078125,0.5995985269546509,0.07814206182956696,-0.052401103079319
1783169566368081200,8.9280810546875,0.6298763155937195,-0.008802777156233788,-0.0049138786271214485
1783169566378030000,8.938030029296876,0.6416914463043213,-0.09748177975416183,0.04546913504600525
1783169566387979000,8.94797900390625,0.6236528754234314,-0.14378759264945984,0.09316041320562363
1783169566397927200,8.95792724609375,0.5701901912689209,-0.16269630193710327,0.11160066723823547
1783169566407907000,8.967906982421875,0.49190375208854675,-0.15845608711242676,0.08870375156402588
1783169566417855000,8.97785498046875,0.4014854431152344,-0.11437225341796875,0.027297383174300194
1783169566427804000,8.987803955078125,0.3253360688686371,-0.06305991858243942,-0.05936325341463089
1783169566437753000,8.997753173828125,0.2867348790168762,-0.01972842589020729,-0.14797168970108032
1783169566447732200,9.007732177734376,0.28687363862991333,0.02373448573052883,-0.2135799527168274
1783169566457681200,9.01768115234375,0.28808778524398804,0.04996316134929657,-0.2482074499130249
1783169566467630000,9.027630126953126,0.2602066695690155,0.029662327840924263,-0.24822871387004852
1783169566477609200,9.037609130859375,0.19874945282936096,-0.002174964640289545,-0.21265608072280884
1783169566487558100,9.04755810546875,0.11752383410930634,-0.02600390836596489,-0.1507604867219925
1783169566497506000,9.057506103515625,0.029216866940259933,-0.07045340538024902,-0.10165205597877502
1783169566507455200,9.067455322265625,-0.050416428595781326,-0.10963936150074005,-0.07704515010118484
1783169566517434000,9.07743408203125,-0.0908365547657013,-0.11191370338201523,-0.055198974907398224
1783169566527383000,9.087383056640626,-0.08338326215744019,-0.0898478701710701,-0.023608285933732986
1783169566537332000,9.09733203125,-0.04693550616502762,-0.05320916324853897,0.021903540939092636
1783169566547280100,9.107280029296875,-0.01359317172318697,-0.02494378760457039,0.07582530379295349
1783169566557260000,9.117260009765625,0.008555274456739426,-0.02970072627067566,0.13695603609085083
1783169566567208000,9.1272080078125,0.011855289340019226,-0.048705000430345535,0.19972114264965057
1783169566577157000,9.1371572265625,0.004084985703229904,-0.09519819915294647,0.25790002942085266
1783169566587136000,9.147135986328125,-0.012958095408976078,-0.16313979029655457,0.30649831891059875
1783169566597085000,9.1570849609375,-0.026396404951810837,-0.27175173163414,0.3524183928966522
1783169566607034000,9.1670341796875,-0.06429256498813629,-0.39676034450531006,0.39681750535964966
1783169566616983300,9.1769833984375,-0.12864971160888672,-0.4723014533519745,0.42361530661582947
1783169566626962200,9.186962158203125,-0.21723178029060364,-0.5078587532043457,0.4321402609348297
1783169566636911000,9.1969111328125,-0.29670876264572144,-0.4924694299697876,0.4296203851699829
1783169566646859300,9.206859375,-0.33971405029296875,-0.4190129339694977,0.4135071635246277
1783169566656808200,9.21680810546875,-0.3429412543773651,-0.3116726577281952,0.36013662815093994
1783169566666787000,9.226787109375,-0.304965615272522,-0.2079760581254959,0.2585025131702423
1783169566676736000,9.236736083984376,-0.23108874261379242,-0.12582552433013916,0.1201307624578476
1783169566686685200,9.246685302734376,-0.15097960829734802,-0.003986215218901634,0.0037986678071320057
1783169566696664000,9.2566640625,-0.09191761910915375,0.18883436918258667,-0.0400199219584465
1783169566706613000,9.266613037109375,-0.05413056164979935,0.3272731900215149,-0.016877759248018265
1783169566716561200,9.27656103515625,-0.04680420458316803,0.2768608629703522,0.031859152019023895
1783169566726510000,9.286510009765625,-0.07368402183055878,0.025631863623857498,0.035909734666347504
1783169566736489000,9.296489013671875,-0.10493995249271393,-0.379947304725647,-0.050429947674274445
1783169566746438100,9.306438232421876,-0.15650531649589539,-0.8035294413566589,-0.23396429419517517
1783169566756387000,9.316386962890626,-0.234159916639328,-1.0710810422897339,-0.4850420653820038
1783169566766366000,9.326365966796875,-0.3002025783061981,-1.0224387645721436,-0.7159113883972168
1783169566776315100,9.336315185546875,-0.3351552188396454,-0.6807522773742676,-0.8511592745780945
1783169566786264000,9.34626416015625,-0.336243599653244,-0.21050584316253662,-0.8618373274803162
1783169566796212200,9.356212158203125,-0.3229275345802307,0.2337440401315689,-0.726693868637085
1783169566806192000,9.366192138671876,-0.30019411444664,0.5188742280006409,-0.46800264716148376
1783169566816140300,9.376140380859376,-0.27033236622810364,0.592312216758728,-0.16329175233840942
1783169566826089200,9.386089111328126,-0.2418910562992096,0.44775527715682983,0.11436568945646286
1783169566836038100,9.3960380859375,-0.22053703665733337,0.1494511514902115,0.32131698727607727
1783169566846017000,9.40601708984375,-0.19951847195625305,-0.17694446444511414,0.47144877910614014
1783169566855966200,9.41596630859375,-0.18766926229000092,-0.4201142489910126,0.5597347021102905
1783169566865914000,9.4259140625,-0.19082927703857422,-0.5361787676811218,0.5760012865066528
1783169566875894000,9.43589404296875,-0.2072862833738327,-0.5524716973304749,0.5002463459968567
1783169566885842200,9.44584228515625,-0.2274591326713562,-0.4793027639389038,0.3557829260826111
1783169566895791000,9.455791015625,-0.22925090789794922,-0.3488728404045105,0.1716623455286026
1783169566905740000,9.465739990234376,-0.23075610399246216,-0.18281465768814087,0.0007545235566794872
1783169566915719000,9.475718994140625,-0.24604079127311707,-0.030997952446341515,-0.1363482028245926
1783169566925668000,9.485668212890625,-0.28446489572525024,0.06656095385551453,-0.206442728638649
1783169566935617300,9.4956171875,-0.3392399847507477,0.15723919868469238,-0.21416829526424408
1783169566945565200,9.505565185546875,-0.4130464792251587,0.24575714766979218,-0.17203648388385773
1783169566955545000,9.515545166015626,-0.5029582381248474,0.2837793231010437,-0.10485904663801193
1783169566965493200,9.5254931640625,-0.5956318378448486,0.24499766528606415,-0.049357376992702484
1783169566975442200,9.535442138671876,-0.6855883598327637,0.16103246808052063,-0.018924638628959656
1783169566985421000,9.545421142578125,-0.746513307094574,0.06330440193414688,-0.016133323311805725
1783169566995370200,9.555370361328125,-0.7471820116043091,-0.022178277373313904,-0.026773985475301743
1783169567005319200,9.565319091796875,-0.6855370402336121,-0.0779360830783844,-0.046110399067401886
1783169567015267000,9.57526708984375,-0.5819739699363708,-0.12569807469844818,-0.06461191177368164
1783169567025247000,9.5852470703125,-0.45517438650131226,-0.1758688986301422,-0.08061186969280243
1783169567035195100,9.595195068359375,-0.32680124044418335,-0.22086459398269653,-0.09318119287490845
1783169567045144000,9.60514404296875,-0.21272012591362,-0.255540132522583,-0.1007511094212532
1783169567055093000,9.615093017578126,-0.13160423934459686,-0.28796863555908203,-0.09203299134969711
1783169567065072000,9.625072021484375,-0.09218154847621918,-0.25026950240135193,-0.045685358345508575
1783169567075021000,9.63502099609375,-0.10323154181241989,-0.19340649247169495,0.021239347755908966
1783169567084970000,9.644969970703125,-0.14772266149520874,-0.16738542914390564,0.10195298492908478
1783169567094949000,9.65494921875,-0.20225220918655396,-0.16025614738464355,0.17357736825942993
1783169567104898300,9.664898193359376,-0.25111427903175354,-0.1689949333667755,0.20176440477371216
1783169567114846000,9.674845947265625,-0.27544307708740234,-0.16652752459049225,0.18109801411628723
1783169567124795100,9.684795166015626,-0.28159525990486145,-0.11387867480516434,0.12568090856075287
1783169567134774300,9.694774169921875,-0.28526562452316284,-0.034911688417196274,0.0455852746963501
1783169567144723200,9.70472314453125,-0.30115482211112976,0.04350150004029274,-0.05807982385158539
1783169567154672000,9.714672119140625,-0.320904016494751,0.08357781171798706,-0.1896013617515564
1783169567164620300,9.724620361328125,-0.32803472876548767,0.12399589270353317,-0.3188368082046509
1783169567174600200,9.73460009765625,-0.320092111825943,0.16084790229797363,-0.43031033873558044
1783169567184548000,9.744548095703125,-0.3034765422344208,0.2135981172323227,-0.522668719291687
1783169567194497000,9.7544970703125,-0.2791573703289032,0.2880398631095886,-0.5891167521476746
1783169567204476200,9.76447607421875,-0.24363820254802704,0.36088472604751587,-0.6147706508636475
1783169567214425000,9.774425048828125,-0.19315238296985626,0.3652142286300659,-0.6060136556625366
1783169567224374000,9.7843740234375,-0.11969121545553207,0.31547364592552185,-0.5580927729606628
1783169567234337000,9.7943369140625,-0.01641089841723442,0.3194092810153961,-0.4670448899269104
1783169567244316200,9.804316162109375,0.10773450881242752,0.33864983916282654,-0.35734304785728455
1783169567254265000,9.81426513671875,0.25799164175987244,0.33482688665390015,-0.245505228638649
1783169567264213000,9.824212890625,0.4370351731777191,0.4021088480949402,-0.13233733177185059
1783169567274162200,9.834162109375,0.6348963379859924,0.4733417332172394,-0.022688332945108414
1783169567284141000,9.84414111328125,0.8025388121604919,0.40450912714004517,0.037479035556316376
1783169567294090000,9.854090087890626,0.8706193566322327,0.05914374440908432,-0.013601457700133324
1783169567304039000,9.864038818359376,0.8696239590644836,-0.41155287623405457,-0.1607692539691925
1783169567314018000,9.87401806640625,0.8761920928955078,-0.717659592628479,-0.30218684673309326
1783169567323967000,9.883967041015625,0.9235835075378418,-0.8055423498153687,-0.3615438938140869
1783169567333915000,9.893914794921875,0.9873478412628174,-0.7698618173599243,-0.31695619225502014
1783169567343864000,9.903864013671875,1.0491564273834229,-0.5946955680847168,-0.15805914998054504
1783169567353843000,9.913843017578126,1.07066810131073,-0.3197718560695648,0.10267098248004913
1783169567363792000,9.9237919921875,1.01114022731781,-0.045135386288166046,0.37232285737991333
1783169567373740800,9.93374072265625,0.8793990015983582,0.12849019467830658,0.5808830261230469
1783169567383690000,9.94368994140625,0.6874315142631531,0.14842119812965393,0.6824725866317749
1783169567393668900,9.9536689453125,0.47138017416000366,0.05460469424724579,0.7073078751564026
1783169567403618000,9.9636181640625,0.2899589240550995,-0.09014787524938583,0.696375846862793
1783169567413566000,9.97356591796875,0.17211295664310455,-0.22410914301872253,0.655874490737915
1783169567423546000,9.983546142578126,0.12745386362075806,-0.313588947057724,0.5779744386672974
1783169567433494000,9.993493896484376,0.12456273287534714,-0.3545028269290924,0.4713936746120453
1783169567443443000,10.00344287109375,0.1478397101163864,-0.3291480243206024,0.33319878578186035
1783169567453392100,10.01339208984375,0.17730306088924408,-0.23914863169193268,0.17693035304546356
1783169567463371000,10.02337109375,0.20155656337738037,-0.09139572829008102,0.013637781143188477
1783169567473320000,10.03331982421875,0.2143072485923767,0.10075241327285767,-0.1332065314054489
1783169567483268900,10.043268798828125,0.20709145069122314,0.2959080934524536,-0.23708239197731018
1783169567493217000,10.053217041015625,0.16553841531276703,0.4183131158351898,-0.29367509484291077
1783169567503197000,10.063197021484376,0.10212605446577072,0.44713565707206726,-0.31065139174461365
1783169567513145000,10.07314501953125,0.04050503671169281,0.41919800639152527,-0.2932575047016144
1783169567523094000,10.083093994140626,0.0019677728414535522,0.3583295941352844,-0.26023393869400024
1783169567533073000,10.093072998046875,-0.0012759584933519363,0.27570903301239014,-0.22392280399799347
1783169567543021800,10.103021728515625,0.04127327352762222,0.18018192052841187,-0.19354358315467834
1783169567552971000,10.112970947265625,0.12143602222204208,0.09698664397001266,-0.1608751267194748
1783169567562919000,10.1229189453125,0.22450096905231476,0.04995419830083847,-0.1284368634223938
1783169567572899000,10.132899169921876,0.32870352268218994,0.028438257053494453,-0.11062882840633392
1783169567582847000,10.142846923828126,0.4233240783214569,-0.0014450757298618555,-0.10153989493846893
1783169567592796200,10.152796142578126,0.5047190189361572,-0.017607800662517548,-0.08978363871574402
1783169567602745000,10.1627451171875,0.5597483515739441,-0.005524283740669489,-0.058082155883312225
1783169567612724000,10.172723876953125,0.5741539597511292,-0.0045897806994616985,-0.014345066621899605
1783169567622673200,10.182673095703125,0.5579606294631958,-0.01802370697259903,0.03430330008268356
1783169567632622000,10.1926220703125,0.5203439593315125,-0.030501147732138634,0.09533389657735825
1783169567642601000,10.20260107421875,0.4665798246860504,-0.0585615448653698,0.16190919280052185
1783169567652550000,10.2125498046875,0.40537211298942566,-0.07974433153867722,0.22249291837215424
1783169567662498000,10.222498046875,0.357318252325058,-0.07575428485870361,0.28274351358413696
1783169567672447000,10.232447021484376,0.3256053328514099,-0.09199371188879013,0.33085086941719055
1783169567682425900,10.24242578125,0.31593695282936096,-0.12895280122756958,0.3493804335594177
1783169567692375000,10.252375,0.32366570830345154,-0.1451975554227829,0.3584602177143097
1783169567702324000,10.262323974609375,0.329364150762558,-0.11414628475904465,0.35277989506721497
1783169567712272000,10.27227197265625,0.3227781653404236,-0.07215862721204758,0.3413352072238922
1783169567722251800,10.282251708984376,0.2922624349594116,-0.03155143931508064,0.3385745882987976
1783169567732200000,10.292199951171876,0.23748600482940674,-0.02341175451874733,0.3379276990890503
1783169567742148900,10.30214892578125,0.16795817017555237,-0.04116927087306976,0.34057721495628357
1783169567752128000,10.3121279296875,0.11361129581928253,-0.020345214754343033,0.3536307215690613
1783169567762077200,10.3220771484375,0.09201385080814362,0.04000120982527733,0.37527623772621155
1783169567772026000,10.332026123046875,0.1152225062251091,0.07909055799245834,0.39531946182250977
1783169567781975000,10.34197509765625,0.17606978118419647,0.07014212012290955,0.40662306547164917
1783169567791954000,10.351953857421876,0.24383924901485443,0.015688197687268257,0.4143912196159363
1783169567801903000,10.361903076171876,0.3020157217979431,-0.12029410898685455,0.3934140205383301
1783169567811851000,10.37185107421875,0.3535233736038208,-0.34769609570503235,0.32114940881729126
1783169567821800000,10.381800048828126,0.39942818880081177,-0.5723221302032471,0.21505732834339142
1783169567831779000,10.391779052734375,0.4213409423828125,-0.6832970380783081,0.09841541200876236
1783169567841728000,10.40172802734375,0.40197914838790894,-0.6172476410865784,0.0037825419567525387
1783169567851677000,10.411677001953125,0.3547823429107666,-0.4111088514328003,-0.05790798366069794
1783169567861656000,10.421656005859376,0.3100913166999817,-0.0989694595336914,-0.06699863821268082
1783169567871605000,10.43160498046875,0.28471672534942627,0.1802738904953003,-0.042241889983415604
1783169567881553000,10.441552978515626,0.2525769770145416,0.22717434167861938,-0.026938673108816147
1783169567891501800,10.451501708984376,0.22476986050605774,0.12015095353126526,-0.05848275125026703
1783169567901481000,10.46148095703125,0.1940760463476181,-0.032553013414144516,-0.12379023432731628
1783169567911430000,10.471429931640625,0.16712938249111176,-0.17220439016819,-0.2107512354850769
1783169567921379000,10.481379150390625,0.12541621923446655,-0.26661813259124756,-0.3176082372665405
1783169567931328000,10.491327880859375,0.07495597004890442,-0.3029218018054962,-0.4423360526561737
1783169567941307100,10.50130712890625,0.04524900019168854,-0.23642520606517792,-0.5525880455970764
1783169567951256000,10.511256103515626,0.049266643822193146,-0.07711011171340942,-0.6067524552345276
1783169567961204000,10.521203857421876,0.07608939707279205,0.15048693120479584,-0.5857954025268555
1783169567971184000,10.53118408203125,0.1273517906665802,0.4074289798736572,-0.4747609794139862
1783169567981132000,10.541132080078125,0.189307302236557,0.6427046060562134,-0.2927040159702301
1783169567991081000,10.5510810546875,0.2507573664188385,0.7413366436958313,-0.0829630196094513
1783169568001030000,10.56102978515625,0.3066825866699219,0.6278499960899353,0.10140958428382874
1783169568011009000,10.571009033203126,0.3550458550453186,0.3656117022037506,0.25606122612953186
1783169568020958000,10.5809580078125,0.402008980512619,0.08884184062480927,0.37721899151802063
1783169568030905900,10.59090576171875,0.4274562895298004,-0.13175499439239502,0.46527665853500366
1783169568040855000,10.60085498046875,0.4300414025783539,-0.2587917447090149,0.4929777979850769
1783169568050834000,10.610833984375,0.3978821337223053,-0.2884974479675293,0.4564477503299713
1783169568060782800,10.620782958984375,0.3456423878669739,-0.2617257535457611,0.36769792437553406
1783169568070731800,10.630731689453125,0.2771826386451721,-0.1950996071100235,0.24280817806720734
1783169568080711000,10.6407109375,0.21249224245548248,-0.1040421575307846,0.12119166553020477
1783169568090660000,10.65066015625,0.15528781712055206,0.03603293001651764,0.04223426431417465
1783169568100609000,10.660609130859376,0.08363737910985947,0.1813722550868988,0.010425419546663761
1783169568110557200,10.67055712890625,0.0014389120042324066,0.28256145119667053,0.021836532279849052
1783169568120537000,10.680537109375,-0.07022963464260101,0.32463589310646057,0.057878151535987854
1783169568130485000,10.690485107421875,-0.12283799052238464,0.3057476878166199,0.09881546348333359
1783169568140434000,10.700433837890625,-0.1500922590494156,0.24848289787769318,0.13643592596054077
1783169568150383000,10.710383056640625,-0.16497160494327545,0.17735199630260468,0.15229372680187225
1783169568160362000,10.720362060546876,-0.16935773193836212,0.10512513667345047,0.1367342472076416
1783169568170311000,10.730310791015626,-0.15919190645217896,0.05646678805351257,0.10139010101556778
1783169568180259000,10.740259033203126,-0.1347152590751648,0.056536175310611725,0.05001666769385338
1783169568190239000,10.750239013671875,-0.09885767102241516,0.06795713305473328,-0.005638869479298592
1783169568200187000,10.760186767578125,-0.05954586714506149,0.08820758759975433,-0.05714903771877289
1783169568210136000,10.770135986328125,-0.028637750074267387,0.1367570161819458,-0.07913423329591751
1783169568220085000,10.7800849609375,-0.014921831898391247,0.19798102974891663,-0.0738995224237442
1783169568230063900,10.79006396484375,-0.01688617840409279,0.2733713686466217,-0.046130742877721786
1783169568240032300,10.8000322265625,-0.03680439293384552,0.341736763715744,0.011689985170960426
1783169568249981200,10.809981201171874,-0.0511617586016655,0.386826753616333,0.0844438225030899
1783169568259929000,10.81992919921875,-0.05063784494996071,0.4126731753349304,0.16731394827365875
1783169568269909200,10.8299091796875,-0.025782829150557518,0.39947402477264404,0.26056399941444397
1783169568279857200,10.839857177734375,0.004626182839274406,0.35708603262901306,0.3427138924598694
1783169568289806000,10.84980615234375,0.03400351107120514,0.2738039195537567,0.39500534534454346
1783169568299785200,10.85978515625,0.05335753411054611,0.16923774778842926,0.41205930709838867
1783169568309734100,10.869734130859374,0.06820359826087952,0.0595669224858284,0.40143832564353943
1783169568319683000,10.87968310546875,0.08067997545003891,-0.04654060676693916,0.35019513964653015
1783169568329632000,10.889632080078124,0.0950637012720108,-0.11354813724756241,0.27388623356819153
1783169568339611100,10.899611083984375,0.09722992777824402,-0.1158234030008316,0.1878345012664795
1783169568349559000,10.90955908203125,0.09131158888339996,-0.06636103987693787,0.12098197638988495
1783169568359508000,10.919508056640625,0.1011388823390007,0.017097992822527885,0.09257441014051437
1783169568369457000,10.929456787109375,0.11823079735040665,0.15996061265468597,0.12437122315168381
1783169568379436000,10.93943603515625,0.1310870349407196,0.33768516778945923,0.18390633165836334
1783169568389385200,10.94938525390625,0.12362459301948547,0.4538424015045166,0.24321572482585907
1783169568399334100,10.959334228515624,0.09597326070070267,0.4640073776245117,0.2878057062625885
1783169568409313300,10.969313232421875,0.05495205521583557,0.3691543638706207,0.3266274034976959
1783169568419262200,10.97926220703125,0.001687200739979744,0.2257959544658661,0.3705267608165741
1783169568429210000,10.989210205078125,-0.04370611160993576,0.10613586753606796,0.4112702012062073
1783169568439159000,10.999158935546875,-0.06327284127473831,0.030826138332486153,0.46166467666625977
1783169568449138200,11.00913818359375,-0.05476617068052292,0.03461075574159622,0.5158330798149109
1783169568459087000,11.019087158203124,-0.00267079658806324,0.12292629480361938,0.5571813583374023
1783169568469036000,11.0290361328125,0.09191430360078812,0.2681484818458557,0.5792949199676514
1783169568478985000,11.03898486328125,0.2066839337348938,0.47760817408561707,0.5924504995346069
1783169568488964000,11.048964111328125,0.32568037509918213,0.7506732940673828,0.6203351020812988
1783169568498913000,11.0589130859375,0.4558807611465454,1.0339250564575195,0.688029944896698
1783169568508861200,11.068861083984375,0.6031844615936279,1.122212529182434,0.785536527633667
1783169568518841000,11.078841064453124,0.7228750586509705,0.9269829988479614,0.856090247631073
1783169568528789000,11.0887890625,0.7881481051445007,0.5589160323143005,0.8857725262641907
1783169568538738000,11.098738037109374,0.782625138759613,0.10797153413295746,0.8310011625289917
1783169568548687000,11.10868701171875,0.7262635827064514,-0.33590683341026306,0.6835459470748901
1783169568558666000,11.118666015625,0.6501506567001343,-0.614721417427063,0.48926541209220886
1783169568568615200,11.128615234375,0.5749773383140564,-0.6010847091674805,0.3071216940879822
1783169568578563300,11.138563232421875,0.5134244561195374,-0.3038172721862793,0.15584851801395416
1783169568588512300,11.14851220703125,0.4667717218399048,0.15881213545799255,0.02415146306157112
1783169568598491100,11.1584912109375,0.45076730847358704,0.6792237162590027,-0.0630529522895813
1783169568608440000,11.168440185546874,0.472331702709198,1.1236578226089478,-0.0974346250295639
1783169568618389200,11.17838916015625,0.5282199382781982,1.3538224697113037,-0.07210061699151993
1783169568628368100,11.1883681640625,0.5861514210700989,1.358496069908142,-0.0015300428494811058
1783169568638317000,11.198317138671875,0.6009162664413452,1.2260164022445679,0.09309379756450653
1783169568648266000,11.208265869140625,0.5774301290512085,1.0295225381851196,0.19204194843769073
1783169568658214100,11.218214111328125,0.5615397095680237,0.7918633222579956,0.2696000933647156
1783169568668194000,11.228194091796874,0.5747665166854858,0.5681170225143433,0.31282055377960205
1783169568678142000,11.238141845703124,0.6274189949035645,0.4217614531517029,0.30903303623199463
1783169568688091100,11.248091064453124,0.6988987922668457,0.36200466752052307,0.2447805553674698
1783169568698040000,11.2580400390625,0.7780259251594543,0.4055576026439667,0.13146011531352997
1783169568708019000,11.26801904296875,0.8413133025169373,0.5037009716033936,0.02411741204559803
1783169568717968100,11.277968017578125,0.8658291101455688,0.6262705326080322,-0.05421476066112518
1783169568727916000,11.287916015625,0.85960853099823,0.7240124940872192,-0.11245942860841751
1783169568737896200,11.297896240234374,0.8397854566574097,0.7601854801177979,-0.1738140881061554
1783169568747844000,11.307843994140624,0.8154265880584717,0.7383579611778259,-0.22201943397521973
1783169568757793300,11.317793212890624,0.79921555519104,0.7128739356994629,-0.2350192815065384
1783169568767742200,11.3277421875,0.7909746766090393,0.6641966104507446,-0.21493399143218994
1783169568777721000,11.33772119140625,0.8014248609542847,0.6127985119819641,-0.14971938729286194
1783169568787670000,11.347669921875,0.8363593816757202,0.5569397807121277,-0.05987553298473358
1783169568797619200,11.357619140625,0.867017924785614,0.47087597846984863,0.016907021403312683
1783169568807567000,11.367567138671875,0.8863325119018555,0.40640538930892944,0.07553571462631226
1783169568817547000,11.377547119140624,0.9035253524780273,0.42795035243034363,0.13934771716594696
1783169568827495200,11.3874951171875,0.9245667457580566,0.5056750178337097,0.19378937780857086
1783169568837444000,11.397444091796874,0.930711567401886,0.5503588318824768,0.2131170630455017
1783169568847423000,11.407423095703125,0.9234104752540588,0.5522922873497009,0.20256295800209045
1783169568857372200,11.4173720703125,0.9174928665161133,0.536537766456604,0.1643286943435669
1783169568867321000,11.427321044921875,0.906459391117096,0.5166703462600708,0.11763042956590652
1783169568877269000,11.43726904296875,0.8870582580566406,0.487831711769104,0.07994863390922546
1783169568887249000,11.447248779296874,0.8679237365722656,0.43893179297447205,0.0595882348716259
1783169568897197000,11.457197021484374,0.8352302312850952,0.3888860046863556,0.056725047528743744
1783169568907146200,11.467146240234374,0.7952492833137512,0.36758896708488464,0.07193116098642349
1783169568917095200,11.47709521484375,0.7560129761695862,0.3706587553024292,0.1130811795592308
1783169568927074300,11.48707421875,0.708133339881897,0.376016229391098,0.16890102624893188
1783169568937023200,11.497023193359375,0.6586313247680664,0.35686051845550537,0.22651143372058868
1783169568946972200,11.50697216796875,0.6209233403205872,0.30977824330329895,0.26803648471832275
1783169568956951000,11.516950927734374,0.6109066009521484,0.24754537642002106,0.2838439345359802
1783169568966900200,11.526900146484374,0.6051775813102722,0.2175683230161667,0.2801858186721802
1783169568976848100,11.53684814453125,0.5687032341957092,0.23738092184066772,0.2614580988883972
1783169568986797000,11.546797119140624,0.5110570192337036,0.2620239555835724,0.2441113442182541
1783169568996776200,11.556776123046875,0.4481179118156433,0.2917490601539612,0.23395176231861115
1783169569006725000,11.56672509765625,0.3760828673839569,0.2724989354610443,0.2212924212217331
1783169569016674000,11.576674072265625,0.2880266308784485,0.17270803451538086,0.1795782446861267
1783169569026622000,11.5866220703125,0.22063881158828735,0.09256899356842041,0.07296577841043472
1783169569036602000,11.59660205078125,0.20958176255226135,0.11233935505151749,-0.06912826746702194
1783169569046550000,11.606550048828124,0.2366485297679901,0.15445245802402496,-0.19072073698043823
1783169569056499000,11.6164990234375,0.27778878808021545,0.15511399507522583,-0.2668069899082184
1783169569066478000,11.62647802734375,0.30973154306411743,0.15607325732707977,-0.2601594626903534
1783169569076427300,11.63642724609375,0.31367000937461853,0.1578795462846756,-0.18336257338523865
1783169569086376200,11.646376220703125,0.3068118393421173,0.2157052904367447,-0.04607608914375305
1783169569096325000,11.6563251953125,0.32682108879089355,0.3246390223503113,0.1308179795742035
1783169569106304300,11.66630419921875,0.33261239528656006,0.23098896443843842,0.2656141221523285
1783169569116253200,11.676253173828124,0.30781129002571106,0.01267293281853199,0.3017181158065796
1783169569126201000,11.686201171875,0.24776716530323029,-0.16346986591815948,0.31780678033828735
1783169569136150000,11.69614990234375,0.10903296619653702,-0.44796764850616455,0.23984752595424652
1783169569146129200,11.706129150390625,-0.029802674427628517,-0.6119789481163025,0.0767132043838501
1783169569156078000,11.716078125,-0.12727990746498108,-0.5226098299026489,-0.11729959398508072
1783169569166027000,11.726027099609375,-0.20127956569194794,-0.24333558976650238,-0.3270530700683594
1783169569176006100,11.736006103515624,-0.28338155150413513,0.11882355064153671,-0.5325006246566772
1783169569185955000,11.745955078125,-0.35018882155418396,0.4907555878162384,-0.6863280534744263
1783169569195903000,11.755903076171874,-0.4046148657798767,0.7597497701644897,-0.731074869632721
1783169569205852000,11.765851806640624,-0.4566120207309723,0.678598165512085,-0.6658417582511902
