time,seconds_elapsed,z,y,x
1783153071701459200,0.170459228515625,4.8553361892700195,4.347758769989014,-0.7444669604301453
1783153071711169800,0.180169677734375,4.383651256561279,4.1608195304870605,-1.0247262716293335
1783153071720880600,0.189880615234375,4.362115859985352,4.369294166564941,-1.3908281326293945
1783153071730591200,0.19959130859375,4.34536600112915,4.1297125816345215,-0.5602195858955383
1783153071740301800,0.2093017578125,4.275974273681641,3.7588253021240234,0.6056832075119019
1783153071750012700,0.2190126953125,4.852943420410156,3.4785659313201904,0.6248258352279663
1783153071759723300,0.22872314453125,5.2956156730651855,3.059522867202759,0.24646073579788208
1783153071769434000,0.23843408203125,5.923133373260498,2.7891337871551514,0.08135596662759781
1783153071779144700,0.248144775390625,6.777669906616211,2.1379871368408203,-1.2544373273849487
1783153071788855300,0.257855224609375,6.550352096557617,2.7173492908477783,-0.7779664397239685
1783153071798566000,0.26756591796875,6.277271270751953,1.470090389251709,-1.8768702745437622
1783153071808276700,0.27727685546875,5.6931233406066895,0.8066803216934204,-3.492922782897949
1783153071817987300,0.2869873046875,5.863013744354248,1.8266209363937378,-5.015655517578125
1783153071827698200,0.2966982421875,4.864907741546631,2.0159530639648438,-4.634897232055664
1783153071837408800,0.30640869140625,4.077070713043213,2.025524377822876,-4.713860511779785
1783153071847119400,0.316119384765625,4.744967460632324,4.577469825744629,-5.626124382019043
1783153071856830200,0.325830322265625,6.545566558837891,5.930311679840088,-6.3131632804870605
1783153071866540800,0.335540771484375,6.495316982269287,4.038785457611084,-4.268795490264893
1783153071876251600,0.345251708984375,6.476174354553223,3.1028928756713867,-3.404388427734375
1783153071885962200,0.354962158203125,7.402495861053467,2.9063823223114014,-3.6798620223999023
1783153071895672800,0.3646728515625,9.595518112182617,2.6312077045440674,-5.604588985443115
1783153071905383700,0.3743837890625,11.644970893859863,1.5634105205535889,-6.55992317199707
1783153071915094300,0.38409423828125,14.235200881958008,0.4980062246322632,-5.027619361877441
1783153071924804900,0.393804931640625,28.930421829223633,0.39032918214797974,-3.555136203765869
1783153071934515700,0.403515625,24.89373016357422,1.9414764642715454,1.1060823202133179
1783153071944226300,0.413226318359375,29.95963478088379,4.419543266296387,4.017250061035156
1783153071953937000,0.42293701171875,30.599117279052734,4.716253280639648,4.979763031005859
1783153071963647700,0.432647705078125,26.91446876525879,5.302793979644775,3.6870405673980713
1783153071973358300,0.4423583984375,23.06232452392578,5.56869649887085,1.750050663948059
1783153071983069000,0.45206884765625,12.324831008911133,8.796015739440918,5.633302688598633
1783153071992779800,0.46177978515625,21.54198455810547,11.261819839477539,0.5027918815612793
1783153072002490400,0.471490478515625,30.40021324157715,10.325628280639648,-9.693623542785645
1783153072012201200,0.481201171875,27.252155303955078,1.714158296585083,-2.2600209712982178
1783153072021911800,0.490911865234375,25.284059524536133,5.800800323486328,1.7907286882400513
1783153072031622400,0.500622314453125,20.50320053100586,8.458329200744629,6.8757758140563965
1783153072041333200,0.510333251953125,15.944573402404785,10.225129127502441,8.067999839782715
1783153072051043800,0.5200439453125,12.42533016204834,9.892526626586914,7.630113124847412
1783153072060754400,0.52975439453125,7.670791149139404,8.341080665588379,12.796516418457031
1783153072070465300,0.53946533203125,7.416852951049805,8.999405860900879,11.965608596801758
1783153072080175900,0.54917578125,8.819944381713867,8.934800148010254,8.089534759521484
1783153072089886500,0.558886474609375,9.351449966430664,8.975478172302246,0.4549354016780853
1783153072099597300,0.568597412109375,8.245368003845215,7.084250450134277,-4.622933387756348
1783153072109308000,0.578307861328125,5.975775241851807,2.9542386531829834,-1.922333836555481
1783153072119018800,0.588018798828125,6.502495765686035,2.9566314220428467,-0.0526420995593071
1783153072128729300,0.597729248046875,8.748159408569336,1.1180464029312134,1.3453645706176758
1783153072138440000,0.60743994140625,10.84277629852295,-0.46450668573379517,1.012762188911438
1783153072148150800,0.61715087890625,11.364710807800293,-2.221735715866089,-1.0558329820632935
1783153072157861400,0.626861328125,9.219545364379883,-3.1172497272491455,-2.7963123321533203
1783153072167572200,0.636572265625,6.236593246459961,-1.3836497068405151,-4.299902439117432
1783153072177282800,0.64628271484375,2.693420886993408,-0.6678966283798218,-3.667897939682007
1783153072186993400,0.655993408203125,-0.3089732229709625,-0.5075774788856506,-3.9095730781555176
1783153072196704300,0.665704345703125,-1.0582258701324463,1.1300104856491089,-3.81864595413208
1783153072206414800,0.675414794921875,-1.1228320598602295,1.438983678817749,-1.89840567111969
1783153072216125400,0.68512548828125,-0.9649057388305664,1.6878372430801392,0.46450668573379517
1783153072225836300,0.694836181640625,-0.9649057388305664,1.6878372430801392,0.46450668573379517
1783153072235547000,0.704546875,-0.4788636267185211,0.8787640929222107,1.4533406496047974
1783153072245257500,0.714257568359375,-1.7165511846542358,1.3022937774658203,1.4198411703109741
1783153072254968300,0.72396826171875,-2.5232315063476562,0.9290133714675903,1.2640085220336914
1783153072264679000,0.733678955078125,-2.652743101119995,0.44775694608688354,0.275174617767334
1783153072274389800,0.7433896484375,-0.8162516355514526,1.2376874685287476,-7.9316086769104
1783153072284100400,0.753100341796875,0.675075113773346,1.5394822359085083,-4.429114818572998
1783153072293811000,0.76281103515625,0.6822535395622253,1.5897315740585327,-1.256830096244812
1783153072303521800,0.772521728515625,1.6112669706344604,-2.6336004734039307,-2.0135602951049805
1783153072313232400,0.782232421875,3.2656047344207764,-1.7572290897369385,-1.2185449600219727
1783153072322943000,0.79194287109375,2.355733871459961,-2.5112674236297607,-0.8620143532752991
1783153072332653800,0.80165380859375,1.927119493484497,-1.8936200141906738,-0.8330013751983643
1783153072342364400,0.811364501953125,2.190629243850708,2.2648067474365234,0.5769693851470947
1783153072352075000,0.821074951171875,2.6024937629699707,3.1627132892608643,0.05024927482008934
1783153072361785900,0.830785888671875,2.39401912689209,1.2855439186096191,0.9314061999320984
1783153072371496400,0.840496337890625,2.1164517402648926,0.7061817646026611,0.734895646572113
1783153072381207300,0.850207275390625,1.5203397274017334,0.21296121180057526,0.4501497745513916
1783153072390918000,0.85991796875,0.6415755748748779,2.9542386531829834,-1.3381860256195068
1783153072400628500,0.86962841796875,-0.17706887423992157,4.6301116943359375,-2.441875457763672
1783153072410339300,0.87933935546875,-0.5697908997535706,6.356234073638916,-2.3700907230377197
1783153072420050000,0.8890498046875,0.924227774143219,6.009274959564209,-2.1379871368408203
1783153072429760500,0.898760498046875,1.505982756614685,4.1991047859191895,-1.8840487003326416
1783153072439471400,0.908471435546875,0.2874378263950348,4.1991047859191895,-2.1020946502685547
1783153072449182000,0.918181884765625,-1.9920248985290527,2.825026273727417,-1.9824535846710205
1783153072458892800,0.927892822265625,-3.054737091064453,3.614956855773926,-2.33180570602417
1783153072468603400,0.937603271484375,-1.8098711967468262,3.6053855419158936,-3.169891834259033
1783153072478314000,0.94731396484375,1.3860424757003784,2.635993242263794,-4.524827480316162
1783153072488024800,0.95702490234375,6.583851337432861,2.17627215385437,-4.311866283416748
1783153072497735400,0.9667353515625,9.60508918762207,-0.3281157910823822,-0.8691928386688232
1783153072507446000,0.976446044921875,12.975977897644043,-3.5886356830596924,5.822335720062256
1783153072517156900,0.986156982421875,8.96829891204834,-5.209474086761475,14.580066680908203
1783153072526867500,0.995867431640625,13.9480619430542,-3.459423303604126,8.774480819702148
1783153072536578000,1.005578125,17.71885108947754,1.7261223793029785,5.449055194854736
1783153072546289000,1.015288818359375,23.92673110961914,8.422436714172363,4.721039295196533
1783153072555999500,1.02499951171875,24.170799255371094,2.8441689014434814,12.7247314453125
1783153072565710300,1.03471044921875,19.844575881958008,0.6296114325523376,19.643577575683594
1783153072575421000,1.0444208984375,18.812969207763672,3.78753924369812,19.24128532409668
1783153072585131500,1.054131591796875,21.64278221130371,7.115357398986816,20.143978118896484
1783153072594842400,1.06384228515625,27.215965270996094,9.712766647338867,26.60549545288086
1783153072604553000,1.073552978515625,34.4772834777832,11.956037521362305,29.368309020996094
1783153072614263600,1.083263671875,42.72743606567383,13.028619766235352,26.08116912841797
1783153072623974400,1.092974365234375,56.82863998413086,10.663314819335938,26.382963180541992
1783153072633685000,1.10268505859375,68.75865936279297,10.457531929016113,31.939695358276367
1783153072643395600,1.1123955078125,63.026947021484375,13.572090148925781,36.744483947753906
1783153072653106400,1.1221064453125,48.2722053527832,17.984455108642578,32.540592193603516
1783153072662817000,1.131817138671875,29.248666763305664,22.53321075439453,24.769304275512695
1783153072672528000,1.14152783203125,20.66351890563965,26.53131866455078,18.709779739379883
1783153072682238500,1.151238525390625,24.213869094848633,26.409284591674805,12.839587211608887
1783153072691949000,1.160948974609375,30.960433959960938,22.31785774230957,6.68435001373291
1783153072701660000,1.170659912109375,31.274192810058594,17.714065551757812,0.8979067206382751
1783153072711370500,1.18037060546875,28.652555465698242,11.872288703918457,-7.620542049407959
1783153072721081300,1.190081298828125,25.24577522277832,2.2791635990142822,-17.77867317199707
1783153072730792000,1.1997919921875,21.149560928344727,-8.324331283569336,-27.74507713317871
1783153072740502500,1.20950244140625,11.041680335998535,-18.999610900878906,-33.00749206542969
1783153072750213400,1.21921337890625,-5.2716875076293945,-25.367809295654297,-32.073692321777344
1783153072759924000,1.228924072265625,-12.837194442749023,-26.287250518798828,-26.76850700378418
1783153072769634600,1.238634521484375,-11.862717628479004,-28.899314880371094,-20.80469512939453
1783153072779345400,1.248345458984375,-8.898907661437988,-27.888946533203125,-17.551055908203125
1783153072789056000,1.258055908203125,-7.060322284698486,-23.263320922851562,-17.70688819885254
1783153072798766800,1.267766845703125,-10.895419120788574,-17.9700984954834,-24.316761016845703
1783153072808477400,1.2774775390625,-14.89382553100586,-15.875182151794434,-29.684459686279297
1783153072818188000,1.28718798828125,-12.760623931884766,-6.835097789764404,-28.24786949157715
1783153072827899000,1.29689892578125,-13.328022003173828,-2.99013090133667,-16.596019744873047
1783153072837609500,1.306609375,-8.891729354858398,0.9864411354064941,-7.77607536315918
1783153072847320000,1.316320068359375,-1.5849459171295166,0.7612167000770569,-3.6894333362579346
1783153072857031000,1.326031005859375,2.149951219558716,0.4046861231327057,-3.19860577583313
1783153072866741500,1.335741455078125,0.5817549824714661,-0.12681959569454193,-4.692325115203857
1783153072876452000,1.3454521484375,0.5817549824714661,-0.12681959569454193,-4.692325115203857
1783153072895873500,1.36487353515625,-9.851848602294922,0.10289137065410614,-8.503792762756348
1783153072905584400,1.37458447265625,-9.59791088104248,0.40229329466819763,-6.002096652984619
1783153072915295000,1.384294921875,-9.406484603881836,0.059820566326379776,-3.224926710128784
1783153072925005600,1.394005615234375,-7.493422985076904,-0.1818545162677765,-1.2329018115997314
1783153072934716400,1.40371630859375,-3.804288864135742,-0.016749758273363113,2.011167526245117
1783153072944427000,1.413427001953125,3.6583266258239746,2.3461625576019287,11.089536666870117
1783153072954137900,1.423137939453125,14.170595169067383,9.162117958068848,30.879077911376953
1783153072963848400,1.432848388671875,24.7884464263916,15.49950885772705,48.9185676574707
1783153072973559000,1.44255908203125,29.263025283813477,25.2601318359375,65.4164810180664
1783153072983270000,1.452269775390625,28.88944435119629,21.24527359008789,68.65068054199219
1783153072992980500,1.46198046875,27.233013153076172,15.32214069366455,61.6432991027832
1783153073002691000,1.471691162109375,22.387248992919922,6.7657060623168945,49.17729187011719
1783153073012402000,1.48140185546875,18.9326114654541,-1.9558334350585938,28.209585189819336
1783153073022112500,1.491112548828125,17.376379013061523,-7.476673603057861,12.82762336730957
1783153073031823400,1.5008232421875,16.478471755981445,-8.83669376373291,3.842574119567871
1783153073041534000,1.510533935546875,11.041680335998535,-9.547661781311035,-2.3222343921661377
1783153073051244500,1.52024462890625,5.192724227905273,-9.291629791259766,-9.104690551757812
1783153073060955400,1.529955322265625,-1.2592228651046753,-8.52772045135498,-13.196416854858398
1783153073070666000,1.539666015625,-9.844670295715332,-8.82951545715332,-14.69492244720459
1783153073080376600,1.54937646484375,-18.942182540893555,-10.356734275817871,-16.567306518554688
1783153073090087400,1.55908740234375,-28.654949188232422,-11.776576042175293,-24.08704948425293
1783153073099798000,1.568798095703125,-40.65166473388672,-10.536495208740234,-34.202110290527344
1783153073109508600,1.578508544921875,-49.09324264526367,-11.970394134521484,-37.04388427734375
1783153073119219500,1.588219482421875,-43.59184646606445,-16.91187286376953,-33.95804214477539
1783153073128930000,1.597929931640625,-34.290645599365234,-13.950454711914062,-21.946670532226562
1783153073138641000,1.607640869140625,-34.99203872680664,-5.118546962738037,-9.38016414642334
1783153073148351500,1.6173515625,-35.43022537231445,4.141676902770996,-3.8377883434295654
1783153073158062000,1.62706201171875,-33.28984451293945,11.094322204589844,-2.482553482055664
1783153073167773000,1.63677294921875,-26.34228515625,14.220844268798828,-0.981655478477478
1783153073177483500,1.6464833984375,-16.849658966064453,12.147762298583984,-2.676671266555786
1783153073187194400,1.6561943359375,-6.921239376068115,12.133405685424805,-2.365305185317993
1783153073196905000,1.665905029296875,5.113760948181152,9.981060981750488,-5.022833824157715
1783153073206615600,1.675615478515625,18.080167770385742,9.20997428894043,-6.555137634277344
1783153073216326400,1.685326416015625,26.78286361694336,9.231510162353516,-1.5753746032714844
1783153073226037000,1.695037109375,28.324440002441406,13.194024085998535,10.799705505371094
1783153073235747600,1.70474755859375,20.697017669677734,22.473390579223633,32.81337356567383
1783153073245458400,1.71445849609375,19.35614013671875,30.378677368164062,60.699928283691406
1783153073255169000,1.7241689453125,10.421640396118164,38.161930084228516,78.23184204101562
1783153073264879600,1.733879638671875,20.890836715698242,21.870100021362305,78.44031524658203
1783153073274590500,1.743590576171875,51.64309310913086,4.764110088348389,77.1090087890625
1783153073284301000,1.753301025390625,71.12874603271484,-7.146463871002197,62.315982818603516
1783153073294012000,1.763011962890625,78.3804931640625,-10.062417030334473,48.28895568847656
1783153073303722500,1.772722412109375,76.4674301147461,-12.602398872375488,37.3265380859375
1783153073313433000,1.78243310546875,63.33113479614258,-14.239986419677734,27.400510787963867
1783153073323144000,1.79214404296875,51.47080993652344,-6.320342063903809,30.065217971801758
1783153073332854500,1.8018544921875,30.757043838500977,3.2919256687164307,39.672698974609375
1783153073342565000,1.811565185546875,12.406187057495117,10.957931518554688,39.370906829833984
1783153073352276000,1.82127587890625,-0.26081767678260803,18.37957000732422,33.45524978637695
1783153073361986600,1.830986572265625,-8.446364402770996,23.981765747070312,29.808887481689453
1783153073371697400,1.840697509765625,-1.7620147466659546,20.630020141601562,23.026432037353516
1783153073381408000,1.850407958984375,9.75344467163086,12.875479698181152,15.176178932189941
1783153073391118600,1.86011865234375,19.588542938232422,2.6407787799835205,3.1244282722473145
1783153073400829400,1.869829345703125,23.141286849975586,-4.824229717254639,-9.669695854187012
1783153073410540000,1.8795400390625,18.195022583007812,-8.499007225036621,-19.47368812561035
1783153073420251000,1.8892509765625,6.62931489944458,-10.004989624023438,-26.90011215209961
1783153073429961500,1.89896142578125,-7.591827869415283,-8.458329200744629,-29.059635162353516
1783153073439672000,1.908672119140625,-18.30539321899414,-6.567101955413818,-23.98894500732422
1783153073449383000,1.9183828125,-27.0484676361084,-5.650052547454834,-20.273189544677734
1783153073459093500,1.928093505859375,-30.043682098388672,-8.00100040435791,-20.929122924804688
1783153073468804000,1.93780419921875,-18.623638153076172,-12.485150337219238,-27.565616607666016
1783153073478515000,1.947514892578125,-6.916453838348389,-16.45932960510254,-33.73042297363281
1783153073488225500,1.9572255859375,-2.0997018814086914,-14.407783508300781,-33.01945877075195
1783153073497936100,1.96693603515625,-9.147761344909668,-9.940383911132812,-22.111774444580078
1783153073507647000,1.97664697265625,-17.625232696533203,-6.294020652770996,-11.676076889038086
1783153073517357000,1.986357177734375,-22.075881958007812,-4.405186653137207,-7.182356357574463
1783153073527067400,1.9960673828125,-24.601806640625,-3.01405930519104,-5.539982795715332
1783153073536778000,2.005778076171875,-23.703899383544922,-1.7285152673721313,-5.9662041664123535
1783153073546488800,2.01548876953125,-21.45105743408203,-1.5418751239776611,-6.210271835327148
1783153073556199400,2.025199462890625,-17.448163986206055,-2.26959228515625,-5.822335720062256
1783153073565910300,2.03491015625,-12.568899154663086,-3.411566972732544,-4.242474555969238
1783153073575620900,2.044620849609375,-8.647361755371094,-3.6293137073516846,-0.7564310431480408
1783153073585331500,2.05433154296875,-3.864109516143799,-2.896811008453369,4.4961137771606445
1783153073595042300,2.064042236328125,2.080559253692627,-2.5953152179718018,10.881061553955078
1783153073604753000,2.0737529296875,8.343473434448242,-1.8290138244628906,20.289939880371094
1783153073614463500,2.08346337890625,14.29023551940918,-0.27038896083831787,30.232715606689453
1783153073624174300,2.09317431640625,21.898813247680664,0.08135596662759781,37.81228256225586
1783153073633885000,2.102885009765625,30.460033416748047,-1.2185449600219727,43.25415802001953
1783153073643595500,2.112595458984375,43.496131896972656,-5.1544389724731445,44.19034957885742
1783153073653306400,2.122306396484375,53.678192138671875,-8.762516975402832,39.53361892700195
1783153073663017000,2.132016845703125,51.283870697021484,-9.885348320007324,29.6126766204834
1783153073672727600,2.1417275390625,36.87638854980469,-8.257331848144531,16.7802677154541
1783153073682438400,2.1514384765625,15.731612205505371,-6.0523457527160645,6.002096652984619
1783153073692149000,2.16114892578125,-2.5450658798217773,-2.049452543258667,-2.769991397857666
1783153073701859800,2.17085986328125,-17.110477447509766,2.738884687423706,-8.3267240524292
1783153073711570400,2.1805703125,-24.85066032409668,12.042179107666016,-13.706088066101074
1783153073721281000,2.190281005859375,-32.50469970703125,23.10539436340332,-20.067407608032227
1783153073730991900,2.199991943359375,-40.48895263671875,19.748863220214844,-24.10140609741211
1783153073740702500,2.209702392578125,-29.6126766204834,0.038285162299871445,-26.260929107666016
1783153073750413000,2.2194130859375,-10.048060417175293,-9.463912963867188,-38.561832427978516
1783153073760124000,2.2291240234375,-5.075475692749023,-7.194320201873779,-41.19034957885742
1783153073769834500,2.23883447265625,-4.436293125152588,-4.845765113830566,-31.52304458618164
1783153073779545300,2.24854541015625,-10.47188949584961,-2.104487419128418,-17.912670135498047
1783153073789256000,2.258255859375,-17.726030349731445,2.159522533416748,-7.878966808319092
1783153073798966500,2.267966552734375,-22.662424087524414,5.164010524749756,-3.1268210411071777
1783153073808677400,2.277677490234375,-20.641983032226562,6.018846035003662,-5.3557353019714355
1783153073818388000,2.287387939453125,-18.029918670654297,6.066702842712402,-9.983454704284668
1783153073828098800,2.297098876953125,-12.928121566772461,5.341378211975098,-14.745171546936035
1783153073837809400,2.306809326171875,-6.02602481842041,4.862514495849609,-21.78874397277832
1783153073847520000,2.31652001953125,-3.445066452026367,5.3940205574035645,-25.296024322509766
1783153073857230800,2.32623095703125,-6.775277137756348,6.272485256195068,-17.795421600341797
1783153073866941400,2.33594140625,-16.67498207092285,3.5958142280578613,-6.880561351776123
1783153073876652000,2.345652099609375,-19.88286018371582,6.983452796936035,15.590435981750488
1783153073886363000,2.35536279296875,-8.989834785461426,7.682755470275879,50.726043701171875
1783153073896073500,2.365073486328125,22.325035095214844,-8.266902923583984,76.28797149658203
1783153073905784000,2.3747841796875,64.02296447753906,-22.6480655670166,78.43313598632812
1783153073915495000,2.384494873046875,78.33502960205078,-26.6366024017334,78.3685302734375
1783153073925205500,2.39420556640625,78.42595672607422,-14.996716499328613,61.61936950683594
1783153073934916400,2.403916259765625,78.42595672607422,-4.584648132324219,38.5044059753418
1783153073944627000,2.413626953125,57.760047912597656,-3.119642496109009,22.84457778930664
1783153073954337500,2.423337646484375,32.5142707824707,-4.819443702697754,14.362319946289062
1783153073964048400,2.43304833984375,12.688838958740234,2.049452543258667,24.15883445739746
1783153073973759000,2.442759033203125,7.613363265991211,11.335997581481934,41.92793655395508
1783153073983469600,2.452469482421875,18.209381103515625,17.65873146057129,58.48537063598633
1783153073993180400,2.462180419921875,36.890743255615234,18.808183670043945,67.76264190673828
1783153074002891000,2.47189111328125,51.367919921875,15.391532897949219,59.874107360839844
1783153074012601900,2.481601806640625,53.67101287841797,12.150155067443848,42.72026062011719
1783153074022312400,2.4913125,45.31796646118164,10.04566764831543,27.903303146362305
1783153074032023000,2.50102294921875,30.25185775756836,9.559625625610352,17.49601936340332
1783153074041734000,2.51073388671875,15.035001754760742,9.294022560119629,10.639387130737305
1783153074051444500,2.520444580078125,0.9505487680435181,8.499007225036621,4.266402721405029
1783153074061155300,2.5301552734375,-10.47188949584961,6.873383045196533,-2.604886531829834
1783153074070866000,2.539865966796875,-19.660327911376953,5.446662425994873,-10.818848609924316
1783153074080576500,2.549576416015625,-28.781768798828125,0.23688943684101105,-18.868003845214844
1783153074090287400,2.559287353515625,-33.61796188354492,-6.143272876739502,-25.118955612182617
1783153074099998000,2.568998046875,-33.10559844970703,-12.573684692382812,-31.645078659057617
1783153074109708500,2.57870849609375,-30.716365814208984,-16.401901245117188,-35.06861114501953
1783153074119419400,2.58841943359375,-29.53610610961914,-15.820146560668945,-35.243587493896484
1783153074129130000,2.5981298828125,-32.37309646606445,-14.455639839172363,-32.2100830078125
1783153074138840800,2.6078408203125,-36.3759880065918,-11.417353630065918,-26.689544677734375
1783153074148551400,2.617551513671875,-39.23451614379883,-7.093822002410889,-20.364116668701172
1783153074158262000,2.627261962890625,-37.826637268066406,-3.6364922523498535,-15.52822208404541
1783153074167972900,2.636972900390625,-32.26512145996094,-2.0542383193969727,-11.008180618286133
1783153074177683500,2.646683349609375,-23.58904457092285,-2.1164517402648926,-5.8749775886535645
1783153074187394000,2.65639404296875,-14.654244422912598,-1.8385851383209229,-0.7372884750366211
1783153074197105000,2.66610498046875,-3.253640651702881,-1.5490535497665405,5.01086950302124
1783153074206815500,2.6758154296875,18.43699836730957,0.2273181527853012,25.956741333007812
1783153074216526000,2.685526123046875,44.22385025024414,14.424532890319824,67.1019287109375
1783153074226237000,2.69523681640625,64.64539337158203,28.83201789855957,78.39006805419922
1783153074235947500,2.704947509765625,56.62285614013672,23.61775779724121,78.44031524658203
1783153074245658400,2.714658447265625,40.11537170410156,9.624231338500977,76.19464874267578
1783153074255369000,2.724368896484375,22.406391143798828,-2.590529680252075,39.387657165527344
1783153074265079600,2.73407958984375,9.18843936920166,-8.94676399230957,9.040083885192871
1783153074274790400,2.743790283203125,4.036392688751221,-8.772088050842285,0.44297128915786743
1783153074284501000,2.7535009765625,1.8649061918258667,-8.891729354858398,-2.324627161026001
1783153074294211800,2.7632119140625,-0.15314064919948578,-10.189236640930176,-7.244569778442383
1783153074303922400,2.77292236328125,-5.221437931060791,-9.305986404418945,-9.830313682556152
1783153074313633000,2.782633056640625,-13.002299308776855,-7.969893932342529,-14.189737319946289
1783153074323344000,2.79234375,-20.68744659423828,-9.1716890335083,-18.42024803161621
1783153074333054500,2.802054443359375,-23.321046829223633,-12.102298736572266,-23.364118576049805
1783153074342765000,2.81176513671875,-24.08944320678711,-16.318153381347656,-27.865018844604492
1783153074352476000,2.821475830078125,-28.575984954833984,-18.02513313293457,-32.25794219970703
1783153074362186500,2.8311865234375,-50.2977294921875,-15.509079933166504,-32.17179870605469
1783153074371897300,2.8408974609375,-67.90382385253906,-13.82363510131836,-28.11387062072754
1783153074381608000,2.85060791015625,-67.1330337524414,-13.512269020080566,-19.705791473388672
1783153074391318500,2.860318603515625,-59.06473159790039,-12.058928489685059,-17.00279998779297
1783153074401029400,2.870029296875,-38.078182220458984,-12.43250846862793,-20.548664093017578
1783153074410740000,2.879739990234375,-22.365713119506836,-11.841181755065918,-14.855240821838379
1783153074420450600,2.889450439453125,-4.709074974060059,-11.886645317077637,-13.830814361572266
1783153074430161400,2.899161376953125,5.405984401702881,-12.236296653747559,-9.183652877807617
1783153074439872000,2.9088720703125,15.683755874633789,-10.383355140686035,-4.687539577484131
1783153074449582800,2.918582763671875,23.43111801147461,-9.988240242004395,-2.3533411026000977
1783153074459293400,2.92829345703125,21.767208099365234,-10.043274879455566,-3.835395574569702
1783153074469004000,2.938004150390625,14.479568481445312,-8.903693199157715,-6.7896342277526855
1783153074478715000,2.94771484375,2.643171787261963,-3.8712878227233887,-4.29033088684082
1783153074488425500,2.957425537109375,-0.6774678826332092,3.2057840824127197,12.789338111877441
1783153074498136300,2.96713623046875,13.82363510131836,8.439186096191406,36.792640686035156
1783153074507847000,2.976846923828125,41.551963806152344,10.457531929016113,46.54847717285156
1783153074517557500,2.9865576171875,61.63372802734375,5.097011566162109,42.50729751586914
1783153074527268400,2.996268310546875,73.41509246826172,-0.44297128915786743,36.325740814208984
1783153074536979000,3.00597900390625,73.14679718017578,-2.324627161026001,34.9011116027832
1783153074546689500,3.015689453125,62.9479866027832,-0.019142581149935722,38.6312255859375
1783153074556400400,3.025400390625,50.33123016357422,3.7037904262542725,41.92075729370117
1783153074566111000,3.035111083984375,39.308692932128906,5.896812438964844,39.694236755371094
1783153074575821600,3.044821533203125,33.8117790222168,5.678766250610352,34.25475311279297
1783153074585532400,3.054532470703125,34.343284606933594,3.624528169631958,31.532617568969727
1783153074595243000,3.064242919921875,41.29593276977539,1.628016710281372,32.93331527709961
1783153074604953900,3.073953857421875,52.04299545288086,0.39511483907699585,38.67668914794922
1783153074614664400,3.08366455078125,57.874900817871094,1.0821540355682373,43.189552307128906
1783153074624375000,3.093375,52.9310302734375,1.6064813137054443,38.52593994140625
1783153074634086000,3.1030859375,41.33660888671875,1.6328023672103882,28.769804000854492
1783153074643796500,3.11279638671875,29.277381896972656,1.6567305326461792,18.48006820678711
1783153074653507000,3.122507080078125,18.70020866394043,-0.31375887989997864,8.987442016601562
1783153074663218000,3.132218017578125,11.292926788330078,-2.949453115463257,-0.8955138921737671
1783153074672928500,3.141928466796875,5.13529634475708,-4.788337230682373,-8.726624488830566
1783153074682639400,3.151639404296875,-2.42512583732605,-5.863013744354248,-13.409378051757812
1783153074692350000,3.161349853515625,-15.417853355407715,-4.9175496101379395,-15.432509422302246
1783153074702060500,3.171060546875,-30.42414093017578,-4.924727916717529,-15.547365188598633
1783153074711771400,3.180771484375,-37.2640266418457,-3.749253988265991,-14.094024658203125
1783153074721482000,3.19048193359375,-36.13401412963867,-5.231009483337402,-10.639387130737305
1783153074731192800,3.20019287109375,-29.394630432128906,-5.982954025268555,-7.6636128425598145
1783153074740903400,3.2099033203125,-20.594127655029297,-6.10259485244751,-7.917252063751221
1783153074750614000,3.219614013671875,-14.72363567352295,-5.233402252197266,-9.667302131652832
1783153074760324900,3.229324951171875,-12.597613334655762,-3.222533941268921,-11.321640014648438
1783153074770035500,3.239035400390625,-12.509078979492188,-1.4318052530288696,-11.977572441101074
1783153074779746000,3.24874609375,-12.825230598449707,0.2679961323738098,-10.13180923461914
1783153074789457000,3.258456787109375,-11.979965209960938,2.0303099155426025,-6.384948253631592
1783153074799167500,3.26816748046875,-9.425627708435059,3.421138286590576,-2.7819554805755615
1783153074808878300,3.27787841796875,-5.738586902618408,3.699004650115967,-0.675075113773346
1783153074818589000,3.2875888671875,-1.470090389251709,3.4785659313201904,1.1874382495880127
1783153074828299500,3.297299560546875,3.4019956588745117,3.4091739654541016,3.0738797187805176
1783153074838010400,3.30701025390625,6.631708145141602,3.1962127685546875,3.9646079540252686
1783153074847721000,3.316720947265625,7.392924785614014,3.028416156768799,3.8306100368499756
1783153074857431600,3.326431640625,7.445566654205322,2.8824539184570312,2.26959228515625
1783153074867142400,3.336142333984375,9.497411727905273,1.9848463535308838,1.0462616682052612
1783153074876853000,3.34585302734375,14.639886856079102,1.220937728881836,2.482553482055664
1783153074886563600,3.3555634765625,20.129619598388672,1.1515458822250366,7.330711364746094
1783153074896274400,3.3652744140625,27.8961238861084,0.9984052777290344,14.67099380493164
1783153074905985000,3.374985107421875,34.47249984741211,3.0667014122009277,24.46780776977539
1783153074915695900,3.38469580078125,45.00181579589844,5.168796062469482,36.119659423828125
1783153074925406500,3.394406494140625,49.44050216674805,4.78594446182251,37.4342155456543
1783153074935117300,3.404117431640625,38.04228973388672,0.9314061999320984,23.388046264648438
1783153074944828000,3.413827880859375,23.493330001831055,-3.0738797187805176,7.435995578765869
1783153074954538500,3.42353857421875,10.292128562927246,-3.6221351623535156,-1.043868899345398
1783153074964249300,3.433249267578125,3.0571300983428955,-2.2432711124420166,-1.316650629043579
1783153074973960000,3.4429599609375,-0.4668995141983032,-3.828217029571533,-0.0526420995593071
1783153074983670500,3.45267041015625,-5.755336761474609,-4.53200626373291,-1.0079765319824219
1783153074993381400,3.46238134765625,-14.235200881958008,-5.432305812835693,-5.022833824157715
1783153075003092000,3.472092041015625,-20.42633056640625,-7.5774712562561035,-8.19272518157959
1783153075012802600,3.481802490234375,-21.317058563232422,-10.924132347106934,-9.291629791259766
1783153075022513400,3.491513427734375,-26.368606567382812,-16.2415828704834,-5.097011566162109
1783153075032224000,3.50122412109375,-47.81009292602539,-14.525032043457031,-7.311568737030029
1783153075041934800,3.510934814453125,-59.04319763183594,-15.635899543762207,-11.350354194641113
1783153075051645400,3.5206455078125,-64.50900268554688,-11.379068374633789,-9.28445053100586
1783153075061356000,3.53035595703125,-58.17669677734375,-9.420842170715332,-7.215855598449707
1783153075071067000,3.54006689453125,-44.740997314453125,-10.3016996383667,-4.7931227684021
1783153075080777500,3.549777587890625,-26.82354164123535,-11.644970893859863,-2.5088746547698975
1783153075090488000,3.559488037109375,-12.243474960327148,-11.953644752502441,-1.0055837631225586
1783153075100199000,3.569198974609375,-3.0786654949188232,-10.424033164978027,1.4820544719696045
1783153075109909500,3.578909423828125,3.421138286590576,-8.321938514709473,1.6256239414215088
1783153075119620400,3.588620361328125,6.061916828155518,-6.057131290435791,0.15074782073497772
1783153075129331000,3.5983310546875,6.844669342041016,-4.122534275054932,-1.8649061918258667
1783153075139041500,3.60804150390625,4.242474555969238,-3.19860577583313,-3.801896095275879
1783153075148752400,3.61775244140625,-0.9649057388305664,-0.890728235244751,-2.6623141765594482
1783153075158463000,3.627462890625,2.4993033409118652,1.1922239065170288,11.55404281616211
1783153075168173800,3.637173828125,15.415460586547852,2.8752756118774414,33.23480987548828
1783153075177884400,3.646884521484375,30.507890701293945,4.417150497436523,51.415775299072266
1783153075187595000,3.656594970703125,56.055458068847656,0.5889334678649902,55.94538879394531
1783153075197305900,3.666305908203125,65.12904357910156,-5.678766250610352,48.432525634765625
1783153075207016400,3.676016357421875,73.25476837158203,-6.090631008148193,44.863033294677734
1783153075216727000,3.68572705078125,78.39006805419922,-2.3988046646118164,56.10331726074219
1783153075226438000,3.69543798828125,78.42595672607422,2.8202404975891113,65.59355163574219
1783153075236148500,3.7051484375,77.88966369628906,7.0292158126831055,68.59564208984375
1783153075245859300,3.714859375,65.70122528076172,11.09910774230957,64.94718933105469
1783153075255570000,3.72456982421875,45.42325210571289,14.036596298217773,55.42345428466797
1783153075265280500,3.734280517578125,33.69692611694336,15.116357803344727,48.140602111816406
1783153075274991400,3.743991455078125,30.9412899017334,9.576375007629395,34.872398376464844
1783153075284702000,3.753701904296875,37.391143798828125,0.9864411354064941,17.632410049438477
1783153075294412500,3.76341259765625,47.333621978759766,-6.768098831176758,2.99013090133667
1783153075304123400,3.773123291015625,50.74040222167969,-10.028918266296387,-2.949453115463257
1783153075313834000,3.782833984375,41.92075729370117,-9.353842735290527,-2.3700907230377197
1783153075323544800,3.792544921875,23.936302185058594,-7.366603374481201,-3.2105698585510254
1783153075333255400,3.80225537109375,4.5583271980285645,-4.955834865570068,-5.90877628326416
1783153075342966000,3.811966064453125,-11.740683555603027,-3.2177481651306152,-10.115059852600098
1783153075352676900,3.8216767578125,-23.644079208374023,-3.928715705871582,-14.807384490966797
1783153075362387500,3.831387451171875,-33.01227951049805,-7.206284523010254,-17.11795425415039
1783153075372098300,3.841098388671875,-40.5104866027832,-10.481460571289062,-18.408283233642578
1783153075381809000,3.850808837890625,-51.700523376464844,-15.628721237182617,-23.98655128479004
1783153075391519500,3.86051953125,-55.72734451293945,-19.059431076049805,-31.558937072753906
1783153075401230300,3.870230224609375,-50.95844650268555,-19.353748321533203,-32.57648468017578
1783153075410941000,3.87994091796875,-42.32514572143555,-17.251951217651367,-30.084360122680664
1783153075420651500,3.889651611328125,-33.344879150390625,-15.956538200378418,-25.767709732055664
1783153075430362400,3.8993623046875,-22.66720962524414,-15.791433334350586,-22.8134708404541
1783153075440073000,3.909072998046875,-13.25145149230957,-16.01665687561035,-20.98176383972168
1783153075449783800,3.91878369140625,-6.116951942443848,-16.33011817932129,-17.723636627197266
1783153075459494400,3.928494384765625,-1.3692927360534668,-16.389938354492188,-11.948859214782715
1783153075469205000,3.938205078125,-0.12442677468061447,-15.415460586547852,-3.7133617401123047
1783153075478915800,3.947915771484375,-0.9290133714675903,-13.995918273925781,3.73250412940979
1783153075488626400,3.95762646484375,-2.566601276397705,-12.051750183105469,9.89013385772705
1783153075498337000,3.9673369140625,-1.3070793151855469,-9.595518112182617,14.991930961608887
1783153075508048000,3.9770478515625,5.429912567138672,-6.579065799713135,24.64487648010254
1783153075517758500,3.986758544921875,19.15275001525879,2.6503500938415527,48.75346374511719
1783153075527469300,3.99646923828125,31.386653900146484,16.102798461914062,68.88069152832031
1783153075537180000,4.006179931640625,47.257049560546875,16.92383575439453,75.62725067138672
1783153075546890500,4.015890380859375,59.25885009765625,13.495519638061523,63.120269775390625
1783153075556601300,4.025601318359375,60.199527740478516,8.190332412719727,35.97369384765625
1783153075566312000,4.03531201171875,53.49125289916992,5.06590461730957,18.9326114654541
1783153075576022800,4.045022705078125,38.545082092285156,5.175974369049072,15.958930969238281
1783153075585733400,4.0547333984375,20.431116104125977,4.627718925476074,11.125429153442383
1783153075595444000,4.06444384765625,3.586242914199829,2.4681966304779053,2.063809633255005
1783153075605154800,4.07415478515625,-7.409674644470215,1.2281162738800049,-8.307580947875977
1783153075614865400,4.083865478515625,-10.26341438293457,0.2105683982372284,-17.306987762451172
1783153075624576300,4.093576171875,-9.016156196594238,-0.7588238716125488,-21.137596130371094
1783153075634286800,4.103286865234375,-2.7891337871551514,-1.5035899877548218,-20.76641082763672
1783153075643997400,4.11299755859375,-2.913560628890991,-6.67717170715332,-19.906789779663086
1783153075653708300,4.122708251953125,-16.887943267822266,-16.820945739746094,-14.57767391204834
1783153075663419000,4.1324189453125,-48.88745880126953,-23.536401748657227,-14.757135391235352
1783153075673129500,4.14212939453125,-72.78069305419922,-23.91237449645996,-23.280071258544922
1783153075682840300,4.15184033203125,-73.68547821044922,-20.47418785095215,-26.756542205810547
1783153075692551000,4.161551025390625,-64.70043182373047,-15.12592887878418,-20.19183349609375
1783153075702261800,4.17126171875,-44.69314193725586,-9.976275444030762,-14.379069328308105
1783153075711972400,4.180972412109375,-27.467510223388672,-8.489435195922852,-14.7810640335083
1783153075721683000,4.190682861328125,-14.213665962219238,-6.914061069488525,-15.89432430267334
1783153075731393800,4.200393798828125,-5.9901323318481445,-3.8138601779937744,-9.26291561126709
1783153075741104400,4.2101044921875,0.7516453862190247,-0.6678966283798218,6.270092487335205
1783153075750815200,4.219815185546875,6.308377742767334,2.557030200958252,19.902002334594727
1783153075760525800,4.22952587890625,6.81595516204834,2.2887349128723145,13.16979694366455
1783153075770236400,4.239236328125,3.864109516143799,-2.36291241645813,-1.2999008893966675
1783153075779947300,4.248947265625,0.062213387340307236,-7.11775016784668,-15.50668716430664
1783153075789657900,4.258657958984375,3.380460262298584,-11.34796142578125,-8.448758125305176
1783153075799368400,4.268368408203125,14.287842750549316,-10.799705505371094,27.42683219909668
1783153075809079300,4.278079345703125,26.67997169494629,2.245664119720459,64.89215087890625
1783153075818790000,4.287789794921875,43.716270446777344,5.836692810058594,78.24140930175781
1783153075828500700,4.297500732421875,48.98795700073242,-0.7947162389755249,78.44031524658203
1783153075838211300,4.30721142578125,55.64120101928711,1.2089736461639404,78.44031524658203
1783153075847922000,4.316921875,61.731834411621094,0.6272186636924744,73.48926544189453
1783153075857632800,4.3266328125,75.60810852050781,-0.6367899179458618,65.85197448730469
1783153075867343400,4.33634326171875,75.1292495727539,0.9314061999320984,58.992950439453125
1783153075877054200,4.34605419921875,61.2242546081543,2.0757737159729004,49.49553680419922
1783153075886764800,4.355764892578125,48.32245635986328,9.707980155944824,48.193241119384766
1783153075896475400,4.365475341796875,33.06492233276367,18.218952178955078,52.212886810302734
1783153075906186200,4.375186279296875,25.717458724975586,20.862123489379883,50.6399040222168
1783153075915896800,4.384896728515625,34.331321716308594,14.015061378479004,39.52643966674805
1783153075925607700,4.394607666015625,47.57080841064453,3.91914439201355,21.573091506958008
1783153075935318300,4.404318359375,60.63532257080078,-5.867799282073975,1.4916257858276367
1783153075945028900,4.41402880859375,62.98866271972656,-11.103893280029297,-10.555638313293457
1783153075954739700,4.42373974609375,52.76114273071289,-10.18445110321045,-11.78853988647461
1783153075964450300,4.4334501953125,31.633115768432617,-7.694719314575195,-7.998608112335205
1783153075974161000,4.443160888671875,8.589934349060059,-4.000500202178955,-3.9478583335876465
1783153075983871700,4.452871826171875,-14.26870059967041,-3.418745279312134,-2.0757737159729004
1783153075993582300,4.462582275390625,-32.803802490234375,-8.891729354858398,-8.087141990661621
1783153076003293200,4.472293212890625,-48.06642150878906,-15.949358940124512,-15.925431251525879
1783153076013003800,4.482003662109375,-54.23601531982422,-22.439889907836914,-25.777280807495117
1783153076022714400,4.49171435546875,-60.10860061645508,-31.781768798828125,-39.191444396972656
1783153076032425200,4.50142529296875,-59.4909553527832,-36.9027099609375,-43.49374008178711
1783153076042135800,4.5111357421875,-53.6279411315918,-34.42464065551758,-39.69902038574219
1783153076051846700,4.5208466796875,-43.96990966796875,-28.21676254272461,-32.533416748046875
1783153076061557200,4.53055712890625,-31.99712371826172,-21.953847885131836,-24.311975479125977
1783153076071267800,4.540267822265625,-23.768505096435547,-16.964513778686523,-17.448163986206055
1783153076080978700,4.549978759765625,-23.433509826660156,-12.937692642211914,-11.688041687011719
1783153076090689300,4.559689208984375,-21.793529510498047,-11.963215827941895,-10.632207870483398
1783153076100400000,4.569400146484375,-14.877076148986816,-13.646267890930176,-15.039787292480469
1783153076110110700,4.57911083984375,-5.547161102294922,-15.298212051391602,-17.302202224731445
1783153076119821300,4.5888212890625,2.6024937629699707,-14.230415344238281,-10.261021614074707
1783153076129532200,4.5985322265625,7.45992374420166,-9.332307815551758,5.604588985443115
1783153076139242800,4.60824267578125,11.20917797088623,-3.098107099533081,18.25992774963379
1783153076148953600,4.61795361328125,12.466008186340332,1.2999008893966675,21.870100021362305
1783153076158664200,4.627664306640625,21.664316177368164,3.524029493331909,29.839994430541992
1783153076168374800,4.637374755859375,34.944183349609375,11.501102447509766,49.09324264526367
1783153076178085600,4.647085693359375,52.502716064453125,22.652851104736328,76.97979736328125
1783153076187796200,4.656796142578125,69.98198699951172,25.099811553955078,78.43553161621094
1783153076197506800,4.6665068359375,68.75626373291016,13.086048126220703,78.44031524658203
1783153076207217700,4.6762177734375,49.71118927001953,-0.9266205430030823,48.13103103637695
1783153076216928300,4.68592822265625,25.908885955810547,-5.173581600189209,21.74567222595215
1783153076226639000,4.69563916015625,12.600006103515625,-2.4921247959136963,20.10569190979004
1783153076236349700,4.705349609375,4.096213340759277,-3.5503506660461426,19.480867385864258
1783153076246060500,4.715060546875,-4.646861553192139,-5.101797103881836,7.733004570007324
1783153076255771100,4.724771240234375,-14.8408842086792,-5.31475830078125,-6.6915283203125
1783153076265481700,4.734481689453125,-25.209882736206055,-3.507279872894287,-16.26790428161621
1783153076275192600,4.744192626953125,-36.521949768066406,-2.6623141765594482,-20.51755714416504
1783153076284903200,4.753903076171875,-45.46871566772461,-3.9885363578796387,-22.372892379760742
1783153076294613800,4.76361376953125,-46.028934478759766,-7.519744396209717,-23.931516647338867
1783153076304324600,4.77332470703125,-39.53122329711914,-13.198809623718262,-25.66720962524414
1783153076314035200,4.78303515625,-41.595035552978516,-13.629517555236816,-27.73311424255371
1783153076323746000,4.79274609375,-55.78716278076172,-12.657732963562012,-26.524139404296875
1783153076333456600,4.80245654296875,-65.46434020996094,-8.379365921020508,-16.749160766601562
1783153076343167200,4.812167236328125,-60.99932861328125,-3.677469253540039,-4.915156841278076
1783153076352878000,4.821878173828125,-43.950767517089844,-1.4581263065338135,0.14117653667926788
1783153076362588700,4.831588623046875,-29.011777877807617,-2.1260228157043457,-3.02123761177063
1783153076372299500,4.841299560546875,-19.368404388427734,-3.0933215618133545,-9.578767776489258
1783153076382010000,4.851010009765625,-12.355937957763672,-4.316651821136475,-12.54736328125
1783153076391720700,4.860720703125,-5.6548380851745605,-5.721837043762207,-10.603494644165039
1783153076401431600,4.870431640625,-0.30658039450645447,-6.914061069488525,-6.329913139343262
1783153076411142100,4.88014208984375,2.458625316619873,-6.540780544281006,-2.4155545234680176
1783153076420853000,4.88985302734375,4.029214382171631,-7.074679374694824,-0.8715856671333313
1783153076430563600,4.8995634765625,4.716253280639648,-6.085845470428467,2.8058836460113525
1783153076440274200,4.909274169921875,5.726622581481934,-3.4737801551818848,7.491030216217041
1783153076449985000,4.918985107421875,10.203594207763672,-0.6774678826332092,13.50748348236084
1783153076459695600,4.928695556640625,16.820945739746094,-1.2185449600219727,20.103300094604492
1783153076469406500,4.938406494140625,31.42494010925293,-5.762515068054199,30.44089126586914
1783153076479117000,4.948116943359375,54.85127258300781,-8.568398475646973,48.9113883972168
1783153076488827600,4.95782763671875,64.9615478515625,-10.646565437316895,70.67620086669922
1783153076498538500,4.96753857421875,73.54190826416016,-11.601900100708008,74.88966369628906
1783153076508249000,4.9772490234375,70.27630615234375,-11.051251411437988,68.00910186767578
1783153076517959700,4.986959716796875,67.73393249511719,-8.333902359008789,62.37819290161133
1783153076527670500,4.99667041015625,66.81209564208984,-5.886941909790039,59.78557205200195
1783153076537381000,5.006381103515625,57.822261810302734,-4.737788677215576,53.70450973510742
1783153076547092000,5.016092041015625,52.454559326171875,-2.149951219558716,54.45615768432617
1783153076556802600,5.025802490234375,50.089256286621094,2.5833511352539062,53.91508102416992
1783153076566513400,5.035513427734375,48.348777770996094,3.5024940967559814,46.88376998901367
1783153076576224000,5.04522412109375,47.407798767089844,3.490530014038086,39.27519226074219
1783153076585934600,5.0549345703125,45.705604553222656,1.2903295755386353,29.289344787597656
1783153076605356000,5.07435595703125,36.23959732055664,-3.660719633102417,9.147761344909668
1783153076615066600,5.084066650390625,30.215965270996094,-3.8856449127197266,0.859621524810791
1783153076624777500,5.093777587890625,20.754446029663086,-2.475374937057495,-4.395615100860596
1783153076634488000,5.103488037109375,8.910871505737305,-1.1324033737182617,-8.247760772705078
1783153076644199000,5.113198974609375,-4.264009952545166,-0.6966105103492737,-11.376675605773926
1783153076653909500,5.122909423828125,-18.84646987915039,-4.503292083740234,-17.74517250061035
1783153076663620000,5.1326201171875,-32.85913848876953,-11.683255195617676,-26.991039276123047
1783153076673331000,5.1423310546875,-46.012184143066406,-18.218952178955078,-37.903507232666016
1783153076683041500,5.15204150390625,-59.191551208496094,-23.05035972595215,-40.85774612426758
1783153076692752400,5.16175244140625,-69.53423309326172,-23.158037185668945,-35.530723571777344
1783153076702463000,5.171462890625,-77.53523254394531,-19.483259201049805,-32.45206069946289
1783153076712173800,5.181173828125,-78.41638946533203,-12.451650619506836,-22.530818939208984
1783153076721884400,5.190884521484375,-70.33612060546875,-8.848658561706543,-18.137596130371094
1783153076731595000,5.200594970703125,-53.18497085571289,-8.489435195922852,-15.707684516906738
1783153076741305900,5.210305908203125,-35.25315856933594,-11.802896499633789,-14.17538070678711
1783153076751016400,5.220016357421875,-17.857635498046875,-12.846765518188477,-8.386544227600098
1783153076760727000,5.22972705078125,-0.04307080805301666,-12.636197090148926,-1.9007984399795532
1783153076770438000,5.23943798828125,15.437294960021973,-14.077274322509766,2.9709885120391846
1783153076780148500,5.2491484375,28.11626434326172,-15.312569618225098,6.626922130584717
1783153076789859300,5.258859375,35.0087890625,-15.33649730682373,16.155441284179688
1783153076799570000,5.26856982421875,35.83491134643555,-10.486246109008789,39.48097610473633
1783153076809280500,5.278280517578125,41.83461380004883,1.3860424757003784,72.62007141113281
1783153076818991400,5.287991455078125,59.02405548095703,4.225724697113037,78.41638946533203
1783153076828702000,5.297701904296875,74.88009643554688,0.02632104977965355,78.44031524658203
1783153076838412800,5.307412841796875,75.83064270019531,-7.208677291870117,69.44091033935547
1783153076848123400,5.317123291015625,48.95446014404297,-13.576875686645508,30.546175003051758
1783153076857834200,5.326834228515625,25.178775787353516,-12.420543670654297,10.680065155029297
1783153076867544800,5.336544921875,15.66939926147461,-8.80798053741455,12.104691505432129
1783153076877255400,5.34625537109375,6.303592205047607,-5.2716875076293945,14.098810195922852
1783153076886966300,5.35596630859375,-0.3927220106124878,-2.3198416233062744,9.645767211914062
1783153076896676900,5.3656767578125,-4.8792643547058105,-1.5634105205535889,0.3807578980922699
1783153076906387500,5.375387451171875,-11.853145599365234,-0.521934449672699,-9.418449401855469
1783153076916098300,5.385098388671875,-15.717255592346191,-2.118844509124756,-15.75554084777832
1783153076925809000,5.394808837890625,-23.44308090209961,-6.136094570159912,-23.1676082611084
1783153076935519700,5.404519775390625,-41.13531494140625,-9.595518112182617,-27.34069061279297
1783153076945230300,5.414230224609375,-51.288658142089844,-12.288938522338867,-24.8482666015625
1783153076954941000,5.42394091796875,-58.03043746948242,-14.01266860961914,-20.45504379272461
1783153076964651800,5.43365185546875,-63.355064392089844,-12.154940605163574,-16.670196533203125
1783153076974362400,5.4433623046875,-69.20372009277344,-9.48784065246582,-2.8058836460113525
1783153076984073200,5.4530732421875,-59.869319915771484,-4.718646049499512,2.880061149597168
1783153076993783800,5.46278369140625,-44.333919525146484,-2.6383860111236572,7.462316513061523
1783153077003494700,5.47249462890625,-29.84477996826172,-2.348555326461792,8.175975799560547
1783153077013205200,5.482205322265625,-19.468902587890625,-2.966202735900879,4.840979099273682
1783153077022915800,5.491915771484375,-12.140583992004395,-4.433900356292725,0
1783153077032626700,5.501626708984375,-5.209474086761475,-6.08823823928833,-4.225724697113037
1783153077042337300,5.511337158203125,0.3448655605316162,-6.634100914001465,-6.540780544281006
1783153077052048000,5.5210478515625,5.458626747131348,-6.681957244873047,-6.224628925323486
1783153077061758700,5.5307587890625,6.914061069488525,-6.1935224533081055,-3.70139741897583
1783153077071469300,5.54046923828125,10.639387130737305,-4.184747695922852,4.357329845428467
1783153077081180200,5.55018017578125,17.93899154663086,1.2329018115997314,16.45932960510254
1783153077090890800,5.559890869140625,25.796422958374023,3.191427230834961,19.4760799407959
1783153077100601300,5.569601318359375,31.84876823425293,2.3676979541778564,14.565710067749023
1783153077110312200,5.579312255859375,31.666614532470703,2.7173492908477783,7.953144073486328
1783153077120022800,5.589022705078125,26.57438850402832,3.0164520740509033,2.5713870525360107
1783153077129733600,5.598733642578125,18.997217178344727,4.436293125152588,3.0020952224731445
1783153077139444200,5.6084443359375,14.074881553649902,8.898907661437988,11.704791069030762
1783153077149155000,5.618155029296875,20.304296493530273,9.329915046691895,22.47817611694336
1783153077158865700,5.62786572265625,41.240596771240234,6.760920524597168,28.506593704223633
1783153077168576300,5.637576171875,62.43083572387695,4.955834865570068,35.413475036621094
1783153077178287000,5.647287109375,75.91678619384766,3.325425386428833,37.572998046875
1783153077187997700,5.656997802734375,75.8162841796875,1.2352946996688843,35.39912033081055
1783153077197708300,5.666708251953125,72.59136199951172,-0.21774685382843018,35.662628173828125
1783153077207419100,5.676419189453125,65.42605590820312,-0.2584248483181,35.97369384765625
1783153077217129700,5.686129638671875,52.691749572753906,0.7875377535820007,32.82294464111328
1783153077226840600,5.695840576171875,47.00580596923828,2.121237277984619,32.13112258911133
1783153077236551200,5.70555126953125,51.025447845458984,1.695015788078308,32.08087158203125
1783153077246261800,5.71526171875,51.50191879272461,-1.2137593030929565,29.097919464111328
1783153077255972600,5.72497265625,44.72185516357422,-1.4844473600387573,23.498117446899414
1783153077265683200,5.73468310546875,31.62833023071289,-1.6016956567764282,14.010275840759277
1783153077275394000,5.74439404296875,24.05594253540039,-0.29700911045074463,7.079464912414551
1783153077285104600,5.754104736328125,19.894824981689453,1.2376874685287476,3.2512478828430176
1783153077294815500,5.7638154296875,17.517555236816406,2.5785655975341797,1.3094722032546997
1783153077304526000,5.773526123046875,12.51147174835205,2.255235433578491,-1.0031908750534058
1783153077314236700,5.783236572265625,6.861418724060059,1.8577276468276978,-2.36291241645813
1783153077323947500,5.792947509765625,1.225723385810852,1.651944875717163,-3.325425386428833
1783153077333658000,5.802658203125,-7.699504852294922,1.9438693523406982,-3.521636724472046
1783153077343368700,5.81236865234375,-17.228023529052734,1.2735798358917236,-5.776872158050537
1783153077353079600,5.82207958984375,-26.277679443359375,-0.5123631358146667,-8.101499557495117
1783153077362790100,5.8317900390625,-32.387451171875,-2.0925233364105225,-8.276473999023438
1783153077372501000,5.8415009765625,-36.483665466308594,-2.8609185218811035,-7.5652079582214355
1783153077382211600,5.851211669921875,-40.685462951660156,-2.7436702251434326,-5.566303730010986
1783153077391922200,5.860922119140625,-39.68466567993164,-3.7420754432678223,-2.863311290740967
1783153077401633000,5.870633056640625,-34.8819694519043,-4.706682205200195,-1.532303810119629
1783153077411343600,5.880343505859375,-29.531320571899414,-5.542375564575195,-2.214557409286499
1783153077421054500,5.890054443359375,-23.32822608947754,-5.501697540283203,-3.153141975402832
1783153077430765000,5.89976513671875,-15.903895378112793,-5.2956156730651855,-3.81864595413208
1783153077440476000,5.909475830078125,-8.487042427062988,-5.530411243438721,-5.027619361877441
1783153077450186500,5.9191865234375,-1.8457635641098022,-6.078666687011719,-6.598208427429199
1783153077459897000,5.92889697265625,2.825026273727417,-5.56869649887085,-7.074679374694824
1783153077469608000,5.93860791015625,4.967798709869385,-4.244867324829102,-4.596612453460693
1783153077479318500,5.948318603515625,6.447161674499512,-2.2408783435821533,-0.2922234535217285
1783153077489029000,5.958029052734375,7.543672561645508,-0.08374879509210587,4.201497554779053
1783153077498740000,5.967739990234375,7.1871418952941895,1.8194425106048584,6.057131290435791
1783153077508450600,5.977450439453125,5.616552829742432,2.9638099670410156,7.160820960998535
1783153077518161400,5.987161376953125,8.597112655639648,2.9015965461730957,9.205188751220703
1783153077527872000,5.9968720703125,14.309678077697754,1.529910922050476,9.011369705200195
1783153077537582600,6.00658251953125,18.7552433013916,-0.5291129350662231,6.205486297607422
1783153077547293400,6.01629345703125,21.252452850341797,-2.149951219558716,3.253640651702881
1783153077557004000,6.026004150390625,21.83420753479004,-3.3278181552886963,0.6726822853088379
1783153077566715000,6.03571484375,20.04587173461914,-3.239283561706543,0.10049854964017868
1783153077576425500,6.045425537109375,15.803397178649902,-2.724527597427368,0.7468597888946533
1783153077586136300,6.05513623046875,10.890633583068848,-1.5275181531906128,2.183450698852539
1783153077595847000,6.064846923828125,6.160022735595703,-0.038285162299871445,3.2057840824127197
1783153077605557500,6.0745576171875,0.701396107673645,0.9433703422546387,3.1890344619750977
1783153077615268400,6.084268310546875,-3.1100711822509766,1.2544373273849487,2.3820550441741943
1783153077624979000,6.09397900390625,-4.603790760040283,1.1060823202133179,1.036690354347229
1783153077634689500,6.103689453125,-5.278865814208984,0.5195416212081909,-0.11724831163883209
1783153077644400400,6.113400390625,-6.488138675689697,0.24167509377002716,-0.37118661403656006
1783153077654111000,6.123111083984375,-7.292426109313965,1.4724832773208618,0.22971096634864807
1783153077663821800,6.13282177734375,-8.197511672973633,1.1826525926589966,1.048654556274414
1783153077673532400,6.142532470703125,-6.9690961837768555,-0.37118661403656006,-0.5913262963294983
1783153077683243000,6.152242919921875,-5.221437931060791,-0.07417750358581543,-0.5051847100257874
1783153077692953900,6.161953857421875,-4.445864677429199,0.4094717800617218,0.40229329466819763
1783153077702664400,6.17166455078125,-3.6726837158203125,0.6798607110977173,0.646361231803894
1783153077712375300,6.181375244140625,-3.2679975032806396,0.2922234535217285,0.612861692905426
1783153077722086000,6.1910859375,-3.054737091064453,0.4453641176223755,0.40707895159721375
1783153077731796700,6.200796630859375,-1.8242281675338745,0.9912267923355103,-1.074975609779358
1783153077741507300,6.21050732421875,-1.1060823202133179,0.7540382146835327,0.6224330067634583
1783153077751218000,6.220218017578125,-1.1300104856491089,2.214557409286499,1.0414760112762451
1783153077760928800,6.2299287109375,3.193819999694824,1.9848463535308838,-0.7420741319656372
1783153077770639400,6.239639404296875,5.925526142120361,1.1682956218719482,-0.7851449251174927
1783153077780350200,6.24935009765625,8.298009872436523,1.4724832773208618,-1.4318052530288696
1783153077790060800,6.259060791015625,10.088738441467285,2.8465616703033447,-1.3334003686904907
1783153077799771400,6.268771484375,10.524531364440918,5.346164226531982,-0.385543555021286
1783153077809482200,6.278482177734375,10.313663482666016,8.204689979553223,0.23688943684101105
1783153077819192800,6.28819287109375,12.396615982055664,10.912168502807617,0.2560320198535919
1783153077828903400,6.2979033203125,14.814562797546387,13.299307823181152,0.8620143532752991
1783153077838614300,6.3076142578125,20.47418785095215,14.184951782226562,3.91914439201355
1783153077848324900,6.317324951171875,27.532115936279297,16.820945739746094,2.8465616703033447
1783153077858035700,6.32703564453125,28.401309967041016,14.388640403747559,5.12811803817749
1783153077867746300,6.336746337890625,27.00300407409668,11.44845962524414,3.483351469039917
1783153077877457200,6.34645703125,30.819255828857422,11.288141250610352,1.2376874685287476
1783153077887167700,6.356167724609375,30.900611877441406,12.97358512878418,3.5096726417541504
1783153077896878300,6.36587841796875,37.738101959228516,13.397414207458496,9.492626190185547
1783153077906589200,6.375589111328125,40.08187484741211,14.465210914611816,7.450352191925049
1783153077916299800,6.3852998046875,44.70989227294922,13.759029388427734,4.685146808624268
1783153077926010600,6.3950107421875,43.7330207824707,10.67288589477539,9.423234939575195
1783153077935721200,6.40472119140625,39.85455322265625,12.221940040588379,5.947061538696289
1783153077945431800,6.414431884765625,34.2236442565918,14.27587890625,7.105785846710205
1783153077955142700,6.424142578125,25.233810424804688,14.98714542388916,8.15683364868164
1783153077964853200,6.433853271484375,17.33809471130371,15.561721801757812,6.921239376068115
1783153077974563800,6.443563720703125,10.644172668457031,15.032608985900879,4.756931304931641
1783153077984274700,6.453274658203125,5.6859450340271,12.729516983032227,1.0055837631225586
1783153077993985300,6.4629853515625,3.749253988265991,13.708480834960938,1.9510477781295776
1783153078003696000,6.472696044921875,2.669492721557617,12.739089012145996,1.0582258701324463
1783153078013406700,6.48240673828125,3.9861433506011963,10.615458488464355,-0.20099709928035736
1783153078023117600,6.49211767578125,5.370092391967773,7.756932735443115,-1.7404793500900269
1783153078032828200,6.501828125,5.767300605773926,6.004489421844482,-2.0853450298309326
1783153078042538800,6.511538818359375,5.56151819229126,5.492125988006592,-1.596909999847412
1783153078052249600,6.52124951171875,4.393222332000732,5.659623622894287,-1.1563315391540527
1783153078061960200,6.530960205078125,2.580958366394043,4.984548568725586,-1.501197099685669
1783153078071671000,6.540671142578125,0.36640095710754395,3.631706476211548,-2.6886353492736816
1783153078081381600,6.550381591796875,-2.2337000370025635,2.6718854904174805,-4.055535316467285
1783153078091092200,6.56009228515625,-4.156033992767334,2.5088746547698975,-4.886443138122559
1783153078100803000,6.569802978515625,-4.567898273468018,2.5689942836761475,-5.317151069641113
1783153078110513700,6.579513671875,-4.615755081176758,1.9319051504135132,-5.496912002563477
1783153078120224500,6.589224609375,-3.9000017642974854,1.5131611824035645,-5.439484119415283
1783153078129935000,6.59893505859375,-2.5378875732421875,1.4222339391708374,-4.644468784332275
1783153078139645700,6.608645751953125,-0.7588238716125488,2.197807550430298,-2.231307029724121
1783153078149356500,6.6183564453125,1.2472587823867798,2.0614166259765625,-2.0446670055389404
1783153078159067100,6.628067138671875,0.23210379481315613,0.5099703073501587,-1.77397882938385
1783153078168768000,6.63776806640625,0.23210379481315613,0.5099703073501587,-1.77397882938385
1783153078178478600,6.647478515625,0.6367899179458618,2.2265214920043945,0.7253243923187256
1783153078188199200,6.65719921875,0.890728235244751,1.3405789136886597,0.28504499793052673
1783153078197910000,6.666909912109375,0.18903298676013947,0.1818545162677765,-0.5769693851470947
1783153078207620600,6.67662060546875,0.7564310431480408,-0.13160525262355804,-1.1730812788009644
1783153078217331500,6.68633154296875,1.350150227546692,-0.02632104977965355,-0.4980062246322632
1783153078227042000,6.6960419921875,1.8649061918258667,-0.3041875660419464,-0.5027918815612793
1783153078236752600,6.705752685546875,2.525923490524292,-0.5506483316421509,-0.007178467698395252
1783153078246463500,6.71546337890625,2.832204818725586,-0.7612167000770569,0.1052841991186142
1783153078256174000,6.725174072265625,2.8298118114471436,-0.8548358678817749,0.3041875660419464
1783153078265885000,6.734885009765625,2.863311290740967,-0.7707880139350891,0.4621138870716095
1783153078275595500,6.744595458984375,2.3365912437438965,-0.8138588070869446,0.14117653667926788
1783153078285306000,6.75430615234375,1.017547845840454,-0.9098708033561707,-0.2874378263950348
1783153078295017000,6.764016845703125,-0.5075774788856506,-0.9577272534370422,-0.612861692905426
1783153078304727600,6.7737275390625,-1.3022937774658203,-0.8787640929222107,-0.701396107673645
1783153078314438400,6.7834384765625,-1.5753746032714844,-1.0869396924972534,-0.4453641176223755
1783153078324149000,6.79314892578125,-1.5251253843307495,-1.2161520719528198,0.064606212079525
1783153078333859600,6.802859619140625,-0.7755736112594604,-1.0295119285583496,0.7037889361381531
1783153078343570400,6.8125703125,-0.21296121180057526,-0.8476574420928955,1.1228320598602295
1783153078353281000,6.822281005859375,-0.31375887989997864,-0.6774678826332092,1.1635099649429321
1783153078362991900,6.831991943359375,-0.7253243923187256,-0.5985047817230225,1.4222339391708374
1783153078372702500,6.841702392578125,-0.6511468887329102,-0.7205387353897095,1.623231053352356
1783153078382413000,6.8514130859375,0.0526420995593071,-1.1012966632843018,1.280758261680603
1783153078392124000,6.8611240234375,0.8042874932289124,-1.4437693357467651,1.0271191596984863
1783153078401834500,6.87083447265625,1.6136597394943237,-1.3597214221954346,1.1778669357299805
1783153078411545300,6.88054541015625,2.0063817501068115,-1.0917253494262695,-0.33529427647590637
1783153078421256000,6.890255859375,2.011167526245117,-0.004785645287483931,-2.6862425804138184
1783153078430966500,6.899966552734375,2.1379871368408203,1.721336841583252,-3.82582426071167
1783153078440677400,6.909677490234375,4.033999919891357,4.34536600112915,-4.364508628845215
1783153078450388000,6.919387939453125,7.079464912414551,7.740182876586914,-3.2368907928466797
1783153078460098800,6.929098876953125,9.392127990722656,11.910573959350586,-0.8018946647644043
1783153078469809400,6.938809326171875,12.70319652557373,15.65264892578125,4.1991047859191895
1783153078479520000,6.94852001953125,22.104597091674805,16.471294403076172,11.597113609313965
1783153078489230800,6.95823095703125,33.57967758178711,17.95334815979004,15.10439395904541
1783153078498941400,6.96794140625,41.82025909423828,16.61994743347168,14.46760368347168
1783153078508652300,6.97765234375,45.794437408447266,12.461221694946289,11.65693473815918
1783153078518363000,6.98736279296875,47.2977294921875,11.1373929977417,10.033703804016113
1783153078528073500,6.997073486328125,50.52265548706055,11.290534019470215,11.901002883911133
1783153078537784300,7.006784423828125,54.79384231567383,10.431211471557617,14.101202964782715
1783153078547495000,7.016494873046875,56.148780822753906,9.609874725341797,14.606388092041016
1783153078557205800,7.026205810546875,52.23920822143555,8.999405860900879,12.51147174835205
1783153078566916400,7.035916259765625,43.09862518310547,8.489435195922852,8.798408508300781
1783153078576627200,7.045627197265625,31.238300323486328,7.7353973388671875,5.19033145904541
1783153078586337800,7.055337890625,20.421545028686523,9.808479309082031,1.8170497417449951
1783153078596048400,7.06504833984375,11.178071022033691,11.149356842041016,0.035892341285943985
1783153078605759200,7.07475927734375,6.341877460479736,11.343175888061523,0.6631109714508057
1783153078615469800,7.0844697265625,5.1065826416015625,11.259427070617676,3.0188448429107666
1783153078625180400,7.094180419921875,4.5391845703125,11.101500511169434,6.0523457527160645
1783153078634891300,7.103891357421875,2.9949166774749756,9.562018394470215,7.569993495941162
1783153078644601900,7.113601806640625,-0.13878370821475983,7.661220073699951,7.313961505889893
1783153078654312700,7.123312744140625,-3.3684961795806885,6.3442702293396,7.057929515838623
1783153078664023300,7.133023193359375,-6.3131632804870605,5.18315315246582,6.035595893859863
1783153078673734000,7.14273388671875,-9.190832138061523,3.6726837158203125,3.7516467571258545
1783153078683444700,7.15244482421875,-11.111071586608887,2.252842426300049,1.170688509941101
1783153078693155300,7.1621552734375,-11.762218475341797,1.3716856241226196,-0.8330013751983643
1783153078702866200,7.1718662109375,-11.10628604888916,0.646361231803894,-2.1571295261383057
1783153078712576800,7.18157666015625,-9.966704368591309,0.08853443711996078,-2.705385208129883
1783153078722287600,7.19128759765625,-8.738588333129883,0.04546362906694412,-2.7101707458496094
1783153078731998200,7.200998291015625,-7.282855033874512,0.07657032459974289,-3.3278181552886963
1783153078741708800,7.210708740234375,-6.368198394775391,-0.5003990530967712,-3.617349624633789
1783153078751419600,7.220419677734375,-4.752145767211914,-0.5291129350662231,-3.303889751434326
1783153078761130200,7.230130126953125,-2.714956283569336,-0.1579262912273407,-1.9319051504135132
1783153078770840800,7.2398408203125,-0.32572299242019653,0.1746760457754135,-0.06699903309345245
1783153078780551700,7.2495517578125,2.5929224491119385,0.48364928364753723,2.2983062267303467
1783153078790262300,7.25926220703125,5.851049423217773,0.7899305820465088,3.9000017642974854
1783153078799973000,7.26897314453125,7.682755470275879,0.4692923426628113,4.038785457611084
1783153078809683700,7.27868359375,7.70668363571167,-0.10767702013254166,2.8704898357391357
1783153078819394600,7.28839453125,6.885347366333008,-0.6343970894813538,1.158724308013916
1783153078829105200,7.298105224609375,6.885347366333008,-0.6343970894813538,1.158724308013916
1783153078838815700,7.307815673828125,5.602196216583252,-1.4724832773208618,-0.8763712644577026
1783153078848526600,7.317526611328125,5.262115955352783,-1.6639090776443481,-1.079761266708374
1783153078858237200,7.3272373046875,4.730610370635986,-1.86729896068573,-0.7899305820465088
1783153078867948000,7.336947998046875,3.9000017642974854,-1.8481563329696655,-0.4740779995918274
1783153078877658600,7.34665869140625,3.1387851238250732,-1.3262219429016113,-0.019142581149935722
1783153078887369200,7.356369140625,2.4299113750457764,-0.7301099896430969,0.3616153299808502
1783153078897080000,7.366080078125,1.3645070791244507,-0.4262215197086334,0.2632105052471161
1783153078906790700,7.375790771484375,0.4501497745513916,-0.2826521694660187,0.007178467698395252
1783153078916501500,7.38550146484375,0.4501497745513916,-0.2826521694660187,0.007178467698395252
1783153078926212000,7.395212158203125,0.2799602448940277,-0.07178468257188797,0.3975076675415039
1783153078935922700,7.404922607421875,0.32572299242019653,-0.016749758273363113,0.4381856322288513
1783153078945633500,7.414633544921875,0.29700911045074463,0.02871387079358101,0.37118661403656006
1783153078955344100,7.42434423828125,0.4453641176223755,0.1579262912273407,0.6583253145217896
1783153078965055000,7.434054931640625,0.9098708033561707,0.39032918214797974,0.643968403339386
1783153078974765600,7.443765625,1.922333836555481,0.7229315638542175,0.42382872104644775
1783153078984476200,7.45347607421875,3.0643084049224854,1.0462616682052612,-0.2560320198535919
1783153078994187000,7.46318701171875,3.9095730781555176,1.438983678817749,-0.6391827464103699
1783153079003897600,7.472897705078125,4.429114818572998,2.0709879398345947,-0.4980062246322632
1783153079013608400,7.4826083984375,4.6372904777526855,3.037987470626831,-0.16749759018421173
1783153079023319000,7.492319091796875,4.35254430770874,4.575077056884766,0.1818545162677765
1783153079033029600,7.502029541015625,4.057928085327148,6.5288166999816895,0.675075113773346
1783153079042740500,7.511740478515625,6.451947212219238,8.72901725769043,0.7181459069252014
1783153079052451000,7.521451171875,10.735099792480469,10.42642593383789,0.3640081584453583
1783153079062162000,7.531161865234375,17.137096405029297,11.101500511169434,1.098903775215149
1783153079071872500,7.54087255859375,24.166013717651367,11.044073104858398,3.91914439201355
1783153079081583000,7.5505830078125,28.803302764892578,10.54845905303955,7.378567695617676
1783153079091294000,7.5602939453125,29.004600524902344,10.706385612487793,9.585947036743164
1783153079101004500,7.570004638671875,26.275285720825195,11.800503730773926,9.856635093688965
1783153079110715400,7.57971533203125,25.875385284423828,12.209976196289062,9.621838569641113
1783153079120426000,7.589426025390625,29.408987045288086,11.139785766601562,10.153345108032227
1783153079130136600,7.599136474609375,33.895530700683594,9.786943435668945,11.376675605773926
1783153079139847400,7.608847412109375,35.3057975769043,9.282057762145996,10.993824005126953
1783153079149558000,7.61855810546875,32.62434387207031,8.623434066772461,8.166404724121094
1783153079159268900,7.628268798828125,29.816064834594727,8.271688461303711,3.5671002864837646
1783153079168979500,7.6379794921875,27.632614135742188,8.408080101013184,0.8835497498512268
1783153079178690000,7.64768994140625,25.66960334777832,9.147761344909668,0.7923234105110168
1783153079188401000,7.65740087890625,23.34258270263672,9.585947036743164,1.3046865463256836
1783153079198111500,7.667111572265625,20.563020706176758,9.981060981750488,2.1571295261383057
1783153079207822300,7.676822265625,17.318950653076172,10.15573787689209,3.3134610652923584
1783153079217533000,7.686532958984375,14.079667091369629,10.342377662658691,4.668396949768066
1783153079227243800,7.696243896484375,11.290534019470215,9.93559741973877,5.6309099197387695
1783153079236954400,7.705954345703125,8.649754524230957,9.119047164916992,6.143272876739502
1783153079246665000,7.7156650390625,7.670791149139404,7.895716667175293,5.537590026855469
1783153079256375800,7.725375732421875,6.830312252044678,7.491030216217041,5.008476734161377
1783153079266086400,7.73508642578125,2.245664119720459,6.502495765686035,3.0738797187805176
1783153079275797200,7.74479736328125,1.2233306169509888,5.4179487228393555,1.922333836555481
1783153079285507800,7.7545078125,0.8018946647644043,4.486542224884033,1.0007981061935425
1783153079295218400,7.764218505859375,-0.385543555021286,3.2584261894226074,0.03349951654672623
1783153079304929300,7.77392919921875,-0.8330013751983643,2.4562325477600098,-0.5841478109359741
1783153079314640000,7.783639892578125,-1.0701899528503418,1.9630118608474731,-0.9912267923355103
1783153079324350500,7.7933505859375,-0.7133602499961853,1.5346965789794922,-0.8476574420928955
1783153079334061300,7.803061279296875,-0.2994019389152527,0.8042874932289124,-0.9026923179626465
1783153079343772000,7.81277197265625,0.5291129350662231,0.2105683982372284,-1.0007981061935425
1783153079353482800,7.822482666015625,2.0398812294006348,-0.22013968229293823,-0.5482555031776428
1783153079363193300,7.832193359375,3.7205400466918945,-1.1204391717910767,-0.6870391964912415
1783153079372904200,7.841904296875,4.323830604553223,-3.6798620223999023,-0.064606212079525
1783153079382614800,7.85161474609375,3.284747362136841,-4.388436794281006,-0.7157530784606934
1783153079392325400,7.861325439453125,-0.9457631707191467,-3.8234314918518066,-3.006880760192871
1783153079402036200,7.8710361328125,-4.103391647338867,-3.153141975402832,-3.552743434906006
1783153079411746800,7.880746826171875,-5.108975410461426,-2.087737798690796,-3.4019956588745117
1783153079421457700,7.890457763671875,-5.0826544761657715,-1.572981834411621,-2.8920252323150635
1783153079431168300,7.900168212890625,-4.2209391593933105,-1.012762188911438,-1.903191328048706
1783153079440878800,7.90987890625,-2.6096723079681396,-0.5434698462486267,-0.9026923179626465
1783153079450589700,7.919589599609375,-0.857228696346283,-0.4573282301425934,-0.4334000051021576
1783153079460300300,7.92930029296875,0.22971096634864807,-0.5051847100257874,-0.3735794425010681
1783153079470011100,7.93901123046875,0.1698904037475586,-0.4860421121120453,-0.7468597888946533
1783153079479721700,7.9487216796875,-1.0247262716293335,-0.2225325107574463,-1.079761266708374
1783153079489432600,7.9584326171875,-1.812264084815979,0.24646073579788208,-1.415055513381958
1783153079499143200,7.96814306640625,-2.008774518966675,0.6487540602684021,-1.0701899528503418
1783153079508853800,7.977853759765625,-1.7404793500900269,0.9744769930839539,-0.1698904037475586
1783153079518564600,7.987564697265625,-1.6423736810684204,1.292722463607788,0.6726822853088379
1783153079528275200,7.997275146484375,-1.1515458822250366,1.5658032894134521,1.3956137895584106
1783153079537985800,8.00698583984375,-0.06699903309345245,1.596909999847412,1.7261223793029785
1783153079547696600,8.016696533203126,1.1515458822250366,1.3381860256195068,1.6328023672103882
1783153079557407200,8.0264072265625,1.9007984399795532,0.8859425783157349,0.9696913957595825
1783153079567118000,8.0361181640625,1.9007984399795532,0.8859425783157349,0.9696913957595825
1783153079576828700,8.04582861328125,2.935096025466919,0.8452646136283875,-1.3142578601837158
1783153079586539300,8.055539306640625,2.913560628890991,1.2352946996688843,-2.4777679443359375
1783153079596250000,8.06525,3.059522867202759,2.5184457302093506,-2.863311290740967
1783153079605960700,8.074960693359374,5.829514026641846,4.7234320640563965,-2.0853450298309326
1783153079615671600,8.084671630859376,12.236296653747559,6.310770511627197,-1.1012966632843018
1783153079625382100,8.094382080078125,18.343677520751953,7.692326545715332,-0.26560330390930176
1783153079635093000,8.104093017578125,20.22533416748047,9.320343017578125,0.4094717800617218
1783153079644803600,8.113803466796876,19.83979034423828,10.90738296508789,0.05742774158716202
1783153079654514200,8.12351416015625,17.58216094970703,11.642578125,-1.4605190753936768
1783153079664225000,8.13322509765625,14.003097534179688,14.13709545135498,-1.1228320598602295
1783153079673935600,8.142935546875,18.058631896972656,17.678173065185547,1.903191328048706
1783153079683646500,8.152646484375,28.111478805541992,16.79462432861328,5.293222904205322
1783153079693357000,8.162357177734375,38.15714645385742,14.220844268798828,7.502994537353516
1783153079703067600,8.172067626953124,45.138206481933594,10.833205223083496,5.635695457458496
1783153079712778500,8.181778564453126,44.86063766479492,6.94038200378418,0.21296121180057526
1783153079722489000,8.191489013671875,39.68466567993164,6.777669906616211,-3.256033420562744
1783153079732200000,8.201199951171875,34.419857025146484,9.166903495788574,-2.348555326461792
1783153079741910500,8.21091064453125,28.822446823120117,11.54686450958252,-0.019142581149935722
1783153079751621000,8.22062109375,22.480567932128906,13.086048126220703,1.2616157531738281
1783153079761332000,8.23033203125,15.757933616638184,13.780564308166504,1.8170497417449951
1783153079771042600,8.24004248046875,9.3490571975708,13.830814361572266,2.018345832824707
1783153079780753400,8.24975341796875,4.529613494873047,12.712767601013184,2.0446670055389404
1783153079790464000,8.259464111328125,2.825026273727417,10.601101875305176,2.9015965461730957
1783153079800174600,8.269174560546874,4.41475772857666,8.429615020751953,4.057928085327148
1783153079809885400,8.278885498046876,5.530411243438721,5.853442192077637,3.9789650440216064
1783153079819596000,8.288595947265625,6.631708145141602,3.7755749225616455,3.2679975032806396
1783153079829307000,8.298306884765625,8.925228118896484,2.4849462509155273,2.4705893993377686
1783153079839017500,8.308017578125,9.547661781311035,1.2065808773040771,0.8787640929222107
1783153079848728000,8.31772802734375,8.525327682495117,0.2826521694660187,-1.3022937774658203
1783153079858439000,8.32743896484375,6.813562393188477,0.02632104977965355,-3.3134610652923584
1783153079868149500,8.3371494140625,4.498506546020508,0.2727817893028259,-4.328616142272949
1783153079877860400,8.3468603515625,2.427518606185913,0.47168517112731934,-3.9885363578796387
1783153079887571000,8.356571044921875,1.134796142578125,0.22492532432079315,-3.253640651702881
1783153079897281800,8.36628173828125,-0.02632104977965355,0.3807578980922699,-2.5232315063476562
1783153079906992400,8.375992431640626,-1.4820544719696045,0.8739784955978394,-1.7285152673721313
1783153079916703000,8.385702880859375,-3.193819999694824,1.0558329820632935,-1.2400803565979004
1783153079926413800,8.395413818359375,-4.402793884277344,1.3094722032546997,-0.5673980712890625
1783153079936124400,8.40512451171875,-4.445864677429199,1.6160526275634766,-0.05024927482008934
1783153079945835300,8.414835205078125,-3.9406797885894775,1.323829174041748,-0.3113660514354706
1783153079955545900,8.4245458984375,-3.01405930519104,0.6415755748748779,-0.890728235244751
1783153079965256400,8.43425634765625,-1.8529419898986816,0.19381862878799438,-1.4581263065338135
1783153079974967300,8.44396728515625,-0.41186460852622986,-0.20578274130821228,-1.7907286882400513
1783153079984678000,8.453677978515625,-0.41186460852622986,-0.20578274130821228,-1.7907286882400513
1783153079994388700,8.463388671875,2.6168506145477295,-1.0390832424163818,-2.317448616027832
1783153080004099300,8.473099365234376,3.311068296432495,-1.438983678817749,-2.39401912689209
1783153080013810000,8.482809814453125,2.5088746547698975,-1.7261223793029785,-2.097309112548828
1783153080023520800,8.492520751953125,0.6080760359764099,-1.7285152673721313,-1.4892330169677734
1783153080033231400,8.5022314453125,-1.9438693523406982,-1.6208382844924927,-0.3975076675415039
1783153080042942200,8.511942138671875,-4.522434711456299,-1.2903295755386353,1.2089736461639404
1783153080052652800,8.52165283203125,-5.697908878326416,-1.2783654928207397,1.1395817995071411
1783153080062363400,8.53136328125,-6.02602481842041,-2.3054845333099365,-0.8811569213867188
1783153080072074200,8.54107421875,-5.97098970413208,-3.5575289726257324,-3.6798620223999023
1783153080081784800,8.550784912109375,-4.319045066833496,-4.1368913650512695,-6.162415504455566
1783153080091495700,8.56049560546875,-1.3525429964065552,-3.9885363578796387,-7.52931547164917
1783153080101206300,8.570206298828126,1.92951238155365,-3.2895328998565674,-7.278069019317627
1783153080110916900,8.579916748046875,4.7473602294921875,-2.011167526245117,-5.695516109466553
1783153080120627700,8.589627685546875,6.162415504455566,-0.21296121180057526,-3.5982069969177246
1783153080130338300,8.59933837890625,5.863013744354248,1.831406593322754,-2.0398812294006348
1783153080140049200,8.609049072265625,5.238187789916992,4.2592244148254395,-0.41186460852622986
1783153080149759700,8.618759765625,5.3557353019714355,6.598208427429199,1.505982756614685
1783153080159470600,8.628470703125,5.947061538696289,8.393722534179688,2.6383860111236572
1783153080169181200,8.63818115234375,7.562815189361572,9.308379173278809,2.7436702251434326
1783153080178891800,8.647891845703125,12.964014053344727,8.74337387084961,2.482553482055664
1783153080188602600,8.6576025390625,20.70659065246582,7.531708240509033,1.8625133037567139
1783153080198313200,8.667313232421876,26.76850700378418,8.173583030700684,2.480160713195801
1783153080208024000,8.677024169921875,31.017860412597656,9.923633575439453,4.1991047859191895
1783153080217734700,8.686734619140625,36.03351593017578,9.267701148986816,6.583851337432861
1783153080227445200,8.6964453125,41.329429626464844,7.495816230773926,10.55803108215332
1783153080237156000,8.706156005859375,44.8151741027832,5.812764644622803,13.703695297241211
1783153080246866700,8.71586669921875,44.082672119140625,3.75643253326416,13.663017272949219
1783153080256577500,8.72557763671875,39.1627311706543,2.427518606185913,9.926026344299316
1783153080266288000,8.7352880859375,32.935707092285156,2.1260228157043457,4.9175496101379395
1783153080275999000,8.7449990234375,27.948766708374023,2.542673110961914,0.9170492887496948
1783153080285709600,8.75470947265625,25.540390014648438,2.95902419090271,-1.4198411703109741
1783153080295420200,8.764420166015626,24.45345115661621,3.387638568878174,-1.9127626419067383
1783153080305131000,8.774131103515625,23.687149047851562,4.59421968460083,-0.064606212079525
1783153080314841600,8.783841552734375,23.39761734008789,5.947061538696289,3.028416156768799
1783153080324552400,8.793552490234376,21.858135223388672,6.444768905639648,5.379663467407227
1783153080334263000,8.803262939453125,19.176679611206055,6.930810928344727,7.012166976928711
1783153080343973600,8.8129736328125,15.896717071533203,7.036394119262695,7.558029651641846
1783153080353684500,8.8226845703125,12.272189140319824,6.389733791351318,6.80159854888916
1783153080363395000,8.83239501953125,7.979465484619141,5.468197822570801,4.386044025421143
1783153080373106000,8.84210595703125,3.356531858444214,4.5583271980285645,1.407876968383789
1783153080382816500,8.85181640625,-0.47168517112731934,3.5742788314819336,-1.043868899345398
1783153080392527000,8.861527099609376,-3.1507492065429688,2.753241539001465,-3.13639235496521
1783153080402238000,8.871238037109375,-5.1544389724731445,2.0614166259765625,-4.615755081176758
1783153080411948500,8.880948486328125,-6.516852378845215,1.800299882888794,-5.427519798278809
1783153080421659400,8.890659423828126,-7.203891754150391,1.9103697538375854,-5.3318071365356445
1783153080431370000,8.900369873046875,-6.997809886932373,2.200200319290161,-4.603790760040283
1783153080441080600,8.91008056640625,-6.071488380432129,2.348555326461792,-3.7612180709838867
1783153080450791400,8.91979150390625,-5.180759906768799,2.4011974334716797,-3.037987470626831
1783153080460502000,8.929501953125,-4.486542224884033,2.3294129371643066,-2.365305185317993
1783153080470212900,8.939212890625,-3.777967929840088,2.286342144012451,-1.7620147466659546
1783153080479923500,8.94892333984375,-3.0164520740509033,2.090130567550659,-1.292722463607788
1783153080489634000,8.958634033203126,-1.9920248985290527,1.8146568536758423,-1.1252248287200928
1783153080499345000,8.968344970703125,-0.7899305820465088,1.378864049911499,-1.2616157531738281
1783153080509055500,8.978055419921875,0.643968403339386,0.9768698215484619,-1.4413765668869019
1783153080518766300,8.987766357421876,2.307877540588379,0.6200401782989502,-1.6256239414215088
1783153080528477000,8.997476806640625,3.9813578128814697,0.3209373354911804,-1.6471593379974365
1783153080538187800,9.007187744140625,5.425127029418945,0.23210379481315613,-1.8744773864746094
1783153080547898400,9.0168984375,6.387341022491455,0.08853443711996078,-2.5833511352539062
1783153080557609000,9.02660888671875,6.439982891082764,0.04546362906694412,-3.3684961795806885
1783153080567319800,9.03631982421875,5.913562297821045,0.21774685382843018,-3.8784663677215576
1783153080577030400,9.046030517578124,5.06590461730957,0.4453641176223755,-3.631706476211548
1783153080586741200,9.0557412109375,4.275974273681641,0.7468597888946533,-3.119642496109009
1783153080596451800,9.065451904296875,3.904787540435791,0.9218349456787109,-2.504088878631592
1783153080606162400,9.075162353515625,3.5192439556121826,0.8476574420928955,-2.0470597743988037
1783153080615873300,9.084873291015626,2.918346405029297,1.1012966632843018,-1.6567305326461792
1783153080625583900,9.094583984375,2.159522533416748,1.7045869827270508,-1.0247262716293335
1783153080635294700,9.104294677734375,2.159522533416748,1.7045869827270508,-1.0247262716293335
1783153080645005300,9.11400537109375,4.127319812774658,3.363710403442383,0.9385846853256226
1783153080654716200,9.123716064453125,7.160820960998535,3.8832521438598633,0.9266205430030823
1783153080664426800,9.1334267578125,9.667302131652832,4.323830604553223,0.3233301639556885
1783153080674137300,9.143137451171874,10.081560134887695,4.891228675842285,-1.0893324613571167
1783153080683848200,9.15284814453125,9.887741088867188,5.911169052124023,-1.6160526275634766
1783153080693558800,9.162558837890625,12.174083709716797,6.3753767013549805,-0.39990049600601196
1783153080703269600,9.17226953125,16.098012924194336,8.592327117919922,1.3932210206985474
1783153080712980200,9.181980224609376,21.882064819335938,9.621838569641113,5.949454307556152
1783153080722690800,9.19169091796875,30.627830505371094,8.432007789611816,10.16291618347168
1783153080732401700,9.201401611328125,36.43581008911133,6.454638957977295,11.609078407287598
1783153080742112300,9.2111123046875,39.52165222167969,5.051547527313232,10.830812454223633
1783153080751823000,9.220822998046875,39.10530090332031,4.247260093688965,8.341080665588379
1783153080761533700,9.23053369140625,36.34009552001953,4.122534275054932,5.254937648773193
1783153080771244500,9.24024462890625,32.04737091064453,4.194318771362305,2.8369903564453125
1783153080780955100,9.249955078125,27.462724685668945,3.9813578128814697,1.781157374382019
1783153080790665700,9.259665771484375,23.333011627197266,4.333401679992676,1.4270195960998535
1783153080800376600,9.26937646484375,19.538293838500977,4.728217601776123,1.0701899528503418
1783153080810087200,9.279087158203126,15.396318435668945,5.757729530334473,0.4214358925819397
1783153080819798000,9.288798095703125,11.683255195617676,6.064310073852539,0.01196411345154047
1783153080829508600,9.298508544921875,9.89013385772705,6.140880107879639,-0.7779664397239685
1783153080839219200,9.30821923828125,10.237093925476074,6.049952983856201,0.32572299242019653
1783153080848930000,9.317929931640625,11.707183837890625,5.707480430603027,2.1786649227142334
1783153080858640600,9.327640625,13.698909759521484,5.266901969909668,3.256033420562744
1783153080868351500,9.3373515625,14.824134826660156,5.889334678649902,2.667099952697754
1783153080878062000,9.34706201171875,10.2418794631958,5.041976451873779,2.372483730316162
1783153080887773000,9.35677294921875,3.037987470626831,4.314259052276611,1.1371889114379883
1783153080897483500,9.3664833984375,-3.442673683166504,4.304687976837158,-0.6798607110977173
1783153080907194000,9.376194091796876,-8.140083312988281,4.749752998352051,-2.358126640319824
1783153080916905000,9.385905029296875,-9.06401252746582,5.334199905395508,-3.5671002864837646
1783153080926615600,9.395615478515625,-7.71386194229126,5.070690155029297,-3.1722846031188965
1783153080936326400,9.405326416015624,-5.769693374633789,4.677968502044678,-2.324627161026001
1783153080946037000,9.415037109375,-4.165605068206787,4.273581027984619,-1.4581263065338135
1783153080955747800,9.424747802734375,-2.7987051010131836,3.667897939682007,-0.5099703073501587
1783153080965458400,9.43445849609375,-1.7787644863128662,3.452244758605957,0.8811569213867188
1783153080975169000,9.4441689453125,-0.7109674215316772,3.5982069969177246,2.042274236679077
1783153080984879900,9.4538798828125,-0.02871387079358101,3.8306100368499756,2.760420083999634
1783153080994590500,9.463590576171875,0.3640081584453583,4.100998878479004,3.1172497272491455
1783153081004301300,9.47330126953125,0.8644071817398071,4.089034557342529,3.208176851272583
1783153081014012000,9.483011962890625,1.781157374382019,3.708575963973999,3.418745279312134
1783153081023722500,9.492722412109375,2.643171787261963,3.1435706615448,3.404388427734375
1783153081033433300,9.502433349609374,3.028416156768799,2.4466612339019775,2.8202404975891113
1783153081043144000,9.51214404296875,3.0786654949188232,1.6710875034332275,2.221735715866089
1783153081052854800,9.521854736328125,3.19860577583313,0.9266205430030823,1.5753746032714844
1783153081062565400,9.5315654296875,3.0810582637786865,0.24167509377002716,0.8306085467338562
1783153081072276200,9.541276123046876,2.4705893993377686,-0.3807578980922699,0.2512463629245758
1783153081081986800,9.55098681640625,1.714158296585083,-0.7707880139350891,-0.23210379481315613
1783153081091697400,9.560697509765625,1.0151549577713013,-0.610468864440918,-0.8548358678817749
1783153081101408300,9.570408203125,-0.1052841991186142,-0.19621145725250244,-1.9151554107666016
1783153081111118800,9.580118896484375,-0.2632105052471161,-0.579362154006958,-1.0223335027694702
1783153081120829700,9.58982958984375,-0.2632105052471161,-0.579362154006958,-1.0223335027694702
1783153081130540300,9.599540283203124,1.678265929222107,0.16031911969184875,0.4501497745513916
1783153081140251000,9.6092509765625,3.045166015625,0.6343970894813538,0.8330013751983643
1783153081149961700,9.618961669921875,3.6894333362579346,0.7995018362998962,-0.0023928226437419653
1783153081159672300,9.62867236328125,3.904787540435791,1.596909999847412,-1.1204391717910767
1783153081169383200,9.638383056640626,3.3996028900146484,2.8896324634552,-2.472982168197632
1783153081179093800,9.64809375,1.9390836954116821,5.396413326263428,-3.8306100368499756
1783153081188804600,9.6578046875,1.0630114078521729,8.618648529052734,-4.8314080238342285
1783153081198515200,9.66751513671875,2.848954439163208,11.374282836914062,-4.216153621673584
1783153081208225800,9.677225830078125,8.760123252868652,13.387843132019043,-0.22971096634864807
1783153081217936600,9.6869365234375,15.958930969238281,14.424532890319824,5.56869649887085
1783153081227647200,9.696647216796874,23.488544464111328,13.194024085998535,9.245866775512695
1783153081237358000,9.706358154296876,30.785757064819336,11.673684120178223,11.534900665283203
1783153081247068700,9.716068603515625,35.590545654296875,10.414461135864258,12.889836311340332
1783153081256779300,9.725779296875,38.20261001586914,9.162117958068848,11.956037521362305
1783153081266490000,9.735489990234376,37.84817123413086,7.599006652832031,8.19272518157959
1783153081276200700,9.74520068359375,36.29941940307617,6.179165363311768,3.006880760192871
1783153081285911600,9.75491162109375,32.05694580078125,5.5998029708862305,-0.12442677468061447
1783153081295622100,9.7646220703125,27.694828033447266,5.954239845275879,-0.31854450702667236
1783153081305333000,9.7743330078125,24.254547119140625,6.8518476486206055,1.5418751239776611
1783153081315043600,9.784043701171875,22.516460418701172,7.435995578765869,4.649254322052002
1783153081324754400,9.79375439453125,20.13440704345703,7.562815189361572,7.5412797927856445
1783153081334465000,9.803465087890626,17.225631713867188,7.2110700607299805,8.238189697265625
1783153081344175600,9.813175537109375,13.667802810668945,6.3825554847717285,6.8997039794921875
1783153081353886500,9.822886474609374,9.995418548583984,5.25254487991333,4.610969066619873
1783153081363597000,9.83259716796875,7.012166976928711,4.364508628845215,2.26959228515625
1783153081373308000,9.842307861328125,5.4514479637146,4.1057844161987305,0.6272186636924744
1783153081383018500,9.8520185546875,4.677968502044678,4.417150497436523,0.02392822690308094
1783153081392729300,9.861729248046874,3.811467409133911,4.66361141204834,-0.275174617767334
1783153081402440000,9.87143994140625,3.054737091064453,4.756931304931641,-0.5817549824714661
1783153081412150500,9.881150634765625,2.2887349128723145,4.400400638580322,-0.7899305820465088
1783153081421861400,9.890861328125,2.317448616027832,3.57906436920166,-0.9553344249725342
1783153081431572000,9.900572021484376,1.7859430313110352,2.9255247116088867,-1.3334003686904907
1783153081441282800,9.91028271484375,0.6631109714508057,2.4155545234680176,-1.9366908073425293
1783153081450993400,9.919993408203124,-0.0023928226437419653,2.3150558471679688,-2.3365912437438965
1783153081460704000,9.9297041015625,-0.31375887989997864,2.496910333633423,-2.23848557472229
1783153081470414800,9.939414794921875,-0.5937191247940063,2.769991397857666,-1.5658032894134521
1783153081480125400,9.94912548828125,-0.8042874932289124,2.8776683807373047,-0.8452646136283875
1783153081489836300,9.958836181640624,-1.0510473251342773,2.887239694595337,-0.10049854964017868
1783153081499547000,9.968546875,-0.7372884750366211,2.9853453636169434,0.9194421172142029
1783153081509257700,9.9782578125,-0.06939185410737991,2.966202735900879,1.6854444742202759
1783153081518968300,9.98796826171875,0.6966105103492737,2.834597587585449,1.970489501953125
1783153081528679000,9.997678955078126,1.40279221534729,2.372483730316162,1.9896320104599
1783153081538389800,10.0073896484375,2.049452543258667,1.6615161895751953,1.6878372430801392
1783153081548100400,10.017100341796874,2.39401912689209,0.890728235244751,1.1994023323059082
1783153081557811200,10.026811279296876,2.8202404975891113,0.37597227096557617,0.8234301209449768
1783153081567521800,10.036521728515625,3.3278181552886963,0.05024927482008934,0.5027918815612793
1783153081577232400,10.046232421875,3.528815269470215,-0.13160525262355804,0.38793638348579407
1783153081586943200,10.055943115234374,3.4642090797424316,-0.3281157910823822,0.24167509377002716
1783153081596653800,10.06565380859375,3.232105255126953,-0.3568296730518341,0.1459621787071228
1783153081606364700,10.07536474609375,3.0260233879089355,-0.33768710494041443,0.07417750358581543
1783153081616075300,10.0850751953125,2.533101797103882,-0.43579283356666565,-0.4405784606933594
1783153081625786000,10.0947861328125,1.623231053352356,-0.5362913608551025,-1.0390832424163818
1783153081635496700,10.10449658203125,0.8428717851638794,-0.5650052428245544,-1.6495521068572998
1783153081645207300,10.114207275390624,0.3520440459251404,-0.04785645380616188,-2.255235433578491
1783153081654918100,10.123918212890626,0.5937191247940063,0.4668995141983032,-1.4126626253128052
1783153081664628700,10.133628662109375,2.2337000370025635,1.410269856452942,-0.10289137065410614
1783153081674339600,10.143339599609375,4.534399032592773,3.75643253326416,1.537089467048645
1783153081684050200,10.15305029296875,6.461817741394043,6.0762739181518555,3.3134610652923584
1783153081693761000,10.162760986328125,7.239784240722656,8.13260555267334,3.801896095275879
1783153081703471600,10.1724716796875,6.803991317749023,10.071989059448242,2.6240291595458984
1783153081713182500,10.182182373046874,5.997310638427734,11.280961990356445,2.355733871459961
1783153081722893000,10.19189306640625,6.7896342277526855,12.157333374023438,4.041178226470947
1783153081732603600,10.201603759765625,8.93958568572998,13.701302528381348,5.930311679840088
1783153081742314500,10.211314453125,12.932907104492188,14.611173629760742,6.696314334869385
1783153081752025000,10.221025146484376,18.738492965698242,14.371891021728516,4.833800792694092
1783153081761736000,10.23073583984375,21.65713882446289,10.24905776977539,7.2732834815979
1783153081771446500,10.240446533203125,21.65713882446289,10.24905776977539,7.2732834815979
1783153081781157000,10.2501572265625,27.55843734741211,6.519245147705078,11.321640014648438
1783153081790868000,10.259867919921875,28.561628341674805,6.08823823928833,10.885847091674805
1783153081800578600,10.26957861328125,26.59113883972168,5.669195175170898,9.813264846801758
1783153081810289400,10.279289306640624,23.498117446899414,6.396912097930908,8.55882740020752
1783153081820000000,10.289,20.139192581176758,6.602993965148926,7.172784805297852
1783153081829710800,10.2987109375,17.172988891601562,6.550352096557617,6.591030120849609
1783153081839421400,10.30842138671875,14.201701164245605,7.072286605834961,5.947061538696289
1783153081849132000,10.318132080078126,10.577173233032227,5.9566330909729,2.966202735900879
1783153081858843000,10.3278427734375,5.97098970413208,0.9385846853256226,2.245664119720459
1783153081868553500,10.337553466796875,3.617349624633789,-2.7652056217193604,0.20338992774486542
1783153081878264300,10.347264404296874,2.073380708694458,-4.201497554779053,-2.755634307861328
1783153081887975000,10.356974853515625,0.11964113265275955,-2.5016961097717285,-2.0925233364105225
1783153081897685800,10.366685791015625,3.069094181060791,-1.6351951360702515,-0.44775694608688354
1783153081907396400,10.376396240234374,9.61226749420166,0.2826521694660187,0.43579283356666565
1783153081917107200,10.386107177734376,11.357532501220703,0.7564310431480408,-1.252044439315796
1783153081926817800,10.39581787109375,10.27059268951416,-1.3860424757003784,-2.2480568885803223
1783153081936528400,10.4055283203125,10.296914100646973,-1.4318052530288696,-1.5107684135437012
1783153081946239200,10.4152392578125,6.909275531768799,0.5721837282180786,-0.41904306411743164
1783153081955949800,10.42494970703125,3.6942191123962402,2.7675983905792236,1.8290138244628906
1783153081965660700,10.43466064453125,1.4222339391708374,4.563112735748291,3.435495138168335
1783153081975371300,10.444371337890624,0.6894320249557495,5.697908878326416,4.517649173736572
1783153081985081900,10.454081787109375,1.1826525926589966,6.370591163635254,4.833800792694092
1783153081994792700,10.463792724609375,2.066202402114868,6.353841304779053,5.039583683013916
1783153082004503300,10.47350341796875,3.0667014122009277,5.6548380851745605,4.7401814460754395
1783153082014214100,10.483214111328126,4.67078971862793,4.977370262145996,4.249652862548828
1783153082023924700,10.4929248046875,5.757729530334473,4.264009952545166,3.976572036743164
1783153082033635600,10.502635498046875,6.3442702293396,3.5982069969177246,3.342175006866455
1783153082043346200,10.51234619140625,6.557530403137207,3.1387851238250732,2.475374937057495
1783153082053056800,10.522056884765625,6.28205680847168,2.705385208129883,2.1475582122802734
1783153082062767600,10.531767578125,5.547161102294922,2.1930220127105713,1.7955143451690674
1783153082072478200,10.541478271484374,4.860121726989746,3.006880760192871,-0.0933200865983963
1783153082082189000,10.55118896484375,4.409972190856934,2.0135602951049805,-0.46450668573379517
1783153082091899600,10.560899658203125,4.278367042541504,1.1324033737182617,-0.15314064919948578
1783153082101610500,10.570610595703124,3.468994617462158,0.5985047817230225,0.08853443711996078
1783153082111321000,10.580321044921876,2.635993242263794,0.44775694608688354,-0.01196411345154047
1783153082121032000,10.590031982421875,2.482553482055664,0.5530411601066589,-0.490827739238739
1783153082130742500,10.599742431640625,2.6312077045440674,0.4621138870716095,-0.43100717663764954
1783153082140453000,10.609453125,2.310270309448242,0.0933200865983963,0.07657032459974289
1783153082150164000,10.6191640625,1.9319051504135132,0.12681959569454193,0.6272186636924744
1783153082159874600,10.62887451171875,2.183450698852539,0.610468864440918,1.1491531133651733
1783153082169585400,10.63858544921875,3.270390272140503,1.220937728881836,1.651944875717163
1783153082179296000,10.6482958984375,5.053940296173096,1.8457635641098022,1.1778669357299805
1783153082189006800,10.6580068359375,7.409674644470215,1.9992033243179321,0.2560320198535919
1783153082198717400,10.667717529296874,9.530911445617676,1.2640085220336914,-0.25363919138908386
1783153082208428000,10.677427978515626,10.802098274230957,1.350150227546692,-1.225723385810852
1783153082218139000,10.687138916015625,10.830812454223633,2.441875457763672,-1.9199410676956177
1783153082227849500,10.696849365234375,9.696016311645508,3.859323740005493,-1.1108678579330444
1783153082237560300,10.706560302734376,10.397711753845215,5.403591632843018,0.8691928386688232
1783153082247271000,10.71627099609375,14.149059295654297,6.607779502868652,3.0236306190490723
1783153082256981500,10.7259814453125,20.407188415527344,6.253343105316162,4.436293125152588
1783153082266692400,10.7356923828125,27.623043060302734,4.438685894012451,4.3070807456970215
1783153082276403000,10.74540283203125,31.932518005371094,1.9151554107666016,4.211368083953857
1783153082286113800,10.75511376953125,31.9038028717041,-0.05024927482008934,3.833002805709839
1783153082295824400,10.764824462890624,30.421749114990234,-0.9433703422546387,3.6460635662078857
1783153082305535200,10.77453515625,28.65734100341797,-1.7476578950881958,3.1794631481170654
1783153082315245800,10.784245849609375,26.172395706176758,-2.635993242263794,2.9470601081848145
1783153082324956700,10.793956787109375,24.668804168701172,-2.1954147815704346,4.275974273681641
1783153082334667300,10.803667236328126,24.491735458374023,-1.1204391717910767,6.524031162261963
1783153082344377900,10.8133779296875,23.055145263671875,-1.8649061918258667,6.4064836502075195
1783153082354088700,10.823088623046875,21.070598602294922,-1.012762188911438,6.059524059295654
1783153082363799300,10.83279931640625,19.701005935668945,-1.0151549577713013,6.928418159484863
1783153082373510100,10.84251025390625,18.25992774963379,-2.597707986831665,5.312365531921387
1783153082383220700,10.852220703125,15.21207046508789,0.41904306411743164,4.680361270904541
1783153082392931600,10.861931640625,10.308877944946289,-1.714158296585083,1.86729896068573
1783153082402642200,10.87164208984375,8.417651176452637,-3.6559338569641113,-0.27038896083831787
1783153082412352800,10.881352783203125,7.127321243286133,-4.381258487701416,-2.2887349128723145
1783153082422063600,10.891063720703125,6.997809886932373,-3.184248685836792,-2.504088878631592
1783153082431774200,10.900774169921876,7.160820960998535,-2.4538395404815674,-1.067797064781189
1783153082441485000,10.910485107421875,7.479066371917725,-1.1180464029312134,-0.37836506962776184
1783153082451195600,10.920195556640625,7.895716667175293,-0.8162516355514526,-0.4668995141983032
1783153082460906200,10.92990625,7.514958381652832,-1.189831018447876,-2.0709879398345947
1783153082470617000,10.9396171875,6.930810928344727,-1.3645070791244507,-2.504088878631592
1783153082480327700,10.94932763671875,6.195915222167969,0.3520440459251404,-0.2105683982372284
1783153082490038500,10.95903857421875,5.187938690185547,2.3988046646118164,2.30069899559021
1783153082499749000,10.9687490234375,4.7234320640563965,3.191427230834961,3.239283561706543
1783153082509460000,10.9784599609375,3.6487553119659424,2.832204818725586,3.0933215618133545
1783153082519170600,10.988170654296875,2.7436702251434326,2.5546371936798096,2.8513472080230713
1783153082528881400,10.99788134765625,2.3772692680358887,2.17627215385437,2.9470601081848145
1783153082538592000,11.007592041015625,1.2424731254577637,1.8505492210388184,1.9896320104599
1783153082548302600,11.017302490234375,0.062213387340307236,1.5418751239776611,0.4549354016780853
1783153082558013400,11.027013427734374,0.062213387340307236,1.5418751239776611,0.4549354016780853
1783153082567724000,11.03672412109375,-1.4198411703109741,0.3281157910823822,0.6774678826332092
1783153082577435000,11.046434814453125,-0.9720842242240906,0.1698904037475586,1.3070793151855469
1783153082587145500,11.0561455078125,0.5410770177841187,0.16749759018421173,1.5179468393325806
1783153082596856300,11.065856201171876,2.1332013607025146,0.07178468257188797,1.6974085569381714
1783153082606567000,11.07556689453125,3.7277185916900635,-0.3616153299808502,1.7380865812301636
1783153082616277500,11.085277587890625,4.756931304931641,-0.5985047817230225,0.016749758273363113
1783153082625988400,11.09498828125,3.9406797885894775,-1.7620147466659546,-0.5123631358146667
1783153082635699000,11.104698974609375,2.245664119720459,-2.0039889812469482,-1.1874382495880127
1783153082645409800,11.114409912109375,0.924227774143219,-1.6088740825653076,-1.4222339391708374
1783153082655120400,11.124120361328124,0.31854450702667236,-1.194616675376892,-0.7468597888946533
1783153082664831200,11.133831298828126,-0.19142581522464752,-0.6320042610168457,-0.05503492057323456
1783153082674541800,11.143541748046875,-0.2874378263950348,0.10289137065410614,0.34247273206710815
1783153082684252700,11.153252685546875,-0.5530411601066589,0.6966105103492737,0.2799602448940277
1783153082693963300,11.16296337890625,-1.4054841995239258,2.564208507537842,1.1635099649429321
1783153082703673900,11.172673828125,-0.19621145725250244,2.92073917388916,0.3807578980922699
1783153082713384700,11.182384765625,2.5474588871002197,3.1148569583892822,-1.2400803565979004
1783153082723095300,11.19209521484375,5.226223945617676,3.6511483192443848,-1.6351951360702515
1783153082732806100,11.20180615234375,8.053643226623535,3.0667014122009277,-1.0223335027694702
1783153082742516700,11.211516845703125,9.428020477294922,4.692325115203857,-0.21774685382843018
1783153082752227300,11.221227294921874,10.67288589477539,6.222236156463623,1.7955143451690674
1783153082761938200,11.230938232421876,14.407783508300781,5.520840167999268,5.836692810058594
1783153082771648800,11.240648681640625,17.16102409362793,4.340580463409424,7.28046178817749
1783153082781359600,11.250359619140625,20.692232131958008,3.2033913135528564,4.651647090911865
1783153082791070200,11.2600703125,22.65045928955078,1.1563315391540527,1.3597214221954346
1783153082800781000,11.269781005859375,23.196321487426758,-0.3807578980922699,-1.5825530290603638
1783153082810491600,11.27949169921875,23.069501876831055,-1.4581263065338135,-2.7412774562835693
1783153082820202500,11.289202392578124,21.75763702392578,-0.13160525262355804,-2.3820550441741943
1783153082829913000,11.2989130859375,23.210678100585938,4.862514495849609,-2.4681966304779053
1783153082839623700,11.308623779296875,22.53321075439453,3.4642090797424316,7.519744396209717
1783153082849334500,11.31833447265625,21.211774826049805,5.496912002563477,5.652445316314697
1783153082859045000,11.328045166015626,22.511674880981445,5.037190914154053,3.332603693008423
1783153082868756000,11.337755859375,19.164714813232422,3.01405930519104,5.714658737182617
1783153082878466600,11.347466552734375,17.448163986206055,4.42193603515625,2.8274190425872803
1783153082888177400,11.357177490234376,16.935800552368164,5.087440013885498,1.0295119285583496
1783153082897888000,11.366887939453125,15.338890075683594,4.517649173736572,3.3828530311584473
1783153082907598600,11.3765986328125,13.651053428649902,5.642873764038086,2.183450698852539
1783153082917309400,11.386309326171874,12.442079544067383,6.279664039611816,2.6192433834075928
1783153082927020000,11.39602001953125,11.972786903381348,6.231807708740234,2.5857439041137695
1783153082936731000,11.40573095703125,11.135000228881836,6.480959892272949,2.2719850540161133
1783153082946441500,11.41544140625,10.203594207763672,7.309175968170166,0.8114659786224365
1783153082956152300,11.42515234375,8.788837432861328,5.341378211975098,1.7069798707962036
1783153082965863000,11.43486279296875,7.294818878173828,5.238187789916992,2.6647071838378906
1783153082975573800,11.44457373046875,7.8454670906066895,6.516852378845215,1.9151554107666016
1783153082985284400,11.454284423828126,8.329116821289062,6.408876419067383,2.365305185317993
1783153082994995000,11.463994873046875,7.790432453155518,6.1313090324401855,2.396411895751953
1783153083004705800,11.473705810546875,7.043572425842285,5.951847076416016,2.365305185317993
1783153083014416400,11.48341650390625,6.353841304779053,5.566303730010986,2.4466612339019775
1783153083024127200,11.493127197265625,5.063511848449707,4.982155799865723,2.6503500938415527
1783153083033837800,11.502837890625,3.2679975032806396,4.479363918304443,2.3030917644500732
1783153083043548700,11.512548583984374,1.438983678817749,4.551148891448975,0.7564310431480408
1783153083053259300,11.52225927734375,1.3286148309707642,3.9550366401672363,-1.6040884256362915
1783153083062969900,11.531969970703125,2.2911276817321777,3.7731821537017822,-3.177070379257202
1783153083072680700,11.5416806640625,2.9781668186187744,4.395615100860596,-3.722932815551758
1783153083082391300,11.551391357421876,4.677968502044678,4.5822553634643555,-3.8784663677215576
1783153083092102100,11.56110205078125,6.8997039794921875,4.615755081176758,-2.7652056217193604
1783153083101812700,11.570812744140625,7.63729190826416,4.709074974060059,-1.3645070791244507
1783153083111523600,11.580523681640624,7.694719314575195,5.027619361877441,-0.20338992774486542
1783153083121234200,11.590234130859375,7.778468132019043,5.518447399139404,0.4621138870716095
1783153083130945000,11.599945068359375,7.313961505889893,5.9422760009765625,0.893121063709259
1783153083140655600,11.609655517578124,6.62213659286499,5.855835437774658,0.8691928386688232
1783153083150366200,11.6193662109375,5.997310638427734,5.32911491394043,0.37118661403656006
1783153083160077000,11.6290771484375,5.6859450340271,4.984548568725586,-0.08374879509210587
1783153083169787600,11.63878759765625,5.877370834350586,5.0826544761657715,-0.5003990530967712
1783153083179498500,11.64849853515625,5.6859450340271,4.934299468994141,-1.0271191596984863
1783153083189209000,11.658208984375,5.377270698547363,4.67078971862793,-1.5801602602005005
1783153083198919700,11.667919677734375,5.24536657333374,4.613361835479736,-1.8625133037567139
1783153083208630500,11.677630615234374,5.233402252197266,4.682754039764404,-1.8816559314727783
1783153083218341000,11.687341064453125,5.233402252197266,4.682754039764404,-1.8816559314727783
1783153083228052000,11.697052001953125,5.9662041664123535,4.567898273468018,-1.934298038482666
1783153083237762600,11.706762451171874,6.308377742767334,4.60857629776001,-1.8457635641098022
1783153083247473400,11.716473388671876,6.873383045196533,4.479363918304443,-1.8792630434036255
1783153083257184000,11.72618408203125,7.278069019317627,4.295116424560547,-2.1403799057006836
1783153083266894800,11.735894775390625,7.249355316162109,4.268795490264893,-2.5474588871002197
1783153083276605400,11.74560546875,7.2110700607299805,4.371686935424805,-2.9614171981811523
1783153083286316000,11.75531591796875,7.340282440185547,4.570291042327881,-3.1651060581207275
1783153083296027000,11.76502685546875,7.371389389038086,4.927121162414551,-2.911167860031128
1783153083305737500,11.774737548828124,7.199106216430664,5.305186748504639,-2.2169501781463623
1783153083315448300,11.7844482421875,6.978667259216309,5.769693374633789,-1.3956137895584106
1783153083325159000,11.794158935546875,6.981060028076172,6.1313090324401855,-0.6966105103492737
1783153083334869800,11.803869873046875,7.208677291870117,6.191129684448242,-0.18903298676013947
1783153083344580400,11.813580322265626,8.046463966369629,5.879763603210449,-0.12921242415905
1783153083354291000,11.823291015625,8.819944381713867,5.774479389190674,0.062213387340307236
1783153083364001800,11.833001708984375,8.819944381713867,6.059524059295654,0.33529427647590637
1783153083373712400,11.84271240234375,8.376973152160645,6.435197353363037,0.5458626747131348
1783153083383423200,11.85242333984375,8.09671401977539,7.584649562835693,-0.1339980661869049
1783153083393133800,11.8621337890625,6.68435001373291,7.89332389831543,0.17946170270442963
1783153083402844700,11.8718447265625,5.705087184906006,7.1871418952941895,0.7444669604301453
1783153083412555300,11.88155517578125,5.4179487228393555,6.792026996612549,0.7875377535820007
1783153083422266000,11.89126611328125,5.475376605987549,6.380162239074707,0.30179476737976074
1783153083431976700,11.900976806640625,5.796014785766602,6.327520370483398,-0.42382872104644775
1783153083441687300,11.910687255859376,5.987739562988281,6.435197353363037,-0.9433703422546387
1783153083451398100,11.920398193359375,6.155237197875977,6.317949295043945,-1.0055837631225586
1783153083461108700,11.930108642578125,6.736992359161377,5.973382472991943,-1.048654556274414
1783153083470819600,11.939819580078124,7.728219032287598,5.767300605773926,-1.0558329820632935
1783153083480530200,11.9495302734375,8.700303077697754,5.767300605773926,-0.97926265001297
1783153083490240800,11.95924072265625,9.337093353271484,5.791228771209717,-0.7612167000770569
1783153083499951600,11.96895166015625,9.631410598754883,5.817550182342529,-0.40229329466819763
1783153083509662200,11.978662109375,9.782157897949219,5.9901323318481445,0.07417750358581543
1783153083519373000,11.988373046875,10.112667083740234,6.1002020835876465,0.579362154006958
1783153083529083600,11.998083740234375,10.486246109008789,5.903990745544434,1.067797064781189
1783153083538794500,12.00779443359375,10.692028999328613,6.061916828155518,1.1994023323059082
1783153083548505000,12.017505126953125,10.03131103515625,6.109773635864258,1.1467602252960205
1783153083558216000,12.0272158203125,8.56600570678711,6.310770511627197,0.8428717851638794
1783153083567926500,12.036926513671874,5.422734260559082,8.463114738464355,0.20817556977272034
1783153083577637000,12.04663720703125,3.0164520740509033,8.731410026550293,0.05024927482008934
1783153083587348000,12.056347900390625,4.718646049499512,6.181558132171631,-0.28504499793052673
1783153083597058600,12.06605859375,8.187939643859863,5.602196216583252,-0.6702894568443298
1783153083606769400,12.075769287109376,9.274879455566406,6.121737480163574,-0.3448655605316162
1783153083616480000,12.08547998046875,9.265308380126953,6.21984338760376,0.37118661403656006
1783153083626190800,12.09519091796875,9.303593635559082,6.250949859619141,0.7492526173591614
1783153083635901400,12.1049013671875,8.673683166503906,6.473781585693359,0.9601200819015503
1783153083645612000,12.114612060546875,7.749754428863525,6.775277137756348,1.134796142578125
1783153083655323000,12.124322998046875,6.643671989440918,6.854240417480469,0.5913262963294983
1783153083665033500,12.134033447265624,4.840979099273682,7.285247802734375,-0.7468597888946533
1783153083674744300,12.143744384765625,3.1890344619750977,7.5942206382751465,-1.9872392416000366
