time,seconds_elapsed,z,y,x
1782858819542240300,0.264240234375,0.5454407561421394,0.2706774740666151,1.1251996692106128
1782858819552189400,0.274189453125,0.4309913701415062,0.19577683912217617,1.0155772649750112
1782858819562138400,0.284138427734375,0.28566286175251004,0.30130379073768854,1.3926760091483592
1782858819572117200,0.2941171875,0.0978378584176302,0.40261663178950546,1.6372323690086603
1782858819582066200,0.304066162109375,-0.25661270835697647,0.4604463049456477,1.5098296856716273
1782858819592015400,0.314015380859375,-0.608143003770709,0.4125941281855106,1.4148209132000804
1782858819601963300,0.32396337890625,-1.0104074611216782,0.31717122195512054,1.5650260877147315
1782858819611943200,0.333943115234375,-1.1716519160449503,0.29105010774880646,1.8771420721068977
1782858819621891300,0.343891357421875,-0.9064765465259551,0.31987346665114164,1.9554864177644251
1782858819631840300,0.35384033203125,-1.0167278963148594,0.4328486884459853,1.933767045648396
1782858819641789200,0.3637890625,-1.1596586959123611,0.4064417430356145,1.8743226307719945
1782858819651768300,0.373768310546875,-0.996399978557229,0.3999824838936329,1.9605738040313123
1782858819661717500,0.383717529296875,-1.2658715839654207,0.27931787663996216,2.052287334349751
1782858819671666400,0.39366650390625,-1.2270868030190467,0.13670797955989836,2.0606310920640825
1782858819681614300,0.4036142578125,-1.008556280297041,-0.03971563205569982,2.0372119302928446
1782858819691593500,0.413593505859375,-0.7879267394691706,-0.231257025565207,1.8926684348016976
1782858819701542400,0.42354248046875,-0.13179273498952387,-0.3696624566927552,1.7249999381802976
1782858819711491300,0.4334912109375,0.5032920517206192,-0.26480186003148554,1.5252324219867586
1782858819721440300,0.443440185546875,0.35763621107339855,0.06650047086775303,1.360591748753935
1782858819731419400,0.45341943359375,-0.09591711948812007,0.3409223921597004,1.09317824491933
1782858819741368300,0.463368408203125,-0.009958499434590339,0.5038108148977161,0.806061969488114
1782858819751316200,0.473316162109375,0.5546469759047031,0.5804506947249174,0.6920286169424653
1782858819761265200,0.48326513671875,0.7164215921819209,0.4964169052541256,0.9036354778811335
1782858819771244300,0.493244384765625,0.44959319475889203,0.4781362754151225,1.3126250057034194
1782858819781193200,0.503193115234375,0.16700842527747153,0.5640615777209401,1.5056903939098119
1782858819791142100,0.51314208984375,0.07879881142675876,0.6152908296987414,1.4957069061644375
1782858819801091000,0.523091064453125,-0.03223521317243576,0.5515118927493691,1.3799734717026353
1782858819811070200,0.5330703125,-0.40156420012712474,0.3068757456511259,1.0480399302277714
1782858819821019400,0.543019287109375,-0.7640916903734206,0.044132279454171655,0.9670106563352048
1782858819830967300,0.55296728515625,-1.0361001207828522,-0.19781828182190656,0.7909495944216847
1782858819840947000,0.562947021484375,-1.231731998476386,-0.3363432476758957,0.20358762247096746
1782858819850925800,0.57292578125,-0.7813514527320862,-0.18370616983920335,1.262199471323937
1782858819860875000,0.582875,0.05543664053976535,0.15384791493117808,1.9696958526417612
1782858819870824000,0.592823974609375,0.8810621192842721,0.5781970705792308,2.91144274225235
1782858819880771800,0.602771728515625,1.6815636781662702,1.5067442868769167,5.182924031668901
1782858819890752000,0.612751953125,2.4716081404417753,1.4317816926121711,7.055453933805227
1782858819900700000,0.622699951171875,1.531988618248701,-0.6530623419493436,4.535625952334701
1782858819910649000,0.632649169921875,-0.40301206084787844,-0.6908502208128571,2.6702248791649934
1782858819920598000,0.642597900390625,-0.5360924975603819,0.05489245066046714,1.9446485051468014
1782858819930577200,0.6525771484375,0.14776304205954074,-0.294743701569736,1.6142109743833541
1782858819940526000,0.662526123046875,0.22524901732206343,-0.8180483214884996,1.8220467923507093
1782858819950475000,0.67247509765625,-0.3681523443907499,-1.0318524002104996,2.310211563696712
1782858819960423000,0.6824228515625,-0.4870914430260658,-0.9967276030763983,2.46422299862653
1782858819970403000,0.692403076171875,-0.26799451859295365,-0.6584913812607527,2.294416174802184
1782858819980351000,0.70235107421875,0.29788404542207714,-0.3471840829029679,2.3235461154356596
1782858819990300000,0.7122998046875,0.9189385532140731,-0.2229737658664584,2.507481710116565
1782858820000248800,0.722248779296875,0.7483446706652641,0.09947247388213873,2.2060703673511743
1782858820010228000,0.73222802734375,-0.17856793016791342,0.2451543257534504,1.6264368342280386
1782858820020177000,0.742177001953125,-0.9176572812318802,0.22463205446749923,1.360814597724378
1782858820030124800,0.752124755859375,-0.7970037798941135,0.1559624228671193,1.5751365628406404
1782858820040105000,0.76210498046875,-0.5292880782425403,0.0681549600765109,1.9359251004651188
1782858820050052900,0.772052978515625,-0.29544366653263565,-0.19581863243728875,2.0027920665577055
1782858820060001800,0.782001708984375,0.00028057050704956055,-0.4621171607673168,1.9631068296402692
1782858820069951000,0.791950927734375,0.034878421157598496,-0.724336603090167,2.221020683723688
1782858820079930000,0.80193017578125,0.06628419776856899,-0.9362205274045466,2.471878481815755
1782858820089879000,0.811879150390625,0.12580255466401577,-1.0854457509711384,2.7477587852224707
1782858820099828000,0.821827880859375,0.17324819644987582,-1.3876996820405125,3.009776275232434
1782858820109776100,0.831776123046875,0.4615928446322679,-1.2480226235419511,2.689495689085126
1782858820119756000,0.841756103515625,0.37065585164427756,-0.7797662293672561,2.154956266185641
1782858820129704000,0.851703857421875,0.007881108638644219,-0.6084118838399648,1.8692717771232128
1782858820139652900,0.86165283203125,0.007082067215442657,-0.5122095176696777,1.932562053772807
1782858820149602000,0.87160205078125,-0.009285130217671394,-0.41867286357730626,2.2398229993492365
1782858820159581000,0.881580810546875,-0.2267284422248602,-0.3344423824906349,2.6145266650795933
1782858820169529900,0.89152978515625,-0.19068857607245443,-0.026762334719300267,2.7366619294077155
1782858820179478000,0.90147802734375,-0.20034721577763556,0.39707682558000085,2.4793933874905107
1782858820189427000,0.911427001953125,-0.14720190104544162,0.5024865805566311,2.039699070933461
1782858820199405800,0.92140576171875,0.1315308691829443,0.3525146302759647,1.9040970067888496
1782858820209354800,0.931354736328125,0.2781529245138168,0.3920207112342119,1.9438404036343095
1782858820219304000,0.941303955078125,0.16177344723343848,0.6104951198548079,2.0221336036264894
1782858820229253000,0.951253173828125,-0.17126023750305175,0.9783817990466952,2.296217086744308
1782858820239232000,0.96123193359375,-0.23752046987414357,1.2979463458791374,2.982737461659312
1782858820249181000,0.971180908203125,0.020458266139030457,1.574654040020704,3.5466561237782237
1782858820259129000,0.981129150390625,0.5666039556801319,1.7964023557454347,3.7832477883696556
1782858820269078000,0.991078125,1.618720560762286,1.8035457977592944,3.540555468815565
1782858820279057200,1.00105712890625,2.573105690410733,1.5590265550389886,4.106473780319094
1782858820289006000,1.011006103515625,3.3248034708961844,0.8649912744492292,4.653910094192624
1782858820298955000,1.020955078125,3.8746684732213614,-0.2744932329624891,4.93529191762507
1782858820308904000,1.030904052734375,3.945744873702526,-2.1758482475668193,5.637112737524509
1782858820318882800,1.0408828125,2.967394346576929,-2.956245176053047,4.8763949074983595
1782858820328832000,1.05083203125,3.0430829170286655,-2.562852007421851,4.785861819136143
1782858820338780000,1.06077978515625,2.9706740988999605,-1.4183397349759936,4.848897828763723
1782858820348728800,1.070728759765625,2.64224761569798,-0.45304567330032586,3.432491399937868
1782858820358708000,1.0807080078125,2.774861019420624,-0.23651158509254455,1.9554396560132503
1782858820368657000,1.090656982421875,3.3215164120495317,0.04149930060207844,1.2731839528053999
1782858820378606000,1.100606201171875,3.7415532574564216,0.6366504285916685,1.0370558140724897
1782858820388554000,1.110553955078125,3.602753274053335,1.2476701568424702,0.9569277998685837
1782858820398534100,1.1205341796875,2.9851942071616646,1.767432574109733,1.1552736126959324
1782858820408482000,1.13048193359375,2.380043955466151,2.050394944731891,1.4300462471216917
1782858820418431000,1.140430908203125,2.090240925168991,2.0408757134974,1.224710137015581
1782858820428380000,1.1503798828125,2.1080583214104176,1.9657135050073264,0.861248580789566
1782858820438359000,1.160359130859375,0.9798124894369393,2.104578516470641,0.6077344229698181
1782858820448308000,1.170307861328125,-4.8133004456818105,2.897218109805882,0.5483212800145149
1782858820458257000,1.1802568359375,-4.305016577023268,4.101008500650525,0.6187964997321367
1782858820468205000,1.190205078125,-0.24242870018184184,4.502651611232757,0.8194102574914693
1782858820478185000,1.20018505859375,1.3496183731883764,3.301071005392074,0.9394178621411323
1782858820488132900,1.2101328125,1.1876029338926075,1.803954963082075,1.0966788003861903
1782858820498082000,1.22008203125,0.8367781563997269,1.4520856449723243,1.4397224224835634
1782858820508031000,1.230031005859375,0.8308218783438205,1.8028072543516753,1.568815250864625
1782858820518009900,1.240009765625,0.7308931120615452,1.8438094190865755,1.4913047256827354
1782858820527958800,1.249958740234375,0.833038385349512,1.6850146954029797,1.1445289313197136
1782858820537907000,1.259906982421875,0.8348246111791581,2.2345596719935537,0.7247399231940508
1782858820547856000,1.26985595703125,0.5473788845978677,2.8334204681560395,0.2773556366562843
1782858820557834800,1.279834716796875,0.10030760953202843,3.0678648915857076,0.0730067840218544
1782858820567784200,1.2897841796875,0.014905454317480325,3.097250560545921,0.133556822052598
1782858820577733000,1.299733154296875,0.2082628112077713,3.0233649478629228,0.3656032444298267
1782858820587682000,1.30968212890625,0.3541808099225163,2.9623353096216913,0.5318167199373245
1782858820597661000,1.319660888671875,0.3907084595918655,3.064962155881524,0.6933043359667063
1782858820607610000,1.329610107421875,0.1654176489546895,3.008694909736514,0.9237152660965919
1782858820617558000,1.33955810546875,-0.03309942878633737,2.7516847264945508,0.9642010057419538
1782858820627507000,1.3495068359375,0.22549948495179414,2.357680147966742,0.8689806363463402
1782858820637486000,1.359486083984375,0.438837699727714,2.036939250831306,0.46102235126793384
1782858820647435000,1.36943505859375,0.3625707448661327,1.9111898876592517,-0.21224340527653693
1782858820657384000,1.379384033203125,0.2240688676267862,2.2024577298119663,-0.5906166994303464
1782858820667331800,1.389331787109375,0.08387041560262441,2.7200942409664393,-0.8119535117447376
1782858820677312000,1.39931201171875,-0.09306786753684282,3.199813693919778,-0.8419125966787337
1782858820687260000,1.409260009765625,-0.20382365971654653,3.2413352063536642,-0.6892904241502285
1782858820697208800,1.419208740234375,-0.19589462028294802,2.939706129184365,-0.5363450110167265
1782858820707157800,1.42915771484375,-0.21910335417389867,2.477569094672799,-0.3123211515754461
1782858820717137000,1.439136962890625,-0.2054018688187003,2.1616046181589366,-0.11313012009561062
1782858820727086000,1.449086181640625,-0.20301029750704763,2.144741746163368,-0.1809352438211441
1782858820737035000,1.459034912109375,-0.18771569774150848,2.1899135977983475,-0.4890004915177822
1782858820746983200,1.468983154296875,-0.21562661797404287,2.0402000061929226,-0.9179869515776634
1782858820756963000,1.478963134765625,-0.2889142647638917,1.8760124835550784,-1.4159288744419811
1782858820766911000,1.488910888671875,-0.32923779958486554,1.9015952531009912,-2.0911165389597413
1782858820776860000,1.49885986328125,-0.43221652802228927,1.9534704017668962,-2.64981951225698
1782858820786809000,1.50880908203125,-0.5644853560909628,1.8670149381071328,-2.987576718384027
1782858820796788000,1.5187880859375,-0.5961038986697793,1.710814907091856,-3.322375659227371
1782858820806737000,1.52873681640625,-0.6041325990855694,1.5149877990871667,-3.6167794613182545
1782858820816685800,1.538685791015625,-0.5150283744826912,1.3058289158225058,-3.8733419007927177
1782858820826634000,1.548634033203125,-0.46388972339779133,0.9685171153753995,-4.117431227663159
1782858820836634000,1.558634033203125,-0.534311167101562,0.5766513024419546,-4.350291889032722
1782858820846582300,1.568582275390625,-0.6125079209819436,0.340842897182703,-4.41756509783864
1782858820856531200,1.57853125,-0.6509817362830043,0.2346574816584587,-4.385367878589034
1782858820866480000,1.588480224609375,-0.6560200227111578,0.22060323734283446,-4.380103966711461
1782858820876459000,1.598458984375,-0.6586147153794765,0.1087649106234312,-4.383630679532885
1782858820886408200,1.608408203125,-0.7028092464148998,-0.17334698064923285,-4.325631787289679
1782858820896356000,1.618356201171875,-0.6905319486439228,-0.4434504542201757,-4.165335134610533
1782858820906305000,1.628304931640625,-0.7073635487183928,-0.5903600943207741,-3.9640950616464017
1782858820916284200,1.6382841796875,-0.8162707904219627,-0.5861690723717212,-3.7755595719546076
1782858820926233000,1.648233154296875,-0.9066219463460147,-0.6144704532265662,-3.594904021857679
1782858820936182300,1.658182373046875,-0.8565756205424666,-0.7106096910327673,-3.407427101308107
1782858820946131200,1.668131103515625,-0.7531623000800609,-0.831501677301526,-3.204440184676647
1782858820956110300,1.6781103515625,-0.7144203353621065,-1.0415116244375706,-3.0747002905637024
1782858820966059300,1.688059326171875,-0.7018686045639216,-1.2268711144417523,-3.0594939536035057
1782858820976007200,1.698007080078125,-0.6542313857287169,-1.1801362512737512,-3.1097230886280536
1782858820985956000,1.7079560546875,-0.5302528316214681,-0.9157833040535449,-3.1822546563535927
1782858820995935200,1.717935302734375,-0.3931479616984725,-0.705906627908349,-3.179506818950176
1782858821005884200,1.72788427734375,-0.3342398456558585,-0.5908376487046479,-3.193186384734511
1782858821015833000,1.7378330078125,-0.16230302406549452,-0.4378992498338222,-3.157654760365188
1782858821025781200,1.74778125,-0.02690101253762841,-0.3033382191747427,-3.0674244543418285
1782858821035761200,1.75776123046875,-0.01795154401510954,-0.3369745313167572,-2.871145218655467
1782858821045709000,1.767708984375,0.0782427849791944,-0.43764965898692604,-2.6057278570741413
1782858821055658000,1.777657958984375,0.33627880413755773,-0.5142851548999547,-2.336001984643936
1782858821065607200,1.787607177734375,0.6023601825855672,-0.41342181118130683,-2.0881249559283255
1782858821075586000,1.7975859375,0.9269992562033236,0.22890695530772207,-1.8239041106551885
1782858821085535200,1.80753515625,1.1750116017363965,1.2474123826891184,-1.5978703726962207
1782858821095484200,1.817484130859375,1.1736406056441366,2.1275988881826398,-1.5552575578942893
1782858821105432300,1.827432373046875,1.11526455065161,2.742329453650117,-1.6615382504865526
1782858821115412200,1.837412109375,1.0889502519607543,2.8567537052094933,-1.6803315060228108
1782858821125360000,1.847360107421875,0.9507060027442872,2.3594091637164354,-1.7125021295264362
1782858821135309300,1.857309326171875,0.7632568469844758,1.6861474988251923,-1.7996178106606004
1782858821145258200,1.86725830078125,0.6824423118211329,1.1685282310664653,-1.8110694712623954
1782858821155237000,1.877237060546875,0.6168215463973581,0.8822118738412856,-1.7725190835937856
1782858821165186000,1.88718603515625,0.42828605670556424,0.7242296355843544,-1.703541408957541
1782858821175134200,1.89713427734375,0.20194179149270056,0.6046656830489635,-1.600021997772157
1782858821185083100,1.907083251953125,0.08484086806997657,0.5135919119387865,-1.599869145298004
1782858821195062300,1.917062255859375,0.11451149145141243,0.3343476899445057,-1.619770654337108
1782858821205011200,1.92701123046875,0.2684554141029715,0.023320669832825658,-1.5775313490226863
1782858821214960000,1.936960205078125,0.4828184418819844,-0.4803384616345167,-1.577364175762236
1782858821224909000,1.946908935546875,0.8685833075918257,-0.8427320963680743,-1.4192822765231132
1782858821234888200,1.95688818359375,1.1660964738748967,-1.072617541319132,-1.1952809211745858
1782858821244837400,1.96683740234375,1.4170986488737165,-1.1058370893537997,-0.9474167519405484
1782858821254785000,1.976784912109375,1.4218810608446597,-0.7927683342814446,-0.5486214320048689
1782858821264734200,1.986734130859375,1.0439162013612686,-0.5283277087777852,-0.42424686431735753
1782858821274713300,1.99671337890625,0.7604000693138688,-0.39127252321541306,-0.4618906585350632
1782858821284662300,2.006662353515625,0.7896516635656357,-0.3476630985915661,-0.4095256805256009
1782858821294611200,2.016611083984375,0.840147267506644,-0.3240513368576765,-0.48899026238471266
1782858821304560000,2.02656005859375,0.7787620938260108,-0.2563350604593754,-0.6242834067106247
1782858821314539300,2.036539306640625,0.6669090809941292,-0.10831073711514472,-0.668434975387156
1782858821324488200,2.04648828125,0.5229729037463665,0.038352234748005865,-0.645478462691605
1782858821334436000,2.05643603515625,0.3026337972324341,0.10849544603228568,-0.6330404214009642
1782858821344385000,2.066385009765625,0.11092574191913009,0.06614215894937515,-0.5023234989494085
1782858821354364200,2.0763642578125,0.0045568595867604015,0.06426701272726058,-0.19634733248651026
1782858821364313000,2.08631298828125,-0.21659093296155332,0.1874351272344589,0.05893441952764988
1782858821374262000,2.096261962890625,-0.395454923466593,0.39616204882264133,0.09644435823261738
1782858821384210200,2.106210205078125,-0.47511561241969463,0.5191378556281327,0.05360299537181854
1782858821394190000,2.116190185546875,-0.5475904815219342,0.659154813605547,0.09231938725709915
1782858821404138000,2.126137939453125,-0.680716803202778,0.8497720780074596,0.16641104390621184
1782858821414087200,2.136087158203125,-0.9571955108940601,1.007278515446186,0.19915362207889556
1782858821424066000,2.146066162109375,-1.2350316245436668,1.0909113229006528,0.21832009484171866
1782858821434015200,2.15601513671875,-1.42639356983304,1.1000228501170872,0.32189445108473297
1782858821443964200,2.165964111328125,-1.5735506088234483,1.1391185967087745,0.4324982675731182
1782858821453913000,2.1759130859375,-1.7481269851371646,1.2194272281765937,0.5090256269365548
1782858821463892200,2.185892333984375,-2.223356579325348,1.0243056380927562,0.5213976172536611
1782858821473841200,2.195841064453125,-2.765299702610075,0.6424491779983044,1.1931857024610042
1782858821483789300,2.205789306640625,-2.7554633682504295,1.3290724287658928,1.8296634048342704
1782858821493738200,2.21573828125,-2.8141885289415716,2.215527931526303,1.1907330486118792
1782858821503717000,2.225717041015625,-2.44440741430521,2.2262024702757595,1.0788193185687065
1782858821513666000,2.235666015625,-2.04107182059139,1.6602561017215252,1.2736527393609285
1782858821523615200,2.245615234375,-1.5962528544969856,0.9938771820813417,1.4048901785552501
1782858821533563100,2.255563232421875,-1.5820868203699587,0.7541887205183505,1.3599059584468602
1782858821543543000,2.26554296875,-1.8104761815443633,1.0329957250267268,1.2713082220613956
1782858821553491200,2.2754912109375,-1.9049102228678763,1.467709330561757,1.1181272466063499
1782858821563440000,2.285440185546875,-1.877001786853373,1.5266589476585388,1.0663894605845212
1782858821573389000,2.29538916015625,-1.7258429648756979,1.303628190907836,1.0912380706369875
1782858821583368000,2.305367919921875,-1.5116647921442985,1.0905880822956562,1.025527873364091
1782858821593317400,2.3153173828125,-1.2351286551773548,0.9437906703978777,0.9907885684162377
1782858821603266300,2.325266357421875,-0.9805801858738065,0.7833318128943443,1.0162257920116184
1782858821613214200,2.335214111328125,-0.8306146653339266,0.5782061306685209,1.0399445212513208
1782858821623194000,2.345194091796875,-0.6629799248516559,0.41163785037398337,1.1198550933122635
1782858821633142300,2.355142333984375,-0.5205426078595221,0.2816325833231211,1.1934037291258572
1782858821643091200,2.36509130859375,-0.40528789682537314,0.17387480391561985,1.2597843730062246
1782858821653040000,2.3750400390625,-0.31572716062664985,0.11481412765979766,1.3432868320792912
1782858821663019300,2.385019287109375,-0.2148781376942992,0.11921148583590983,1.395442551252246
1782858821672968200,2.39496826171875,-0.11140168886780738,0.1826432167828083,1.3953332456588745
1782858821682916000,2.404916015625,-0.014310411033779382,0.21042554219961165,1.3156436228722332
1782858821692865000,2.414864990234375,0.04857493807673454,0.23073358621299264,1.1181821916639805
1782858821702844200,2.42484423828125,0.06104746615886688,0.3075859397470951,0.8900193327218293
1782858821712793000,2.43479296875,0.06658522654175758,0.3981213661968708,0.7380255212247371
1782858821722742000,2.444741943359375,0.07408581143021584,0.48657472567558285,0.6510077475070953
1782858821732691200,2.454691162109375,0.03277048909291625,0.5439040480941534,0.5949474221110344
1782858821742670000,2.464670166015625,0.012597615766525268,0.5226017323464155,0.5615373199403285
1782858821752619300,2.474619384765625,0.010523001449555158,0.5539817899942397,0.5359007743805646
1782858821762567200,2.484567138671875,-0.018129530930519104,0.6855553292751312,0.5161959569573402
1782858821772516400,2.494516357421875,-0.037230391111224885,0.7642214542329311,0.4974345578640699
1782858821782495200,2.5044951171875,-0.06333163157328962,0.6835217776209116,0.4818576340258121
1782858821792444200,2.514444091796875,-0.087218849247694,0.6615145284742117,0.5311562102019787
1782858821802393000,2.52439306640625,-0.1115888820029795,0.6490279718667268,0.6269716228812933
1782858821812342300,2.53434228515625,-0.09970087581053376,0.55547348985672,0.7340759068161249
1782858821822321200,2.544321044921875,-0.003784340844303369,0.5796358712106943,0.6966536463946104
1782858821832269300,2.554269287109375,0.16972177588939666,0.7417080091297626,0.6136369250118732
1782858821842228500,2.564228515625,0.4493246069505811,0.7977168965995312,0.5374614478260279
1782858821852177400,2.574177490234375,0.7042179441690445,0.6782698484420776,0.49775546038150786
1782858821862156300,2.58415625,0.7827823623180389,0.5191413627594709,0.5164800345957279
1782858821872105500,2.59410546875,0.750433751899004,0.5923135664761066,0.5909516304731368
1782858821882054400,2.604054443359375,0.6703285340487957,0.8490893564403057,0.6494400597989559
1782858821892002300,2.614002197265625,0.5603720755532383,1.0098924973368644,0.6414923156648874
1782858821901982200,2.623982177734375,0.5010290752246975,1.1386094781428575,0.5686152955025434
1782858821911930400,2.633930419921875,0.40990284327492116,1.2892629809468983,0.44945174046158787
1782858821921879300,2.64387939453125,0.24090792035534977,0.9171089996993541,0.39963527789115905
1782858821931828200,2.653828125,0.1957116649314761,0.4412999981880188,0.30042496207654473
1782858821941807400,2.663807373046875,0.23785978483110665,0.15707330671846867,0.07437690333127975
1782858821951756300,2.67375634765625,0.25229323772266504,0.1843243017375469,-0.22572715622782705
1782858821961705200,2.683705322265625,0.22427286576628683,0.5018132113397121,-0.5498772772848606
1782858821971653000,2.693653076171875,0.16009966880232096,0.7658943558812141,-0.8744038304388523
1782858821981633300,2.70363330078125,0.08155687796324491,0.7973094848424196,-1.1816910795003175
1782858821991581200,2.713581298828125,0.056978901545703405,0.7374597040355205,-1.4163748646438121
1782858822001530400,2.7235302734375,0.0801066791549325,0.6874480111539364,-1.5940443846672772
1782858822011479300,2.733479248046875,0.0053492520734667775,0.446961677211523,-1.7586907569885253
1782858822021458400,2.74345849609375,-0.1739157204478979,0.0710071346372366,-1.9059177924752235
1782858822031407400,2.753407470703125,-0.2804565252810716,-0.2602998724371195,-1.9605612368106842
1782858822041355300,2.763355224609375,-0.3317015593498945,-0.5676864902198314,-1.935210522454977
1782858822051304400,2.773304443359375,-0.48429304447919125,-0.9249030145764351,-1.8935580771178007
1782858822061283300,2.783283447265625,-0.667002604496479,-1.30099082814157,-1.786487110930681
1782858822071232300,2.793232177734375,-0.768117584888637,-1.564249550384283,-1.6168144348800182
1782858822081181200,2.80318115234375,-0.79616177611202,-1.7378730098873376,-1.4216612806141375
1782858822091130400,2.81313037109375,-0.8720636970534921,-1.8356418947219848,-1.1977934885174035
1782858822101109200,2.823109130859375,-1.016635249595344,-1.821055150964856,-0.9163263248890637
1782858822111058200,2.83305810546875,-1.197671323442459,-1.6899311090171336,-0.620343729174137
1782858822121006300,2.84300634765625,-1.3212126551762222,-1.4959575199246407,-0.34943946061432357
1782858822130955300,2.852955322265625,-1.38048668192178,-1.3229203358769417,-0.07685469162166118
1782858822140934100,2.86293408203125,-1.463356396049261,-1.1781792719870805,0.13301847739219666
1782858822150883000,2.872883056640625,-1.5619804364085197,-0.9979770186156034,0.24174071791768073
1782858822160832500,2.88283251953125,-1.7114330389901995,-0.8912298775553703,0.29220775335133076
1782858822170780200,2.8927802734375,-1.8508175442829726,-0.8153957611531019,0.29867022736370563
1782858822180760300,2.90276025390625,-1.9639473721176384,-0.6329167950212955,0.2167933236658573
1782858822190708500,2.91270849609375,-2.02705644698143,-0.4516822759926319,0.05892097552418708
1782858822200657400,2.922657470703125,-2.052341694885492,-0.29580256297290325,-0.11445640026330947
1782858822210606300,2.9326064453125,-2.068352918487787,-0.13467793503701686,-0.2628209153473377
1782858822220585500,2.94258544921875,-2.021069481526315,0.07614099039435386,-0.4628542428702116
1782858822230534400,2.952534423828125,-1.9929113085344432,0.2840413980305195,-0.6766852095991372
1782858822240483300,2.9624833984375,-1.9655498388782142,0.41651100936830043,-0.8883400013327598
1782858822250431200,2.97243115234375,-1.9477341962024568,0.5017115045309066,-1.084549386653304
1782858822260411100,2.9824111328125,-1.8686887165382504,0.5692535934060812,-1.2277104878753422
1782858822270359300,2.992359375,-1.8153727214142679,0.5906219601273537,-1.371620361638069
1782858822280308200,3.00230810546875,-1.7782924062982202,0.551055088892579,-1.4698480961561202
1782858822290257200,3.012257080078125,-1.7305141715571284,0.5274006570607424,-1.5210811475262045
1782858822300236300,3.022236328125,-1.6933561150297523,0.4596551545679569,-1.5361469069719313
1782858822310185200,3.032185302734375,-1.626685840553045,0.3848018658965826,-1.5184177735358475
1782858822320133000,3.042133056640625,-1.5633233754500746,0.3491676579356193,-1.4414879708513617
1782858822330082300,3.052082275390625,-1.5337316625237465,0.3571422900766134,-1.3309864456936715
1782858822340061200,3.062061279296875,-1.546821153460443,0.385185312256217,-1.1979729367375374
1782858822350010400,3.07201025390625,-1.5463856846526265,0.396582320061326,-1.0248714552819729
1782858822359959300,3.081959228515625,-1.541727921974659,0.41713761683404443,-0.8661538884878158
1782858822369908200,3.091908203125,-1.5551067512467502,0.505028666254878,-0.7157306873083115
1782858822379887400,3.101887451171875,-1.6251695907711983,0.5936000991553068,-0.5906003328174352
1782858822389836300,3.111836181640625,-1.708591678084433,0.6303098273932933,-0.49182431676685806
1782858822399784400,3.121784423828125,-1.7343313917577265,0.6197171217083931,-0.4018716586410999
1782858822409733400,3.1317333984375,-1.6904577632397413,0.5786953754901886,-0.28367139567434785
1782858822419712300,3.141712158203125,-1.693057716605067,0.5049333891868591,-0.18571429479122162
1782858822429661200,3.1516611328125,-1.7211182744413613,0.47252340396940706,-0.0655517918407917
1782858822439610400,3.1616103515625,-1.7100076823621988,0.4407283357799053,0.07760171059668064
1782858822449559300,3.171559326171875,-1.675653577339649,0.3460153313845396,0.22968378489911556
1782858822459538200,3.1815380859375,-1.6395353852540253,0.2560550744742155,0.44139410621225833
1782858822469487000,3.191487060546875,-1.5685075000897049,0.22477497006952762,0.6433364822268486
1782858822479435300,3.201435302734375,-1.3574673331230878,0.19826514880657195,0.8112941710531711
1782858822489384400,3.211384521484375,-1.1633923294827342,0.12064473350942134,0.9832061504632233
1782858822499363000,3.221363037109375,-1.0586766942501067,-0.039463410860300065,1.1648691240370272
1782858822509312500,3.2313125,-0.9573536240652203,-0.17288520835638047,1.3685188884913921
1782858822519261400,3.241261474609375,-0.8733131125926971,-0.26576047593057156,1.5743220315873623
1782858822529209300,3.251209228515625,-0.7924757810756564,-0.3467909919321537,1.7813298742979764
1782858822539189200,3.261189208984375,-0.7263540803924202,-0.36014556354582306,1.963414872676134
1782858822549137400,3.271137451171875,-0.6596095716357231,-0.30959201887249943,2.1175001034945247
1782858822559086300,3.28108642578125,-0.568634584724903,-0.1982633952409029,2.2271756992220877
1782858822569035300,3.29103515625,-0.4980968211650848,-0.09023322863280772,2.355387068593502
1782858822579014400,3.301014404296875,-0.42767800780981774,-0.061986208313703536,2.493548169571161
1782858822588963300,3.31096337890625,-0.3457774309754371,-0.02269406236708164,2.647304899087548
1782858822598912300,3.320912353515625,-0.31039749003648753,0.09792086052596569,2.7533038521289823
1782858822608860200,3.330860107421875,-0.32186317916363477,0.30600188542604445,2.783155969557166
1782858822618840300,3.34084033203125,-0.42817280558943743,0.47483694160878653,2.6842437599062916
1782858822628788200,3.350788330078125,-0.44042686861529945,0.6287111600250005,2.5661113014787436
1782858822638737200,3.360737060546875,-0.29758009403944014,0.9512480006664991,2.4770120453119278
1782858822648686300,3.370686279296875,-0.17403759326189755,1.4674813670247793,2.390782791623473
1782858822658665200,3.380665283203125,-0.200971192894876,1.962223032543063,2.3721727836996314
1782858822668614400,3.390614501953125,-0.23662936625331638,2.368693709412217,2.402959551629424
1782858822678562300,3.400562255859375,-0.2659951614692807,2.575783969709277,2.293071189934015
1782858822688511500,3.410511474609375,-0.2745762350708246,2.3720950422883034,1.9814491265386343
1782858822698490400,3.420490478515625,-0.2370958147212863,2.003065330541134,1.5866174495369194
1782858822708439300,3.430439208984375,-0.23905630113929507,1.597338165515661,1.040895538365841
1782858822718388200,3.44038818359375,-0.24554040246158837,1.2135919461518525,0.4080553157120943
1782858822728337400,3.45033740234375,-0.2523345926463604,1.097609943756461,-0.14584581026136875
1782858822738316300,3.46031640625,-0.34328239928931,1.2237900995612143,-0.5738800841629504
1782858822748265200,3.47026513671875,-0.4706520571395755,1.2484130841642618,-0.818970697030425
1782858822758213400,3.48021337890625,-0.6052183484956621,1.1419219636917113,-0.9208885182380676
1782858822768162300,3.490162353515625,-0.7281032621473074,1.0080179356366394,-0.8800918129473924
1782858822778141200,3.50014111328125,-0.8031056039005517,0.8969891717344521,-0.7904699942111969
1782858822788090000,3.510090087890625,-0.8708788711830973,0.8080401376932859,-0.685794398728013
1782858822798039300,3.520039306640625,-0.9655226097345352,0.763406630718708,-0.5138029243409633
1782858822807987200,3.5299873046875,-1.0650184644922613,0.6507277615219355,-0.3373527169793844
1782858822817967400,3.53996728515625,-1.1942013092443347,0.39887773752212524,-0.22517595208585262
1782858822827915300,3.549915283203125,-1.25683692137748,0.20728958226144312,-0.09969079280793666
1782858822837904000,3.55990380859375,-1.2720520261660218,0.1516682328045368,0.018972411495447157
1782858822847883000,3.569883056640625,-1.271317720542103,0.12973697150349617,0.13554185838997362
1782858822857832200,3.579832275390625,-1.2540332621335983,0.19346037887334822,0.22356968593299387
1782858822867781000,3.589781005859375,-1.2657131785333156,0.25145897885560986,0.26098259400427337
1782858822877730000,3.59972998046875,-1.2390886448495089,0.38260464811325073,0.28756255789399143
1782858822887709200,3.609709228515625,-1.1719777869984507,0.535948705175519,0.3394008816808462
1782858822897658000,3.619658203125,-1.1166313089601694,0.5720213045537471,0.36626316964328287
1782858822907606000,3.62960595703125,-1.0415164467431604,0.6107593237489461,0.3192068194359541
1782858822917555200,3.63955517578125,-0.9870584419772028,0.6266776083707809,0.19163374796807764
1782858822927534000,3.6495341796875,-0.9654659111112356,0.6602274112731218,0.013252864804863929
1782858822937483000,3.65948291015625,-0.996720588813722,0.6754384244084358,-0.19747896686494348
1782858822947432000,3.669431884765625,-1.0183470219492912,0.6576788958340883,-0.5062310277819633
1782858822957381000,3.679381103515625,-1.0189864888966083,0.6674059246003627,-0.8410919279456138
1782858822967360000,3.689360107421875,-0.9358590006157755,0.6350678355753422,-1.163806463241577
1782858822977309000,3.699308837890625,-0.8384566110059618,0.5275964718937873,-1.4133739292621612
1782858822987257000,3.709257080078125,-0.8138742506742477,0.3911889365851879,-1.6362474496245383
1782858822997206000,3.7192060546875,-0.8067372384011745,0.2543172908961773,-1.8314421049445866
1782858823007185000,3.729184814453125,-0.8060521787464618,0.16558686804175377,-1.9513544325262306
1782858823017134000,3.739134033203125,-0.7541843366041779,0.17870237020254134,-2.024401840819418
1782858823027083300,3.749083251953125,-0.6173974465891718,0.34317046334743495,-2.0070544001773
1782858823037031200,3.75903125,-0.5951838612154126,0.32251988950669763,-2.006718592351675
1782858823047011000,3.769010986328125,-0.626936843828857,0.14936638560295104,-1.9748352613568305
1782858823056959200,3.778959228515625,-0.6844567203834653,-0.020237901386618615,-1.8460326480939984
1782858823066908200,3.788908203125,-0.753805566419661,-0.15890461379885673,-1.6918167766332626
1782858823076857000,3.798857177734375,-0.7872156685903668,-0.12725509155988693,-1.4670669410049915
1782858823086836200,3.808836181640625,-0.9006000557079911,-0.05652969647347927,-1.2530159017845988
1782858823096785200,3.81878515625,-1.057245784664154,-0.07700140661597252,-1.0456056157529354
1782858823106734000,3.828734130859375,-1.1649719998896122,-0.12110124510526657,-0.8200625839203596
1782858823116682000,3.838681884765625,-1.2112594115510582,-0.17428922993540763,-0.5768658219754695
1782858823126662000,3.848661865234375,-1.2629907678321004,-0.24095862762928008,-0.35195641187131405
1782858823136610000,3.858610107421875,-1.3200877427995203,-0.2511608726918697,-0.1783294452369213
1782858823146559000,3.86855908203125,-1.3257248719036578,-0.1322486620634794,-0.013684241959452628
1782858823156508200,3.878508056640625,-1.3470365400016306,0.036734862679243085,0.07913432699143887
1782858823166487000,3.888487060546875,-1.4187050611570478,0.1249035599976778,0.10817132864445447
1782858823176436200,3.898436279296875,-1.4241457909062505,0.16993220376968382,0.11654022080004214
1782858823186384100,3.908384033203125,-1.3802432285547255,0.17247487398982048,0.10900398007631301
1782858823196333000,3.9183330078125,-1.390386436906457,0.09654606504142284,0.07257774495482444
1782858823206312200,3.928312255859375,-1.3757424100041389,0.00025017536878585813,-0.007543839508295059
1782858823216261000,3.93826123046875,-1.2443705307751893,-0.05828969188332557,-0.06911182240992784
1782858823226210000,3.9482099609375,-1.1533829766437411,-0.08183598716557025,-0.15022621730268002
1782858823236159000,3.958158935546875,-1.1041489901363848,-0.05856324812769889,-0.2653577403485775
1782858823246138000,3.96813818359375,-1.0457400557875633,-0.0006464812099933624,-0.3487023785114288
1782858823256087000,3.978087158203125,-0.989838720345497,0.006764087307453155,-0.3713905956596136
1782858823266035200,3.98803515625,-0.9709399586081504,0.002124152547121048,-0.3484422662705183
1782858823275984100,3.997984130859375,-0.9796116331025958,0.022411153772473335,-0.2811062213614583
1782858823285963000,4.007962890625,-0.9094929717376827,0.11142740783095359,-0.20801409714370964
1782858823295912000,4.017911865234375,-0.8368176116272806,0.2889104653716087,-0.10826689797341824
1782858823305861000,4.027861083984375,-0.8451827043905854,0.5528285283058881,0.0068003276646137235
1782858823315809000,4.03780908203125,-0.8494014911293983,0.8101835794627666,0.07072013438940047
1782858823325789000,4.047788818359375,-0.7925055916920304,0.9884154095441102,0.15549334405064583
1782858823335737000,4.057737060546875,-0.7372226804092527,1.071600473231077,0.2460159110188484
1782858823345686300,4.067686279296875,-0.7270636899664997,1.1254203262239695,0.2847305493384599
1782858823355635200,4.07763525390625,-0.70537325168401,1.150441954755783,0.32956279375553127
1782858823365614000,4.087614013671875,-0.7060360995069146,1.0927245098024605,0.3115332160681486
1782858823375563300,4.097563232421875,-0.6327487449780106,1.1657903305351733,0.21206629514396189
1782858823385512200,4.10751220703125,-0.5146855523943901,1.517277371329069,0.08261106319129466
1782858823395460000,4.117460205078125,-0.5036079858019947,1.9178040451020002,-0.04694996722340584
1782858823405440000,4.12743994140625,-0.5543944624483585,2.2102350858151913,-0.20561083539426325
1782858823415388200,4.13738818359375,-0.5880433418110013,2.3929724106222388,-0.28748627778738733
1782858823425337000,4.147337158203125,-0.6372025095164775,2.5268717625021933,-0.4521481399387121
1782858823435286000,4.1572861328125,-0.7544488327592611,2.779073084157705,-0.6769330468803644
1782858823445265200,4.16726513671875,-0.9394003264844417,2.678625335502624,-0.8094646175384521
1782858823455214000,4.177214111328125,-1.1280679181233049,2.10268188906908,-0.9958300697147846
1782858823465163000,4.1871630859375,-1.190929447966814,1.2940028689503669,-1.1877145775735378
1782858823475111000,4.19711083984375,-1.1007891583144664,0.5603308667600154,-1.3691916731864213
1782858823485090000,4.207090087890625,-1.0101426727056502,0.03413490931391716,-1.5395166756659746
1782858823495039000,4.2170390625,-0.9531403902843594,-0.31474574837386604,-1.6920564306080341
1782858823504988200,4.22698828125,-0.8265604215070604,-0.6147387487739324,-1.7884359069108962
1782858823514937000,4.23693701171875,-0.6799369048714637,-0.8702689225912094,-1.6952800688296557
1782858823524916200,4.246916259765625,-0.5351654458433389,-1.0953127727299927,-1.4294798454105853
1782858823534865200,4.256865234375,-0.46275633545368905,-1.3777017273783683,-1.1030845757752656
1782858823544813000,4.26681298828125,-0.4041036554768681,-1.7655279095321892,-0.8469824472889304
1782858823554762200,4.27676220703125,-0.20925416033267974,-1.9568676429897545,-0.684580346763134
1782858823564741000,4.2867412109375,0.0707128278657794,-1.870964552515745,-0.5601970112472773
1782858823574690000,4.29668994140625,0.2911781180426478,-1.7981681963741778,-0.47514673821032044
1782858823584639000,4.306638916015625,0.4463599119260907,-1.8543255524039268,-0.34440438905656334
1782858823594588200,4.316588134765625,0.573944381570816,-1.9126970773518084,-0.13965163179636
1782858823604567000,4.326567138671875,0.6669698712706565,-1.9782406858861445,0.1794920592755079
1782858823614516000,4.336515869140625,0.6973534652270377,-1.8619149846196175,0.400407431307435
1782858823624464100,4.346464111328125,0.6025543899834156,-1.6448709010630844,0.5067331320852041
1782858823634413000,4.3564130859375,0.4252933046303689,-1.5109709646612406,0.5946382100313902
1782858823644392000,4.366391845703125,0.2836768025018275,-1.1850865671575068,0.5545107823044061
1782858823654340900,4.3763408203125,0.06473945254459977,-0.6896814692944288,0.3932786023408174
1782858823664290300,4.386290283203125,-0.4880791388891637,-0.47834816460013385,-0.06852934634685516
1782858823674238200,4.39623828125,-1.0012743065953253,-0.26847908723950387,-0.9407727838814258
1782858823684218000,4.406218017578125,-1.134387768794596,0.15461539217233658,-1.9783324558228252
1782858823694166300,4.416166259765625,-1.1609518044628202,0.5848515600323677,-3.040632601267099
1782858823704115200,4.426115234375,-1.2521905568763614,0.7624784099578857,-4.088247803276777
1782858823714064100,4.436064208984375,-1.5953462610460818,0.9240151258260011,-5.061701790532469
1782858823724043000,4.44604296875,-2.0765303797245025,1.2030512629151344,-5.666966608518361
1782858823733992200,4.4559921875,-2.5936592336177826,1.5235387698113918,-5.842620112544298
1782858823743941000,4.465941162109375,-3.287890036779642,1.9466081147819756,-5.856648053374887
1782858823753889000,4.475888916015625,-3.7687846709921953,2.318064176893234,-5.660940187835693
1782858823763869000,4.485868896484375,-3.9528900692820548,2.656525147375464,-5.328810758462548
1782858823773817000,4.495817138671875,-4.202298545348644,2.7467408403515816,-5.157654565855861
1782858823783766000,4.50576611328125,-4.247734600877761,2.9535341635286807,-5.089203545442223
1782858823793715000,4.51571484375,-4.285403529536723,3.568001109623909,-4.982873753011226
1782858823803694000,4.525694091796875,-4.556336439669132,4.393666920378804,-5.145150473591685
1782858823813643000,4.53564306640625,-4.532241278332472,5.231407199808955,-4.985985163030028
1782858823823591000,4.5455908203125,-4.273765698713064,5.729663010928035,-4.327990040853619
1782858823833540000,4.5555400390625,-3.9289503907680507,6.2097179794460535,-3.3190999985575673
1782858823843519200,4.565519287109375,-3.617466274538636,6.1991550843775265,-2.0716274101138112
1782858823853468200,4.57546826171875,-2.9509812641754745,5.860455628964305,-1.0060369909524918
1782858823863417000,4.5854169921875,-2.4601640786245462,6.031404900822043,-0.33574878891408444
1782858823873366000,4.595365966796875,-2.320460716640949,6.582869155037403,-0.1362397775262594
1782858823883345200,4.60534521484375,-2.2796406304746863,6.951496131202578,-0.029645196679234504
1782858823893294000,4.615294189453125,-2.0783035268768666,6.906878990840911,0.0640484015405178
1782858823903242000,4.625241943359375,-1.2673808194845915,6.476463374760747,0.23144494935274124
1782858823913191400,4.63519140625,-0.6435545088917016,6.0594157742977135,0.7996849818021059
1782858823923170300,4.64517041015625,-0.29204934791922565,5.694420432633161,1.3701017737686634
1782858823933119200,4.655119140625,0.30662089410722254,5.574314043784141,1.540006505009532
1782858823943068200,4.665068115234375,0.9803998608708381,5.79595363843739,1.594904800888896
1782858823953017300,4.675017333984375,1.9730600683778523,5.943525541839003,2.004783240374923
1782858823962996200,4.684996337890625,2.250374788501859,5.640111334818601,2.1590473348915578
1782858823972944400,4.6949443359375,1.8049848906517028,5.00729858469367,1.8873907866597175
1782858823982893300,4.704893310546875,1.4660101254284381,4.806445172959566,1.3529273516058922
1782858823992842200,4.71484228515625,1.6944991475850342,5.165067472460866,0.9341022200763225
1782858824002821000,4.724821044921875,2.439661096560955,5.6016421956926585,0.7885647451117634
1782858824012770000,4.73477001953125,3.061806906720996,5.482886052408814,0.7132496841475368
1782858824022719200,4.74471923828125,3.2969045333623885,5.082810045012831,0.6681114425212145
1782858824032667100,4.754667236328125,3.3667999073654413,4.9161295365154745,0.6831169962123036
1782858824042647000,4.76464697265625,3.380250340569019,4.697331010507047,0.7424269710540771
1782858824052595200,4.77459521484375,3.71609908272624,4.404540196570753,0.9140279848188161
1782858824062544100,4.784544189453125,4.17119847368598,4.22141211888045,0.9900193376094102
1782858824072493300,4.794493408203125,4.144106468620896,4.003843134666979,0.7569698756694794
1782858824082472400,4.804472412109375,4.034304031643271,3.8742090390160677,0.5448766925185918
1782858824092421400,4.81442138671875,3.954230962496996,3.9639571144804355,0.5468693276405334
1782858824102370300,4.824370361328125,3.7619232607901094,3.9116587719663976,0.4593541257947683
1782858824112318200,4.834318115234375,3.5057641414195295,3.762112061360478,0.22714462181031703
1782858824122298400,4.84429833984375,3.5094998208165165,3.6930852868854998,0.0886310541331768
1782858824132246300,4.854246337890625,3.8934564680606125,3.6905873325899243,0.2782277433156967
1782858824142195200,4.8641953125,4.239394058033824,3.399564989630878,0.6011509529262781
1782858824152144100,4.87414404296875,4.101306022292375,3.283349178479612,0.9943122124977409
1782858824162123300,4.884123291015625,3.8222429971963163,3.4250998283818364,1.2444067711323499
1782858824172072200,4.894072265625,3.7199703712016343,3.3488916179701684,1.1753487247362733
1782858824182020000,4.90402001953125,3.726718091896176,3.08042977412641,0.8207153487406671
1782858824191969300,4.91396923828125,3.873787306472659,2.8636338201120495,0.6073693890497088
1782858824201948200,4.9239482421875,2.4663258161246775,2.4649258861988783,0.5695752996411174
1782858824211897000,4.93389697265625,1.1330980212450026,2.6517577868431803,1.2012868105258792
1782858824221846000,4.943845947265625,1.3547072207599877,2.962931814210117,2.508604868927598
1782858824231795200,4.953795166015625,2.011246298909187,2.8819086047321556,3.0886370459794996
1782858824241774300,4.9637744140625,2.253919329240918,2.5935858761206267,2.7772707109108565
1782858824251723300,4.97372314453125,2.5167314767599103,2.5640494005128738,2.03442799866274
1782858824261671400,4.98367138671875,2.8289088359504935,2.7917785442128777,1.5743398595049976
1782858824271651300,4.9936513671875,2.7978619557797906,2.9716227779269215,1.4462277127243577
1782858824281599200,5.00359912109375,1.6489438495904207,2.7831790581718088,1.175857770236954
1782858824291548200,5.013548095703125,0.7610574372440576,2.057366829571128,1.2246456204120069
1782858824301497300,5.023497314453125,0.9087269558012485,1.3784665742710231,1.8627061349973082
1782858824311476200,5.033476318359375,0.9226303934693336,1.3364049636110662,2.2712084638245402
1782858824321425200,5.043425048828125,0.5040823253154755,1.33473790718168,2.4066025843068957
1782858824331373300,5.053373291015625,0.05295183798670768,1.127202241204679,2.4837059899926186
1782858824341322200,5.063322265625,-0.4210550825387239,1.2317682388335465,2.6084689724758268
1782858824351301000,5.073301025390625,-1.159976091298461,1.5345266122937202,2.6563305015861984
1782858824361250000,5.08325,-2.133935689988732,1.609427247238159,2.471059858909249
1782858824371199200,5.09319921875,-2.678637025940418,1.6713260695293544,2.2284780139923095
1782858824381148200,5.103148193359375,-3.044863370704651,1.9531272874176502,1.771386572432518
1782858824391127000,5.113126953125,-2.245193001949787,2.250499291664362,1.2074651338346303
1782858824401076200,5.123076171875,-2.240743036803603,2.201955040986836,1.344919840108603
1782858824411024400,5.1330244140625,-2.0815344716221094,2.311540620343387,1.5431456798180936
1782858824420973300,5.142973388671875,-2.301163895496726,1.9562547717884182,1.65140220252797
1782858824430952200,5.1529521484375,-2.7438661616981026,1.590195308023691,1.8829473973847926
1782858824440901400,5.1629013671875,-2.806681222051382,1.4108727600961923,1.896822924132645
1782858824450850300,5.172850341796875,-2.2325608993917703,1.3772019611626862,1.6644456623658537
1782858824460798200,5.182798095703125,-1.672019020229578,1.373914610055089,1.3910492847293614
1782858824470778000,5.192778076171875,-1.3278408411443232,1.2557605243176222,1.1950842295587063
1782858824480726300,5.202726318359375,-1.0867606329619883,1.3404223825588821,1.102335072582215
1782858824490675200,5.21267529296875,-0.6732564041942357,1.34689830057472,0.9895686712324618
1782858824500624100,5.2226240234375,-0.3323895416140556,1.085064058177173,0.7265742990143597
1782858824510603300,5.232603271484375,-0.3195283064752817,0.9687509241312742,0.42197146673128005
1782858824520552200,5.24255224609375,-0.24566928953826425,0.8367951075345277,0.26685674673467874
1782858824530501000,5.252501220703125,-0.012557283756136893,0.683388506630063,0.16677447039112447
1782858824540449000,5.262448974609375,0.19472411519885063,0.690469989323616,0.14237258119285107
1782858824550429200,5.27242919921875,0.18209259716272352,0.640513826021552,0.05456029609665274
1782858824560377000,5.282377197265625,0.2692150002986193,0.520567888431251,-0.0006490384932607412
1782858824570326300,5.292326171875,0.4335048142671585,0.49316345641613,-0.004513385771214962
1782858824580275200,5.302275146484375,0.42586569769084454,0.5102502002954483,0.007668927192687988
1782858824590254300,5.31225439453125,0.31881928142309185,0.5162590853214264,0.04439283008649945
1782858824600203300,5.322203369140625,0.23518530492484568,0.5156082201972604,0.06672485420815646
1782858824610152200,5.332152099609375,0.10117781649529933,0.3593342471629381,0.026531886964291332
1782858824620100400,5.342100341796875,0.009275777867436408,0.08981675678640604,-0.15061616646833717
1782858824630080300,5.352080322265625,0.2515098322600126,-0.14619330852478743,-0.15080964321382342
1782858824640028200,5.362028076171875,0.1400140353679657,-0.13646744880229233,0.2817974915612489
1782858824649977000,5.37197705078125,0.045028643772006036,0.1530067879319191,0.4682568325661123
1782858824659926300,5.38192626953125,0.2052946090519428,0.13119652266204357,0.1797789133928716
1782858824669905200,5.3919052734375,0.3832090437471866,0.0063338791966438285,-0.33624519412890075
1782858824679854000,5.40185400390625,0.38562604176104065,0.08574497730284929,-0.5863709516193717
1782858824689802200,5.41180224609375,0.28840310037136074,0.1363259945049882,-0.44803456714004275
1782858824699751200,5.421751220703125,0.1298877781510353,-0.10133914453685283,-0.07633044855184852
1782858824709730000,5.43172998046875,-0.09383388347327709,-0.07798281886875628,0.09475867016799748
1782858824719679200,5.44167919921875,-0.19135434650480745,0.14334785596579314,0.18821363732628524
1782858824729628400,5.45162841796875,-0.01874269439280033,0.3290343859672546,0.2639046919960528
1782858824739577300,5.461577392578125,0.14083353505730628,0.6375967695310711,0.31166444123238324
1782858824749556200,5.47155615234375,0.2597352242916822,0.7338572956293821,0.12369959103539585
1782858824759505200,5.481505126953125,0.3285907338529825,0.6485957179293036,-0.34581600942015644
1782858824769453300,5.491453369140625,0.3316016061067581,0.5075713364750146,-0.8156456442609429
1782858824779402200,5.50140234375,0.5544646050751209,0.20302315698862075,-1.0084272470898925
1782858824789381400,5.51138134765625,0.6332295142322778,0.04647095153480768,-0.765558840316534
1782858824799330300,5.521330322265625,0.4229337358921766,-0.21503303599506615,-0.46145796620622276
1782858824809279200,5.531279296875,0.7175947276145219,-0.32090222517699,-0.2282321247860789
1782858824819227100,5.54122705078125,1.2065922965228557,-0.49744098760485644,-0.046822833712399
1782858824829207300,5.551207275390625,1.3414455881267786,-0.5473334380209446,0.06353314549475908
1782858824839174400,5.56117431640625,1.632415324115753,-0.5694137524038553,0.10419088070616125
1782858824849123600,5.57112353515625,2.0001094033449887,-0.7995806446447968,0.0997804986516945
1782858824859072500,5.581072509765625,2.091289557439089,-0.8181327849015593,0.06897709011435509
1782858824869051400,5.591051513671875,1.9062310962080955,-0.6178937056735158,0.19764584786444903
1782858824879000600,5.60100048828125,1.4626333424717186,-0.5040265034750103,0.2046457897543907
1782858824888949800,5.61094970703125,1.2387053446203469,-0.6683686321526765,0.18675163848232476
1782858824898897700,5.620897705078125,1.231554888343811,-0.7514677711218595,0.4865805708944797
1782858824908877600,5.630877685546875,0.9855845700323581,-0.7997223912030458,0.6790769270412623
1782858824918825700,5.64082568359375,0.9043851272046566,-0.9311357714861631,0.6808930365525185
1782858824928774700,5.650774658203125,0.846457254371047,-0.9079825671747326,0.6376014457061886
1782858824938723600,5.6607236328125,0.5950163956940174,-1.024313529138267,0.480946802791208
1782858824948702500,5.670702392578125,0.5309300002306699,-1.2756821993619203,0.38226051085069773
1782858824958651600,5.680651611328125,0.7690051813781261,-1.442921510785818,0.2366619533486664
1782858824968599600,5.690599609375,1.1532464907824993,-1.4013538211226462,0.3482943822324276
1782858824978548500,5.700548583984375,0.767248693099618,-1.3676093724310396,0.6443542809672653
1782858824988527600,5.710527587890625,-0.19721417844891548,-1.4614628373876213,0.46782326345443725
1782858824998476500,5.7204765625,-1.0974334181457757,-1.5627403148651122,0.2786515216857195
1782858825008425500,5.730425537109375,-1.5576152269363401,-1.6335428668409584,0.08956088232919573
1782858825018374400,5.74037451171875,-1.5403133790016172,-1.5163646403983235,-0.25259338971301915
1782858825028353500,5.750353515625,-1.3831371964305639,-1.1646025820553303,-0.6453826011016964
1782858825038302700,5.760302734375,-1.2485714895963669,-0.7750751489415765,-1.0188656389959156
1782858825048250400,5.77025048828125,-1.2704670950621366,-0.41601504254490135,-1.321702922911197
1782858825058199600,5.780199462890625,-1.3701438593447208,-0.14604513222575186,-1.5052511257097123
1782858825068178700,5.7901787109375,-1.4429770403653381,-0.016773732407391072,-1.528146848128736
1782858825078127600,5.800127685546875,-1.4464210433393716,-0.008799392527341842,-1.4441712185859679
1782858825088076500,5.81007666015625,-1.3490771059185265,0.011684008052945137,-1.314473556179553
1782858825098025500,5.820025390625,-1.0279080464988946,0.04996931504458189,-1.18719756796211
1782858825108004600,5.830004638671875,-0.6180810449391603,0.05215425786823034,-1.0679228076316416
1782858825117953500,5.83995361328125,-0.2995668839424848,0.014412848494946956,-0.9442356376864015
1782858825127901400,5.8499013671875,0.040384032836556435,-0.04636486081182956,-0.8253188970133661
1782858825137850600,5.8598505859375,0.23836276591718195,-0.09175678493827581,-0.7010382912196218
1782858825147829500,5.86982958984375,0.2929670472860336,-0.08912146799862385,-0.7099607256047428
1782858825157778400,5.8797783203125,0.3937590793341398,-0.019627076011896134,-0.7905104723520576
1782858825167727400,5.889727294921875,0.5917904193848371,0.043485213722288606,-0.9033362026736139
1782858825177675500,5.899675537109375,0.6810837368190288,0.08048574160039425,-0.9882242708861827
1782858825187655400,5.909655517578125,0.6976771442234516,0.08127426162958144,-1.0331938779473304
1782858825197603600,5.919603515625,0.7065303127646446,0.06409399424791336,-1.0336448365852235
1782858825207552500,5.929552490234375,0.7149848373770713,0.04424538443982601,-1.0362634946510194
1782858825217501700,5.939501708984375,0.8582488144516944,0.03547667931169271,-0.956029974246025
1782858825227480600,5.94948046875,0.9374772494673729,0.06068856971859932,-0.8397615561246872
1782858825237429500,5.959429443359375,0.869572172498703,0.033899931514263154,-0.7463987972944974
1782858825247378700,5.969378662109375,0.5871177513986826,-0.02065203514546156,-0.6774725605845451
1782858825257326600,5.97932666015625,0.4354992029547691,-0.031162615504860876,-0.6690380558468401
1782858825267306500,5.989306396484375,0.6167132637172937,0.031158231590688226,-0.70588616964221
1782858825277254700,5.999254638671875,0.8245107955008745,0.08940437659323215,-0.742080349573493
1782858825287203600,6.00920361328125,0.8616594996780157,0.12620412120223046,-0.7646525391265749
1782858825297152500,6.019152587890625,0.8469780633747577,0.11536913119405508,-0.72890961009413
1782858825307131600,6.029131591796875,0.9210679664582013,0.11905892562270164,-0.6492414684869349
1782858825317080600,6.03908056640625,1.0492693989574908,0.17890315347164867,-0.5584568895816803
1782858825327028500,6.049028564453125,1.2042670684456824,0.1953869630217552,-0.4550752794317901
1782858825336977400,6.058977294921875,1.1907903317570685,0.13342413558363914,-0.30482451220974327
1782858825346956500,6.06895654296875,1.0432967542886733,0.07240501873642206,-0.15959595706388352
1782858825356905500,6.078905517578125,1.0505214448451996,0.0030430209577083584,-0.08822408076748252
1782858825366854400,6.0888544921875,1.0980237852543593,-0.08890724072605372,-0.10945976101979613
1782858825376803600,6.098803466796875,1.1608879454463719,-0.24045126262903213,-0.17454846539348362
1782858825386782700,6.10878271484375,1.3015274192363022,-0.3236620452791452,-0.15456848429068923
1782858825396731600,6.118731689453125,1.2133125446885824,-0.3652081076323986,-0.15915668886378406
1782858825406679600,6.128679443359375,1.008274540746212,-0.44112025770694013,-0.2047496885202825
1782858825416628500,6.13862841796875,0.8681418474346398,-0.45973698763251303,-0.22573870053514836
1782858825426607600,6.148607666015625,0.8193973980098962,-0.4551815162852406,-0.28583368827477096
1782858825436556500,6.158556640625,0.9102449591487646,-0.48451779314577575,-0.3792940622605383
1782858825446505500,6.16850537109375,0.9561948094189167,-0.5433329702079296,-0.40614641335085033
1782858825456453600,6.17845361328125,0.9927274275243282,-0.611160598026216,-0.3241593272767961
1782858825466433500,6.18843359375,0.9953063381016254,-0.6973802071034908,-0.11056275382563471
1782858825476381400,6.19838134765625,0.8895324259877204,-0.8055667333170771,0.08172112861424684
1782858825486330600,6.20833056640625,0.9083300654381513,-0.939381037262082,0.15768281691893934
1782858825496279600,6.218279541015625,0.9595739304631948,-1.0817486500188707,0.20341069500148296
1782858825506258400,6.228258544921875,0.9807055658191441,-1.184532440406084,0.20486880312161518
1782858825516207400,6.238207275390625,0.9308329891473054,-1.2229326059490442,0.11352352159367873
1782858825526156500,6.248156494140625,0.809783766490221,-1.2562620440989731,0.01127588390978053
1782858825536104400,6.2581044921875,0.788117878127098,-1.2462798715278505,-0.09088129901168868
1782858825546084600,6.268084716796875,0.8068085500717163,-1.2166969264298677,-0.17161095063686369
1782858825556032800,6.27803271484375,0.7229612230837344,-1.2105965637281537,-0.23243936721757052
1782858825565981700,6.287981689453125,0.6248188287615776,-1.215894377875328,-0.268227888957411
1782858825575930600,6.2979306640625,0.6063964523643255,-1.2614336015179752,-0.24567981093227861
1782858825585909500,6.307909423828125,0.6815934399068355,-1.3036065635979175,-0.23662454394772647
1782858825595858700,6.317858642578125,0.6781336548417807,-1.339878192679584,-0.22793591831848023
1782858825605807600,6.3278076171875,0.5693295812517404,-1.3342507081866264,-0.22887626790851354
1782858825615755500,6.337755615234375,0.6465612894922494,-1.3014397409528493,-0.3036931700922549
1782858825625734700,6.347734619140625,0.7704127100884914,-1.2857768923968076,-0.37188393213450904
1782858825635683600,6.35768359375,0.737046447059512,-1.2554650485023855,-0.40799174895659085
1782858825645632500,6.367632568359375,0.7032739413172007,-1.2374936307430267,-0.43273090728521346
1782858825655581400,6.37758154296875,0.7153606849521398,-1.2140022805184125,-0.42717984902933237
1782858825665560600,6.387560546875,0.641041649287939,-1.2333943787306547,-0.4597232513681054
1782858825675509500,6.397509521484375,0.44386721832752224,-1.274056351725757,-0.5102594065152108
1782858825685457400,6.40745751953125,0.34743747314214707,-1.22867524125427,-0.5788331765256822
1782858825695406300,6.41740625,0.3740612761735916,-1.1250430173441768,-0.621719255311042
1782858825705385500,6.427385498046875,0.4059411000370979,-1.0195528906077147,-0.708388069460541
1782858825715334700,6.437334716796875,0.44884559126198287,-0.9772536717996001,-0.7769571632958948
1782858825725283600,6.44728369140625,0.4889221655845642,-1.0003627447083592,-0.8713936888374387
1782858825735232500,6.457232421875,0.6880524067878723,-0.9643900985732674,-0.9358625077471137
1782858825745211600,6.467211669921875,0.983098598435521,-0.9214493669912218,-0.9261366480246186
1782858825755160600,6.47716064453125,1.1107634398400783,-0.9827917244434357,-0.9626585986055434
1782858825765108500,6.4871083984375,1.08541506357193,-1.0451116947561503,-0.96576065627411
1782858825775057700,6.4970576171875,1.0854250004440544,-1.0710986611887812,-0.9080465723216533
1782858825785036500,6.50703662109375,1.1614449948072432,-1.1145765683874487,-0.9115959353663027
1782858825794985500,6.5169853515625,1.3092711652308702,-1.2599892479285597,-0.8623400292880833
1782858825804934400,6.526934326171875,1.2099784318298101,-1.575251421391964,-0.6455810462832451
1782858825814882600,6.536882568359375,0.7655056488245725,-1.9980904647380113,-0.5366444323547184
1782858825824862500,6.546862548828125,0.056541386911273,-2.4562924978882075,-0.45242242683544753
1782858825834810400,6.556810302734375,-0.8634656723171472,-2.80769186039865,-0.4867901219919324
1782858825844770000,6.56677001953125,-1.7406576721698044,-2.767355758357048,-0.6589497925527393
1782858825854719200,6.57671923828125,-2.2367536749064922,-2.3747990405499935,-1.0249129563361405
1782858825864697900,6.58669775390625,-2.481843703252077,-1.9414102538779376,-1.5705680858813225
1782858825874647000,6.59664697265625,-2.8177842153459784,-1.491038768222928,-2.041108207079023
1782858825884596200,6.60659619140625,-3.033417263060808,-0.924127354028821,-2.4190673674739895
1782858825894575000,6.6165751953125,-2.854667546585202,-0.4736173366859555,-2.704553849746287
1782858825904524000,6.62652392578125,-2.639903098398447,-0.13444354175925255,-2.7637121411576864
1782858825914472200,6.63647216796875,-2.569359489619732,0.1308180447384715,-2.5875918964028357
1782858825924421000,6.646421142578125,-2.4675842917531727,0.22240239571928977,-2.2580387472584844
1782858825934400000,6.65639990234375,-2.0741841088593005,0.2106587664335966,-1.9105264553144572
1782858825944349000,6.666348876953125,-1.3127110765516756,0.2952612957030535,-1.5790762403771281
1782858825954298000,6.676298095703125,-0.684796619862318,0.32481004627048965,-1.2429440051034093
1782858825964246000,6.68624609375,-0.4106523464679718,0.30320231783539053,-0.954048298909515
1782858825974226000,6.696225830078125,-0.32265199145376683,0.30234160935282706,-0.7245125441789627
1782858825984174000,6.706174072265625,-0.3278881385415792,0.3108151309266686,-0.6306001886419952
1782858825994123000,6.716123046875,-0.3784615569591522,0.32513796305060383,-0.7030313647329807
1782858826004072000,6.726072021484375,-0.5325830281347036,0.41386780138313767,-0.9813182908900081
1782858826014051000,6.736051025390625,-0.7623626746237278,0.570833556073904,-1.2670520259216427
1782858826024000000,6.746,-0.9479466210335492,0.7371376324743032,-1.5212762317068873
1782858826033949200,6.75594921875,-0.9949585475772619,0.9110638743162155,-1.7502525989890096
1782858826043897000,6.76589697265625,-0.9522563009262084,1.126698383335769,-1.8398178652323782
1782858826053877000,6.775876953125,-1.083695400172472,1.315976215827465,-1.7952280512690544
1782858826063825200,6.7858251953125,-1.3211229310661554,1.3856839583039282,-1.6184275691650807
1782858826073774000,6.795774169921875,-1.5173253021240234,1.4239344862431287,-1.4010234201245009
1782858826083723000,6.805722900390625,-1.6251427027642726,1.482974411971867,-1.2886150384321808
1782858826093702100,6.8157021484375,-1.582791753768921,1.5725006613790988,-1.20091001310274
1782858826103651000,6.825651123046875,-1.4377239421427248,1.707149954843521,-1.1822355616405607
1782858826113599000,6.835598876953125,-1.1786340300172566,1.8449007214546203,-1.213260814501345
1782858826123548000,6.8455478515625,-0.8182914825946093,1.8981945047467945,-1.224250556679815
1782858826133527000,6.855527099609375,-0.4489093041479587,1.8697516695946454,-1.2046933310337364
1782858826143476000,6.86547607421875,-0.12579086422622204,1.8110054661154746,-1.124722845479101
1782858826153425000,6.8754248046875,0.2677162861734628,1.726068590325117,-1.0382187203720212
1782858826163373800,6.885373779296875,0.6000099661976098,1.6108979043126106,-0.9777006849147378
1782858826173353000,6.89535302734375,0.7838719111204147,1.5353513726800678,-0.9474296114221215
1782858826183302100,6.90530224609375,0.9175298554599285,1.470751182475686,-0.9655110654272139
1782858826193250000,6.91525,1.1818646825015544,1.3964865073472261,-1.0111464429207146
1782858826203199200,6.92519921875,1.4853303274482488,1.2893547508835792,-0.9686221831850707
1782858826213178000,6.93517822265625,1.5599702656298875,1.2173241184175014,-0.8846142588078976
1782858826223127000,6.945126953125,1.4875205309689044,1.0743769522070885,-0.8594254570156336
1782858826233076000,6.955075927734375,1.4737708225578068,0.8324205457121133,-0.8429000002808869
1782858826243025200,6.965025146484375,1.5552029050976037,0.6525614066898823,-0.7800175737798214
1782858826253004000,6.975004150390625,1.5453385136872528,0.5446341159343719,-0.7088391742289066
1782858826262953000,6.984952880859375,1.5159452459424734,0.4145300646841526,-0.6231396435029805
1782858826272901000,6.994901123046875,1.4579063139498234,0.25603578525185583,-0.5233629259772599
1782858826282850000,7.00485009765625,1.3665361902415751,0.1454156021505594,-0.4650646123960614
1782858826292829000,7.014828857421875,1.3175363047510384,0.07262567574977874,-0.4057122597172856
1782858826302778000,7.024778076171875,1.3092787640154362,-0.022964111480116844,-0.2897457471519708
1782858826312727000,7.03472705078125,1.1859943296521902,-0.15666764852702617,-0.170802849124372
1782858826322675000,7.044675048828125,1.0579033717900514,-0.2909031004935503,-0.1066856201313436
1782858826332654800,7.05465478515625,0.9667261403053998,-0.35409926911890505,-0.03768821788132191
1782858826342603000,7.06460302734375,0.7878478290140628,-0.3736199621468782,-0.029846856731176374
1782858826352552000,7.074552001953125,0.628441695433855,-0.3735071494221687,-0.06156988259777427
1782858826362501000,7.084501220703125,0.5273451274812221,-0.3588882569611072,-0.10953224173411727
1782858826372480300,7.094480224609375,0.47720776239335533,-0.3421989879667759,-0.11636457197219133
1782858826382429200,7.10442919921875,0.37529695544838904,-0.3934977980494499,-0.06322787893787025
1782858826392378000,7.114378173828125,0.1873568013012409,-0.47769525364935395,0.03993248967677355
1782858826402326000,7.124325927734375,0.016398761615157128,-0.540264230287075,0.14446984573304653
1782858826412306200,7.13430615234375,-0.09846738849282265,-0.6173667591899633,0.20813129378259182
1782858826422254000,7.144254150390625,-0.3097475016951561,-0.6959364380359649,0.2218355556167662
1782858826432203000,7.154203125,-0.5232563968628645,-0.7544821505069732,0.1628307742666453
1782858826442152000,7.16415185546875,-0.6213759948313236,-0.7120061138272286,0.06747019268274307
1782858826452131000,7.174131103515625,-0.6453197649985551,-0.6153934132903814,-0.03809329155087471
1782858826462080000,7.184080078125,-0.6367594419240952,-0.5423989042282105,-0.16192936844751238
1782858826472028000,7.19402783203125,-0.4741986437052488,-0.49641748977601524,-0.2900397616624832
1782858826481977000,7.20397705078125,-0.2956558479785919,-0.47838849661052224,-0.32340310208201406
1782858826491956000,7.2139560546875,-0.32645839799940585,-0.45406712530255317,-0.2625920750275254
1782858826501905000,7.22390478515625,-0.4544020563453436,-0.40916415373682974,-0.21990122655332087
1782858826511853800,7.233853759765625,-0.48366029953360556,-0.4001905736863613,-0.16037731669992208
1782858826521803300,7.24380322265625,-0.40934535552263257,-0.4108826480925083,-0.11009966635853051
1782858826531782100,7.2537822265625,-0.39048458770811556,-0.39820729091465473,-0.04328238462656736
1782858826541731000,7.26373095703125,-0.48343350504040716,-0.41786943823993206,-0.05457505527436733
1782858826551679200,7.27367919921875,-0.576018265235424,-0.41383506815731524,-0.18389380136579275
1782858826561628200,7.283628173828125,-0.536858805757761,-0.3331400677204132,-0.3404376773826778
1782858826571607000,7.29360693359375,-0.5654238059848546,-0.26915011836886404,-0.5141904623538255
1782858826581556000,7.303555908203125,-0.56560033159554,-0.18774550835788248,-0.6849320828102529
1782858826591505200,7.313505126953125,-0.2795160295605659,-0.013975333860516548,-0.7361436530008911
1782858826601453000,7.323453125,0.1635375342965126,0.15803250713944433,-0.691316669280827
1782858826611433000,7.333432861328125,0.5626864899754523,0.20873159776329994,-0.6290196414522826
1782858826621381000,7.343381103515625,0.7561977222532034,0.10787468378543853,-0.5443808718256652
1782858826631330000,7.353330078125,0.6155185009747743,-0.035332010143995285,-0.5288312743857503
1782858826641279000,7.363279052734375,0.477950689715147,-0.10767419277727604,-0.5043894915685058
1782858826651258000,7.373258056640625,0.6954524539113044,-0.13649930524528026,-0.46558834400922056
1782858826661207000,7.38320703125,0.7847054393351077,-0.17942133212685585,-0.3728267659425735
1782858826671156000,7.393156005859375,0.5545218882203102,-0.2506955932676792,-0.24361557187885044
1782858826681104000,7.403103759765625,0.4357955555528402,-0.3926987566262483,-0.14416965721007435
1782858826691084000,7.413083984375,0.45984804679155344,-0.5053180045902729,-0.08497691553980112
1782858826701032200,7.4230322265625,0.39000060358345506,-0.5495078594505787,-0.12448898784741759
1782858826710981000,7.432981201171875,0.32248540271520615,-0.5972925239324569,-0.2091403246946633
1782858826720930000,7.442929931640625,0.3623357670664787,-0.6425327646285295,-0.21312497388403862
1782858826730909200,7.4529091796875,0.42843350235223765,-0.6306178704291582,-0.19808918945146722
1782858826740858000,7.462858154296875,0.5761036054313182,-0.5881082237407564,-0.18044875721214337
1782858826750807000,7.47280712890625,0.7935556852668524,-0.6092746381491422,-0.13693506631404162
1782858826760755000,7.4827548828125,0.9516501517266035,-0.6907996596693993,-0.07462531600124202
1782858826770735000,7.492735107421875,1.030290557721257,-0.805209005920589,0.026862589356536043
1782858826780683000,7.50268310546875,1.131484156307578,-0.9002677550137043,0.09319485491737722
1782858826790632000,7.5126318359375,1.2854641731858252,-0.9592238018512725,0.06401742188036441
1782858826800580900,7.522580810546875,1.4445523268580436,-1.026474798825383,0.023997253920137882
1782858826810560000,7.53256005859375,1.4694845235407352,-1.136353515909612,-0.014472321313933934
1782858826820509000,7.542509033203125,1.409042037537694,-1.2081184831768275,-0.1516451441898942
1782858826830457000,7.55245703125,1.5295570071876048,-1.230976796194911,-0.3333202465929091
1782858826840441300,7.56244140625,1.5882126097738742,-1.2077952425718306,-0.4857771455571055
1782858826850420500,7.57242041015625,1.5688836399257182,-1.1911869298592208,-0.6158429106235503
1782858826860369400,7.582369384765625,1.5468810669541357,-1.2888894714593886,-0.6262273803852498
1782858826870318300,7.592318359375,1.4114023369282482,-1.415921860179305,-0.6062551441974937
1782858826880267300,7.602267333984375,1.1834440606474876,-1.5437018523961306,-0.6050291095338761
1782858826890246400,7.612246337890625,0.9745324301421642,-1.6250830815315245,-0.6562035625845194
1782858826900195300,7.6221953125,0.9741308636039495,-1.5751251646637916,-0.7600352545894682
1782858826910143500,7.6321435546875,0.9817588742643594,-1.4781424617707728,-0.8408774084120988
1782858826920092400,7.642092529296875,0.8216881392955779,-1.4170637236908077,-0.8860684031389653
1782858826930071300,7.6520712890625,0.6377016912102699,-1.3390829506486654,-0.9506393672488629
1782858826940020200,7.662020263671875,0.5908855794996023,-1.2334504928320646,-1.035245842041075
1782858826949969400,7.671969482421875,0.6654191346973181,-1.1355635345757007,-1.088318383798003
1782858826959917300,7.681917236328125,0.6967109295397996,-1.0448469063401222,-1.1052141351498663
1782858826969897500,7.6918974609375,0.743773709487915,-0.9887953487724065,-1.0705575400494038
1782858826979845600,7.701845703125,0.8412146775424479,-0.9798910345658659,-0.9586096154756844
1782858826989794600,7.711794677734375,0.8550169929236173,-0.9850953252106904,-0.852106366173923
1782858826999743500,7.721743408203125,0.8852835363715886,-1.0290683224499224,-0.7660097989544272
1782858827009722400,7.731722412109375,0.9821733002841472,-1.0813736792266369,-0.7331465170115232
1782858827019671600,7.741671630859375,1.12959673512578,-1.127062248212099,-0.6838372733108699
1782858827029620500,7.751620361328125,1.225978549516201,-1.187801963596046,-0.628779256825149
1782858827039568400,7.761568359375,1.1899158870100974,-1.2608935032919049,-0.5966608019001781
1782858827049548300,7.77154833984375,1.0628075104445218,-1.3816530953526496,-0.5340561694271863
1782858827059496400,7.781496337890625,0.8043161487340926,-1.5006895168825982,-0.45660621532611545
1782858827069445400,7.7914453125,0.5511918670147657,-1.6165683511644602,-0.4221254882492125
1782858827079394300,7.801394287109375,0.33758944834470744,-1.715745933753252,-0.44590807650536296
1782858827089373400,7.81137353515625,0.10010404978394508,-1.7575357417345046,-0.4941254333160817
1782858827099322400,7.821322265625,-0.10020049589574337,-1.7002803613349795,-0.6006398615989834
1782858827109270300,7.831270263671875,-0.17917583293318748,-1.6701812834084033,-0.6321915494866669
1782858827119219500,7.841219482421875,-0.28557576799094675,-1.7611919261544942,-0.49164939859136936
1782858827129198300,7.8511982421875,-0.5181698873788118,-1.8179475403383374,-0.3121477677699178
1782858827139147500,7.8611474609375,-0.7330547470748424,-1.7257289831072091,-0.13364040868282318
1782858827149096400,7.871096435546875,-0.6950193231910466,-1.5914634282633662,0.12152516960576176
1782858827159045400,7.88104541015625,-0.5991109715312719,-1.4366174422055482,0.4108320869490504
1782858827169024500,7.8910244140625,-0.5040870014905929,-1.1163614059776068,0.6141095109596848
1782858827178973400,7.900973388671875,-0.6664531539201736,-0.7884720983922481,0.6948923358105122
1782858827188921300,7.91092138671875,-0.9869459215134382,-0.586494066542387,0.6452398316301405
1782858827198870500,7.92087060546875,-1.3182593583285809,-0.46675826457142827,0.41942689681500195
1782858827208849400,7.930849365234375,-1.619341907531023,-0.2514683312058449,0.14044804287105797
1782858827218798300,7.94079833984375,-1.6638906588315963,0.10272387689352035,-0.11448986414149404
1782858827228747300,7.950747314453125,-1.5764157889962196,0.4885819738447666,-0.2477469725951552
1782858827238696400,7.960696533203125,-1.5014888505667447,0.7823258507221936,-0.26941125352308154
1782858827248675300,7.97067529296875,-1.3513210854530333,0.938323637163639,-0.21797522692680357
1782858827258624300,7.980624267578125,-1.188368657568097,0.9930834013551473,-0.10502294761613011
1782858827268572400,7.990572509765625,-1.1274123768240212,1.0149316605478524,0.0997144750776235
1782858827278521600,8.000521484375,-0.941031727078557,1.0737842470109462,0.274387142239511
1782858827288500200,8.010500244140625,-0.6415560285508632,1.1362030015230178,0.41974078506976364
1782858827298449400,8.020449462890625,-0.4022825775295496,1.120126311469078,0.5481373017497361
1782858827308398600,8.030398681640625,-0.3373351813226938,1.050852284234762,0.7378980954527854
1782858827318346500,8.040346435546875,-0.3432908748567104,0.9646317983746528,0.9695762690395117
1782858827328326400,8.050326416015626,-0.1908206780195236,0.9293868819922209,1.1652362037837505
1782858827338274600,8.060274658203125,0.048341129320859905,0.9731412680447101,1.3255582831650972
1782858827348223500,8.070223388671875,0.10029518844187259,0.9966104064375162,1.4197685987353323
1782858827358172400,8.08017236328125,0.06257423733472824,0.9757873986393213,1.4423533555090426
1782858827368151600,8.090151611328125,0.06532207473814487,0.9233113614708185,1.3795721974253654
1782858827378100500,8.1001005859375,0.1567845529049635,0.9068155692219734,1.2645312752723694
1782858827388049400,8.11004931640625,0.3522574406445026,0.8835001600861548,1.1901081947118044
1782858827397997300,8.119997314453125,0.41685003206431864,0.8454629826366901,1.2650593907997012
1782858827407977200,8.129977294921876,0.5371370381772518,0.87347560967803,1.3274319680824875
1782858827417925400,8.13992529296875,0.7182932312726974,0.9044184449523687,1.419127962744236
1782858827427874300,8.149874267578125,0.7244482467710971,0.9350555752784013,1.4498843355357647
1782858827437823500,8.159823486328126,0.7214817981809377,0.9808470201164483,1.3596657199501991
1782858827447802400,8.16980224609375,0.9004600627154111,0.9817705647021532,1.2502180877596138
1782858827457751600,8.17975146484375,0.9453039975702762,0.9271773892492056,1.1235948643624782
1782858827467699500,8.189699462890625,0.7222159576743841,0.840216898676753,1.0569126071870327
1782858827477648400,8.1996484375,0.3856248727172613,0.7206488544881343,1.0908367963597179
1782858827487627500,8.20962744140625,0.29757074168920516,0.6029372518211603,1.2678452221259473
1782858827497576400,8.219576416015625,0.3409475266009569,0.5131523514777422,1.4615842718102037
1782858827507525400,8.229525390625,0.25496318758428094,0.4799842413693666,1.544458954373747
1782858827517474300,8.239474365234376,0.18112112178206444,0.379073551377654,1.5602861997112631
1782858827527453400,8.249453369140625,0.23222470155358313,0.18740707018375397,1.5439264549322425
1782858827537402400,8.25940234375,0.2924970916867256,0.02546001994907856,1.5104096775166689
1782858827547350500,8.2693505859375,0.42833121102154254,-0.013049451187252998,1.433790402086079
1782858827557299500,8.279299560546875,0.6769067433953285,-0.00043020811080932614,1.28009329380244
1782858827567278300,8.2892783203125,0.9671943423390388,0.00008066402077674865,1.151555468955636
1782858827577227300,8.299227294921875,1.0721996081680059,-0.0810369457423687,1.119355911618471
1782858827587176400,8.309176513671876,1.0112988570034502,-0.2899070751935243,1.1918147063687443
1782858827597124400,8.319124267578125,0.9152543117433786,-0.3556599425643682,1.2598179830148815
1782858827607104500,8.3291044921875,0.9563999766021967,-0.1966027685523033,1.1146312211841345
1782858827617052400,8.339052490234375,1.178567979043722,-0.22224106767773627,0.9785741067484021
1782858827627001600,8.349001708984375,1.2875626067698,-0.4579577030003071,0.9804361012279986
1782858827636980500,8.35898046875,1.215066694879532,-0.2894903110861778,1.0981018189266323
1782858827646929400,8.368929443359375,1.2701894471645354,-0.32986908322572706,1.2906412835627794
1782858827656878600,8.378878662109376,1.3134282849103212,-0.5537503193259239,1.4379557050719856
1782858827666827500,8.38882763671875,1.2760504481524229,-0.7642015804886817,1.5627166417285798
1782858827676806400,8.398806396484375,1.210094167163968,-0.9131593852907419,1.5405366663634776
1782858827686755300,8.40875537109375,1.0998819803416728,-0.856903245061636,1.4453183427944778
1782858827696703500,8.418703369140625,1.0832657765835523,-0.7285889998376369,1.3790984424337744
1782858827706652400,8.42865234375,1.0133037670850753,-0.46658056991696356,1.2382397729352115
1782858827716631300,8.43863134765625,0.9459136539012193,-0.3560305294424295,1.1951134556531906
1782858827726580500,8.44858056640625,0.9167606246531009,-0.564328411963582,1.1224129611015319
1782858827736529400,8.458529296875,0.8110685456037521,-0.728982383069396,1.1208160472989082
1782858827746478300,8.468478271484376,0.8411597324848175,-0.9947224007338284,1.1962933130875228
1782858827756457200,8.478457275390625,0.8647259015113115,-1.014518403571844,1.0307277800947428
1782858827766405400,8.4884052734375,0.7131038459360599,-0.951225788834691,0.9532795064941048
1782858827776354300,8.498354248046875,0.6329226402401924,-1.0322954678028822,0.9198863554582
1782858827786303500,8.508303466796875,0.6666513068407773,-1.0504472105652094,1.0350178785040973
1782858827796282600,8.51828271484375,0.6177408531993627,-1.0062146856069565,1.1197767673790455
1782858827806231600,8.5282314453125,0.40110651948750015,-0.9561913022875785,1.078329781486094
1782858827816180500,8.538180419921876,0.09200140734910964,-1.0028191979497671,0.9696925888955592
1782858827826128400,8.54812841796875,-0.18587737639844418,-1.0043506453007458,0.9294570246189832
1782858827836108500,8.558108642578125,-0.37741935442984104,-0.9353209482163191,0.9084279728546738
1782858827846066700,8.568066650390625,-0.4980541510671377,-0.8466735274702311,0.8182422366254031
1782858827856015600,8.578015625,-0.5499684626996517,-0.8244862455815076,0.6511221676670015
1782858827865964800,8.58796484375,-0.3127227181136608,-1.1722522200256584,0.5060926422245801
1782858827875944000,8.59794384765625,-0.07500935601592064,-1.4472411275506019,0.5338134467124939
1782858827885892900,8.607892822265624,-0.22076631895005702,-0.6434300057291984,0.5299734301581979
1782858827895841800,8.617841796875,-0.33685411980748176,-0.15276362682580946,0.5919073237627744
1782858827905790000,8.6277900390625,-0.5693325038611888,-0.0016939444363117217,0.6510206069886684
1782858827915769900,8.637769775390625,-0.8498568336814641,-0.2065238585859537,0.6447119352985173
1782858827925717800,8.6477177734375,-0.9165133718937635,-0.6368149715036153,0.49482291406095025
1782858827935666700,8.657666748046875,-0.7331324884861707,-0.8891992485105991,0.3073693743869662
1782858827945616000,8.667615966796875,-0.5953349601238965,-0.8406839316666126,0.06614069764465093
1782858827955594800,8.6775947265625,-0.5399345599412918,-0.623186259123683,-0.2652037188306451
1782858827965543700,8.687543701171874,-0.4705255081504583,-0.307642053848505,-0.5461312956895679
1782858827975491800,8.697491943359376,-0.3653945701152086,0.015844050341844558,-0.7408528536051512
1782858827985440800,8.707440673828126,-0.47908173957169053,0.27186113089323044,-0.8911141422212123
1782858827995419600,8.717419677734375,-0.7599363242596388,0.477206593349576,-0.956714084052667
1782858828005368800,8.727368896484375,-0.7547714888423681,0.5325801055252551,-0.840168383359909
1782858828015317800,8.73731787109375,-0.37251112412214277,0.4602770858585834,-0.5758189432710409
1782858828025267000,8.747266845703125,0.05410334610939026,0.366785147690773,-0.3048728813961148
1782858828035245800,8.757245849609374,0.34488077439665793,0.36742286107242106,-0.07614508204758166
1782858828045194800,8.76719482421875,0.523065258204937,0.4956833302825689,0.04400514594316482
1782858828055143000,8.777142822265626,0.6923059725791215,0.6505366228640079,0.05419423926323652
1782858828065091800,8.787091796875,0.8733025911986827,0.797351570418477,0.0136550158649683
1782858828075071000,8.797071044921875,1.0606804352879524,0.9711498019665479,-0.011308744999766349
1782858828085020000,8.80702001953125,1.0813380233913659,1.0729501342743635,0.02925827972088009
1782858828094968800,8.81696875,0.9538105446308851,1.033332994157076,0.06471008031964302
1782858828104916700,8.826916748046875,0.849803057667613,0.9961790292829275,0.15387337816599755
1782858828114897000,8.83689697265625,0.7095277410149574,1.0299772539883851,0.19684008443951606
1782858828124844800,8.8468447265625,0.5445516983479262,1.011847723057866,0.1717810830393806
1782858828134793700,8.856793701171876,0.44345863752663134,0.9677227501273155,0.10268354488313197
1782858828144742700,8.86674267578125,0.3588590308666229,0.936943580982089,0.027803075943887232
1782858828154721800,8.8767216796875,0.29082652812600135,0.9207511555939912,-0.028768121583759784
1782858828164670700,8.886670654296875,0.2999561755210161,0.9181862735420465,-0.036418892065249384
1782858828174620000,8.896619873046875,0.1421346807837486,0.9229682471215724,-0.11134119085222483
1782858828184567800,8.90656787109375,-0.007167407411336898,0.8967781593322753,-0.19587182392925023
1782858828194548000,8.9165478515625,-0.12158172209858893,0.8314806345134973,-0.23593787685781717
1782858828204496000,8.926495849609376,-0.25345044493377206,0.8153460767924785,-0.28454229675736276
1782858828214444800,8.93644482421875,-0.2837187419474125,0.8458253862082957,-0.3722454589232802
1782858828224393700,8.946393798828124,-0.19257950438559054,0.8864946657270193,-0.4534197673097253
1782858828234372900,8.956372802734375,-0.09052665862143039,0.8795084601014852,-0.4616343091538176
1782858828244321800,8.96632177734375,0.01324409697651863,0.8374041793435811,-0.4052726992562413
1782858828254270000,8.97627001953125,0.18089783442020416,0.7364408823817968,-0.38818332502841946
1782858828264219000,8.986218994140625,0.36682431065738197,0.5975052899003028,-0.3566027763724327
1782858828274197800,8.99619775390625,0.5223381129741669,0.4189601560860872,-0.3004582798242569
1782858828284146700,9.006146728515626,0.7092740585148334,0.2568716515541076,-0.19922902540266513
1782858828294096000,9.016095947265624,0.9272726663172245,0.1366588797211647,-0.0864478648751974
1782858828304044800,9.026044921875,1.045878587475419,-0.032231121519207956,0.029883389349281787
1782858828314023700,9.036023681640625,1.0950304486572742,-0.24180150819420812,0.1359492701470852
1782858828323972600,9.04597265625,0.9854787715703248,-0.4545581236898899,0.23391806146800517
1782858828333920800,9.055920654296875,0.8618786953866481,-0.6577385170668363,0.2665627322241664
1782858828343869700,9.06586962890625,0.8881184675365685,-0.7019424004524946,0.22943799344450233
1782858828353848600,9.0758486328125,0.9000532354801892,-0.6136275726616383,0.17802140220105647
1782858828363798000,9.085798095703124,0.7725853779524564,-0.5316407788485288,0.14412411930160596
1782858828373747000,9.095746826171874,0.657464960822463,-0.5520709879368544,0.06699265656517818
1782858828383696000,9.10569580078125,0.6443658252745866,-0.6049462535560131,-0.006350245809555053
1782858828393674800,9.1156748046875,0.58535074172616,-0.6015238778918981,-0.06500380256921053
1782858828403624000,9.1256240234375,0.5065285494238138,-0.5641618232250213,-0.07822421727604233
1782858828413571800,9.13557177734375,0.4836579614460468,-0.5459107117414475,0.024296821388602254
1782858828423520800,9.145520751953125,0.4850707508534193,-0.5220248092412948,0.14990794513374567
1782858828433500000,9.1555,0.41071079865694043,-0.48502808075547216,0.2376657235637307
1782858828443448800,9.16544873046875,0.3036380789041519,-0.4317816437363624,0.29873043311834335
1782858828453397800,9.175397705078124,0.4168769200712442,-0.5358177722722292,0.26958967882990836
1782858828463345700,9.185345703125,0.45593175013065335,-0.6202957983791828,0.16660598195642232
1782858828473325800,9.195325927734375,0.4940069215029478,-0.6825988175570964,0.08901362370997667
1782858828483273700,9.205273681640625,0.567213612011075,-0.7457838802665472,0.057020694860816
1782858828493222700,9.21522265625,0.5633043296128512,-0.5490682989895344,0.024224048413336276
1782858828503171600,9.225171630859375,0.6377788480997085,-0.32538463128805156,-0.01298573830127716
1782858828513150700,9.235150634765626,0.7604980497956275,-0.2706687062382698,0.016382687263190747
1782858828523100000,9.245099853515624,0.7693728456467389,-0.2644178291499615,0.059492930193245405
1782858828533048800,9.255048828125,0.7316700147181749,-0.2173205624103546,0.004608955100178718
1782858828542997000,9.2649970703125,0.7178951718658209,-0.19455343480706214,0.01986146472308319
1782858828552977000,9.274976806640625,0.6694540893018245,-0.17010229963958262,0.07577391064763069
1782858828562924800,9.2849248046875,0.6593097119063138,-0.09860708922445774,0.08332973285466432
1782858828572873700,9.294873779296875,0.6289654270470142,-0.02304302193522453,0.10884586690515279
1782858828582823000,9.304822998046875,0.5370160421460867,-0.0757774177789688,0.15600889235734938
1782858828592801800,9.3148017578125,0.4973088856577873,-0.18884850116372107,0.23081132762432097
1782858828602750700,9.324750732421874,0.5491834498018026,-0.2521300099849701,0.34033348635584115
1782858828612699000,9.334698974609376,0.5014052150607109,-0.3399579310417175,0.4920911510095
1782858828622647800,9.344647705078126,0.35399054804742336,-0.46278468476533885,0.558004177378118
1782858828632626700,9.354626708984375,0.2184884371459484,-0.5435784694015979,0.4834574704378843
1782858828642575600,9.36457568359375,0.14895955836772917,-0.49990766997933384,0.31755934448987244
1782858828652524800,9.37452490234375,0.03558510812222957,-0.3047977703332901,0.1416451437011361
1782858828662473700,9.3844736328125,-0.14809914214611053,-0.08566635910868645,0.031064708088338375
1782858828672452600,9.39445263671875,-0.19889292531609534,0.01668693090677261,0.10067541993111372
1782858828682401800,9.40440185546875,-0.18939736721813677,-0.09512684589326381,0.30142566355168815
1782858828692350000,9.414349853515626,-0.29999358492195605,-0.42196985929608344,0.5991738076344132
1782858828702299000,9.424298828125,-0.7057879699647426,-0.7500310163170099,0.8084348360992968
1782858828712278000,9.434278076171875,-1.513612419080734,-0.830472334253788,0.7274347152359784
1782858828722227000,9.44422705078125,-2.274352460938692,-0.7077367659449577,0.4911940560393035
1782858828732176000,9.45417578125,-2.4730957486510277,-0.46234453978240486,0.2329407408684492
1782858828742123800,9.464123779296875,-2.273724099907279,-0.09438450309336185,0.07715272472016513
1782858828752103700,9.474103759765624,-2.083207957792282,0.42490211335569616,0.041079906146228314
1782858828762051800,9.4840517578125,-1.8304203606814144,0.9515545823976397,-0.013581000780686735
1782858828772000800,9.494000732421876,-1.4914064324915408,1.2887678909063338,0.06396613008454442
1782858828781949700,9.50394970703125,-1.2655787384986876,1.3500593949541448,0.2758530500736087
1782858828791928800,9.5139287109375,-1.1395832916110753,1.2011892684355376,0.5504950438570231
1782858828801877800,9.523877685546875,-0.9597510405957699,1.0414037801489233,0.9368611633956432
1782858828811826700,9.53382666015625,-0.7134983982115983,0.9724743285685777,1.3260840606048703
1782858828821774800,9.54377490234375,-0.4313730629354715,0.9794704710662364,1.6135241611629723
1782858828831754800,9.553754638671874,-0.18582126229703425,1.067536877053976,1.9048788048163054
1782858828841712000,9.563712158203124,-0.092931381675601,1.1565449478060006,2.135890331187844
1782858828851661300,9.573661376953124,-0.125740595343709,1.1449462799489498,2.232011887206882
1782858828861610500,9.583610595703124,-0.13150573474168778,1.115237954905629,2.254190693528205
1782858828871589000,9.593589111328125,-0.24503742137551307,1.126139288148284,2.2933641815312207
1782858828881538300,9.603538330078125,-0.4071154045134783,1.1485755763620138,2.22536192779839
1782858828891487500,9.613487548828125,-0.38387773678898807,1.2291782223403454,2.1718865043289957
1782858828901435400,9.623435302734375,-0.3409288219004869,1.3536504051834344,2.204332583773136
1782858828911415300,9.633415283203124,-0.3630804479539394,1.476236335888505,2.1814102656081316
1782858828921363500,9.643363525390624,-0.3604103519618511,1.5790642576783895,2.1723039990887045
1782858828931312400,9.6533125,-0.3330179026454687,1.6309890907049178,2.1641830903448165
1782858828941261300,9.66326123046875,-0.37118309038877484,1.6215344491392374,2.111705445741117
1782858828951240200,9.673240234375,-0.3952420113682747,1.5836813960850238,2.047121914410591
1782858828961189400,9.683189453125,-0.4453197552233934,1.5680238082259892,2.0287870701663193
1782858828971137300,9.69313720703125,-0.5008516728311777,1.624739090399444,2.035760270179808
1782858828981086200,9.703086181640625,-0.4617465738892555,1.7381027269899845,1.9721204494401812
1782858828991065300,9.7130654296875,-0.4573416169285774,1.839692339156568,1.9263614455670117
1782858829001014300,9.72301416015625,-0.5539852971255779,1.8920830361291765,1.8754267926216124
1782858829010963200,9.732963134765624,-0.6791746883273124,1.9452827113971114,1.859353025177121
1782858829020912400,9.742912353515624,-0.7811702509462833,1.9447759309187531,1.8686399089604615
1782858829030891300,9.752891357421875,-0.8470423607826233,1.8305135919228195,1.9345254628002642
1782858829040840400,9.76284033203125,-0.891553118160367,1.6741306055560707,2.022733030824363
1782858829050788400,9.772788330078125,-0.8548878135859965,1.5839263107568025,2.070000831825286
1782858829060737300,9.7827373046875,-0.7452525498688221,1.5329112860515712,2.086459506934136
1782858829070716400,9.79271630859375,-0.5645499457597732,1.4548513102933764,2.064584944256395
1782858829080665300,9.802665283203124,-0.42882279393076894,1.3569824722155928,2.0589561445891857
1782858829090614300,9.8126142578125,-0.38198797751963137,1.3065975621074437,2.020843856076896
1782858829100562400,9.8225625,-0.4367161775290966,1.2917495370656251,2.0087978828437625
1782858829110542300,9.832542236328125,-0.550633648610115,1.3255398707255721,1.9333952897265552
1782858829120490200,9.842490234375,-0.6096896486908197,1.4375760581046342,1.816990531874448
1782858829130439200,9.852439208984375,-0.6759522191494702,1.5601789399445056,1.699718781929463
1782858829140388400,9.862388427734375,-0.7344049926400185,1.6141764875918625,1.6293284640163181
1782858829150367200,9.8723671875,-0.8134007879436016,1.6388260679408906,1.5902762643054127
1782858829160316200,9.882316162109374,-0.8106213863581418,1.6125351501256227,1.5542814063385129
1782858829170265000,9.89226513671875,-0.7286983054310083,1.4774965650826692,1.4740630835026503
1782858829180213200,9.902213134765624,-0.6182739371627569,1.2893927448064089,1.333540514090657
1782858829190193400,9.912193359375,-0.38470308169722556,1.7251275100827217,1.6338110162578523
1782858829200141300,9.922141357421875,-0.3414174822002649,1.8697212744563816,1.414401811005175
1782858829210090500,9.932090576171875,-0.3900140475869179,1.8037176471948622,0.8342822479307651
1782858829220039400,9.942039306640625,-0.3010720278084278,2.170373031026125,0.7666004583239555
1782858829230018300,9.952018310546874,-0.351592839255929,2.2974603648036718,0.5910593286313116
1782858829239967200,9.96196728515625,-0.44643677655458447,2.0731717169463635,0.44189241112321614
1782858829249915400,9.971915283203124,-0.5238274747490883,1.7978069618463515,0.5124613004736602
1782858829259864300,9.9818642578125,-0.6339888081669807,1.5663672731906175,0.46735535368174314
1782858829269843500,9.991843505859375,-0.6858943519711495,1.5149153183728457,0.3043267918206751
1782858829279792400,10.00179248046875,-0.7056073527008294,1.6575602867662906,0.09124357471913098
1782858829289741300,10.0117412109375,-0.7407920633286237,1.7792822941184043,-0.12832681244462726
1782858829299690200,10.021690185546875,-0.776448483121395,1.7802783194184302,-0.23176775156632065
1782858829309669400,10.03166943359375,-0.8302063767939806,1.7429653645902872,-0.2803893052637577
1782858829319618300,10.041618408203124,-0.8285492572367191,1.8021616499245166,-0.3683184947378933
1782858829329566200,10.051566162109374,-0.8735439987391233,1.9345377377599478,-0.5092759484358131
1782858829339515100,10.06151513671875,-0.9258511090815067,2.0111025065243244,-0.6855718420185148
1782858829349494300,10.071494384765625,-0.7784867109507322,2.0014204859435556,-0.7376267311654985
1782858829359443200,10.081443115234375,-0.802851336878538,1.9682418544411657,-0.6053764616668224
1782858829369392400,10.091392333984375,-0.8182347839713097,1.8566829291850326,-0.5365414103716611
1782858829379341300,10.10134130859375,-0.7433072610199452,1.7378560587525367,-0.4565099884100258
1782858829389320400,10.111320556640624,-0.717029494947195,1.5911381418317556,-0.4272247110843658
1782858829399269400,10.121269287109374,-0.8116787864565849,1.498409004729986,-0.47828065232187505
1782858829409217300,10.13121728515625,-0.9054600629597902,1.4525515089184045,-0.5062906490147113
1782858829419166200,10.141166259765624,-0.9631669865190983,1.4762182157099246,-0.5109228388600051
1782858829429145300,10.151145263671875,-1.0229442866116762,1.5137123723238706,-0.6369377211004495
1782858829439094300,10.16109423828125,-1.042166873475909,1.564885510200262,-0.8363368423730134
1782858829449043200,10.171043212890625,-1.0926748254418372,1.6568179439663886,-1.012658747179806
1782858829459022300,10.181022216796874,-1.0998819803416728,1.6776771921217442,-1.1669339476123453
1782858829468971300,10.19097119140625,-1.0072644869208336,1.6454098302453755,-1.130788575258851
1782858829478919200,10.200919189453124,-0.9512900862425565,1.5762930393993853,-1.03189404739514
1782858829488868400,10.210868408203124,-0.8545902919441462,1.4577525846928356,-1.0230430708110332
1782858829498847200,10.22084716796875,-0.7113356672197579,1.3429612533867359,-1.0605307976841927
1782858829508796200,10.230796142578125,-0.6049731415629387,1.2709908266752958,-1.0914951141379774
1782858829518745000,10.2407451171875,-0.4483434869587421,1.2595032179772854,-1.1523662008166313
1782858829528694300,10.2506943359375,-0.25853753893971443,1.2873767288088798,-1.1914669158443807
1782858829538673400,10.26067333984375,-0.11006839443743228,1.376864692032337,-1.1949302080407738
1782858829548622300,10.270622314453124,-0.0031856442987918854,1.4286556695461272,-1.204760404920578
1782858829558570500,10.280570556640624,0.002851297777891159,1.4202788863450289,-1.1398556788116694
1782858829568519400,10.29051953125,-0.1034229650735855,1.4376982231795787,-1.0553078023388982
1782858829578498300,10.300498291015625,-0.0768406630963087,1.4339239653378724,-0.9855953836873174
1782858829588447200,10.310447265625,-0.04913374100327492,1.2648515932679176,-0.8756373177565634
1782858829598396400,10.320396484375,-0.13819851037859915,1.0217109454244375,-0.70709364573583
1782858829608344300,10.33034423828125,-0.263670810174942,0.8032920663833618,-0.4432539087347686
1782858829618324200,10.34032421875,-0.36461364887058734,0.650443099361658,-0.2543701901271939
1782858829628272400,10.3502724609375,-0.4181336421340704,0.4861883567065,-0.12759411425590514
1782858829638221300,10.36022119140625,-0.46950259484350676,0.3061263885885477,-0.023940847557783126
1782858829648170200,10.370170166015624,-0.5262602548539638,0.17321487870216368,0.06094312900155782
1782858829658149000,10.380149169921875,-0.6114040513932705,0.037357963013648986,0.08480945001840591
1782858829668098300,10.390098388671875,-0.7019418159306049,-0.0543278025150299,0.018231237739324568
1782858829678047200,10.400047119140625,-0.8735703022241592,-0.06345803443193436,-0.025397476106882092
1782858829687995100,10.4099951171875,-1.1259744529753923,-0.09165186325907707,-0.06719999743923545
1782858829697975300,10.419975341796874,-1.2936755366921424,-0.17006079858541487,-0.11290171816721557
1782858829707923500,10.42992333984375,-1.4372382044523953,-0.219651051184535,-0.21994886508733033
1782858829717872400,10.439872314453124,-1.505065540009737,-0.20664017844200133,-0.36934681487232446
1782858829727821300,10.4498212890625,-1.4030243846833705,-0.1283288582712412,-0.5518922703690826
1782858829737800400,10.459800537109375,-1.3088719367802142,-0.016232757398486137,-0.7240178925298154
1782858829747749400,10.469749267578125,-1.2308365109413861,0.03732990596294403,-0.8664923266619443
1782858829757697300,10.479697265625,-1.0540963807225228,0.1023340007930994,-0.9996392527393996
1782858829767646200,10.489646240234375,-0.869290432947874,0.21682079619467257,-1.1087567761927843
1782858829777625300,10.499625244140624,-0.6865992853701114,0.3295549027100205,-1.1942356499053537
1782858829787574300,10.50957421875,-0.4957347682088613,0.35554245366454124,-1.224676527006924
1782858829797523200,10.519523193359374,-0.2497977676451206,0.34447248585671186,-1.2456849743746221
1782858829807472000,10.52947216796875,-0.00767886406481266,0.3750058635473251,-1.2283058234199882
1782858829817451300,10.539451171875,0.15035598116219043,0.43357437237203117,-1.193701689159125
1782858829827400200,10.549400146484375,0.20689970616102218,0.4343728292733431,-1.1879933945149184
1782858829837348000,10.55934814453125,0.3484557102739811,0.36946313472837206,-1.1520116882905362
1782858829847330800,10.569330810546875,0.5333990206927061,0.25937954272180797,-1.1151819869346915
1782858829857309700,10.579309814453126,0.6594955898672342,0.14806640892028808,-1.032254551270604
1782858829867259000,10.5892587890625,0.7575473832964896,0.055870940303802484,-0.868271172902733
1782858829877207800,10.599207763671876,0.8197972109824418,-0.05165741426199674,-0.6985634986039251
1782858829887156700,10.60915673828125,0.8876064263612031,-0.14671002587527035,-0.5968721796285361
1782858829897135600,10.619135498046875,0.9691238490968942,-0.1998810595706105,-0.593901018330641
1782858829907083800,10.629083740234375,1.0210802463054656,-0.24330899014770982,-0.5231459587583318
1782858829917032700,10.63903271484375,1.047972929406166,-0.35051848802268504,-0.4315592331573367
1782858829926981600,10.648981689453125,1.0918868899345398,-0.49485681633055206,-0.2565127551138401
1782858829936960800,10.658960693359376,1.1103957755714655,-0.6536001020878554,-0.07041238361448049
1782858829946909700,10.66890966796875,1.0627087262451649,-0.7550561510026454,0.04966784787997603
1782858829956858600,10.678858642578126,1.02304891602993,-0.7131482695996761,0.01647986402735114
1782858829966806500,10.688806640625,0.983350527369976,-0.6241942671224474,-0.022596739472448824
1782858829976786700,10.69878662109375,0.8334481351941824,-0.6302946298241615,-0.08223989179134368
1782858829986734600,10.708734619140625,0.6867711348056793,-0.675605889929831,0.07929446772290394
1782858829996683500,10.71868359375,0.5473188249737024,-0.8125704745993018,0.3707467447981238
1782858830006632700,10.7286328125,0.19342180042862891,-1.0728098490208386,0.24216741889715193
1782858830016611800,10.73861181640625,0.19884382547736168,-1.067296054035425,0.19690935028344392
1782858830026560800,10.748560791015626,0.24473756164610386,-0.8789426429122685,0.2942139786072075
1782858830036509700,10.758509765625,0.1322094990968704,-0.8061345963329076,0.2032733323574066
1782858830046457900,10.768457763671876,0.09523322887718677,-0.8059484261110424,0.1422251355461776
1782858830056437800,10.778437744140625,0.10127893878221511,-0.8064169204056263,0.24931655999943614
1782858830066385700,10.7883857421875,0.029894203004240987,-0.8396785540163516,0.30476445258557794
1782858830076334600,10.79833447265625,-0.09744389066398143,-0.8387427344709635,0.2599170105993748
1782858830086283800,10.80828369140625,0.08881108687520027,-0.6955658511579036,0.1537150823317468
1782858830096262700,10.8182626953125,-0.06137187580764293,-0.4990408240169286,0.14813976641744375
1782858830106211600,10.828211669921876,-0.3104921825826168,-0.5549497582435607,0.40164515640884635
1782858830116159700,10.83815966796875,-0.16675824990868568,-0.7564893986761569,0.7332543613001704
1782858830126108700,10.848108642578126,-0.23678104968369007,-0.9472580542474984,0.96891722060889
1782858830136087600,10.858087646484375,-0.5799667106002568,-0.9687018242925405,0.9856414147861301
1782858830146036700,10.86803662109375,-0.862889918255806,-0.8201338955909013,0.831751560409367
1782858830155986000,10.87798583984375,-1.0050129086017607,-0.7133838319212198,0.5547312931872904
1782858830165934800,10.887934814453125,-1.1494073510110379,-0.6206956113517283,0.23623934402242303
1782858830175913700,10.897913818359376,-1.2656786917418241,-0.42272272348999973,-0.05648322698324918
1782858830185862700,10.907862548828126,-1.3006827851057052,-0.22762568332552907,-0.37130189446285367
1782858830195810800,10.917810791015626,-1.2052484806984662,-0.0594476297467947,-0.5988957213453948
1782858830205759700,10.927759765625,-1.086886305168271,0.09742869309484958,-0.7724464078731834
1782858830215739000,10.93773876953125,-1.0267699823796748,0.2548842771291733,-0.862903800650686
1782858830225687800,10.947687744140625,-0.9558639700293541,0.33688568398952484,-0.878320711621642
1782858830235636700,10.95763671875,-0.7941507285505532,0.3497451655626297,-0.8573461665235459
1782858830245584600,10.967584716796875,-0.5963514436900615,0.3583668634355068,-0.8383269932769238
1782858830255564800,10.977564697265626,-0.4372948541998863,0.42614685271978375,-0.8135961643852293
1782858830265512700,10.9875126953125,-0.3733604344278574,0.5080138195455074,-0.8580370713971555
1782858830275461600,10.997461669921876,-0.30183365983068944,0.5407780250281096,-0.9679381464436649
1782858830285410600,11.00741064453125,-0.11599135474562644,0.569748098924756,-1.0786439620018005
1782858830295389700,11.0173896484375,0.05128068990409374,0.6706967828392982,-1.1858578437909484
1782858830305338600,11.027338623046875,0.13741817365586756,0.7344470782160758,-1.3337412973597644
1782858830315287800,11.037287841796875,0.27322248237431046,0.7520107919573783,-1.5183192815974353
1782858830325235700,11.047235595703125,0.4275742551743984,0.8227426167845725,-1.641749554172158
1782858830335215900,11.0572158203125,0.44876083558797836,0.8975801233649253,-1.6552220530770718
1782858830345163800,11.067163818359376,0.48218379724025723,0.9182733673036098,-1.5909006798140704
1782858830355112700,11.07711279296875,0.627492431885004,0.9062538436859846,-1.5065002489879726
1782858830365061600,11.0870615234375,0.6936579717099666,0.8805804732471704,-1.3868129623338579
1782858830375040800,11.097040771484375,0.6593406915664672,0.8027496300697327,-1.2449164742201566
1782858830384989700,11.10698974609375,0.6485773054897784,0.6862772138088942,-1.122457384765148
1782858830394937900,11.116937744140625,0.626259675219655,0.566312863779068,-1.0943420280016958
1782858830404886800,11.12688671875,0.5571510676801205,0.4760159222602844,-1.1387459640040993
1782858830414865700,11.13686572265625,0.4985264447540044,0.48212242244184017,-1.1319044275462626
1782858830424814600,11.146814697265626,0.44841947480440136,0.5144365460693836,-1.1013872703380883
1782858830434763800,11.156763671875,0.39767829860448833,0.5424205315381289,-1.1293768087647855
1782858830444712700,11.166712646484376,0.35957448565959926,0.5687859758943319,-1.1638758752159775
1782858830454691600,11.176691650390625,0.29960955404043194,0.5414321050226688,-1.1835953056864439
1782858830464640500,11.186640625,0.22030279309153555,0.4978676885843277,-1.2332114233791827
1782858830474588700,11.196588623046875,0.1777840863138437,0.45748833192288874,-1.312934363913536
1782858830484537600,11.20653759765625,0.2074643543064594,0.4973439569711685,-1.359160400776565
1782858830494516700,11.216516845703126,0.3186228820681572,0.48252749611139295,-1.356983202867955
1782858830504466000,11.2264658203125,0.4489028744071722,0.36063948454260825,-1.2960675463952123
1782858830514414800,11.236414794921876,0.5671083980709314,0.21496260110735893,-1.1959304711245
1782858830524363800,11.24636376953125,0.7011813529521227,0.08099661373198032,-1.1346823678269982
1782858830534342700,11.2563427734375,0.8029156342864036,0.03291881152242422,-1.1134569167077542
1782858830544291800,11.266291748046875,0.8615390881687403,0.046724341773986815,-1.111162229899317
1782858830554239700,11.27623974609375,0.9080757984161376,0.025587445721030232,-1.0997167067773639
1782858830564188700,11.286188720703125,0.9487474160224199,-0.01801145750880241,-1.063337525667995
1782858830574167800,11.296167724609376,0.9796084182322025,-0.09016074791848659,-1.007171401809901
1782858830584116700,11.30611669921875,0.9908435134738683,-0.1756242779314518,-0.9560592003405094
1782858830594065700,11.316065673828126,1.0195336013853549,-0.2514402741551399,-0.9153620099015534
1782858830604013600,11.326013671875,1.0483107830584049,-0.31632951043397184,-0.9041279375731944
1782858830613993700,11.33599365234375,1.0069161118745804,-0.4019488155305385,-0.8959194966763258
1782858830623941600,11.345941650390625,1.006739586263895,-0.43481589686572547,-0.8991824439950287
1782858830633890600,11.355890625,1.0182558365345,-0.4332850340366363,-0.8771062212653458
1782858830643839500,11.365839599609375,0.9858020121753215,-0.4347054222285747,-0.8719402168042957
1782858830653818600,11.375818603515626,0.9749866036504506,-0.4557318436443805,-0.8928481264069675
1782858830663767800,11.385767822265626,0.9520517182648182,-0.507203087684512,-0.890560892252624
1782858830673716700,11.395716796875,0.9579343465626239,-0.5216854942843318,-0.8564756672993302
1782858830683665000,11.405664794921876,0.9506535419046879,-0.5446145344510674,-0.8061977246969938
1782858830693644800,11.415644775390625,0.9257575855791568,-0.5844613916710019,-0.7431447639346123
1782858830703592700,11.4255927734375,0.9275012143760919,-0.628361615934968,-0.7007452996224165
1782858830713541600,11.435541748046875,0.950737128534913,-0.6512707823574543,-0.6451692506119608
1782858830723490800,11.44549072265625,0.9005021482914686,-0.6711389736488461,-0.6072251582734286
1782858830733469700,11.4554697265625,0.8816489792615174,-0.7241939797490835,-0.5824564815893769
1782858830743418600,11.465418701171876,0.8971727116078138,-0.7823933630004525,-0.5665129529284313
1782858830753366800,11.47536669921875,0.8699480200737715,-0.8078148045048117,-0.5271498971700668
1782858830763315700,11.485315673828126,0.8599170399248599,-0.813728120201826,-0.4918285545505583
1782858830773294600,11.495294677734375,0.8433937751471996,-0.8405161738842726,-0.4436705267116427
1782858830783243800,11.505243896484375,0.7473129895299673,-0.8867065549120307,-0.4155623303413391
1782858830793192700,11.515192626953125,0.6308394042253493,-0.8903981029063462,-0.4137004819922149
1782858830803142000,11.525141845703125,0.5315753123968839,-0.9041837594136595,-0.43496966265533116
1782858830813120500,11.53512060546875,0.4056634521394968,-0.9194956025749444,-0.44201428393721576
1782858830823069700,11.545069580078126,0.2488438279211521,-0.8888286616325378,-0.4206627222202718
1782858830833017900,11.555017822265626,0.09107201754450797,-0.8949033053711056,-0.42987054941803216
1782858830842969000,11.564968994140624,-0.04095569524466991,-0.9279524652749299,-0.4236971945453435
1782858830852948200,11.5749482421875,-0.2717272753804922,-0.9902256738364696,-0.36931459310315545
1782858830862897400,11.5848974609375,-0.4606295525580644,-1.117895775938034,-0.3205179020345211
1782858830872846300,11.594846435546875,-0.5931202066838741,-1.2757637401655315,-0.182456315908581
1782858830882794500,11.60479443359375,-0.8566250126421451,-1.5309434931099415,0.050075405767560005
1782858830892774400,11.6147744140625,-1.3159703706085681,-1.6971996387153863,0.14905468930527566
1782858830902722300,11.624722412109374,-1.916359106990695,-1.6989397603809833,0.15556801672205328
1782858830912671200,11.634671142578124,-2.3812907406568526,-1.7252192800194024,0.14373298282586036
1782858830922620400,11.644620361328125,-2.6123218485116957,-1.681493243278563,0.14825667079538107
1782858830932599300,11.654599365234375,-2.7152093915343283,-1.3945014710098504,0.08817819579914211
1782858830942548200,11.66454833984375,-2.608516611009836,-0.9182102389395237,-0.022943214822560547
1782858830952497200,11.6744970703125,-2.3420845194280147,-0.45399698267579075,-0.13518427712395786
1782858830962445300,11.6844453125,-1.9370652104109525,-0.11447656626850367,-0.2321015866305679
1782858830972425200,11.69442529296875,-1.4574831201016902,0.17504326317310331,-0.1982121034450829
1782858830982373000,11.704373046875,-1.0060282231241464,0.38771336942911144,-0.09854264568611978
1782858830992322300,11.714322265625,-0.7453986803412437,0.49808629977107044,0.07068301724940539
1782858831002271500,11.724271484375,-0.7689046436131,0.5356172812640667,0.2254527232006192
1782858831012250000,11.73425,-0.7925731039702892,0.5591758515059948,0.37889366476610303
1782858831022199300,11.74419921875,-0.6702174748897552,0.6742191117465496,0.4999341195948422
1782858831032148500,11.7541484375,-0.5785001451790333,0.941904418259859,0.5319204725727439
1782858831042096400,11.764096435546875,-0.49336803907752036,1.2323498381137847,0.42358193413522094
1782858831052076300,11.774076171875,-0.3485124088972807,1.4535697460502386,0.24360545234363526
1782858831062024400,11.7840244140625,-0.2094090586334467,1.6391788269013166,0.10790814766362308
1782858831071973400,11.793973388671875,-0.0888397284477949,1.7614917858839034,0.03640490007251501
1782858831081922300,11.80392236328125,0.00587678307890892,1.7525187903553245,-0.0031318682849407193
1782858831091901200,11.813901123046875,-0.07556348276734352,1.6181038901686668,-0.13323971892744302
1782858831101850400,11.823850341796875,0.059196285334229465,1.6566992860227823,-0.406882070681639
1782858831111798300,11.83379833984375,0.3920785789012909,1.9311609548032282,-0.3509659395292401
1782858831121747200,11.843747314453125,0.8903045794039964,2.213393257585168,0.1026958198428154
1782858831131726300,11.853726318359374,3.663036185580492,1.8923685750722885,1.6336695619605481
1782858831141675300,11.86367529296875,1.0618810432493686,0.10573007297217846,3.3071322051271794
1782858831151624200,11.873624267578125,-1.4440917236089705,0.19631343021690845,2.263583814164996
1782858831161573400,11.883573486328125,-0.18665888216495513,1.7289491141974924,0.9640992989331483
1782858831171552300,11.89355224609375,0.2972112607270479,2.2098048777043817,0.16800737318694592
1782858831181501400,11.90350146484375,0.12176292388439178,2.045661778730154,0.13445786254554987
1782858831191449300,11.913449462890625,-0.6250415316015482,2.1096359459906817,0.4166804841836914
1782858831201398300,11.923398193359375,-0.9279349296182393,2.2639111464232204,0.389183368916437
1782858831211377400,11.93337744140625,-0.5385328764498234,1.9991361743986606,0.502757214191556
