time,seconds_elapsed,z,y,x
1783169910980976600,0.1449765625,-1.1178595355808734,0.11402239276021718,0.32281098140776154
1783169910990925600,0.154925537109375,-0.85327745577991,1.1290703731641172,-0.06270107858479022
1783169911000904400,0.164904541015625,-0.59775312718153,1.7411925096988676,-1.5709312201052903
1783169911010852600,0.1748525390625,0.83449676746428,0.1534355347380042,-1.44147277328223
1783169911020801500,0.184801513671875,1.3809019847244024,-0.4265016575068235,-0.44832799712866545
1783169911030750500,0.19475048828125,1.066583521851897,-0.3964864584714174,-0.060519058370590205
1783169911040729600,0.2047294921875,0.809628868189454,-0.4016045321375131,-0.02828121484965086
1783169911050678500,0.214678466796875,0.48775662893652916,-0.6049222881585359,0.08912088347673415
1783169911060627500,0.22462744140625,0.28183248980939385,-0.7178308744579553,0.2892769605964422
1783169911070606600,0.234606689453125,0.35727965272068973,-0.8875374527782202,0.15451339310258627
1783169911080555500,0.244555419921875,0.623413638138771,-0.825020790849626,-0.23369740445464848
1783169911090503400,0.25450341796875,0.883345261785388,-0.4031991078525781,-0.7447066064238548
1783169911100452400,0.264452392578125,0.8336749296873808,0.021570611295104025,-1.1748881214872002
1783169911110431500,0.274431396484375,0.19576807129383086,0.3207718767955899,-0.8973544979155063
1783169911120380700,0.284380615234375,1.2685405109137295,1.3683929240241646,-0.714569534574449
1783169911130329600,0.29432958984375,1.9719085602551698,2.298524486903846,-1.627450979706645
1783169911140308700,0.304308837890625,2.0579864227741957,2.9168688589543104,-2.2125495002374054
1783169911150257700,0.314257568359375,2.188297394773364,3.2672058529302475,-2.567320677268505
1783169911160206600,0.32420654296875,2.36643160969913,3.347831587523222,-2.9700325861260293
1783169911170154500,0.334154541015625,2.41919230902791,2.6622031930118797,-3.101244306357205
1783169911180133600,0.344133544921875,3.0825065804004668,0.9793082662418484,-2.4300872125297786
1783169911190082600,0.35408251953125,3.0947248414605855,0.12671119394153355,-3.6200144977167246
1783169911200031500,0.364031494140625,3.3117104728281497,-0.8107360987789929,-4.039981200496852
1783169911210010600,0.3740107421875,4.097818180176615,-1.9926608409047126,-3.100835433295369
1783169911219959600,0.38395947265625,4.556952525740861,-2.210030941545218,-2.215005953478813
1783169911229908500,0.393908447265625,4.036502418470382,-2.692208455175161,-0.8387994330942631
1783169911239856400,0.4038564453125,-6.4093491559088225,-10.990557001984119,6.545901652646064
1783169911249836500,0.41383642578125,-13.13307171974778,-15.390003090286253,9.05801540647745
1783169911259784400,0.423784423828125,-10.508436333107948,0.5004762636475265,1.907590547993034
1783169911269733400,0.4337333984375,-10.94904191929102,1.423075092934817,0.17215806312561033
1783169911279682600,0.4436826171875,-9.402647759070993,-2.011069481037557,-1.4945986526615918
1783169911289661400,0.453661376953125,-7.3334227339237925,0.5157704250216484,-3.467894137230515
1783169911299610600,0.463610595703125,-6.747197547450662,0.5396384996041655,-2.784065485617518
1783169911309559600,0.4735595703125,-6.61953972030878,-0.30543489919304845,-0.9641863926947116
1783169911319538700,0.48353857421875,-6.086362233412266,-0.27297259926646944,0.43388548414781686
1783169911329487600,0.493487548828125,-5.2739492874622345,-0.4588990755036473,0.783421829265356
1783169911339435500,0.503435546875,-4.2211552215099335,-0.8268804472416639,0.6912623087450862
1783169911349384400,0.513384521484375,-3.3318642030626533,-1.1083780060082673,0.9680312315545976
1783169911359363600,0.523363525390625,-2.2153321166932582,-1.2892910379976033,1.1006363058403135
1783169911369312500,0.5333125,-1.568663859695196,-1.09667938490808,1.3440887961119412
1783169911379261400,0.543261474609375,-1.278638711079955,-0.7749076834201812,2.013478441875428
1783169911389240600,0.553240478515625,-0.9457347902029752,0.1303475046172738,1.9501019482471047
1783169911399189500,0.563189453125,-0.7335586049437522,1.2031427405908703,1.230350188729167
1783169911409137400,0.573137451171875,-0.005053191736340523,1.8729118871912358,0.5828256802279502
1783169911419086300,0.58308642578125,1.525951676172018,2.4294769716769458,0.25363719967752696
1783169911429065500,0.5930654296875,3.3070337131887673,3.0226980083867905,0.35934403790459035
1783169911439014400,0.603014404296875,4.845291913226246,3.269560891623795,0.6415817475140094
1783169911448963600,0.612963623046875,5.996879530885815,3.2822564148068425,0.6502396857440471
1783169911458942500,0.6229423828125,6.547842849841714,3.2242531386494635,0.4030849799536168
1783169911468891600,0.6328916015625,6.951725263783335,2.9553152017265556,0.08933759496733545
1783169911478840600,0.642840576171875,7.15395873169899,3.0149279589071867,-0.3317561025487259
1783169911488788500,0.65278857421875,7.003124611631035,3.2719884110316633,-0.606265957852453
1783169911498768600,0.6627685546875,7.0355889573842285,3.3307486430361863,-1.0132472145922482
1783169911508716500,0.672716552734375,7.095393730005622,3.1869433986917137,-1.5631700845845042
1783169911518665500,0.68266552734375,7.171110942029952,2.9649925461322066,-1.8735044462569057
1783169911528644600,0.69264453125,7.362142632451653,2.78086376696676,-1.8983906118407845
1783169911538642200,0.70264208984375,7.516525384911894,2.5215152039051056,-1.7513709354944527
1783169911548591000,0.712591064453125,7.612499203023314,2.1741621941760183,-1.5786539233118295
1783169911558539300,0.722539306640625,7.3463149487227195,1.8450538661897182,-1.4704744113609194
1783169911568519200,0.732519287109375,6.683871030443906,1.664264168319106,-1.1467146047957242
1783169911578467000,0.742467041015625,6.198134509158134,1.775127512526512,-1.0339621589060872
1783169911588416000,0.752416015625,5.756168740537762,1.8268156141877174,-1.2437199579119682
1783169911598365200,0.762365234375,5.106625804886222,1.597952205760777,-1.6264437023602425
1783169911608344000,0.772343994140625,3.7916368465304373,1.1846917226210236,-1.7869395308732985
1783169911618293000,0.78229296875,4.880656072074174,1.0442547856658697,-1.812448066139221
1783169911628242000,0.792241943359375,4.258049074143171,1.1131567647174,-1.5560180208727716
1783169911638221000,0.802220947265625,3.776941381701827,0.6734548493757844,-0.9435854301493615
1783169911648170000,0.812169921875,2.9799148054540154,-0.09261457081139086,-0.2728325697412714
1783169911658118000,0.822117919921875,2.2115374005854127,-0.48320554150342937,0.7140756866429001
1783169911668067300,0.8320673828125,-0.01415302851498127,-1.4012661428391933,1.5510880171246826
1783169911678046200,0.842046142578125,-2.953464605423808,-2.3673034240975976,1.4974183862574397
1783169911687995100,0.8519951171875,-6.365941391336918,-2.9094828403562305,0.8856348340272903
1783169911697944000,0.861944091796875,-10.091220974862575,-4.225052228948473,0.4718779456727206
1783169911707923200,0.871923095703125,-14.564154324179887,-5.6633145157516,0.10993979962170124
1783169911717872000,0.8818720703125,-18.787050251877307,-5.318559998083114,-1.275449559649825
1783169911727820000,0.891820068359375,-21.40718832709789,-4.362166743482649,-3.538175295680761
1783169911737769200,0.901769287109375,-22.594936806941032,-3.67433236335963,-4.863266545855999
1783169911747748000,0.911748046875,-22.027274866640568,-3.483128531241417,-4.544407809205353
1783169911757697000,0.921697021484375,-20.426007544982433,-3.800296830587089,-3.1108041618630287
1783169911767646000,0.93164599609375,-18.496977756989,-4.243008741399645,-1.16123873164542
1783169911777625000,0.941625,-16.05167251706123,-4.7337578301504255,0.5505567839816212
1783169911787574000,0.951573974609375,-13.287337567830084,-5.05683213866949,1.6788067806735634
1783169911797523000,0.96152294921875,-10.378375536477565,-5.055587107044458,2.190300843550265
1783169911807471000,0.97147119140625,-7.476238967230915,-4.72003179487586,2.2656232110381125
1783169911817451000,0.981450927734375,-4.794992051053047,-4.005273167470097,2.2430426920481024
1783169911827399000,0.99139892578125,-2.313700136464834,-3.0108330908089873,2.1516141161508857
1783169911837348000,1.00134814453125,-0.004368716603517532,-1.8493524401664734,2.080462458476424
1783169911847327000,1.011326904296875,2.285514490944147,-0.5792451183274387,1.9995921014726161
1783169911857276200,1.021276123046875,4.513122151842713,0.3966588924288749,1.9906227592058479
1783169911867225000,1.03122509765625,6.64768444929719,0.9918389542520045,2.2262140145830807
1783169911877173200,1.04117333984375,8.49206319270432,1.2413146503359078,2.6546768891602754
1783169911887153200,1.051153076171875,10.045003998088836,1.317643564517796,2.95873874643445
1783169911897101000,1.06110107421875,11.203117218124866,1.364095226830244,3.1014030040502547
1783169911907050200,1.07105029296875,11.882799271452427,1.3103183361962436,3.2695316655293105
1783169911916999200,1.080999267578125,12.242343361973761,1.294608725889027,3.318616014432907
1783169911926978000,1.09097802734375,12.291765856790542,1.5184218651890753,3.223141962537169
1783169911936927000,1.100927001953125,12.073743868112564,1.86008250849545,3.0477061929151414
1783169911946876200,1.110876220703125,11.554882491338253,2.2031880899131298,2.7477833351418375
1783169911956855000,1.12085498046875,10.904812316942214,2.5076377774611114,2.4307893694497644
1783169911966804000,1.130803955078125,10.115597875750064,2.816746104469895,2.0260759115114806
1783169911976752000,1.140752197265625,9.20956907299161,3.2743317592874166,1.5618106327995658
1783169911986701000,1.150701171875,8.581668060305715,3.7089386895775793,1.0781088322117924
1783169911996680000,1.160679931640625,7.79863435357511,3.8830154458060857,0.8685255860552191
1783169912006628900,1.17062890625,6.964981635719537,3.991619612909853,0.7568687533825635
1783169912016578300,1.180578369140625,6.423544854521751,4.1112089921474455,0.606677022871375
1783169912026557200,1.19055712890625,6.278854644036293,4.261514996688068,0.5130813320681452
1783169912036506000,1.200506103515625,6.3318357081174845,4.350501440130174,0.42758243848085403
1783169912046454300,1.210454345703125,6.338265448904037,4.2181513635188335,0.48593467420637604
1783169912056403200,1.2204033203125,5.852579196500778,4.0052746287748215,0.6265694718211889
1783169912066382000,1.230382080078125,4.613585098066926,3.6105160170093176,0.4641127184987068
1783169912076331300,1.240331298828125,3.4920898363322017,3.0693659437984224,0.3361383727535605
1783169912086280200,1.2502802734375,2.383289805519581,2.488367552062869,0.03747808226197958
1783169912096259000,1.260259033203125,1.687129495599866,1.8390537489920853,-0.7860431176796555
1783169912106208000,1.2702080078125,1.735695665848255,1.134365849223733,-1.4554925308063626
1783169912116157000,1.280156982421875,1.9015911614477634,0.18491846823841332,-1.308930096708238
1783169912126105000,1.29010498046875,0.9031395110577345,-0.37537323555499313,-0.5907680905997753
1783169912136085000,1.3000849609375,-1.1251947007745504,-0.654798079700768,-0.4115235763445496
1783169912146033200,1.310033203125,-3.0731168207645414,-1.4974115181252359,-0.7869935502722859
1783169912155982000,1.319982177734375,-5.550258629935979,-2.5873200937241316,-1.4202452763363718
1783169912165931300,1.32993115234375,-9.571516717523336,-3.8200457794129847,-2.0059215967550874
1783169912175910000,1.339909912109375,-13.957455673998593,-4.884297935707867,-2.8089140956699845
1783169912185859300,1.349859375,-16.760944237488506,-5.0626282577276225,-3.768735278892517
1783169912195807200,1.35980712890625,-17.731033132225274,-5.14913282122612,-4.510055457748472
1783169912205787100,1.369787109375,-17.385698768842218,-5.085158069443702,-4.74178740734905
1783169912215735300,1.3797353515625,-16.143631838834285,-4.650187566538155,-4.594171957066655
1783169912225684200,1.389684326171875,-13.736341564524173,-4.658121282146871,-4.245118865421414
1783169912235633200,1.399633056640625,-10.437232214593887,-4.96731319578588,-3.56445539984107
1783169912245612000,1.409612060546875,-6.876715907767415,-5.454375997239351,-2.6470190678834915
1783169912255561200,1.419561279296875,-3.551454463970661,-5.76234538334608,-1.7970163959905505
1783169912265510100,1.42951025390625,-0.5828700308263302,-5.539898563963175,-1.1549822285339235
1783169912275489000,1.439489013671875,1.930480571323633,-4.903998369216919,-0.9271920022964477
1783169912285438000,1.44943798828125,3.9130052181392907,-3.64411901140362,-0.7284697573721408
1783169912295386000,1.45938623046875,5.531549837812781,-2.684373816026747,0.020547113466262815
1783169912305335000,1.4693349609375,6.828392898625135,-2.28462280280143,1.409943516422063
1783169912315314200,1.479314208984375,7.716741083264351,-1.8114254450932143,2.697850260454416
1783169912325263000,1.48926318359375,8.3098513530761,-1.0907666537329554,3.332443171994388
1783169912335212000,1.4992119140625,8.480783089277148,-0.05149141004532575,3.404160208466649
1783169912345191000,1.50919091796875,7.915898212474584,0.8395549276366829,3.122297908040881
1783169912355140000,1.51914013671875,6.563201162493229,1.3005723104685545,2.3243125697635114
1783169912365088300,1.529088134765625,4.743364155146479,1.9175734512165188,1.128835979886353
1783169912375037200,1.539037109375,3.2042420317560434,2.5528949692919847,-0.13451456116884947
1783169912385016300,1.549016357421875,2.3518483730733393,2.742204365965724,-1.3173380056999624
1783169912394965200,1.55896533203125,1.9518729034423827,2.8070675910204645,-2.223448787653446
1783169912404914200,1.5689140625,2.057033067572117,2.8346733908265827,-2.5525989089548586
1783169912414893000,1.57889306640625,2.5298072314321995,2.5139547055229543,-2.2678201365604997
1783169912424842200,1.58884228515625,2.9680946038007736,1.9024618068024515,-1.3919609927468002
1783169912434791200,1.598791259765625,3.4820173551291225,1.1955600303769112,-0.3618415538087487
1783169912444739000,1.608739013671875,3.8225171379625795,0.4390446204766631,0.49273894739374513
1783169912454719000,1.618718994140625,4.157995877763629,0.0176427703268826,1.0172536737546325
1783169912464667100,1.628667236328125,4.56801518702507,-0.1641902991168201,1.1170789065971969
1783169912474616000,1.638615966796875,4.800648469379544,-0.2249855440802872,1.0701694175146519
1783169912484565000,1.64856494140625,4.991581375601887,-0.26320596914216876,1.0517360813319683
1783169912494544100,1.658544189453125,5.078819514071941,-0.36161899709925055,1.1582384538508952
1783169912504493000,1.6684931640625,5.084055661159754,-0.5409377456344664,1.2623558309294283
1783169912514442200,1.678442138671875,4.901238256853818,-0.7250798226729035,1.2970976200953126
1783169912524421000,1.688421142578125,4.316632196015119,-0.935285584641993,1.2786008632875978
1783169912534372600,1.69837255859375,3.3691566996246576,-1.0083660184219478,1.0600621572591364
1783169912544321500,1.708321533203125,2.8309032246381043,-0.9373194285571574,0.6319494112938642
1783169912554270700,1.718270751953125,2.2936972128778694,-0.7507882644250988,0.13878084031119942
1783169912564249900,1.728249755859375,1.078805290043354,-0.36902298974543807,-0.051904374760389324
1783169912574198800,1.73819873046875,-0.13055764023661612,-0.061623512481153005,0.02259630108103156
1783169912584147700,1.748147705078125,-1.2692051123023032,-0.3684621409922838,0.18787234960794447
1783169912594126600,1.758126708984375,-3.393402667608857,-1.0152157381862401,1.2292676541894674
1783169912604075800,1.76807568359375,-6.560794101351499,-2.1889809931233524,1.7827632681019603
1783169912614023700,1.778023681640625,-11.332843668234348,-3.6023321260318157,1.0739403874207287
1783169912623972600,1.78797265625,-14.417162266492843,-4.51006130296737,-0.7359338096424937
1783169912633951700,1.79795166015625,-15.50437415035367,-4.337605425938964,-3.420525652334094
1783169912643900700,1.807900634765625,-16.306673698568343,-2.7071432817175984,-6.235410054585337
1783169912653849600,1.817849609375,-15.556134732729195,-1.0779325988620518,-7.847629562890529
1783169912663828700,1.827828857421875,-14.002532833087443,-0.5468623133778572,-7.4830246818482875
1783169912673777700,1.837777587890625,-12.061800916862486,-0.8198913190066814,-5.935835571858287
1783169912683726600,1.8477265625,-10.18802247596979,-1.1829852109640837,-4.110493537354469
1783169912693674500,1.857674560546875,-8.38144827030003,-1.494188756686449,-2.673940977078676
1783169912703654700,1.867654541015625,-6.638052113077044,-1.9002409158825873,-1.499557882504165
1783169912713602600,1.8776025390625,-5.24866754668951,-1.6804630234479903,-1.4877648611187935
1783169912723551700,1.8875517578125,-4.249138622456789,-0.4375000213831663,-2.8138755174696444
1783169912733500700,1.897500732421875,-3.0027497375965115,0.4909557172387838,-3.65918857024163
1783169912743479800,1.907479736328125,-1.6517682593613863,0.9502017064839601,-3.353593804311752
1783169912753428700,1.9174287109375,0.05513152011334896,1.213535247528553,-2.079130186959356
1783169912763376600,1.927376708984375,2.066570126724243,1.3636013058334588,-0.6117668933562934
1783169912773356800,1.937356689453125,3.833303320392966,1.6379758808523415,0.5959983924686908
1783169912783304700,1.9473046875,5.201472080272436,1.8145944305181503,1.5601213645383716
1783169912793253600,1.957253662109375,6.211109726065397,2.4196347920984027,2.042376911840588
1783169912803202600,1.96720263671875,7.08068131404221,2.935364592848718,2.2975014274664223
1783169912813181700,1.977181640625,7.6030170889288184,3.638682373307645,2.3291851442359386
1783169912823130600,1.987130615234375,7.3604282297492025,4.463028625896573,1.7497919957399368
1783169912833079600,1.99707958984375,6.484472493693232,5.051244109404087,1.0434700650289654
1783169912843058700,2.00705859375,5.044346751105785,5.5181578567981715,0.18029314652532338
1783169912853007600,2.017007568359375,4.123941632470489,5.575820941215754,-0.6623951107010245
1783169912862955500,2.02695556640625,3.7611797489464283,5.5357513811558485,-0.6795464442491531
1783169912872904400,2.036904541015625,3.375425696891546,5.07102549919486,0.49305064369142054
1783169912882883600,2.046883544921875,3.011042934167385,3.1981030906096097,3.111710170792043
1783169912892832800,2.056832763671875,3.239320943921804,0.976004256260395,6.533548951551317
1783169912902781700,2.06678173828125,3.5259956130653616,-1.3070581653565168,9.880546426337958
1783169912912760800,2.0767607421875,3.182300833582878,-3.220397047743201,13.918507811444996
1783169912922709800,2.086709716796875,2.7488392739355563,-4.245640258947015,17.342700169593094
1783169912932657700,2.09665771484375,2.9088427888870236,-4.441543354797363,19.04105306999683
1783169912942606600,2.106606689453125,3.976101433521509,-3.8970974549114703,19.431083484196662
1783169912952585700,2.116585693359375,5.851864910751581,-3.198623022830486,18.880807562983033
1783169912962534700,2.12653466796875,8.132809609562159,-2.848891885793209,17.674588191425798
1783169912972483600,2.136483642578125,10.41960303440094,-3.6035172441631556,16.398055512714386
1783169912982462700,2.146462646484375,11.975748773306607,-4.4874508272305125,14.529090025061368
1783169912992411600,2.15641162109375,12.779868522685765,-4.2528985595121975,11.417014820349216
1783169913002360600,2.166360595703125,13.333877200686931,-3.511510868377983,8.80879631550312
1783169913012308500,2.17630859375,13.23846686167717,-2.922201452153921,6.985275651207566
1783169913022288600,2.18628857421875,13.123687805330752,-2.8311148215621706,5.677887815505266
1783169913032236500,2.196236572265625,12.603713498878479,-3.0780890562191603,4.3793706840008495
1783169913042185500,2.206185546875,10.497567733091115,-3.503145191092789,3.178026517264545
1783169913052134700,2.216134765625,6.710023124310374,-4.005685839924216,2.79002088689059
1783169913062113800,2.22611376953125,2.4575807841330763,-2.936482198701799,1.7523881497129796
1783169913072062700,2.236062744140625,-1.6552385658204554,-1.066351905053109,0.7231645636361091
1783169913082010600,2.2460107421875,-6.748973909473419,-0.5471777725351974,-0.5714065336562693
1783169913091990800,2.25599072265625,-12.446290063548087,0.7615127797961234,-2.5829274117231367
1783169913101938700,2.265938720703125,-18.387756334769726,3.816339033849537,-6.629111266252398
1783169913111887600,2.2758876953125,-26.131839013946056,6.603579350110888,-10.746060847878455
1783169913121836500,2.28583642578125,-38.928699587965006,8.692488149893283,-13.061011861187218
1783169913131815700,2.295815673828125,-48.719843391275404,11.536748284232615,-19.039859476298094
1783169913141764600,2.3057646484375,-49.176144559240335,14.280548979479073,-30.04336130005121
1783169913151713500,2.315713623046875,-43.65906689889431,12.883992914026974,-34.6879956163764
1783169913161692700,2.325692626953125,-37.72342246569395,9.331716027757524,-27.24849794156551
1783169913171641600,2.3356416015625,-29.72155861890316,7.914374948430061,-18.63718585362434
1783169913181589500,2.345589599609375,-20.635348214554785,6.237458803808689,-11.577914991879462
1783169913191538700,2.35553857421875,-12.366913159972428,3.6589790191441773,-6.725412416622042
1783169913201517600,2.365517578125,-6.5944999715983865,1.5237940597467123,-4.382300307711959
1783169913211466500,2.375466552734375,-2.140558907520771,-0.26486652276553213,-2.435236119725555
1783169913221415700,2.385415771484375,1.6993962719768285,-1.8716753311336038,-1.123847085557878
1783169913231394800,2.395394775390625,4.435300661015511,-2.8321725139215586,-0.17952062778286634
1783169913241343700,2.40534375,6.551719983536005,-2.9746763202786446,1.0060088608365505
1783169913251291600,2.415291748046875,8.414250469705461,-2.6542788297533986,2.006430569190532
1783169913261240800,2.42524072265625,9.816356570500135,-2.3148681573309005,2.7828879662707444
1783169913271219700,2.4352197265625,10.798630408549307,-2.114568141695857,3.149220986279845
1783169913281168600,2.445168701171875,11.426343789708614,-2.08760385466367,3.104905459213257
1783169913291117600,2.45511767578125,11.883250522351265,-1.8665869219534097,2.8738799043163654
1783169913301066800,2.465066650390625,12.288165201950072,-1.6210831982403993,2.431658845760673
1783169913311045600,2.475045654296875,12.803982388722895,-1.5049005587063728,1.7710791139185427
1783169913320994600,2.48499462890625,13.304314421594142,-1.1957665127344428,1.3028870171517133
1783169913330942700,2.494942626953125,13.780366584211587,-0.6877403451640158,1.0212732115942984
1783169913340922600,2.504922607421875,14.314791440820693,-0.1954428579274565,0.6215550777252763
1783169913350870500,2.51487060546875,14.882441690683365,0.0769581519961357,0.3176709151055664
1783169913360819500,2.5248193359375,15.335483564591406,0.6560463261961936,0.4212311332253739
1783169913370768600,2.5347685546875,15.421981113827227,1.1170948348186909,0.2348673980820924
1783169913380747500,2.54474755859375,15.768429575932025,0.7195425006814301,0.37646578003205355
1783169913390696700,2.55469677734375,15.911695891094206,0.9833278771467506,0.8387485066246241
1783169913400644600,2.56464453125,15.660664782261847,1.5283414939180016,1.073794256948307
1783169913410624800,2.574624755859375,15.44396381305456,1.3026174064300953,1.2301036666221916
1783169913420572700,2.58457275390625,14.994950464010238,1.0758806347683072,1.3839438366383314
1783169913430521600,2.594521484375,14.319505025339126,1.3000126307591795,1.4986754005812108
1783169913440470800,2.604470703125,13.515869260084628,1.4986749621897935,1.503339592999965
1783169913450449700,2.61444970703125,12.591496991384028,1.442637725408375,1.4981234657868743
1783169913460398600,2.624398681640625,11.87404547163248,1.3329733817271887,1.6680319964200256
1783169913470347500,2.634347412109375,11.242481260263919,1.372905433012545,1.8769041716977952
1783169913480326700,2.64432666015625,10.539925696349144,1.3721309415087104,2.073438112797588
1783169913490275600,2.654275634765625,9.962025270628928,1.3476274916321038,2.317197769322246
1783169913500223700,2.6642236328125,9.518365557572245,1.4240437918365,2.520527946433425
1783169913510172700,2.674172607421875,9.156189364981651,1.3986330178566275,2.536404145479202
1783169913520151600,2.684151611328125,8.45526637070477,1.0108643380437046,2.5773142480164766
1783169913530100500,2.6941005859375,7.456981309053301,0.46994303208738564,2.621513747487962
1783169913540072400,2.704072509765625,5.843094159796833,0.22094196777790784,2.870348807580769
1783169913550020400,2.714020263671875,3.1421926950782537,0.3382902900904417,3.049909548178315
1783169913560000500,2.72400048828125,-0.678300828102231,0.7255050623476504,2.729925022368133
1783169913569948400,2.733948486328125,-6.636358168640732,1.5163453511759637,1.0603057567566632
1783169913579897300,2.7438974609375,-16.21767556468844,2.651805133116245,-2.533419868971407
1783169913589876500,2.75387646484375,-24.123700033402443,4.081847288584709,-7.29722738494873
1783169913599825400,2.763825439453125,-30.70784578424692,5.253855178460478,-10.560657518732548
1783169913609774300,2.7737744140625,-37.689466420078276,8.037838246491551,-11.922211244386434
1783169913619723300,2.78372314453125,-40.48715185024738,10.939895320761202,-15.088733494079111
1783169913629702400,2.793702392578125,-42.105973533296584,8.595189220657945,-17.60172169265747
1783169913639651300,2.8036513671875,-42.534086717653274,5.4517398035168645,-18.635949005305765
1783169913649599200,2.81359912109375,-38.933184039902685,4.690607839731872,-17.33939294474125
1783169913659579400,2.823579345703125,-32.157338490116594,3.037904637607932,-13.043533487641811
1783169913669527300,2.83352734375,-26.58150468941927,1.804020137272775,-9.181550016209483
1783169913679476200,2.843476318359375,-21.292353156650066,1.5367495490401983,-6.0232695251613855
1783169913689425400,2.85342529296875,-15.115830759841202,1.0421354554243385,-3.110341512787342
1783169913699404300,2.863404296875,-8.838899777343869,0.18893471814244983,-0.6702830874718725
1783169913709353500,2.873353515625,-3.7554187012016773,-0.7051254144027829,0.9310498467683792
1783169913719302400,2.883302490234375,0.7133043369442225,-0.8788862365499138,1.3902078654691576
1783169913729281500,2.893281494140625,5.181148838689923,-0.9057672292128205,1.3917375592544674
1783169913739229400,2.9032294921875,8.568341545742749,-0.6514967000678181,0.6521362400803714
1783169913749178400,2.913178466796875,11.592219411563873,0.2014350110143423,-0.45370735207945107
1783169913759127300,2.923127197265625,14.383507834172248,1.0954483818084,-1.7363886165484785
1783169913769106400,2.9331064453125,16.49737981029749,1.7904010695040224,-2.7805393573179837
1783169913779055400,2.943055419921875,18.065066349393128,2.3524764418438076,-3.4128643239259717
1783169913789004300,2.95300439453125,19.10308604006171,3.022097119884193,-3.8599592721283433
1783169913798983400,2.9629833984375,19.61423055884838,3.916975290814042,-4.238631549228727
1783169913808932400,2.972932373046875,19.76710407578945,4.661567330947518,-4.453663416180015
1783169913818880300,2.98288037109375,19.442308642566204,5.152075888940692,-4.448860399812459
1783169913828829200,2.9928291015625,19.09020317761302,5.3967678578794,-4.0960520472869275
1783169913838808300,3.002808349609375,18.494654866999387,5.590601161718368,-3.852778420713544
1783169913848757200,3.01275732421875,17.713045055592058,5.741696563071012,-3.5994022100597616
1783169913858706400,3.02270654296875,16.920578334605693,5.740485433715581,-3.148665105962753
1783169913868655400,3.0326552734375,16.152808832502362,5.6912160836339,-2.6669784445896743
1783169913878634500,3.042634521484375,15.450973399555682,5.6011763317465775,-2.284642530415207
1783169913888583400,3.05258349609375,14.789901354151963,5.645576614487171,-2.0676425782613457
1783169913898531300,3.06253125,14.115270738995074,5.770117186391353,-2.046689075951278
1783169913908510500,3.072510498046875,13.33333710246086,5.999937749412656,-2.0710607161417602
1783169913918459400,3.08245947265625,12.542939588963984,6.274221723538637,-2.102838540935516
1783169913928408300,3.092408203125,11.91611935725212,6.334447936442494,-2.0883868217349053
1783169913938357200,3.102357177734375,11.270094074332713,6.186991183853149,-2.021371094821393
1783169913948336400,3.11233642578125,10.684674359023571,5.9830064883559935,-1.9583290938444435
1783169913958285300,3.122285400390625,10.284293231201172,5.811846204096079,-1.926544547048956
1783169913968233500,3.1322333984375,9.882018252456188,5.555002609592676,-1.9591060695663094
1783169913978213400,3.14221337890625,9.521911851876974,5.256013817799091,-2.113310542850196
1783169913988161300,3.152161376953125,9.273096665528415,5.090606982499361,-2.324751107311249
1783169913998110200,3.162110107421875,8.992612667718529,4.741561197377741,-2.225560080718994
1783169914008059100,3.17205908203125,8.828146912661195,4.404733088794351,-2.193870226469636
1783169914018038300,3.182038330078125,8.214182655391097,4.168834374903142,-2.4220852539904416
1783169914027987200,3.1919873046875,6.473166671302915,3.4402298852354285,-2.6692817530959845
1783169914037936400,3.201936279296875,3.5997944242477415,2.0867238569587467,-2.662635739210248
1783169914047915500,3.21191552734375,-1.8492571630984544,0.6807303933367133,-2.4342510542109608
1783169914057864400,3.221864501953125,-10.591036290383338,-1.2036959905594586,-2.2738521102011204
1783169914067812400,3.231812255859375,-21.499781270599364,-2.9077395038202405,-2.898473078303039
1783169914077761500,3.241761474609375,-34.05255719392299,-4.091111960536241,-6.385403632175922
1783169914087740400,3.251740478515625,-45.01956731610298,-2.8924104172632097,-13.233421268725394
1783169914097689300,3.261689453125,-51.27963308851719,-2.2715197217307983,-19.43593735396862
1783169914107638300,3.27163818359375,-51.675148656129835,-3.5116304031044243,-21.076241385507583
1783169914117586400,3.28158642578125,-46.71677104647159,-4.366922121316194,-17.99713438441753
1783169914127566300,3.29156640625,-39.73345529716015,-5.529394121083617,-13.125740646207332
1783169914137514200,3.30151416015625,-32.51885358844995,-6.115204297015071,-7.723571806067228
1783169914147463400,3.31146337890625,-26.13308053843975,-6.778148566031455,-2.9902503215074536
1783169914157442300,3.3214423828125,-20.416839903664588,-6.548273057952523,0.04829217561259865
1783169914167391200,3.33139111328125,-15.232147108757495,-5.696726371487975,1.6873989601910113
1783169914177340200,3.341340087890625,-10.180327829813956,-4.374717305237055,2.3082167366176845
1783169914187289600,3.35128955078125,-4.840951838195323,-3.4574981231614945,2.455237728138268
1783169914197268200,3.361268310546875,0.37415012350082394,-2.508446171234548,2.662301392689347
1783169914207217400,3.371217529296875,5.326406619930267,-1.1171914270609618,2.6359593292087315
1783169914217165600,3.38116552734375,9.337368938952684,0.4726897004470229,1.739389113538712
1783169914227145500,3.3911455078125,12.265848156201839,1.6124118160068988,0.7923995009690523
1783169914237093400,3.40109326171875,14.55588567752838,2.2190262950360773,0.14092559725493192
1783169914247042300,3.411042236328125,16.44916143057346,2.4233424144446847,0.06188771637529134
1783169914256991500,3.420991455078125,17.948869242942333,2.7923119204372164,-0.3348758054718375
1783169914266970400,3.430970458984375,18.869652547240257,2.8150886926516887,-0.9226781781338155
1783169914276919300,3.440919189453125,19.237561146003006,3.0699031194150446,-1.2608555093690752
1783169914286867500,3.450867431640625,19.06175800437331,3.1938089005470274,-1.5014854895658791
1783169914296847400,3.460847412109375,18.462993654322624,3.073376348483562,-1.7729858243227004
1783169914306795300,3.470795166015625,17.498144413805008,3.194423233053088,-2.024899853469431
1783169914316744400,3.480744384765625,16.536788276100157,3.364515011298656,-2.2323248986788093
1783169914326693400,3.490693359375,15.644146193659305,3.412473571042716,-2.2435037336885926
1783169914336672300,3.50067236328125,14.910941808980702,3.4608497716769575,-2.1224892900839447
1783169914346621200,3.51062109375,14.362294365751742,3.5767750754490493,-1.9515914561524985
1783169914356570400,3.5205703125,13.869612555372715,3.697862584289908,-1.7588430249407887
1783169914366549200,3.53054931640625,13.432404210412502,3.5811551902294156,-1.5038830522269009
1783169914376498400,3.54049853515625,13.12714349874258,3.350992681902647,-1.1396795915924012
1783169914386446600,3.550446533203125,12.80317341042757,3.349239408494532,-1.029772013739869
1783169914396395500,3.5603955078125,12.219320213782787,3.524095040141046,-1.1628680133476852
1783169914406374400,3.57037451171875,11.7282399933815,3.842153566324711,-1.3321715638250111
1783169914416323300,3.5803232421875,11.053178001070021,4.277016517202556,-1.6605208901375532
1783169914426272500,3.5902724609375,10.247008917945623,4.892538817569613,-2.095983268213272
1783169914436220400,3.600220458984375,9.544008532872796,5.720056393671036,-2.467879767568409
1783169914446200300,3.610200439453125,9.386959776073693,6.01432692477107,-2.5685274227097628
1783169914456148500,3.6201484375,9.774393159517645,5.921441720324754,-2.485160864976048
1783169914466097400,3.630097412109375,10.33879171410799,6.509053392720222,-2.671547652201354
1783169914476076300,3.640076171875,11.369999386674165,6.846403187090158,-2.9660405938804146
1783169914486025200,3.650025146484375,12.39867257232666,6.774097829335927,-3.280398219719529
1783169914495974400,3.659974365234375,12.196820797204971,6.975155823731422,-4.229643648391962
1783169914505923300,3.66992333984375,10.589401967179775,6.700520551949739,-6.018515608632565
1783169914515902200,3.679902099609375,6.4083800186157225,6.116355220615864,-8.41639975669384
1783169914525851100,3.68985107421875,-0.21042028150260447,6.180882345584035,-11.589909381055831
1783169914535832600,3.69983251953125,-9.324795288583635,6.203822491666674,-15.610190148043632
1783169914545812700,3.709812744140625,-22.268612264454365,5.393341390562057,-20.32188782981634
1783169914555760600,3.7197607421875,-36.526485301744934,4.037412226791679,-27.02690101701021
1783169914565709800,3.729709716796875,-46.84487018764019,2.5758742783412334,-34.528040032219884
1783169914575658800,3.73965869140625,-50.497482009840006,1.6205489452332258,-34.90989649231434
1783169914585638000,3.749637939453125,-47.61892213101387,-0.5962767710186541,-28.32312039296627
1783169914595586800,3.7595869140625,-42.27795390176773,-3.0694200120732185,-19.885689538681508
1783169914605534700,3.76953466796875,-37.0186831279993,-4.447108879970014,-11.076369491565227
1783169914615515000,3.779514892578125,-33.31150735644102,-5.299826071518659,-4.438924988992512
1783169914625462800,3.789462890625,-30.358481726956366,-4.836736266326904,-1.0751748245865107
1783169914635411700,3.79941162109375,-27.49753699979782,-3.966959511166811,0.9117021722197532
1783169914645360600,3.809360595703125,-23.473744425296783,-3.8684164270892736,2.9483237354040144
1783169914655339800,3.81933984375,-18.190889362323283,-4.665690548357367,5.371252308350801
1783169914665288700,3.829288818359375,-12.096961077570915,-5.7966240850448605,7.5966066373646255
1783169914675237600,3.839237548828125,-5.6216936345964665,-6.810611158218979,9.374293186724186
1783169914685185800,3.849185791015625,0.40502106258273124,-7.398461900067329,10.690724160581826
1783169914695165700,3.859165771484375,4.971212541311979,-7.204857728809118,11.03102579049468
1783169914705113600,3.869113525390625,8.48175047300458,-6.305185601601004,10.605555814123154
1783169914715062500,3.8790625,11.398372079199552,-4.979530287802219,9.61457026183009
1783169914725041700,3.889041748046875,13.917870682585239,-3.348701940616965,7.965521198299527
1783169914734990800,3.898990966796875,16.16558881909847,-1.5350255017265677,5.826141271430254
1783169914744939800,3.908939697265625,17.930809854638575,0.30398937655985353,3.6186516849309203
1783169914754888000,3.918887939453125,19.11698129442334,1.4778338342130184,1.6857076461032032
1783169914764867800,3.928867919921875,20.044476079058647,2.0925804740324616,0.39223895709477363
1783169914774815700,3.938815673828125,20.550732825803756,2.449018122971058,-0.7753484129250049
1783169914784764700,3.9487646484375,20.424728611087797,2.7620880470871922,-1.592797307215631
1783169914794743800,3.958743896484375,19.9567557100296,3.1445608855143186,-2.222223337511718
1783169914804692700,3.968692626953125,19.15982207276225,3.6112639127671717,-2.792193554754555
1783169914814641700,3.9786416015625,18.312986632728574,4.054264285132288,-3.2105811716496944
1783169914824590600,3.988590576171875,17.46401067353487,4.464428263561428,-3.4305744604006407
1783169914834569700,3.99856982421875,16.474499285447596,4.906522334736585,-3.3003377226814625
1783169914844518700,4.0085185546875,15.620978084039686,5.661413650566339,-3.0527900720506906
1783169914854466600,4.018466552734375,14.89255859555006,6.528349629342555,-2.935689002497494
1783169914864446700,4.02844677734375,13.997677794271707,7.415756733739376,-2.993587941497564
1783169914874394600,4.03839453125,12.811990338611603,8.523603409349917,-3.3139167507007716
1783169914884343600,4.048343505859375,11.382911475217341,10.104980620145797,-3.973090561267733
1783169914894292700,4.058292724609375,9.855919350081681,11.753076328474283,-4.528692645940184
1783169914904272000,4.06827197265625,8.147790905594825,13.133192131257056,-4.825228783884644
1783169914914220800,4.078220703125,6.393910763758421,14.103594329726695,-5.222742247316241
1783169914924168700,4.088168701171875,5.1130993848145,14.334703763514757,-5.570544462117552
1783169914934118000,4.098117919921875,4.336429367896915,14.104167161178587,-5.945125378251076
1783169914944096800,4.1080966796875,3.566639173620939,13.446751884716749,-6.212535959476233
1783169914954045700,4.118045654296875,3.109257809203863,12.166652453434466,-6.24679946360588
1783169914963994600,4.12799462890625,2.445235097301006,10.506370632749796,-6.041905836570263
1783169914973973800,4.137973876953125,0.9367278924047946,8.310601294660568,-6.248578748238086
1783169914983922700,4.147922607421875,-1.315937052860856,6.383425025579333,-6.524708057969808
1783169914993871600,4.15787158203125,-3.4856969204246995,4.380352680775523,-6.852567554938793
1783169915003819800,4.16781982421875,-6.158592772364616,2.257581943401694,-7.297361240461468
1783169915013799700,4.177799560546875,-10.24882210484743,0.0958262263342738,-7.620285619115829
1783169915023747600,4.18774755859375,-15.234347249150275,-1.7135587989725172,-8.148301777726411
1783169915033696800,4.19769677734375,-19.856540601086614,-2.5601503472477196,-9.363606957536936
1783169915043675600,4.207675537109375,-23.60797637013197,-3.6475323269784448,-10.86520745178461
1783169915053624600,4.21762451171875,-27.172617647933958,-5.108952786529064,-10.165566314011812
1783169915063573800,4.22757373046875,-28.956704711985587,-6.129924311763048,-7.562250194254517
1783169915073522700,4.237522705078125,-29.27315083453655,-7.78791129950881,-5.210737921267747
1783169915083501800,4.247501708984375,-28.91883470779657,-9.871258373510837,-2.676869139485061
1783169915093449700,4.25744970703125,-28.269543116557596,-11.13231291258335,-0.09920658948756754
1783169915103399000,4.26739892578125,-27.667801212000846,-11.278545091813802,2.455097150623798
1783169915113377800,4.277377685546875,-25.78896548771858,-9.739045951804519,4.702621225869655
1783169915123326700,4.28732666015625,-22.998925603866574,-7.189484218588471,6.479551403903961
1783169915133275600,4.297275634765625,-20.087969183826445,-4.8362774166435,8.2234262845546
1783169915143224800,4.307224853515625,-17.100339858472346,-2.9460373780325053,9.692202367565034
1783169915153203700,4.31720361328125,-13.870129272723197,-1.3172298691503703,10.561473511290549
1783169915163152600,4.327152587890625,-10.418707546865939,0.006285875336453318,10.718201365572213
1783169915173100800,4.337100830078125,-6.620478462463617,1.2046901161633432,10.034465068417788
1783169915183080700,4.347080810546875,-2.6594939340531822,2.082284705467522,8.875690754124522
1783169915193028600,4.357028564453125,1.462728035017848,2.612776898802817,7.466027369818091
1783169915202977500,4.3669775390625,5.6055275126934045,3.1057559385627505,5.932511395871639
1783169915212926700,4.3769267578125,9.333166811087727,3.679963062722981,4.495554054187238
1783169915222905600,4.386905517578125,12.433257563495635,4.429876882401109,3.3816111075282094
1783169915232854800,4.396854736328125,15.034313337105512,4.86172545389384,2.404207505863905
1783169915242803700,4.4068037109375,16.95607284183502,5.300639725989103,1.6703585396714506
1783169915252752000,4.416751953125,18.19964316214323,5.844246252441406,1.0210196021594107
1783169915262731800,4.426731689453125,18.8734870108366,6.306024975034594,0.42381168777048583
1783169915272679700,4.4366796875,19.234873514354227,6.757915340819954,0.05580094380751252
1783169915282628900,4.44662890625,19.254553197336197,7.145885315358639,-0.15148030901700257
1783169915292607700,4.456607666015625,18.87928780606985,7.5469824824959035,-0.32236206859648225
1783169915302556700,4.466556640625,17.966895898020265,7.81980164476633,-0.2980428892455995
1783169915312505600,4.476505615234375,16.659138059961794,8.05697373959422,-0.38441213592663404
1783169915322453800,4.486453857421875,15.243447085928915,8.290240059155225,-0.722894879849255
1783169915332433700,4.49643359375,13.978843329942226,8.369367371883987,-1.1753845267020164
1783169915342381800,4.5063818359375,12.947384312963486,8.406392741942405,-1.7333397503718733
1783169915352330800,4.516330810546875,12.145802557629347,8.516711896270513,-2.2160236060887573
1783169915362309600,4.5263095703125,11.373968290305138,8.455895900779963,-2.5536659536644817
1783169915372258600,4.536258544921875,10.566991397929192,8.260441133219004,-2.6929367694497106
1783169915382207700,4.546207763671875,9.765101015037297,7.991909439009428,-2.841782346048951
1783169915392157000,4.556156982421875,9.089066378301382,7.395486099126934,-3.078412004563212
1783169915402135800,4.5661357421875,8.392685703629255,6.937741746616363,-3.3605034375697374
1783169915412084700,4.576084716796875,7.516322555816173,6.375785909003019,-3.636023090970516
1783169915422033000,4.586032958984375,6.731489106187224,5.69153289449811,-3.7843840989232063
1783169915432012800,4.5960126953125,6.035772448381781,5.10720798868835,-3.9275264954447744
1783169915441960700,4.605960693359375,5.059457810997962,4.54122391847223,-4.190838993701338
1783169915451910000,4.615909912109375,4.236084495094418,3.7686113602519034,-4.617413131922484
1783169915461858800,4.62585888671875,2.9233617281049487,2.8495830829277633,-6.036847384136915
1783169915471837700,4.635837646484375,0.5286889433056116,2.06052412455827,-8.203633788847922
1783169915481786600,4.64578662109375,-2.251854797926545,1.1122788128390908,-10.384994662356377
1783169915491734800,4.65573486328125,-5.136715822723508,-0.2701975815951824,-12.20144670343995
1783169915501683700,4.66568359375,-8.633161516177653,-1.3125082474559544,-14.038511324441432
1783169915511662800,4.675662841796875,-13.84304252835512,-1.7987448272183537,-16.12601434907913
1783169915521611800,4.68561181640625,-19.41948656990528,-2.7800258548378944,-18.281828108876944
1783169915531560700,4.695560791015625,-23.635752850329876,-4.528536286334693,-20.22106715619564
1783169915541570600,4.705570556640625,-25.803330697679517,-5.513178899341821,-20.262217497229575
1783169915551519700,4.715519775390625,-25.931051068663596,-5.350614009469747,-18.106413089782
1783169915561469000,4.725468994140625,-26.926627455878258,-5.757786697128415,-14.798874934202432
1783169915571416800,4.735416748046875,-27.48923678896427,-6.197624806070327,-10.61988361468315
1783169915581396700,4.745396728515625,-27.32797187577486,-6.913093627572059,-6.351904682677984
1783169915591345000,4.755344970703125,-27.8847476804018,-8.120529973703622,-2.28823134868741
1783169915601293800,4.7652939453125,-28.3234360347867,-8.687578166019916,0.7330056472361087
1783169915611272700,4.775272705078125,-28.301754948854445,-8.851605529659986,2.225535530799627
1783169915621222000,4.785221923828125,-27.60615519542694,-8.682029884243011,2.535182494729757
1783169915631170800,4.7951708984375,-25.283767894637585,-7.571640538412332,3.364205799219012
1783169915641118700,4.80511865234375,-21.77068144750595,-6.076261695158482,4.831619653965532
1783169915651098600,4.8150986328125,-17.17920355182886,-4.4546378141701215,6.802786163681745
1783169915661046800,4.825046875,-11.423456251573562,-2.770934785887599,8.951443621984124
1783169915670995700,4.83499560546875,-5.426393765336274,-1.2299467224948109,10.907398241782188
1783169915680974800,4.844974853515625,0.23864508998990058,-0.27287425345852967,12.122905666166544
1783169915690923800,4.854923828125,5.427510202145577,-0.0667075377471745,12.396851202118397
1783169915700872700,4.864872802734375,9.92636475918293,0.11430384005010127,11.504340052580833
1783169915710822000,4.87482177734375,13.869699064612387,0.41740795820802445,9.586973229852319
1783169915720800800,4.88480078125,16.962054838854073,0.8928440347537397,7.2187190809011454
1783169915730750000,4.89475,19.096309093272684,1.4154922365903853,5.116615283980965
1783169915740697900,4.90469775390625,20.387496904802322,2.389702302910387,3.0403768729403615
1783169915750646800,4.914646728515625,21.12770269267559,3.7569507330745457,1.099763468528539
1783169915760626000,4.9246259765625,21.40211935327053,4.661547457203269,-0.42146636675335464
1783169915770574800,4.934574951171875,20.88213335638046,5.099544906714558,-1.2156740861881523
1783169915780523800,4.944523681640625,20.15481978330612,5.433968584504723,-1.711209751628339
1783169915790503000,4.9545029296875,19.17724667029381,5.691981807309388,-2.0006237826079127
1783169915800451800,4.964451904296875,17.75214957001209,5.967088203734159,-2.3254542871445416
1783169915810399700,4.974399658203125,16.688223869192598,6.426275740790366,-2.9185259785115716
1783169915820348700,4.9843486328125,15.71785791108012,6.968291198658942,-3.68093453810364
1783169915830327800,4.994327880859375,14.480227502214907,7.6177429488956925,-4.368562874260545
1783169915840276700,5.00427685546875,12.96576518830657,8.282282378149032,-4.844492871803045
1783169915850225700,5.0142255859375,11.496696844351291,8.815828698357938,-5.353011133739352
1783169915860204800,5.024204833984375,10.045915852236748,9.360027930006384,-6.094274321711063
1783169915870153700,5.03415380859375,8.705121421495079,10.212397038769721,-7.495559169250726
1783169915880103000,5.04410302734375,7.32841162776351,10.907928987658023,-9.133722681629656
1783169915890050800,5.05405078125,5.959091359761357,11.515901895558834,-10.239993486225604
1783169915900031000,5.064031005859375,4.797866145184636,11.869357606077193,-10.829022039681673
1783169915909979000,5.073978759765625,3.7866158034980293,11.564155346596241,-11.02556167986989
1783169915919927800,5.083927734375,2.652495453467965,10.465454100471735,-10.81944055686593
1783169915929907000,5.093906982421875,1.2009569209843873,9.305644597911835,-10.665742864060402
1783169915939856000,5.10385595703125,-0.13469430164992807,8.004287274545431,-11.121169587278365
1783169915949804800,5.1138046875,-1.3511124111384152,6.156885968446732,-11.481118166947365
1783169915959752700,5.123752685546875,-2.5694015751957893,4.875879359191655,-11.797910326457023
1783169915969732900,5.13373291015625,-2.850654219290614,3.9710646083980796,-11.912857725107669
1783169915979680800,5.1436806640625,-3.0100130065977573,2.8306758456230163,-11.733782429939508
1783169915989629700,5.153629638671875,-3.2846476938575506,1.7077584421306848,-10.97168162112236
1783169915999608800,5.16360888671875,-5.078752878576517,-0.14002923293709754,-9.713739076590537
1783169916009557800,5.173557861328125,-8.402716099256276,-2.492761403107643,-8.787599213695525
1783169916019506700,5.183506591796875,-12.434737572920321,-4.553829717545211,-8.748208283549546
1783169916029455600,5.19345556640625,-17.89874298377037,-6.240529881817102,-9.270418386229872
1783169916039434800,5.203434814453125,-23.719229590439795,-7.472079509463906,-9.637578212451935
1783169916049384000,5.213384033203125,-28.382259979677197,-7.955858466941118,-9.989516504144667
1783169916059331800,5.223331787109375,-32.228163838446136,-8.162992566379904,-9.533751342752575
1783169916069280800,5.23328076171875,-34.90249878327846,-8.594366798359156,-7.563693378800154
1783169916079260000,5.243260009765625,-35.5709206069231,-9.101205728906393,-4.610047571590543
1783169916089208800,5.253208740234375,-33.88716088001728,-9.273602276962995,-1.6355866476282477
1783169916099157800,5.26315771484375,-30.72587477741241,-8.986813041529059,1.5225532659053802
1783169916109137000,5.273136962890625,-26.85470788257122,-8.507399293524026,4.65300408526361
1783169916119085800,5.2830859375,-22.76916875373125,-7.699276738244294,7.04830523109436
1783169916129033700,5.29303369140625,-18.42236470681429,-6.971405531287193,8.500392045110464
1783169916138982700,5.302982666015625,-14.037643893957137,-6.037188744920492,9.285933350747824
1783169916148961800,5.3129619140625,-9.566327916708588,-5.05625580008626,9.425866722095012
1783169916158910700,5.32291064453125,-4.806794717049598,-4.117102141839266,9.30446094108522
1783169916168859600,5.332859619140625,-0.1421136379957199,-3.121818015569448,9.29056627124548
1783169916178838800,5.3428388671875,4.063371136173606,-2.3786679909378288,9.062598642614484
1783169916188787700,5.35278759765625,7.583680520296096,-1.7289020601853726,8.489144674909115
1783169916198736600,5.362736572265625,10.676837089526652,-0.9262092018041759,7.763745411023497
1783169916208684800,5.372684814453125,13.149106324225663,-0.3175950003251433,6.699947135975957
1783169916218665000,5.3826650390625,14.905317539358139,0.2891344833858311,5.450860098072886
1783169916228612600,5.392612548828125,16.02500545940995,1.2231246213898062,4.217986820606887
1783169916238561800,5.402561767578125,16.63315021674633,2.369861584147811,2.9804443822860716
1783169916248541000,5.412541015625,16.923129188132286,3.4640874384239315,1.9206711249709127
1783169916258489900,5.42248974609375,17.06213784584999,4.351567023535073,1.2164550074327736
1783169916268438800,5.432438720703125,16.966482007646558,4.96462673318088,0.8139716466341167
1783169916278387700,5.4423876953125,16.515517524534463,5.564065036970376,0.6254141643062233
1783169916288366800,5.452366943359375,15.811887609386444,6.167209794062376,0.4851372402183711
1783169916298314800,5.462314697265625,14.78151346503496,6.676190412813424,0.38618309112191196
1783169916308263700,5.472263671875,13.670807308340072,7.1450143777430055,0.18729425745904443
1783169916318212900,5.482212890625,12.40680560989976,7.491444719669222,-0.19831907095089554
1783169916328191700,5.492191650390625,11.164405502414702,7.623773461231589,-0.6349706588111818
1783169916338140700,5.502140625,10.145180528587103,7.525993470481038,-1.185538840969652
1783169916348089600,5.512089599609375,9.398834922784566,7.348671156460046,-1.7173484005138278
1783169916358068700,5.52206884765625,8.806629492858052,7.01255294971168,-2.021663209635764
1783169916368017700,5.532017578125,8.18373841728866,6.428391710031033,-2.2070102785497903
1783169916377965600,5.541965576171875,7.688826071378588,5.771200305452942,-2.375730622311681
1783169916387914800,5.551914794921875,7.300162853878736,5.2377814110159875,-2.554653503397107
1783169916397893600,5.5618935546875,6.833799141582846,4.805480711841583,-2.68668998401463
1783169916407842800,5.5718427734375,6.405874757796526,4.446019331167638,-2.7817449337154625
1783169916417791700,5.581791748046875,5.761651555863023,4.165438302724064,-2.8484131623655555
1783169916427771000,5.59177099609375,4.983448922550678,3.772843298733234,-2.915487633728981
1783169916437719800,5.6017197265625,3.7813475077062844,2.89330532027632,-3.0965093867897986
1783169916447668700,5.611668701171875,1.4799357749283313,1.719030069990456,-3.2086785528987645
1783169916457617000,5.621616943359375,-1.4596511117905377,0.5168614351287484,-3.3666222127109764
1783169916467595800,5.631595703125,-4.737873156514763,-0.6510238218590617,-3.9134541309505697
1783169916477544700,5.641544677734375,-8.349415886223316,-1.5253180544435978,-4.567341817808151
1783169916487493600,5.65149365234375,-12.177754862207173,-2.3978321256130934,-5.342631778544187
1783169916497472800,5.66147265625,-15.808049638658762,-3.0475834433183073,-6.798896170505881
1783169916507421700,5.671421630859375,-19.178505730444193,-3.253217367327213,-8.575060040342807
1783169916517370600,5.68137060546875,-21.233678849363326,-3.3530841012239456,-9.461371166196464
1783169916527318800,5.69131884765625,-21.800435949778556,-3.871375276894867,-9.079932639253139
1783169916537322000,5.701322021484375,-21.64882032394409,-4.66874467523098,-7.308597504746913
1783169916547270100,5.711270263671875,-21.021684450411794,-5.245922047373652,-4.6961388781130315
1783169916557219000,5.721218994140625,-20.50624135764837,-5.498854605913162,-2.5235864572212097
1783169916567168000,5.73116796875,-20.41844383172989,-5.701707667031884,-1.074274587811157
1783169916577147000,5.74114697265625,-20.137204631638525,-5.580163354334235,-0.5355535683780909
1783169916587096300,5.751096435546875,-19.05051531034708,-5.052634102457762,-0.6225213654741645
1783169916597045200,5.761045166015625,-17.07184909252524,-4.552508990335464,-0.4988019737597555
1783169916607024000,5.771024169921875,-14.406062195807694,-4.053436017614603,0.10045162111259996
1783169916616973000,5.78097314453125,-11.301567070960997,-3.5692063937604424,0.9921535731591283
1783169916626921200,5.790921142578125,-7.656605471253394,-3.0606174046754835,1.80493885955289
1783169916636870100,5.8008701171875,-3.76425374956429,-2.597015558308363,2.1772630828008053
1783169916646849300,5.810849365234375,-0.09267185395658016,-2.188567736147344,2.2770057519264517
1783169916656798200,5.820798095703125,3.2070430606514213,-1.6374271609283984,2.1058681178897616
1783169916666747100,5.8307470703125,6.174540867602825,-1.2059889238022268,1.8691396751761435
1783169916676726000,5.84072607421875,8.668228153383732,-0.9543405598543584,1.7830299562141299
1783169916686675000,5.850675048828125,10.643841997897624,-0.6760485191307961,1.8036913437098263
1783169916696623000,5.860623046875,12.1606599350214,-0.4568981109447777,1.9801751610800622
1783169916706572000,5.870572021484375,13.203192134678362,-0.50655426838696,2.2874207629568875
1783169916716551200,5.88055126953125,13.863187490761279,-0.6166635793566704,2.6173054821431636
1783169916726500000,5.8905,14.186201301264761,-0.6422052862398326,2.7964427366316316
1783169916736449000,5.900448974609375,14.10696117581129,-0.5793795583620667,2.639768658363819
1783169916746428000,5.910427978515625,13.818289195370673,-0.47211759964749217,2.3804100122995675
1783169916756377300,5.92037744140625,13.450772226274013,-0.37430735988914965,2.1912882471524178
1783169916766326300,5.930326171875,12.867297799813747,-0.1617605877518654,1.9767283816270529
1783169916776274200,5.940274169921875,12.245055543541907,0.11282266158163547,1.7407554334558546
1783169916786254000,5.950254150390625,11.579485017675161,0.45586219202578065,1.5246179433502256
1783169916796202200,5.9602021484375,11.254873124325275,0.7521665670409798,1.2540933217577634
1783169916806151200,5.970151123046875,11.0239004686594,0.9157447256088256,1.03668442347683
1783169916816100000,5.98010009765625,10.73573936035037,1.1797817387476563,0.9023368163727223
1783169916826079200,5.990079345703125,10.494605376154183,1.3700871607214211,0.7378223998680711
1783169916836028200,6.000028076171875,10.091489854931831,1.569648486818373,0.625473639408499
1783169916845976000,6.00997607421875,9.699922732684016,1.8107734109252691,0.5376836392093449
1783169916855956000,6.0199560546875,9.268134659206867,1.965524119915068,0.4100164962498471
1783169916865904000,6.029904052734375,8.751163041701913,2.129443054744601,0.255339930208493
1783169916875853000,6.03985302734375,8.092592749986052,2.3004671454042196,0.12831145047871395
1783169916885802000,6.049802001953125,7.307673375639319,2.444727732300758,0.018700663615670052
1783169916895781000,6.059781005859375,6.672813045334816,2.5750930648356674,-0.036854360873065886
1783169916905730000,6.06972998046875,5.864402905285358,2.9483146753147245,-0.12435783574841916
1783169916915679200,6.07967919921875,4.526659094285964,3.0488512712970373,-0.2421228125704452
1783169916925658000,6.089658203125,2.9918846447110172,2.880013292504847,-0.5341982447789981
1783169916935607300,6.099607177734375,0.31641806550025936,3.181836138680577,-1.2160004685983061
1783169916945555200,6.10955517578125,-3.7060236789137124,1.8031649817481636,-1.645987337872386
1783169916955504000,6.119504150390625,-7.2496759447008365,-1.17119569671005,-1.8459888089522718
1783169916965483300,6.129483154296875,-12.410195836859941,-2.924937014597654,-1.8188129249960183
1783169916975432200,6.13943212890625,-19.05081224746704,-5.295257448428869,-0.8546108963407576
1783169916985381000,6.149381103515625,-24.31607553964853,-8.19974321115017,0.46195839000903066
1783169916995360300,6.1593603515625,-27.160387111914158,-9.01226780078113,-0.432358530308865
1783169917005309200,6.16930908203125,-29.055175607609748,-8.312327972322702,-3.99576621119529
1783169917015257000,6.179257080078125,-29.735054060292242,-8.057711406219005,-5.901650393661856
1783169917025206000,6.1892060546875,-27.59931161314249,-8.275484388571977,-5.308340217363834
1783169917035185200,6.19918505859375,-24.10746435339451,-7.692296962359547,-4.25512354208529
1783169917045134000,6.209134033203125,-20.153676458489894,-6.638524406763911,-2.998154226499796
1783169917055083000,6.2190830078125,-16.172265228122473,-6.0620350168854,-1.1858953993223607
1783169917065032000,6.229031982421875,-12.849240749597548,-5.727034415990114,0.5935365689324215
1783169917075011000,6.239010986328125,-9.96209892038703,-5.24590626528263,1.4568272865414618
1783169917084960300,6.248960205078125,-6.989192532390356,-4.3759909784346815,1.3027595913797616
1783169917094908000,6.258907958984375,-3.997755631446838,-2.9562217951774596,0.5597440067827701
1783169917104888300,6.268888427734375,-1.0675228485286234,-1.448162334048748,-0.2858906791590154
1783169917114836200,6.278836181640625,1.6872756260722874,-0.0612947189182043,-0.5727141821887344
1783169917124785200,6.28878515625,3.9901159303486344,1.2760954563379288,-0.5837986899785698
1783169917134734000,6.298734130859375,5.735003202912211,2.3622803352385757,-0.8692652254413813
1783169917144713200,6.308713134765625,7.278197105786204,3.464402203461528,-1.4945770253516732
1783169917154662100,6.318662109375,8.624833248293399,4.568699662157893,-2.1799011762194334
1783169917164610000,6.328610107421875,9.842180747586488,5.283602081948518,-2.8472552245020863
1783169917174590200,6.338590087890625,11.07783781055212,5.680719824060797,-3.3238235199481245
1783169917184538000,6.3485380859375,12.459336592125892,5.874421610474586,-3.412317795959115
1783169917194487000,6.358487060546875,13.765227467268705,5.873795003008842,-3.166100809410214
1783169917204436000,6.36843603515625,14.783152464413641,5.818667574548721,-2.7570670040547847
1783169917214415000,6.3784150390625,15.608056643146275,5.672122091585398,-2.1471771566167472
1783169917224364000,6.388364013671875,16.1711300866127,5.314437365195155,-1.205008972854167
1783169917234313000,6.39831298828125,16.46121661002636,4.9547079812347885,-0.3647707391284406
1783169917244292000,6.4082919921875,16.555850703966616,4.701781267914176,0.2037882961422205
1783169917254241000,6.418240966796875,16.26671344410181,4.450505828931927,0.5739813525803387
1783169917264189000,6.42818896484375,15.62449807485938,4.478377001675963,0.6718294401310384
1783169917274138000,6.43813818359375,14.80156139680743,4.64108509941101,0.6928959012962878
1783169917284117200,6.4481171875,13.77562143551111,4.721809325942397,0.829141524041444
1783169917294066200,6.458066162109375,12.563251724630593,4.7540416165053845,0.8560544462125748
1783169917304015000,6.46801513671875,11.327477757287024,4.801283844673633,0.6837382699158042
1783169917313994200,6.477994140625,10.10497360588312,4.979458976131677,0.4118041468515992
1783169917323943200,6.487943115234375,8.798270245313644,5.310486581742763,0.0768942747133784
1783169917333891000,6.49789111328125,7.833373658522963,5.378195259356499,-0.19186057899389414
1783169917343840000,6.507840087890625,7.194013094189763,5.366482609730959,-0.26159513641204685
1783169917353819100,6.517819091796875,6.46867988127768,5.227026208245754,-0.17529080819338558
1783169917363768000,6.52776806640625,5.76657907539308,4.772190728919208,-0.10149068183675408
1783169917373717000,6.537717041015625,5.064009482952952,4.333999510401487,-0.1865219761786051
1783169917383666000,6.547666015625,4.1659827848643065,4.001538364855945,-0.15396390599366278
1783169917393645000,6.55764501953125,2.766697586709261,3.5745629523575304,-0.4872785265633836
1783169917403594000,6.567593994140625,1.548960211315751,3.164390790621936,-1.2236143776681274
1783169917413542100,6.577542236328125,0.39264907226562495,2.819379960104823,-1.593944869815558
1783169917423522000,6.58752197265625,-1.2131482940375804,2.4821897402107713,-2.1429355735242366
1783169917433470000,6.597469970703125,-3.332282720735669,1.7350272650673983,-3.7391067410871384
1783169917443419100,6.607419189453125,-6.758489341315626,0.1116515719756484,-5.332707181379199
1783169917453368000,6.6173681640625,-12.761609227895736,-2.5432223010614514,-6.984754842203855
1783169917463347200,6.62734716796875,-20.37084738329649,-5.430863604226708,-9.02332637041211
1783169917473296100,6.637296142578125,-26.901184387063978,-6.855430543154478,-12.432134112423658
1783169917483244300,6.647244384765625,-31.360868963229656,-6.389540878111124,-18.1621764780581
1783169917493224200,6.65722412109375,-32.311551731228825,-6.024553719753027,-22.273774761784075
1783169917503172000,6.667172119140625,-30.618334440147876,-6.3502265203326935,-21.326872681367394
1783169917513121000,6.67712109375,-27.399786235141754,-7.27173404725194,-15.70611252822876
1783169917523070200,6.6870703125,-24.04378420064449,-7.903403472560644,-8.96064516557157
1783169917533049000,6.697049072265625,-21.250370456445214,-8.065800020128489,-3.3808857158631085
1783169917543002400,6.70700244140625,-18.887611397778986,-8.060935628962516,0.751229870712757
1783169917552951300,6.716951416015625,-16.582825220131873,-7.6233765708684915,2.396657090484351
1783169917562930400,6.726930419921875,-13.937033648216724,-6.855062294363975,2.2663258063495157
1783169917572879400,6.73687939453125,-10.958604697406292,-6.187610777056217,2.1538068038895726
1783169917582827300,6.7468271484375,-7.865001553452014,-5.435516982990503,3.0209897431641815
1783169917592776200,6.756776123046875,-4.241309536266327,-4.343191409377753,4.277341511373222
1783169917602755300,6.76675537109375,-0.37962358647584915,-3.2367426178663967,5.344707415774464
1783169917612704500,6.77670458984375,3.4031928247392176,-2.1264415348410606,5.977222644257545
1783169917622653400,6.7866533203125,6.749505824393034,-0.9821803145468234,6.302738208448886
1783169917632602400,6.796602294921875,9.632143912443517,-0.06575988163352012,6.281082841479778
1783169917642581500,6.80658154296875,11.863867776489258,0.3658528352767229,5.891946745771169
1783169917652529400,6.816529296875,13.477283801102637,0.48982642094790935,5.437860915768146
1783169917662478300,6.826478271484375,14.606068050801753,0.5219945602335035,5.103204598265886
1783169917672457500,6.83645751953125,15.08836641433239,0.644911476458609,4.6465620695173735
1783169917682406400,6.846406494140625,15.27629955421686,0.8455854399725794,4.065827297154069
1783169917692355300,6.856355224609375,15.226549727141856,1.1029691327020525,3.4876886787638064
1783169917702304300,6.86630419921875,14.971083266210556,1.269339552336931,3.0426831040561195
1783169917712283400,6.876283447265625,14.824284100747107,1.438402864317596,2.7004116353750227
1783169917722232300,6.886232421875,14.546495917892456,1.5926514690041542,2.425208792838454
1783169917732180500,6.896180419921875,14.108548737263678,1.6790020109847188,2.2872281629942357
1783169917742160400,6.906160400390625,13.704384583771228,1.7981094519242644,2.141988940323889
1783169917752108300,6.9161083984375,13.228291504621504,1.9883935388490557,1.9229729721724986
1783169917762057200,6.92605712890625,12.67455988999605,2.2206764003306625,1.6891484342068432
1783169917772006400,6.93600634765625,12.05105272835493,2.478720018273592,1.4429400693558156
1783169917781985300,6.9459853515625,11.463325320625305,2.771410586705804,1.2394792516022919
1783169917791934500,6.9559345703125,10.996194131088256,3.060696315130591,1.1361176613271236
1783169917801883400,6.96588330078125,10.65213285638094,3.3076918848365544,1.0149313682869077
1783169917811862500,6.975862548828125,10.480705445617437,3.5262519259139893,0.8192571858216077
1783169917821810400,6.985810546875,10.568740287423132,3.7477000896483657,0.5157884721349925
1783169917831759400,6.99575927734375,10.885513742232321,3.89586703633368,0.18864158041477203
1783169917841708500,7.00570849609375,10.928328801608085,3.9856101433619853,-0.11761727544702588
1783169917851687400,7.0156875,10.710856263506411,3.951602952080965,-0.35671442005336285
1783169917861636400,7.02563623046875,10.544382091236114,3.833664554920792,-0.42649672560337926
1783169917871585300,7.035585205078125,10.267461338865756,3.753187873409688,-0.31829540367946024
1783169917881533400,7.045533447265625,9.948701678675413,3.6422473723128435,-0.2473918024819344
1783169917891513300,7.055513427734375,9.313471346014737,3.326106370188296,-0.30747159265242513
1783169917901461200,7.065461181640625,8.42080120652318,3.0012261812910435,-0.32905155629776417
1783169917911410400,7.075410400390625,7.166352933847904,2.681866801641881,-0.4596086120124906
1783169917921389300,7.085389404296875,4.829375382170081,2.612609725542366,-1.0400599643245338
1783169917931338200,7.095338134765625,1.745693912771344,2.5592978220716116,-1.938748341192305
1783169917941287400,7.105287353515625,-1.955201171082258,1.6976669639661908,-2.887613246114552
1783169917951236600,7.115236572265625,-8.376008125072717,0.298748699427396,-4.254744771900773
1783169917961215500,7.125215576171875,-18.233150294947624,-1.025604153470695,-6.227846925854682
1783169917971164400,7.135164306640625,-29.741013845479486,-1.719100066486746,-10.221887336170672
1783169917981112600,7.145112548828125,-40.05068234095573,-0.8432160804927349,-18.137495625787974
1783169917991092500,7.155092529296875,-44.99231456751823,-0.23713030151277778,-25.32125679055452
1783169918001040400,7.165040283203125,-45.614423552799224,-1.0751173953108488,-26.26049228186607
1783169918010989300,7.1749892578125,-42.46481853563785,-3.0581758567422628,-21.727352008867264
1783169918020938500,7.1849384765625,-36.39894730159044,-4.406609404060244,-15.732736331260204
1783169918030917400,7.19491748046875,-29.54110969729423,-5.086286781212687,-10.224350511413812
1783169918040866300,7.2048662109375,-23.002935424029825,-5.554442053100466,-5.647547622299194
1783169918050814500,7.214814453125,-17.307690815532208,-5.877502040833234,-2.7951395450785754
1783169918060794400,7.22479443359375,-12.828673762387037,-5.9865200494349,-1.1233616401284932
1783169918070742300,7.2347421875,-8.574927353873848,-5.900639755314589,0.1137334928162396
1783169918080691500,7.24469140625,-4.259400488752126,-5.922918222618103,1.423951583508402
1783169918090640400,7.254640380859375,-0.1061596965610981,-5.905725095754861,3.2907708529129622
1783169918100619300,7.264619384765625,3.7499206883072853,-5.327192801871895,4.248919426748157
1783169918110568200,7.274568115234375,7.089479537525772,-4.057151823267341,4.220202158568799
1783169918120517400,7.284517333984375,9.948232892119885,-2.635314893825352,4.037049530959129
1783169918130465500,7.294465576171875,11.618887638258933,-1.3979245773263276,3.5995410340085625
1783169918140445400,7.304445556640625,12.788603617805242,-0.40855040575265883,3.246709008346498
1783169918150393600,7.3143935546875,13.640538426804541,0.2657360721416771,2.808131420859694
1783169918160342500,7.324342529296875,14.051608121901749,0.8046729993477463,2.292051199236512
1783169918170321400,7.3343212890625,14.232144721794128,1.2098400462724268,1.8241221373200416
1783169918180270300,7.344270263671875,14.497524673974514,1.5036466131225228,1.2460125988937913
1783169918190219500,7.354219482421875,14.8198978484869,1.7395624242790042,0.7623517148382961
1783169918200167400,7.36416748046875,14.94578515882492,2.0245931256078182,0.40102614772766826
1783169918210147300,7.374147216796875,14.97327639234066,2.2643894314594566,0.07300897597894072
1783169918220095500,7.384095458984375,14.950331570082902,2.5066931900873777,-0.2657468127314001
1783169918230044400,7.39404443359375,14.791167428565025,2.748256505611539,-0.36293691129740324
1783169918240023300,7.404023193359375,14.466675946724415,2.912909599934518,-0.3826181651819497
1783169918249972200,7.41397216796875,13.955713798767327,3.10821911380589,-0.4468478781061247
1783169918259921400,7.42392138671875,13.350024033367633,3.4848481946408745,-0.497651890409179
1783169918269870300,7.433870361328125,12.694847475743293,3.8662420056596396,-0.5148607628308236
1783169918279849200,7.44384912109375,12.004321372318268,4.313457073110341,-0.49568588756583626
1783169918289798400,7.45379833984375,11.423469111055136,4.73053097705841,-0.5508814128261059
1783169918299746600,7.46374658203125,11.00275246669054,4.992793674001097,-0.616680457426235
1783169918309726500,7.4737265625,10.67805523314476,5.1826650884717695,-0.5521822662916034
1783169918319674400,7.48367431640625,10.427681126916408,5.362802459913492,-0.42247773575298486
1783169918329623600,7.49362353515625,10.268735596585273,5.420713381612301,-0.4081876368548721
1783169918339572500,7.503572509765625,10.063320576024054,5.46273232217431,-0.5233969743773341
1783169918349551400,7.51355126953125,9.818906254982947,5.558189422935247,-0.8595069978192448
1783169918359500300,7.523500244140625,9.817152689313888,5.561984139043092,-1.3554903339616953
1783169918369448400,7.533448486328125,9.808913268756866,5.487483317071199,-1.7078019890114664
1783169918379397400,7.5433974609375,9.875552271312475,5.368218639743327,-1.9555719040907917
1783169918389376500,7.55337646484375,9.749061149862408,5.155152227646112,-2.0233787813819943
1783169918399325400,7.563325439453125,9.348084394234418,4.954136318826675,-1.9911442988619208
1783169918409274400,7.5732744140625,8.830699519753455,4.581833284497261,-2.4502307136312127
1783169918419253200,7.583253173828125,7.606618912813067,4.308504126878082,-3.4864854404538868
1783169918429202400,7.593202392578125,6.25278672132194,4.378111039328575,-5.171629899716377
1783169918439151400,7.6031513671875,3.8446564890563484,4.531099707081914,-7.196552841800451
1783169918449099300,7.613099365234375,-0.8226321421474218,4.321070762984454,-9.0729183765769
1783169918459079400,7.623079345703125,-7.00264822629094,3.4629175178617237,-10.894501350808143
1783169918469027300,7.63302734375,-13.81771987105012,2.1759961316049097,-13.053432950365542
1783169918478976500,7.6429765625,-22.373010212039947,0.7895188309662043,-15.978564026230572
1783169918488955400,7.652955322265625,-32.78011850652695,-0.6512466708295047,-18.91123660351634
1783169918498904600,7.662904541015625,-41.43190289011002,-1.7987921734914183,-21.620929277455804
1783169918508853500,7.672853515625,-47.953404260993004,-2.2830286654777825,-22.30220824458599
1783169918518801400,7.682801513671875,-50.26663794898987,-3.918083252055943,-19.799898091888426
1783169918528781300,7.69278125,-48.6415174580574,-5.575504130351543,-15.613654024761914
1783169918538751000,7.7027509765625,-44.32140501871109,-6.986747477325797,-10.953501821309327
1783169918548700000,7.712699951171875,-37.999845205414296,-8.234208959853648,-6.2540422743409865
1783169918558678800,7.7226787109375,-30.762489228582382,-9.079658498486875,-2.1019497754022476
1783169918568627700,7.732627685546875,-23.600627760934827,-9.10762611734271,1.4662468567937612
1783169918578577000,7.742576904296875,-16.696292609357833,-8.632223943066597,4.4170062949121
1783169918588525800,7.75252587890625,-10.46124788095355,-7.407986099737882,5.961119066196679
1783169918598504700,7.762504638671875,-4.574835972955823,-5.545097886171937,6.338319224917888
1783169918608453600,7.77245361328125,1.2235276492327452,-3.5515424345150586,6.302076529669761
1783169918618401800,7.78240185546875,6.473386451533436,-1.8242367036104201,5.991939151874185
1783169918628351000,7.79235107421875,10.727460192304848,-0.27205300020352,5.4144578283488745
1783169918638329900,7.802329833984375,13.90367615301609,1.1014604817047715,4.42700278826952
1783169918648279000,7.812279052734375,16.0790713961184,2.391506283592433,3.1752719578593966
1783169918658228000,7.82222802734375,17.62747455807328,3.5507261496961116,1.8606962564796208
1783169918668206800,7.832206787109375,18.62915919903517,4.376274763812124,0.6886942118227481
1783169918678155800,7.84215576171875,19.091436518800258,5.057513691192865,-0.13984906319775617
1783169918688104000,7.85210400390625,19.209900401139258,5.469553692626953,-0.7214280952323228
1783169918698052900,7.862052978515625,19.150260463690756,5.60322332740426,-1.0538377297863364
1783169918708032000,7.872031982421875,18.901369874018428,5.794205333465338,-1.3499674788869918
1783169918717981000,7.88198095703125,18.451477404052017,6.021577918812632,-1.6334662944734095
1783169918727929900,7.891929931640625,17.591826906108857,6.452170060503483,-2.0693505512230095
1783169918737908700,7.90190869140625,16.48266271815896,6.9451020462512965,-2.4558929771766067
1783169918747858000,7.91185791015625,15.195794523394106,7.372615511149168,-2.6794562333688137
1783169918757806800,7.921806884765625,13.829450056332348,7.731992428410053,-2.7795143981844186
1783169918767754800,7.931754638671875,12.366847693520784,8.148197732830047,-2.7762624106511473
1783169918777734700,7.941734619140625,11.300192275476455,8.298291848185658,-2.685457519610226
1783169918787682800,7.951682861328125,10.34089716195464,8.185624669426678,-2.688421337851882
1783169918797631700,7.9616318359375,9.451711357447504,8.070571472314,-2.8048335483580824
1783169918807610600,7.971610595703125,8.791443029642105,7.793181933388113,-2.930012418165803
1783169918817560000,7.98156005859375,8.220505428671837,7.276002226090431,-3.014489567489922
1783169918827509000,7.991509033203125,7.608983303856849,6.694594669032097,-3.0216064137578007
1783169918837457000,8.001456787109374,7.03780371082425,6.253431448966264,-3.135399381676316
1783169918847436800,8.011436767578125,6.599965835788845,5.802887821614742,-3.2891683861523866
1783169918857385000,8.021385009765625,6.366550463145971,5.343672227507829,-3.3361741752162573
1783169918867334000,8.031333984375,6.236489081993699,4.985103119498491,-3.4207056850761175
1783169918877282800,8.04128271484375,6.191608906781673,4.72747217400968,-3.388135248599946
1783169918887262000,8.051261962890624,6.0553457483798265,4.50352371789217,-3.387404303976893
1783169918897211000,8.0612109375,5.772316157740354,4.062427133321762,-3.218032364438474
1783169918907159800,8.071159912109374,4.815421091097593,3.6680668732240793,-3.2551895441830156
1783169918917138700,8.081138671875,2.2864947341531514,3.1250109663918613,-3.6869445921733974
1783169918927087900,8.091087890625,-1.6803437809824942,2.152755541270971,-4.148611086563766
1783169918937035800,8.101035888671875,-5.787160091128945,1.0635600823774933,-4.606501277285814
1783169918946984700,8.110984619140625,-9.462094219774007,-0.20634879427999256,-5.115173853000998
1783169918956963800,8.1209638671875,-14.229419680744408,-1.597808121114969,-5.519374831372499
1783169918966912800,8.130912841796874,-19.011319610512256,-2.327900803513825,-5.537993607124686
1783169918976862000,8.140862060546874,-22.692357901251313,-2.7954487571582196,-4.8133857858777045
1783169918986841000,8.150841064453125,-24.78684011725187,-3.692907592231035,-3.5145877916052934
1783169918996790000,8.1607900390625,-25.59649645797014,-4.5662890938848255,-1.5971151704147457
1783169919006739000,8.170739013671875,-26.3230267717123,-5.20476644564271,-0.15986059934943914
1783169919016686800,8.180686767578125,-26.82469619066715,-5.44812979632616,0.08518237498402595
1783169919026666000,8.190666015625,-27.04819865658283,-5.5307648249149315,-0.657123600038886
1783169919036615000,8.200614990234374,-26.221233453667164,-5.518973849356174,-1.8893822527378796
1783169919046563800,8.210563720703124,-23.75348023508787,-5.348320345574617,-2.798526557168364
1783169919056543000,8.22054296875,-20.113155063009263,-5.547887809151411,-2.3443797907583415
1783169919066492000,8.230491943359375,-15.963849272179603,-5.655349820482731,-0.7628842142798006
1783169919076440800,8.24044091796875,-11.190512588095665,-5.3556496655493975,0.6274497617870569
1783169919086388700,8.250388671875,-6.442705482065677,-4.954166713964939,1.4069697613082826
1783169919096369000,8.260368896484374,-1.8070722183197736,-4.450890444335341,1.7446753833785653
1783169919106316800,8.27031689453125,2.423791327255964,-3.7922538093850013,1.9530197353899479
1783169919116265700,8.280265625,5.725533363777399,-3.0343133351176976,1.8221601895973085
1783169919126244900,8.290244873046875,8.329665476092696,-2.287886334642023,1.4300244736813008
1783169919136193800,8.30019384765625,10.438559079283475,-1.942817490327358,0.82209226311706
1783169919146143000,8.31014306640625,11.61382100251913,-2.2753661680258808,0.4221237346835434
1783169919156092000,8.320091796875,12.313978857642411,-2.3536155288763343,0.4982150407172739
1783169919166071000,8.330071044921874,13.13003103687763,-1.9066161500029264,0.479047252780199
1783169919176020000,8.34002001953125,13.383448164063692,-1.6470407924480734,0.1937485481649637
1783169919185967900,8.3499677734375,13.41694477547407,-1.3097668397933244,0.11839202267918734
1783169919195916800,8.359916748046874,13.496965822172164,-0.880808729045093,0.24004056293629109
1783169919205896000,8.36989599609375,13.400098854613303,-0.6174029995471239,0.1952923070082441
1783169919215844900,8.379844970703125,13.110958087617158,-0.30350334660857914,0.16672244794294236
1783169919225793800,8.389793701171875,12.578868980479239,0.05815437506586313,0.16410377161083742
1783169919235773000,8.39977294921875,12.076855862653256,0.3116708709731698,0.20020282060457392
1783169919245721900,8.409721923828124,11.702059257942437,0.5582382783949374,0.30369055801006034
1783169919255669800,8.419669677734374,11.202103657168148,0.8629954244568944,0.404424192668125
1783169919265618700,8.42961865234375,10.576102925145625,1.2266232771605252,0.5483424689330161
1783169919275597800,8.439597900390625,10.184279197788237,1.602677772977948,0.5828998049100861
1783169919285546800,8.449546630859375,9.89355905264616,2.0041960881367324,0.6652193743415177
1783169919295495700,8.45949560546875,9.66806336708665,2.278537637668848,0.8948066400635987
1783169919305474800,8.469474853515624,9.444887064385414,2.4669743431612847,1.0356198629852384
1783169919315424000,8.479424072265624,9.102672878849505,2.707315715675056,1.21574605544582
1783169919325373000,8.489373046875,8.652426188617945,2.8568168335735797,1.3850680183626711
1783169919335320800,8.49932080078125,8.158339772138,2.863785503542423,1.1458769849278032
1783169919345301000,8.509301025390625,7.708283051520586,3.052548956771195,1.0218890784703194
1783169919355249000,8.519248779296875,7.395994633170962,2.8622689614996313,0.8546028591647744
1783169919365197800,8.52919775390625,7.032840535458922,2.477461250384152,0.47857492256071416
1783169919375177000,8.539177001953124,6.1979591525912285,1.9106807690933345,0.13306010631052775
1783169919385126000,8.5491259765625,4.633193469378352,1.4244912433430552,-0.15067966015860437
1783169919395074800,8.55907470703125,2.0554723941266535,1.123434705364704,-0.4583300434440374
1783169919405023000,8.56902294921875,-0.5935322946161031,0.3490080834597349,-0.6914130423273891
1783169919415003000,8.5790029296875,-2.710154446232319,-0.5949141043633223,-1.0012274717789142
1783169919424950800,8.58895068359375,-5.263112836149334,-1.326386842943728,-1.4083381270520388
1783169919434899700,8.598899658203125,-9.244745600312948,-1.8912901321858167,-1.2651935385733841
1783169919444849000,8.608848876953125,-13.936608116281032,-2.493300916811824,-0.3627867257043719
1783169919454827800,8.618827880859374,-17.858859886193276,-2.966472847817838,0.2529091776639223
1783169919464776700,8.628776611328124,-20.511146665346622,-2.8320708071127534,-1.0593375693116336
1783169919474726000,8.638725830078124,-22.176811932635307,-1.9417942847594618,-3.8986803401887413
1783169919484705000,8.648705078125,-23.529893598020074,-1.8924305343925951,-5.810282608041167
1783169919494654000,8.658654052734375,-23.73469837772846,-2.3329703618630764,-6.312309754392504
1783169919504601900,8.668601806640625,-22.708268587088583,-2.238607778340578,-6.300552096581459
1783169919514551000,8.678551025390625,-20.49995891637802,-2.36437087777704,-6.011223698058724
1783169919524530000,8.688530029296874,-17.764696916896103,-2.897126339869201,-5.069427416348457
1783169919534478800,8.698478759765624,-14.847274515712261,-3.288352393594384,-3.9006554396539923
1783169919544466400,8.708466552734375,-11.692546748709677,-3.5589325447663662,-2.8982684956416485
1783169919554445600,8.718445556640624,-8.54312468689978,-3.7029715978667137,-2.1594984396599233
1783169919564394500,8.72839453125,-5.181669647693634,-3.6638387341350316,-1.7729282489165663
1783169919574342400,8.73834228515625,-1.787072801864147,-3.4147833092898128,-1.5269579306051133
1783169919584291600,8.74829150390625,0.9975006332755089,-2.916362662997842,-1.232527386637777
1783169919594270500,8.7582705078125,3.4010710102796553,-2.3530372905969617,-1.1745669267088175
1783169919604219400,8.768219482421875,5.442070642417669,-1.6428092923581599,-1.369850429356098
1783169919614168300,8.778168212890625,7.122717790260911,-0.8028852391481399,-1.345693308699131
1783169919624147500,8.7881474609375,8.490604226067662,0.1617006742581725,-0.9538026535853743
1783169919634096400,8.798096435546874,9.53571884343326,0.9297922479227184,-0.5048033330664038
1783169919644045600,8.808045654296874,10.416734200966358,1.395188868752122,-0.17921141570322213
1783169919653993500,8.817993408203124,11.211627856838703,1.661289244161546,0.09621643122825771
1783169919663973600,8.8279736328125,11.863096207594872,1.8030007310971616,0.47684751424621785
1783169919673921500,8.837921630859375,12.222429870235919,1.8456611844331026,0.9191587718360126
1783169919683870500,8.847870361328125,12.194791337203979,1.856509033922851,1.2505704083286224
1783169919693819600,8.857819580078125,11.792146940624713,1.831713907623291,1.3959762197375296
1783169919703798500,8.867798583984374,11.256715537321567,1.7324594604060053,1.3672493069469929
1783169919713747500,8.87774755859375,10.688194349843263,1.6354709122940898,1.2104444419063627
1783169919723695600,8.887695556640624,10.002318702572584,1.561691098073125,0.9471865964464843
1783169919733675500,8.897675537109375,9.457962819057702,1.5541069265544414,0.7863832363542169
1783169919743623400,8.90762353515625,9.124109634631871,1.6115139903843403,0.6955335563234984
1783169919753572400,8.917572265625,8.924809882080554,1.6654808506324885,0.6487095535673201
1783169919763521500,8.927521484375,8.686255977505445,1.6983219207435845,0.5368251226838677
1783169919773500400,8.93750048828125,8.37839063629508,1.77019853169173,0.5479528850935399
1783169919783449300,8.947449462890624,8.076664528492092,1.8595427025303244,0.6819596428707242
1783169919793398300,8.957398193359374,7.54853731072247,2.0107102923363445,0.7772570230253041
1783169919803377400,8.96737744140625,7.012519047442078,2.1935291579470038,0.7958839090187102
1783169919813326600,8.97732666015625,6.528952855932713,2.2705901857957245,0.727062740118429
1783169919823274500,8.9872744140625,5.691660320270061,2.4809847483351826,0.6723761142283677
1783169919833223700,8.9972236328125,4.273375822612643,2.626727098222077,0.727393360312283
1783169919843202600,9.00720263671875,2.084629515028,2.915799183896184,1.081779921939969
1783169919853151500,9.0171513671875,-0.12337386621236801,3.4015763294532895,1.4936492429822683
1783169919863100400,9.027100341796874,-1.5142092159301042,3.8928272302463647,1.584669238078594
1783169919873079600,9.03707958984375,-2.8246628689438102,3.8954067253455515,1.3601437127254903
1783169919883028500,9.047028564453125,-4.440039964497089,3.3133737298652526,0.21056962684541938
1783169919892976600,9.0569765625,-5.982215045717358,2.2938392516970634,-1.012306207415089
1783169919902925600,9.066925537109375,-8.136056628659366,0.7441583248913287,-1.0662279864124953
1783169919912904400,9.076904541015624,-10.07888171777129,-1.1339560993790625,-0.408762221872434
1783169919922853400,9.086853271484374,-12.130014621388911,-3.115988286502659,0.08417465924620628
1783169919932802600,9.096802490234374,-13.928731099295616,-4.395288384100795,0.5410067192174494
1783169919942751500,9.10675146484375,-14.568560450184345,-5.043985516577958,-0.26256314119398594
1783169919952730400,9.11673046875,-15.010386518073082,-5.695969415640831,-2.0622059401653705
1783169919962679300,9.12667919921875,-14.549703774023055,-6.033985564965009,-3.339472632239759
1783169919972627500,9.13662744140625,-13.886070353698729,-6.5074868740558625,-4.072321335348486
1783169919982607400,9.146607421875,-13.249250121498108,-6.958138637956976,-3.7635453090339896
1783169919992555300,9.15655517578125,-11.753856080675124,-7.038330949568748,-2.3353131255969406
1783169920002504700,9.166504638671874,-10.734223110568523,-7.093487604123354,-1.0281569066934286
1783169920012453600,9.17645361328125,-10.682857664990424,-6.870503024601936,0.06934840764477848
1783169920022432500,9.1864326171875,-10.049179822468757,-6.343254343232512,0.8855699520975351
1783169920032381400,9.19638134765625,-8.144870049712061,-5.4505976477444165,0.5520416157118976
1783169920042329600,9.20632958984375,-6.083447807270288,-4.391414173015952,-0.4632001336984336
1783169920052309500,9.2163095703125,-4.071380839627981,-3.4406568784758447,-1.3512548883490263
1783169920062257400,9.22625732421875,-1.9397709622383117,-2.839337290984392,-1.9884782945230601
1783169920072206600,9.23620654296875,0.07736322566568851,-2.4105665195018053,-2.0901656679756937
1783169920082155500,9.246155517578124,1.7817267646610735,-1.9915685156233607,-1.7943629588723182
1783169920092134400,9.256134521484375,3.2558249194771047,-1.603837026015669,-1.3957596543774007
1783169920102083300,9.266083251953125,4.660215916338562,-1.4074965616613626,-0.9580534428976476
1783169920112032500,9.276032470703125,5.949452009278535,-1.313717623245716,-0.5981795359000563
1783169920122011400,9.286011474609374,7.057082996311784,-1.1814062712095676,-0.32574078778196125
1783169920131960300,9.295960205078124,8.1171590359658,-1.1284063562974334,-0.06319827838405036
1783169920141908500,9.305908447265624,8.921142007222771,-1.0565930198438465,0.12192576802959665
1783169920151857400,9.315857421875,9.685673842579126,-0.9919497211501002,0.3970279814695939
1783169920161836300,9.325836181640625,10.549774890190362,-0.9563773263789713,0.7337479169707745
1783169920171785500,9.335785400390625,11.376299363601207,-0.9979640130035579,1.0031020334791392
1783169920181734700,9.345734619140625,11.991343817323445,-0.9545232229448855,1.0882952221181244
1783169920191683600,9.35568359375,12.430952209162712,-0.5662514889806509,1.1530058869596571
1783169920201662500,9.365662353515624,12.718324212920665,0.051486587739735835,1.267828124860674
1783169920211610600,9.375610595703124,12.872953633618353,0.4829445524796843,1.6368525759108363
1783169920221559600,9.3855595703125,12.7194160998106,0.7828580579027533,2.0403810618482527
1783169920231538400,9.395538330078125,12.382200745475291,0.9656523735940455,2.54080968696177
1783169920241487600,9.405487548828125,11.8051887930274,1.4847867220908402,2.6473636435374615
1783169920251436500,9.4154365234375,11.201159069794416,2.074768630748987,2.9368337886184452
1783169920261385500,9.425385498046875,10.975752231562137,2.2148902181446553,3.0472073034822937
1783169920271364400,9.4353642578125,10.595540616065263,2.3582024182751775,2.950716768020391
1783169920281313500,9.4453134765625,9.818483061134815,2.512224520729482,2.787271880443394
1783169920291261400,9.455261474609374,9.380102749785781,2.4314476872280237,2.7590888652712104
1783169920301241300,9.465241455078125,9.53929962452948,2.33843768735826,2.744814840725064
1783169920311189500,9.475189453125,9.43931715529859,2.4982827968776227,2.494635380285978
1783169920321138400,9.485138427734375,8.716241950446367,2.6327941431760786,2.2009724596902727
1783169920331087600,9.495087646484375,7.7598074870526785,2.631886965203285,1.7079191856503486
1783169920341066500,9.50506640625,6.826117939430475,2.68158009365499,0.9815084796998649
1783169920351015700,9.515015625,5.068652340322733,2.545830145472288,0.39819202028028666
1783169920360964600,9.524964599609374,3.2601445362418886,2.220110290880501,-0.43946006940975785
1783169920370943500,9.534943603515625,0.36520460050106046,2.034690156730264,-1.0381557381384074
1783169920380891600,9.5448916015625,-2.499450671613216,1.5439182716257869,-1.743918427531421
1783169920390840600,9.554840576171875,-5.18139726049304,0.8381938684165477,-3.8218183420434593
1783169920400789500,9.56478955078125,-11.44175412480831,1.6550979883059858,-5.692694339492917
1783169920410768400,9.574768310546874,-17.465063981980084,2.411394787019491,-6.5707251282572745
1783169920420717600,9.584717529296874,-22.253484837949273,2.6070740109860897,-7.342322079694271
1783169920430666500,9.59466650390625,-25.294562844896316,2.979187075701356,-9.833469033342599
1783169920440614400,9.604614501953124,-27.240529739165304,2.851979914936423,-11.748434055626392
1783169920450594300,9.61459423828125,-27.1186428966403,2.461255965514481,-11.431844140690565
1783169920460542500,9.62454248046875,-24.404749848401543,1.8705425277113914,-10.650712468189
1783169920470491400,9.634491455078125,-21.244602394437788,0.9975251831948757,-9.610176995307206
1783169920480470500,9.644470458984374,-18.288219271218775,0.42097544143125415,-7.539934317550062
1783169920490419500,9.65441943359375,-15.78565192888975,-0.3341466144144535,-5.337517796531319
1783169920500368600,9.66436865234375,-13.102832064306735,-1.2332817121364175,-3.3435552253782745
1783169920510317600,9.674317626953124,-9.917074368268251,-2.3717956209503113,-2.0596146084979177
1783169920520296400,9.68429638671875,-6.886530030295252,-3.348996539649367,-1.3955544871941208
1783169920530245600,9.69424560546875,-4.288175332337618,-3.7726951224341985,-0.8873704256482422
1783169920540218000,9.704218017578125,-2.24171860383749,-3.9006761901810765,-0.1951176445610821
1783169920550197200,9.714197265625,-0.2192208430737257,-3.956292863462865,0.3614480244465172
1783169920560146200,9.724146240234376,1.6005951214849947,-3.967328344479203,0.7970506877757608
1783169920570095000,9.73409521484375,3.215268452683091,-3.70906845343709,1.3492035087771712
1783169920580044000,9.7440439453125,4.703603222644329,-3.2817806139886376,1.9172868893600998
1783169920590023200,9.754023193359375,6.178633105352521,-2.876018377649784,2.6915079056903717
1783169920599972000,9.76397216796875,7.603114704084396,-2.639774211321771,3.457898812916875
1783169920609920000,9.773919921875,9.045032006263732,-2.3465756933674213,4.024731901177764
1783169920619900000,9.78389990234375,10.024078114438057,-2.1453760985441503,4.196343728597462
1783169920629848000,9.79384814453125,10.480147811734676,-2.2476750280238686,3.861162218177318
1783169920639797000,9.803796875,11.044999370789528,-2.2666952241837977,3.548923776449263
1783169920649746000,9.813745849609376,11.431167264342307,-2.1030244188964367,3.6735295225441456
1783169920659725000,9.82372509765625,11.724785469013451,-1.8138240306675433,3.8387759065851568
1783169920669674000,9.833674072265625,11.734008055388927,-1.6031323848776518,3.901924436676502
1783169920679623200,9.843623046875,11.510528970348835,-1.5345358185134828,3.9606022510945795
1783169920689571000,9.853571044921875,11.267155098271369,-1.5404095328524707,3.843221487817168
1783169920699551200,9.86355126953125,10.945235512745379,-1.3486910292103886,3.56816652931869
1783169920709499100,9.8734990234375,10.385431884729861,-1.030009110431373,3.3059710523933172
1783169920719448000,9.883447998046876,9.73894775212705,-0.9308429260194301,3.0329706883370875
1783169920729427200,9.89342724609375,9.20225670415163,-0.6417232748765498,2.4417830571509898
1783169920739376000,9.903376220703125,8.773438001874089,-0.6435925028145313,2.304783839559555
1783169920749325000,9.913324951171875,8.250123152822255,-0.5606278769452124,2.3036381766557694
1783169920759273000,9.92327294921875,7.8416072338610885,-0.16830051091462372,2.261938677306473
1783169920769253000,9.933253173828126,6.831922241795063,0.0689347122773528,2.123011268131435
1783169920779201000,9.943200927734376,5.983279460078477,0.28615882857590913,1.8044784024342893
1783169920789150000,9.95314990234375,5.763280618369579,0.4874815383221954,1.1011936474621296
1783169920799129000,9.963129150390625,6.338082493552565,0.6758673173449933,0.25336101308465003
1783169920809078000,9.973078125,6.723226304754615,0.9667338852204382,-0.23659005715623496
1783169920819027000,9.98302685546875,5.683395765271783,1.4887845595553517,-0.4916343471527099
1783169920828975900,9.992975830078125,2.7372534655600784,2.207292310361564,-0.9776267428956925
1783169920838955000,10.002955078125,-0.7534621598094702,3.0200030702143907,-1.2335187357626856
1783169920848904200,10.012904296875,-3.2761750490665436,3.4299674344182014,-1.7401108519420028
1783169920858851800,10.022851806640626,-5.26239387422502,3.4194109690904617,-2.415141864593327
1783169920868832000,10.03283203125,-8.228679382777214,3.119398094946146,-2.6038229002356528
1783169920878780200,10.0427802734375,-14.464215109568833,2.9658266588687896,-2.159276467472315
1783169920888729000,10.05272900390625,-19.159526304686068,2.6848081157907844,-2.1702030812866986
1783169920898678000,10.062677978515625,-18.65604720596075,1.8054570382080972,-3.734948160102963
1783169920908657200,10.0726572265625,-18.24494477763772,2.0624657601453364,-4.555959130789339
1783169920918606000,10.082606201171876,-20.12077956653833,4.5843531583637,-3.9772044263273476
1783169920928554000,10.092553955078126,-19.67196729302406,5.8297255596578115,-3.8963326080188154
1783169920938503000,10.1025029296875,-17.447758626914023,5.866576742193103,-4.826220425270497
1783169920948482000,10.11248193359375,-14.925332737904785,5.293949288439751,-5.387692571020126
1783169920958431000,10.122430908203125,-14.453112700796126,4.8575417384684085,-4.8842003205522895
1783169920968380000,10.1323798828125,-14.076259748077392,4.643274718409776,-3.9655683490693567
1783169920978359000,10.142359130859376,-12.392865931874512,3.987246512392163,-2.843871719543636
1783169920988308000,10.152307861328126,-11.026304022669791,2.7477754440963267,-2.5458164092078803
1783169920998257000,10.1622568359375,-8.62721809760332,1.2254665083408356,-2.8741394320353866
1783169921008205000,10.172205078125,-6.638186553111672,0.9468610177539288,-2.5524612540498373
1783169921018185200,10.182185302734375,-5.119034620082378,0.78207158370018,-1.8082833476752043
1783169921028132900,10.1921328125,-2.5775842971295115,-0.23793621106818316,-1.4264251340150833
1783169921038082000,10.20208203125,0.43623277792632575,-1.681608394090831,-1.4394178865790366
1783169921048061200,10.212061279296876,1.7297364651829004,-3.3011236123621464,-1.607584541980922
1783169921058010000,10.222010009765626,2.5039707793861625,-4.384468591661751,-2.1728609023191034
1783169921067959000,10.231958984375,4.313660486727953,-5.208035092049837,-2.132547158239782
1783169921077907200,10.2419072265625,7.011696040621399,-4.961693602338433,0.1953013305649161
1783169921087887000,10.25188720703125,10.173465542829035,-3.483763906535506,4.560790788729489
1783169921097835000,10.2618349609375,9.221291074967384,-5.193085944721102,3.2172692711114883
1783169921107784000,10.271783935546875,8.339495965233445,-7.807484014984965,-0.7759551466464996
1783169921117763000,10.28176318359375,9.749636903923749,-7.306412561923265,-0.3632672757629305
1783169921127712000,10.2917119140625,10.143846649634838,-5.743753495600819,0.06737286978811025
1783169921137661000,10.301660888671876,10.201295799040794,-5.04120494594872,-0.5887796201962977
1783169921147609900,10.31160986328125,11.261489912116527,-4.7168785915419456,-0.6411095999576151
1783169921157589000,10.321589111328125,12.056316932493447,-4.158038547861576,-0.4983296070076525
1783169921167538000,10.331537841796875,12.296297070479392,-3.548988950639963,-0.286865807801485
1783169921177485800,10.34148583984375,12.476362545728684,-3.245985662508011,0.07910261667892336
1783169921187435000,10.35143505859375,12.60904433851242,-3.029303398001194,0.2846788191512227
1783169921197414000,10.361413818359376,12.495506806659698,-2.510499012111127,0.44957909316830336
1783169921207363000,10.371363037109376,12.185654091024398,-1.9823869919106363,0.48540940822325646
1783169921217312000,10.38131201171875,11.710928793096542,-1.2846934810742736,0.39649296127744016
1783169921227291100,10.391291015625,11.081467691487074,-0.7228468029238283,0.3000615355916321
1783169921237240000,10.401239990234375,10.197568887472151,-0.4082363713674247,0.219418849863857
1783169921247188000,10.41118798828125,9.110997639602422,0.049453474476933476,0.22170623014867305
1783169921257137200,10.42113720703125,8.520442899492382,0.5441702978149056,-0.2971234363131225
1783169921267116000,10.431115966796876,8.3045918251127,0.7602573729075491,-0.48769963805228467
1783169921277065000,10.44106494140625,7.182134440347552,0.8032908973395824,-0.3257406051188707
1783169921287014000,10.451013916015626,5.8244280377715825,0.6629860623314976,-0.3213584445118904
1783169921296993000,10.460992919921875,4.3227211605399845,0.4974681678727269,-0.44384909814894197
1783169921306942000,10.47094189453125,2.970527383905649,0.2181083517871797,-0.7843741615541279
1783169921316891000,10.480890869140625,2.1819442263543603,-0.11036123990416526,-1.1959073825098574
1783169921326839000,10.490839111328125,-0.7362848150372505,-0.3406546811342239,-0.9505725856229662
1783169921336819000,10.50081884765625,-4.519519159403443,-1.102396447380632,-0.16825535659864543
1783169921346766800,10.510766845703126,-6.855424697935581,-2.4693624073415994,-0.33116127846073357
1783169921356716000,10.520716064453126,-9.863146378725766,-2.9023846987888215,-0.6823327139668166
1783169921366695000,10.53069482421875,-13.95798525083065,-2.227974740645289,-0.3907528832554817
1783169921376644000,10.54064404296875,-16.293497406131028,-1.4381531273402273,-0.45078222188036887
1783169921386593000,10.550593017578125,-17.179197706609962,-0.5433883171243593,-0.7294137602239846
1783169921396541200,10.560541259765625,-17.88963847081661,0.9351905998349189,-0.911122618766129
1783169921406521000,10.57052099609375,-17.791432948130367,1.6443243730962276,-1.2934447966761886
1783169921416469000,10.580468994140626,-17.186678417754173,1.4460373047187924,-2.07124294084087
1783169921426418200,10.590418212890626,-16.795623921203614,1.3092054065182803,-3.1298505153775213
1783169921436367000,10.6003671875,-16.540947733867167,1.1078995748415588,-4.778864799855649
1783169921446346000,10.610345947265625,-14.040890328532457,0.45263161260671914,-6.238397545963525
1783169921456295000,10.620294921875,-9.811452431845664,0.6878581993900239,-6.547240207773447
1783169921466244000,10.630244140625,-5.8550704287946225,2.1181598825775088,-6.1396390655696385
1783169921476223000,10.640222900390626,-3.179077779883146,4.537002209123969,-4.647748064431548
1783169921486172000,10.650171875,-2.1874977688282726,7.500429405635595,-2.1213386587440968
1783169921496120000,10.6601201171875,-0.852201350980997,7.402610251918435,-0.33682496677823365
1783169921506069000,10.670069091796876,2.2807143971860406,5.738780967885256,1.398346894391626
1783169921516048000,10.6800478515625,3.480964631205797,6.012399171578884,4.774914893186092
1783169921525996800,10.689996826171875,0.8940133707940578,2.5717344020575283,6.611728754296898
1783169921535946200,10.6999462890625,-0.9737813195139169,-1.2332418185174465,6.01171469644606
1783169921545950200,10.7099501953125,-1.2284879019886255,-1.8388133643649518,4.325407915405929
1783169921555899100,10.719899169921876,0.10254209058582782,-1.8453885049715637,2.7310776995345947
1783169921565847000,10.729846923828125,2.1827643105655907,-1.3865055038198828,1.3801573038369417
1783169921575796200,10.739796142578125,3.375004256609082,-0.02716631241030991,0.4554571183562279
1783169921585775000,10.749775146484374,3.769279468771815,1.10855226659663,-0.24685133892968295
1783169921595724000,10.75972412109375,3.962114993745088,-0.2790525037020445,0.3616755495920777
1783169921605673000,10.7696728515625,5.0572939109623425,-2.5122511164754626,1.2814704273745416
1783169921615652000,10.779652099609375,7.482642404532432,-3.7323160580337045,2.376190056516975
1783169921625601000,10.78960107421875,8.509110773617028,-2.7503239595353604,2.4323247623234985
1783169921635550000,10.799550048828126,7.478557765567302,-0.7960607999555767,1.3135979423888027
1783169921645498000,10.809498046875,6.396576183575392,-0.11511962254554964,0.4517812063224613
1783169921655478000,10.81947802734375,5.776338252863288,-0.6577198123663663,0.9740303258389233
1783169921665426000,10.829426025390624,6.059357322108745,-0.4516766499694437,2.3911508942835034
1783169921675375000,10.839375,6.631123190596699,0.6038009559784084,3.305566563245654
1783169921685324300,10.84932421875,6.5851505439728495,1.1854281471367925,3.1203374216228723
1783169921695303200,10.85930322265625,5.367527734869718,1.3810279491916297,2.0027366831086573
1783169921705252000,10.869252197265626,4.330586487087607,1.573474620977789,0.8278371634446084
1783169921715201000,10.879200927734376,5.368254880100489,2.244791581542045,0.5160231576737017
1783169921725180200,10.88918017578125,6.982972050440311,2.6754420292913914,0.6209796889901161
1783169921735129000,10.899129150390625,7.191158873802423,2.470437050835788,0.5361575256206095
1783169921745077200,10.9090771484375,6.151893566986918,2.7032804688096044,0.3787277701472863
1783169921755026200,10.919026123046875,5.3624090766817325,3.060717065657675,-0.04575911347102374
1783169921765005000,10.929005126953125,5.573499220269918,2.8951360428348183,-0.46972135216072197
1783169921774954000,10.9389541015625,5.41271361503005,2.522055302131176,-0.7227190118256956
1783169921784903200,10.948903076171876,4.975622174447775,2.312320080283284,-0.5597573411883786
1783169921794882000,10.958882080078125,4.12847109259367,2.3485852796241637,-0.6060513287210837
1783169921804831000,10.9688310546875,3.4574610060214996,1.56510382912606,-0.8387767828710376
1783169921814779100,10.978779052734374,1.997785344311595,0.6830094441846013,-0.935874417380616
1783169921824728000,10.98872802734375,0.1572679525077343,-0.29929040508866306,-0.7258844901192932
1783169921834707000,10.99870703125,-1.7037006911724806,-2.1385808854460713,-0.685143898930028
1783169921844655900,11.00865576171875,-3.514116959223151,-3.3670600196063516,-0.8561691586334258
1783169921854605300,11.018605224609376,-4.145253300568461,-3.896066358298063,-1.224231121326983
1783169921864584200,11.028584228515625,-7.218210546857118,-3.134661130529642,-0.9370079514551907
1783169921874533000,11.038533203125,-7.502576354536414,-2.313978368884325,-0.416065530623123
1783169921884482000,11.04848193359375,-6.479379554468393,-1.6019997275859117,0.37449192267581816
1783169921894430200,11.05843017578125,-7.1230287559062235,-1.2263169876903295,1.4109642377719283
1783169921904410000,11.06841015625,-8.663218800789117,-1.5751076290071009,2.6768884287074206
1783169921914358000,11.07835791015625,-8.630572668728233,-1.778684328225255,3.454077208802104
1783169921924307200,11.08830712890625,-9.564414192041754,-1.3768325433284043,3.8876770078763365
1783169921934256000,11.098256103515626,-11.148008494365214,-0.9837474177330732,3.666553253790736
1783169921944235000,11.108235107421875,-10.941423260980844,-0.41016193260252476,2.70729847227931
1783169921954184000,11.118183837890625,-9.172297034695744,0.48266661232113833,1.4377147359229623
1783169921964132000,11.128132080078124,-6.336247094818949,1.757402470743656,0.2950515984751284
1783169921974112000,11.138112060546876,-3.275392374256253,2.4570430239945646,-0.21463351528346536
1783169921984060200,11.14806005859375,-1.09332247569561,2.0432067867934705,-0.21867511882446705
1783169921994009000,11.158009033203125,0.027048750445246694,1.0739221941769121,0.026588877848535773
1783169922003958300,11.167958251953126,0.7606056018233299,-0.008742986164987086,0.23398601213768122
1783169922013937000,11.17793701171875,1.4969588059216736,-1.1432228171572087,-0.05901566807031631
1783169922023886000,11.187885986328125,2.0617969209730624,-1.7598112854510544,-0.9528786706082523
1783169922033835300,11.197835205078125,2.432754970434308,-1.9346464588314294,-1.6889624101154506
1783169922043814100,11.207814208984376,2.8912223765224216,-1.947489866052568,-2.132095907340944
1783169922053763000,11.21776318359375,3.376151088556647,-1.512560864201188,-2.411404431630671
1783169922063711200,11.227711181640625,3.8866526332646605,-0.6747323219656944,-2.679474353547394
1783169922073660200,11.23766015625,4.601781263026595,-0.4548863327309489,-2.7254610286965963
1783169922083639000,11.24763916015625,4.995281399163604,-0.6254486510977149,-2.297187685342133
1783169922093588200,11.257588134765625,4.95112486205101,-0.9971794384971261,-1.7288956304445862
1783169922103537200,11.267537109375,4.896696521770954,-1.4575526782065629,-0.9653585052140057
1783169922113516000,11.27751611328125,5.080156315633654,-1.7240552046760915,-0.18223580502569675
1783169922123465000,11.28746484375,5.462584438136219,-1.442669581851363,0.18474117544274776
1783169922133413000,11.2974130859375,6.049824939131736,-0.9910036724716424,0.3373398574978113
1783169922143362000,11.307362060546875,6.236006851434707,-0.40557694289982316,0.158884959250316
1783169922153341000,11.3173408203125,5.7807367800831795,0.38070115257948633,-0.3184619924180209
1783169922163290000,11.3272900390625,5.63580457753539,0.6821791308403015,-0.6880297565646469
1783169922173239000,11.337239013671875,5.769662428361177,0.7636176431208849,-0.9149409349452704
1783169922183188200,11.347188232421875,5.855896358224749,0.826104494433105,-0.9050009210154414
1783169922193167000,11.3571669921875,5.759184873488545,0.8653887493342161,-0.7880929628815502
1783169922203116300,11.3671162109375,5.553533121562004,0.9650903557971119,-0.662949821974337
1783169922213064200,11.377064208984375,5.476561525562405,0.9037208180770278,-0.5841681443454697
1783169922223044000,11.387044189453125,5.667794876036048,0.6244473651006818,-0.5228737176882102
1783169922232992300,11.3969921875,5.843526705995202,0.3418900681480765,-0.42288956795688715
1783169922242941200,11.406941162109375,5.6140492573231455,0.2547191496953368,-0.3854069191176444
1783169922252890000,11.41689013671875,4.9621968756854535,0.16016133586168288,-0.4542174570260569
1783169922262869000,11.426868896484375,4.171260433006286,-0.12112871763408184,-0.4525303441893309
1783169922272818200,11.436818115234376,3.2179940782546996,-0.9872121712341904,-0.5674874605163932
1783169922282766000,11.44676611328125,2.187802889254689,-2.0468305302485823,-0.691819211975485
1783169922292746000,11.45674609375,1.167583059170842,-2.3693849065467716,-0.9465103046201169
1783169922302694100,11.466694091796874,0.24197803380489347,-1.8363941743940113,-1.5232780730485915
1783169922312643000,11.47664306640625,-1.0802174949288368,-0.9649369188010692,-1.861134355635941
1783169922322592000,11.486592041015625,-3.107161713707447,-1.2240113410964608,-1.344460552033782
1783169922332571100,11.496571044921875,-6.379684085485339,-3.1101109189018605,0.10347206491231918
1783169922342520000,11.50652001953125,-10.64017470756173,-4.4826557019084685,1.7180252768620847
1783169922352469200,11.51646923828125,-13.294971423709391,-3.811281750459969,2.4472300705105066
1783169922362417200,11.526417236328125,-13.518034329164028,-2.389862754169106,1.8428183622226117
1783169922372397300,11.536397216796875,-13.870437900280951,-1.053929499723017,0.5248004114344715
1783169922382345200,11.54634521484375,-14.722815776872634,-0.29740999816954133,-0.6690107294484973
1783169922392294100,11.556294189453125,-15.371964744770526,-0.4700982226490974,-1.1344239360865205
1783169922402273300,11.566273193359375,-15.469530800509451,-0.6545274460658431,-1.1960890226870775
1783169922412222200,11.57622216796875,-14.648468099635839,-0.6867299260124564,-0.8003590816713869
1783169922422171100,11.586171142578126,-13.447641527032852,-0.8660206174969672,-0.20808913514129818
1783169922432119000,11.596119140625,-12.185156078374385,-1.0970333129122853,0.21158486830256878
1783169922442099200,11.60609912109375,-10.44632971328497,-1.327859838105738,0.35447219408452507
1783169922452047000,11.616047119140624,-8.040895880496501,-1.378240948821604,0.4471925633579492
1783169922461996000,11.62599609375,-5.625884656545519,-0.9821528420180081,0.6068646543979644
1783169922471975200,11.63597509765625,-3.509906063529849,-0.5178185897231101,0.6370267876233905
1783169922481924000,11.645924072265625,-1.5054823041170835,-0.5897291029408573,0.4147936840564012
1783169922491873000,11.655873046875,0.22759762627482413,-1.0002131071045994,0.003570990354567766
1783169922501822000,11.665822021484376,1.6868407417863607,-1.1461585783481598,-0.48288968048729
1783169922511801000,11.675801025390625,3.1600743887275455,-0.7618141008302569,-0.886515708515048
1783169922521750300,11.685750244140625,4.6695817105770105,-0.2084776230022311,-1.1239914624646306
1783169922531698200,11.6956982421875,6.042710138690471,0.19643208816051483,-1.2753482912324368
1783169922541688600,11.7056884765625,7.195287351909279,0.4087655098080635,-1.2395105235233903
1783169922551636700,11.71563671875,8.11887285414636,0.4607917573824525,-0.9904623321365564
1783169922561585700,11.725585693359376,8.790867275580764,0.41072190457284447,-0.5982938099294901
1783169922571534600,11.73553466796875,9.102288263446091,0.2894447183787823,-0.17338826250769196
1783169922581513700,11.745513671875,8.985358751067519,0.20405250003635883,0.01087481056191027
1783169922591462700,11.755462646484375,8.556143158426881,0.5248109328284859,-0.2308161499299109
1783169922601410600,11.76541064453125,8.048403479647636,0.7957491036579012,0.497372890804708
1783169922611359500,11.775359375,7.967683344769477,0.2408271102041006,0.7872353962041437
1783169922621338600,11.785338623046876,8.066510214224458,-0.5000108380928635,0.5285658283825964
1783169922631287600,11.79528759765625,7.726659250688552,-0.5256064671203494,0.4678736054021865
1783169922641236500,11.805236572265626,7.086237779125571,0.3069602090641856,0.4874015318885445
1783169922651215600,11.815215576171875,6.687297497761249,1.3484428996682167,0.39610593472123146
1783169922661164500,11.82516455078125,6.787601454031467,1.9757780951648949,0.11350662525780499
1783169922671113500,11.835113525390625,6.888988529363274,2.176402082057297,-0.07759265050739049
1783169922681061600,11.8450615234375,6.788164348611235,2.1507643674537538,-0.39126097890809175
1783169922691041800,11.855041748046874,6.658975658640265,2.142802302533388,-0.8838689933985471
1783169922700989700,11.86498974609375,6.436914623704553,2.3709020331114528,-1.205428951831907
1783169922710938600,11.874938720703126,6.236428876239061,2.659002058883011,-1.5609094461761415
1783169922720917800,11.884917724609375,6.245746155160665,3.068338354316354,-1.9113044539496302
1783169922730866700,11.89486669921875,6.22397388381362,3.7198069973334666,-2.028113408688456
1783169922740815600,11.904815673828125,6.386479736974835,4.110582969203591,-2.144960649611056
1783169922750764500,11.9147646484375,8.397620821943878,4.023613126280903,-1.1071463453214614
1783169922760743700,11.92474365234375,6.642513768661022,2.674578982721269,0.9418462583318352
1783169922770691600,11.934691650390626,3.288203340512514,1.5270564225435257,0.41371611795276403
1783169922780640500,11.944640625,2.8593741168409585,1.5236056975677608,-0.38445151808895167
1783169922790619600,11.95461962890625,2.1802339153051373,0.7158873391747475,0.044362727209180594
1783169922800568600,11.964568603515625,0.9452139811992645,-0.5538876819700003,0.5502203185688704
1783169922810517500,11.974517578125,-0.9311065453916788,-1.393832777968049,0.3144467654272914
