time,seconds_elapsed,z,y,x
1783169910933185500,0.097185546875,-0.7337646484375,-0.5750732421875,0.144500732421875
1783169910943134500,0.107134521484375,-0.739654541015625,-0.5739898681640625,0.1375885009765625
1783169910953083400,0.11708349609375,-0.663818359375,-0.5156707763671875,0.14678955078125
1783169910963062500,0.1270625,-0.64990234375,-0.462615966796875,0.162628173828125
1783169910973011500,0.137011474609375,-0.79901123046875,-0.4570159912109375,0.2359619140625
1783169910982959600,0.146959716796875,-0.9498138427734375,-0.481689453125,0.3059844970703125
1783169910992939500,0.156939453125,-0.9105987548828125,-0.332305908203125,0.2451019287109375
1783169911002887400,0.166887451171875,-0.8742218017578125,-0.31903076171875,0.1163330078125
1783169911012836400,0.17683642578125,-0.725799560546875,-0.462890625,0.1781158447265625
1783169911022785500,0.18678564453125,-0.7059783935546875,-0.4843292236328125,0.281463623046875
1783169911032764400,0.196764404296875,-0.7421875,-0.464111328125,0.3183441162109375
1783169911042713600,0.206713623046875,-0.774627685546875,-0.4544219970703125,0.325836181640625
1783169911052662500,0.21666259765625,-0.8118743896484375,-0.46160888671875,0.3468475341796875
1783169911062641700,0.2266416015625,-0.83221435546875,-0.459686279296875,0.3654327392578125
1783169911072590600,0.236590576171875,-0.82354736328125,-0.46502685546875,0.348358154296875
1783169911082538500,0.24653857421875,-0.7977447509765625,-0.438995361328125,0.307403564453125
1783169911092487700,0.25648779296875,-0.779205322265625,-0.38189697265625,0.2551422119140625
1783169911102466600,0.266466552734375,-0.8029632568359375,-0.332672119140625,0.209686279296875
1783169911112415500,0.27641552734375,-0.86907958984375,-0.2741546630859375,0.2460479736328125
1783169911122364400,0.286364501953125,-0.7447052001953125,-0.1404571533203125,0.2208709716796875
1783169911132343600,0.296343505859375,-0.7111358642578125,-0.027008056640625,0.113006591796875
1783169911142292500,0.30629248046875,-0.714691162109375,0.0575103759765625,0.0495452880859375
1783169911152240600,0.31624072265625,-0.710357666015625,0.1180419921875,-0.000579833984375
1783169911162189600,0.326189453125,-0.704833984375,0.142059326171875,-0.0531158447265625
1783169911172168400,0.33616845703125,-0.698089599609375,0.072265625,-0.056915283203125
1783169911182117400,0.346117431640625,-0.633514404296875,-0.0825042724609375,-0.0043792724609375
1783169911192066300,0.35606640625,-0.645416259765625,-0.14080810546875,-0.1511077880859375
1783169911202015700,0.366015625,-0.6079254150390625,-0.248779296875,-0.1496429443359375
1783169911211994400,0.375994384765625,-0.5266265869140625,-0.3541717529296875,-0.0519561767578125
1783169911221943600,0.385943603515625,-0.4903411865234375,-0.375091552734375,0.0456085205078125
1783169911231891700,0.3958916015625,-0.615631103515625,-0.507049560546875,0.244842529296875
1783169911241871600,0.40587158203125,-1.8983154296875,-1.5819549560546875,1.1247711181640625
1783169911251819500,0.415819580078125,-2.210601806640625,-1.518463134765625,1.0456390380859375
1783169911261768700,0.425768798828125,-2.0151824951171875,0.0072174072265625,0.3572235107421875
1783169911271717600,0.435717529296875,-2.05206298828125,-0.2215576171875,0.230499267578125
1783169911281696500,0.445696533203125,-1.8515472412109375,-0.4256744384765625,-0.006561279296875
1783169911291645400,0.4556455078125,-1.6703033447265625,-0.1917572021484375,-0.1692352294921875
1783169911301593600,0.465593505859375,-1.6233673095703125,-0.263153076171875,-0.0724334716796875
1783169911311573500,0.475573486328125,-1.599365234375,-0.3592529296875,0.1080169677734375
1783169911321521400,0.485521484375,-1.5275115966796875,-0.378204345703125,0.21929931640625
1783169911331470600,0.495470703125,-1.4302215576171875,-0.4368133544921875,0.2306671142578125
1783169911341419500,0.50541943359375,-1.313812255859375,-0.4945526123046875,0.21331787109375
1783169911351398400,0.5153984375,-1.2133026123046875,-0.54803466796875,0.2371063232421875
1783169911361347300,0.525347412109375,-1.0936126708984375,-0.573211669921875,0.2340240478515625
1783169911371296500,0.535296630859375,-1.0363922119140625,-0.563995361328125,0.2625732421875
1783169911381275400,0.545275390625,-1.004302978515625,-0.5280303955078125,0.31671142578125
1783169911391224600,0.555224609375,-0.9723052978515625,-0.4268341064453125,0.2825927734375
1783169911401172700,0.5651728515625,-0.9517364501953125,-0.3180694580078125,0.2005615234375
1783169911411121700,0.57512158203125,-0.8652496337890625,-0.2452850341796875,0.1334228515625
1783169911421100500,0.5851005859375,-0.705780029296875,-0.1718902587890625,0.103759765625
1783169911431049500,0.595049560546875,-0.53564453125,-0.0981903076171875,0.119598388671875
1783169911440998700,0.60499853515625,-0.392364501953125,-0.0640869140625,0.144866943359375
1783169911450977500,0.6149775390625,-0.2942352294921875,-0.0466461181640625,0.1369781494140625
1783169911460926500,0.624926513671875,-0.2519683837890625,-0.0422821044921875,0.1079559326171875
1783169911470874600,0.63487451171875,-0.2169189453125,-0.0543212890625,0.0653228759765625
1783169911480823600,0.644823486328125,-0.211395263671875,-0.0259857177734375,0.015350341796875
1783169911490802400,0.654802490234375,-0.23199462890625,0.0106964111328125,-0.02520751953125
1783169911500751600,0.664751708984375,-0.22906494140625,0.0246124267578125,-0.084686279296875
1783169911510700500,0.674700439453125,-0.2294921875,0.0179443359375,-0.151336669921875
1783169911520649500,0.6846494140625,-0.2206878662109375,0.00445556640625,-0.1863250732421875
1783169911530677000,0.694677001953125,-0.2037353515625,-0.0078125,-0.1922149658203125
1783169911540626200,0.704626220703125,-0.18890380859375,-0.0355377197265625,-0.17852783203125
1783169911550574000,0.714573974609375,-0.183380126953125,-0.0712127685546875,-0.166107177734375
1783169911560554000,0.724553955078125,-0.219146728515625,-0.1080322265625,-0.15435791015625
1783169911570502100,0.734502197265625,-0.286895751953125,-0.124481201171875,-0.1243133544921875
1783169911580451000,0.744451171875,-0.3305511474609375,-0.1132965087890625,-0.1261749267578125
1783169911590400300,0.754400146484375,-0.376251220703125,-0.1154022216796875,-0.1598968505859375
1783169911600379000,0.76437890625,-0.4624786376953125,-0.1436920166015625,-0.1959075927734375
1783169911610328300,0.774328369140625,-0.56134033203125,-0.182525634765625,-0.2133331298828125
1783169911620276200,0.784276123046875,-0.4491119384765625,-0.189910888671875,-0.2005462646484375
1783169911630256000,0.794256103515625,-0.5381011962890625,-0.183746337890625,-0.1692962646484375
1783169911640204300,0.804204345703125,-0.58172607421875,-0.2457427978515625,-0.0905609130859375
1783169911650153200,0.8141533203125,-0.664093017578125,-0.3162384033203125,-0.0178070068359375
1783169911660102100,0.82410205078125,-0.7593994140625,-0.36541748046875,0.09246826171875
1783169911670081000,0.8340810546875,-1.00994873046875,-0.4745025634765625,0.1543426513671875
1783169911680030200,0.8440302734375,-1.3156890869140625,-0.5692901611328125,0.1221160888671875
1783169911689979100,0.853979248046875,-1.66937255859375,-0.6330718994140625,0.042999267578125
1783169911699958000,0.8639580078125,-2.058013916015625,-0.7907867431640625,-0.0034637451171875
1783169911709907000,0.873906982421875,-2.5263671875,-0.9039154052734375,-0.070465087890625
1783169911719855000,0.883855224609375,-2.9286651611328125,-0.8366851806640625,-0.251007080078125
1783169911729804000,0.893803955078125,-3.16607666015625,-0.737457275390625,-0.4895172119140625
1783169911739783200,0.903783203125,-3.2535247802734375,-0.674041748046875,-0.59381103515625
1783169911749732000,0.913732177734375,-3.16455078125,-0.6692657470703125,-0.53143310546875
1783169911759681300,0.923681396484375,-2.9912567138671875,-0.711822509765625,-0.3647308349609375
1783169911769660000,0.933659912109375,-2.7840118408203125,-0.7642059326171875,-0.162872314453125
1783169911779609000,0.943609130859375,-2.522796630859375,-0.81982421875,-0.0030517578125
1783169911789557200,0.95355712890625,-2.2333526611328125,-0.8541717529296875,0.0905609130859375
1783169911799506200,0.963506103515625,-1.9315185546875,-0.854400634765625,0.1185455322265625
1783169911809485300,0.9734853515625,-1.6345367431640625,-0.8192596435546875,0.1088409423828125
1783169911819434200,0.983434326171875,-1.3628692626953125,-0.7417755126953125,0.092010498046875
1783169911829383200,0.993383056640625,-1.112579345703125,-0.63604736328125,0.071441650390625
1783169911839332000,1.00333203125,-0.8789520263671875,-0.5080108642578125,0.05511474609375
1783169911849311200,1.013311279296875,-0.648895263671875,-0.3723907470703125,0.0413360595703125
1783169911859260200,1.02326025390625,-0.4259796142578125,-0.270843505859375,0.04217529296875
1783169911869208000,1.0332080078125,-0.2173004150390625,-0.206085205078125,0.073150634765625
1783169911879188000,1.04318798828125,-0.0382843017578125,-0.1776580810546875,0.1198272705078125
1783169911889136000,1.05313623046875,0.11004638671875,-0.1636962890625,0.1497344970703125
1783169911899085000,1.0630849609375,0.217987060546875,-0.158447265625,0.1641693115234375
1783169911909034000,1.073033935546875,0.28057861328125,-0.168060302734375,0.1773834228515625
1783169911919013000,1.08301318359375,0.3145599365234375,-0.1710968017578125,0.168731689453125
1783169911928962000,1.092962158203125,0.319488525390625,-0.151947021484375,0.14361572265625
1783169911938911200,1.1029111328125,0.2980804443359375,-0.126129150390625,0.1033477783203125
1783169911948890000,1.11289013671875,0.2476806640625,-0.097991943359375,0.0519561767578125
1783169911958838300,1.12283837890625,0.1880645751953125,-0.074249267578125,-0.0035858154296875
1783169911968787200,1.132787109375,0.1088409423828125,-0.0428466796875,-0.0657501220703125
1783169911978736000,1.142736083984375,0.027374267578125,0.005157470703125,-0.134185791015625
1783169911988715300,1.15271533203125,-0.0312347412109375,0.0458831787109375,-0.194610595703125
1783169911998664200,1.162664306640625,-0.11309814453125,0.0626678466796875,-0.222930908203125
1783169912008613000,1.172613037109375,-0.19091796875,0.0755157470703125,-0.2441558837890625
1783169912018592000,1.182592041015625,-0.236541748046875,0.089385986328125,-0.2650604248046875
1783169912028541200,1.192541259765625,-0.2420501708984375,0.103057861328125,-0.2785491943359375
1783169912038489000,1.202489013671875,-0.2337799072265625,0.1048736572265625,-0.289031982421875
1783169912048438000,1.21243798828125,-0.2343902587890625,0.0808258056640625,-0.2813873291015625
1783169912058417200,1.222417236328125,-0.298370361328125,0.0518035888671875,-0.27276611328125
1783169912068366000,1.232365966796875,-0.4244537353515625,-0.0023193359375,-0.2953643798828125
1783169912078315000,1.24231494140625,-0.5328521728515625,-0.0651397705078125,-0.304443359375
1783169912088294100,1.252294189453125,-0.6393585205078125,-0.1380462646484375,-0.3467254638671875
1783169912098243000,1.2622431640625,-0.689910888671875,-0.21881103515625,-0.429046630859375
1783169912108192300,1.272192138671875,-0.6661376953125,-0.31719970703125,-0.48065185546875
1783169912118140200,1.28214013671875,-0.65374755859375,-0.4364471435546875,-0.439178466796875
1783169912128119000,1.292119140625,-0.773590087890625,-0.505523681640625,-0.367156982421875
1783169912138068200,1.302068115234375,-0.9737701416015625,-0.5617218017578125,-0.359130859375
1783169912148017200,1.31201708984375,-1.1628570556640625,-0.673797607421875,-0.4049835205078125
1783169912157966000,1.321966064453125,-1.4407196044921875,-0.79278564453125,-0.4661102294921875
1783169912167945200,1.3319453125,-1.8761138916015625,-0.92132568359375,-0.52740478515625
1783169912177894100,1.34189404296875,-2.3101806640625,-1.002655029296875,-0.61224365234375
1783169912187842000,1.351842041015625,-2.5633087158203125,-1.0000762939453125,-0.7050018310546875
1783169912197822200,1.361822265625,-2.641754150390625,-0.999725341796875,-0.76141357421875
1783169912207770000,1.37177001953125,-2.5949249267578125,-0.9741363525390625,-0.761566162109375
1783169912217719000,1.381718994140625,-2.457855224609375,-0.92669677734375,-0.725799560546875
1783169912227668000,1.39166796875,-2.193145751953125,-0.9354095458984375,-0.6685638427734375
1783169912237647000,1.401647216796875,-1.8515167236328125,-0.9705047607421875,-0.5784759521484375
1783169912247596000,1.411595947265625,-1.4886932373046875,-1.0279998779296875,-0.47540283203125
1783169912257545000,1.421544921875,-1.154296875,-1.055816650390625,-0.3868255615234375
1783169912267524000,1.431524169921875,-0.8541107177734375,-1.035186767578125,-0.3294830322265625
1783169912277473300,1.441473388671875,-0.6042633056640625,-0.965087890625,-0.3114013671875
1783169912287421200,1.451421142578125,-0.409088134765625,-0.837799072265625,-0.28082275390625
1783169912297370000,1.4613701171875,-0.2508392333984375,-0.757537841796875,-0.1804351806640625
1783169912307349200,1.471349365234375,-0.1327972412109375,-0.713836669921875,-0.0200347900390625
1783169912317298200,1.481298095703125,-0.05792236328125,-0.6523895263671875,0.115478515625
1783169912327247000,1.4912470703125,-0.0150909423828125,-0.5564117431640625,0.1812591552734375
1783169912337226200,1.501226318359375,-0.0228118896484375,-0.428009033203125,0.1917724609375
1783169912347175200,1.511175048828125,-0.1096038818359375,-0.32281494140625,0.157989501953125
1783169912357123000,1.521123046875,-0.272308349609375,-0.2525177001953125,0.0635986328125
1783169912367072000,1.531072021484375,-0.468719482421875,-0.1561126708984375,-0.07110595703125
1783169912377051100,1.541051025390625,-0.620635986328125,-0.0728607177734375,-0.209930419921875
1783169912387000000,1.551,-0.7028045654296875,-0.034912109375,-0.3377532958984375
1783169912396949000,1.560948974609375,-0.7407684326171875,-0.00689697265625,-0.4261474609375
1783169912406898000,1.57089794921875,-0.722991943359375,0.0075225830078125,-0.4495086669921875
1783169912416877000,1.580876953125,-0.6779327392578125,-0.0225067138671875,-0.4061126708984375
1783169912426826000,1.590825927734375,-0.6340484619140625,-0.07989501953125,-0.3083648681640625
1783169912436774000,1.60077392578125,-0.584503173828125,-0.1500244140625,-0.20489501953125
1783169912446754300,1.61075439453125,-0.5538787841796875,-0.2192535400390625,-0.124725341796875
1783169912456702000,1.620701904296875,-0.51715087890625,-0.2508697509765625,-0.0814056396484375
1783169912466651100,1.630651123046875,-0.4783172607421875,-0.263671875,-0.0767974853515625
1783169912476600000,1.64060009765625,-0.459381103515625,-0.265167236328125,-0.078338623046875
1783169912486579200,1.6505791015625,-0.440887451171875,-0.26898193359375,-0.072967529296875
1783169912496528100,1.660528076171875,-0.4368896484375,-0.28192138671875,-0.0536041259765625
1783169912506476300,1.670476318359375,-0.4370880126953125,-0.3043670654296875,-0.03759765625
1783169912516456200,1.680456298828125,-0.4629364013671875,-0.329803466796875,-0.028961181640625
1783169912526404000,1.690404052734375,-0.5301513671875,-0.3594970703125,-0.0307464599609375
1783169912536356600,1.700356689453125,-0.6218109130859375,-0.373626708984375,-0.05499267578125
1783169912546305500,1.710305419921875,-0.664764404296875,-0.378753662109375,-0.0989837646484375
1783169912556284700,1.72028466796875,-0.7279052734375,-0.370758056640625,-0.1405792236328125
1783169912566233600,1.730233642578125,-0.8564910888671875,-0.34686279296875,-0.1424560546875
1783169912576182500,1.7401826171875,-0.965362548828125,-0.34454345703125,-0.123260498046875
1783169912586161700,1.75016162109375,-1.0912322998046875,-0.4080963134765625,-0.0784149169921875
1783169912596110600,1.760110595703125,-1.317779541015625,-0.50408935546875,0.0447998046875
1783169912606058500,1.77005859375,-1.6644439697265625,-0.6609039306640625,0.0741729736328125
1783169912616007700,1.780007568359375,-2.140045166015625,-0.8231048583984375,-0.031707763671875
1783169912625986600,1.789986572265625,-2.3766937255859375,-0.9250640869140625,-0.25347900390625
1783169912635935500,1.799935546875,-2.469207763671875,-0.9005126953125,-0.548126220703125
1783169912645884700,1.809884765625,-2.5140228271484375,-0.7376251220703125,-0.8250732421875
1783169912655863800,1.81986376953125,-2.4025726318359375,-0.608917236328125,-0.9407501220703125
1783169912665812700,1.829812744140625,-2.2315673828125,-0.584625244140625,-0.8548736572265625
1783169912675760600,1.8397607421875,-2.02838134765625,-0.62896728515625,-0.664642333984375
1783169912685709800,1.849709716796875,-1.841217041015625,-0.66534423828125,-0.466552734375
1783169912695688700,1.859688720703125,-1.654388427734375,-0.702911376953125,-0.3129119873046875
1783169912705637600,1.8696376953125,-1.482147216796875,-0.7418212890625,-0.202239990234375
1783169912715586600,1.879586669921875,-1.348236083984375,-0.6981353759765625,-0.239959716796875
1783169912725535700,1.88953564453125,-1.24200439453125,-0.56829833984375,-0.390594482421875
1783169912735514600,1.8995146484375,-1.1080169677734375,-0.492279052734375,-0.462249755859375
1783169912745463600,1.909463623046875,-0.962188720703125,-0.453155517578125,-0.4180908203125
1783169912755411700,1.91941162109375,-0.777496337890625,-0.4310302734375,-0.2892608642578125
1783169912765391600,1.9293916015625,-0.5727081298828125,-0.4092254638671875,-0.1587066650390625
1783169912775339500,1.939339599609375,-0.4067535400390625,-0.3731842041015625,-0.0572509765625
1783169912785288400,1.949288330078125,-0.278472900390625,-0.3347625732421875,0.01177978515625
1783169912795237600,1.959237548828125,-0.1927490234375,-0.2471923828125,0.03155517578125
1783169912805216500,1.969216552734375,-0.112945556640625,-0.16998291015625,0.0306854248046875
1783169912815165700,1.979165771484375,-0.0873565673828125,-0.059417724609375,-0.007232666015625
1783169912825113600,1.989113525390625,-0.1278076171875,0.0536651611328125,-0.1088104248046875
1783169912835093800,1.99909375,-0.2387237548828125,0.14813232421875,-0.222412109375
1783169912845041700,2.009041748046875,-0.3784332275390625,0.2224273681640625,-0.3585357666015625
1783169912854990800,2.018990966796875,-0.45074462890625,0.2508544921875,-0.4756317138671875
1783169912864939800,2.028939697265625,-0.472930908203125,0.2715911865234375,-0.4927825927734375
1783169912874918700,2.038918701171875,-0.506378173828125,0.220855712890625,-0.3791656494140625
1783169912884867600,2.04886767578125,-0.5248260498046875,0.0371246337890625,-0.114593505859375
1783169912894816500,2.05881640625,-0.4853515625,-0.159637451171875,0.210540771484375
1783169912904795600,2.068795654296875,-0.4664459228515625,-0.35736083984375,0.54644775390625
1783169912914744600,2.07874462890625,-0.5136566162109375,-0.499755859375,0.9582366943359375
1783169912924692700,2.088692626953125,-0.558502197265625,-0.5485076904296875,1.2772064208984375
1783169912934641700,2.0986416015625,-0.536712646484375,-0.5124359130859375,1.4322967529296875
1783169912944620500,2.10862060546875,-0.425933837890625,-0.41180419921875,1.4740142822265625
1783169912954569500,2.118569580078125,-0.2415618896484375,-0.3068084716796875,1.435272216796875
1783169912964518700,2.1285185546875,-0.027679443359375,-0.2571868896484375,1.3509674072265625
1783169912974466600,2.138466552734375,0.1758575439453125,-0.326629638671875,1.2755126953125
1783169912984446700,2.14844677734375,0.29278564453125,-0.3785552978515625,1.1162567138671875
1783169912994394600,2.15839453125,0.3531646728515625,-0.3323974609375,0.8555145263671875
1783169913004343800,2.16834375,0.3838958740234375,-0.259674072265625,0.6650543212890625
1783169913014322700,2.17832275390625,0.3600311279296875,-0.2262725830078125,0.5324859619140625
1783169913024271600,2.188271728515625,0.3429412841796875,-0.2475738525390625,0.4361419677734375
1783169913034220800,2.198220703125,0.2626953125,-0.304107666015625,0.3149871826171875
1783169913044169700,2.208169677734375,0.010223388671875,-0.36944580078125,0.221893310546875
1783169913054148600,2.218148681640625,-0.4021453857421875,-0.4124908447265625,0.1850128173828125
1783169913064097500,2.22809765625,-0.8260955810546875,-0.2555694580078125,0.0771484375
1783169913074045700,2.238045654296875,-1.2631988525390625,-0.068115234375,-0.010894775390625
1783169913084025600,2.248025634765625,-1.7973175048828125,-0.005615234375,-0.1378173828125
1783169913093973800,2.257973876953125,-2.389984130859375,0.182952880859375,-0.369903564453125
1783169913103922700,2.267922607421875,-2.995880126953125,0.502349853515625,-0.83489990234375
1783169913113871600,2.27787158203125,-3.8871612548828125,0.7530059814453125,-1.2659454345703125
1783169913123850500,2.2878505859375,-5.207183837890625,0.9512481689453125,-1.604095458984375
1783169913133799700,2.297799560546875,-6.017120361328125,1.252471923828125,-2.4329833984375
1783169913143747600,2.30774755859375,-5.8658447265625,1.4752349853515625,-3.577606201171875
1783169913153727500,2.3177275390625,-5.2984771728515625,1.2478790283203125,-3.7475433349609375
1783169913163675600,2.327675537109375,-4.6727752685546875,0.9274749755859375,-2.8024444580078125
1783169913173624800,2.337624755859375,-3.843505859375,0.8081512451171875,-1.8883056640625
1783169913183573800,2.34757373046875,-2.913543701171875,0.602630615234375,-1.13360595703125
1783169913193552600,2.357552734375,-2.1244354248046875,0.3122100830078125,-0.6680145263671875
1783169913203501800,2.367501708984375,-1.5740203857421875,0.06951904296875,-0.43914794921875
1783169913213450800,2.37745068359375,-1.128631591796875,-0.156585693359375,-0.250091552734375
1783169913223398700,2.387398681640625,-0.7516632080078125,-0.347900390625,-0.1420745849609375
1783169913233378600,2.397378662109375,-0.48828125,-0.4570465087890625,-0.0477752685546875
1783169913243326700,2.40732666015625,-0.274383544921875,-0.4701385498046875,0.069366455078125
1783169913253275600,2.417275634765625,-0.09332275390625,-0.4365234375,0.168609619140625
1783169913263254500,2.427254638671875,0.039398193359375,-0.393035888671875,0.2478179931640625
1783169913273203700,2.43720361328125,0.1271514892578125,-0.3619232177734375,0.2851104736328125
1783169913283152600,2.447152587890625,0.1846466064453125,-0.3375701904296875,0.2887115478515625
1783169913293101600,2.4571015625,0.224884033203125,-0.2920989990234375,0.274810791015625
1783169913303080400,2.46708056640625,0.2677154541015625,-0.255645751953125,0.235626220703125
1783169913313030000,2.47702978515625,0.319732666015625,-0.2349853515625,0.1754150390625
1783169913322977500,2.4869775390625,0.37005615234375,-0.1985931396484375,0.13421630859375
1783169913332956700,2.496956787109375,0.4202728271484375,-0.154632568359375,0.098419189453125
1783169913342905900,2.50690576171875,0.4772796630859375,-0.1236724853515625,0.042572021484375
1783169913352854800,2.516854736328125,0.5379486083984375,-0.1182861328125,0.0081634521484375
1783169913362803700,2.5268037109375,0.580657958984375,-0.0724945068359375,0.0036163330078125
1783169913372782600,2.536782470703125,0.59320068359375,-0.068450927734375,-0.0280914306640625
1783169913382731800,2.546731689453125,0.637481689453125,-0.126617431640625,-0.010955810546875
1783169913392679700,2.5566796875,0.642791748046875,-0.0950164794921875,0.025634765625
1783169913402659600,2.56665966796875,0.6193389892578125,-0.0598297119140625,0.0381011962890625
1783169913412607700,2.576607666015625,0.595916748046875,-0.0939483642578125,0.04754638671875
1783169913422556700,2.586556640625,0.5438385009765625,-0.1032867431640625,0.055267333984375
1783169913432505600,2.596505615234375,0.471771240234375,-0.06964111328125,0.0576171875
1783169913442484700,2.606484619140625,0.384979248046875,-0.04425048828125,0.0479888916015625
1783169913452433700,2.61643359375,0.29107666015625,-0.0436248779296875,0.0403289794921875
1783169913462382600,2.626382568359375,0.2227783203125,-0.0406341552734375,0.0494842529296875
1783169913472361500,2.636361572265625,0.15570068359375,-0.0258331298828125,0.0557403564453125
1783169913482310700,2.646310546875,0.0866546630859375,-0.017669677734375,0.061004638671875
1783169913492258600,2.656258544921875,0.031585693359375,-0.0101318359375,0.0680084228515625
1783169913502207700,2.666207763671875,-0.007110595703125,0.007720947265625,0.0657958984375
1783169913512187000,2.676186767578125,-0.04571533203125,0.0064544677734375,0.0446929931640625
1783169913522135800,2.6861357421875,-0.1195068359375,-0.0288238525390625,0.0279693603515625
1783169913532084700,2.696084716796875,-0.2262725830078125,-0.067779541015625,0.0130462646484375
1783169913542055400,2.706055419921875,-0.405792236328125,-0.0637969970703125,0.0202789306640625
1783169913552035300,2.716035400390625,-0.70098876953125,-0.0200653076171875,0.0111236572265625
1783169913561983200,2.725983154296875,-1.1142730712890625,0.058135986328125,-0.0549468994140625
1783169913571932400,2.735932373046875,-1.7896728515625,0.1767425537109375,-0.2818756103515625
1783169913581911300,2.745911376953125,-2.7935791015625,0.3284149169921875,-0.691864013671875
1783169913591860200,2.755860107421875,-3.509002685546875,0.481292724609375,-1.195220947265625
1783169913601809200,2.76580908203125,-4.2200164794921875,0.6061248779296875,-1.4823760986328125
1783169913611758600,2.775758544921875,-4.847442626953125,0.903564453125,-1.660919189453125
1783169913621737200,2.7857373046875,-5.0756072998046875,1.075439453125,-2.0189361572265625
1783169913631686400,2.795686279296875,-5.224029541015625,0.7017669677734375,-2.2333221435546875
1783169913641634600,2.805634521484375,-5.2172393798828125,0.4008941650390625,-2.2975311279296875
1783169913651614500,2.815614501953125,-4.7595672607421875,0.2971343994140625,-2.0542449951171875
1783169913661562400,2.825562255859375,-4.0843505859375,0.0941162109375,-1.550048828125
1783169913671511300,2.83551123046875,-3.5565948486328125,-0.01690673828125,-1.12408447265625
1783169913681460500,2.84546044921875,-3.00921630859375,-0.060882568359375,-0.7470550537109375
1783169913691439400,2.855439453125,-2.3727874755859375,-0.1396942138671875,-0.4026641845703125
1783169913701388300,2.86538818359375,-1.7473297119140625,-0.2592010498046875,-0.1141357421875
1783169913711336400,2.87533642578125,-1.251312255859375,-0.36566162109375,0.0687255859375
1783169913721316400,2.88531640625,-0.781341552734375,-0.401702880859375,0.1406402587890625
1783169913731264300,2.89526416015625,-0.3351898193359375,-0.4295196533203125,0.1630401611328125
1783169913741213400,2.90521337890625,0.00482177734375,-0.41302490234375,0.102874755859375
1783169913751162400,2.915162353515625,0.32098388671875,-0.3387451171875,0.01171875
1783169913761141200,2.925141357421875,0.604095458984375,-0.2707977294921875,-0.097259521484375
1783169913771090200,2.935090087890625,0.8160247802734375,-0.219757080078125,-0.1783599853515625
1783169913781039400,2.945039306640625,0.976226806640625,-0.1799468994140625,-0.2254180908203125
1783169913790987300,2.9549873046875,1.0768280029296875,-0.120086669921875,-0.263458251953125
1783169913800967400,2.964967529296875,1.1294403076171875,-0.04034423828125,-0.2954559326171875
1783169913810915600,2.97491552734375,1.138031005859375,0.022674560546875,-0.31219482421875
1783169913820864500,2.984864501953125,1.1032867431640625,0.0639495849609375,-0.3030853271484375
1783169913830843400,2.994843505859375,1.0664520263671875,0.085601806640625,-0.26458740234375
1783169913840792300,3.004792236328125,0.99725341796875,0.109130859375,-0.2424468994140625
1783169913850741500,3.014741455078125,0.9152984619140625,0.1255035400390625,-0.2125244140625
1783169913860689400,3.024689453125,0.8303680419921875,0.130035400390625,-0.1648101806640625
1783169913870669300,3.03466943359375,0.75018310546875,0.129791259765625,-0.1209716796875
1783169913880617500,3.044617431640625,0.6749725341796875,0.1286773681640625,-0.0894927978515625
1783169913890566400,3.05456640625,0.6043243408203125,0.14154052734375,-0.08056640625
1783169913900545300,3.064545166015625,0.5293731689453125,0.1620635986328125,-0.0912933349609375
1783169913910494200,3.074494140625,0.4422607421875,0.1954345703125,-0.1078338623046875
1783169913920443400,3.084443359375,0.3590240478515625,0.2301177978515625,-0.1254730224609375
1783169913930392300,3.094392333984375,0.289764404296875,0.2422637939453125,-0.13885498046875
1783169913940371200,3.10437109375,0.216156005859375,0.2376861572265625,-0.147674560546875
1783169913950320000,3.114320068359375,0.1537933349609375,0.232696533203125,-0.1577606201171875
1783169913960268300,3.124268310546875,0.107696533203125,0.2295684814453125,-0.170257568359375
1783169913970248400,3.13424853515625,0.06060791015625,0.2156982421875,-0.1893157958984375
1783169913980196400,3.1441962890625,0.0220184326171875,0.20062255859375,-0.2206878662109375
1783169913990145500,3.1541455078125,-0.006927490234375,0.1924591064453125,-0.2512969970703125
1783169914000094500,3.164094482421875,-0.0356903076171875,0.160400390625,-0.24853515625
1783169914010073300,3.1740732421875,-0.0550689697265625,0.1326751708984375,-0.2649993896484375
1783169914020022300,3.184022216796875,-0.138946533203125,0.11077880859375,-0.30059814453125
1783169914029970400,3.193970458984375,-0.339263916015625,0.0247650146484375,-0.333465576171875
1783169914039950300,3.203950439453125,-0.672454833984375,-0.100830078125,-0.3393096923828125
1783169914049898500,3.2138984375,-1.3017578125,-0.234893798828125,-0.3360595703125
1783169914059847400,3.223847412109375,-2.248291015625,-0.40301513671875,-0.3638458251953125
1783169914069796400,3.23379638671875,-3.3954620361328125,-0.5547637939453125,-0.5181121826171875
1783169914079775200,3.243775146484375,-4.6717071533203125,-0.6248626708984375,-1.0192413330078125
1783169914089724400,3.253724365234375,-5.6879119873046875,-0.47442626953125,-1.797332763671875
1783169914099673300,3.26367333984375,-6.208587646484375,-0.4679718017578125,-2.3935089111328125
1783169914109621200,3.273621337890625,-6.1207275390625,-0.5908203125,-2.4450531005859375
1783169914119601200,3.28360107421875,-5.559326171875,-0.6843414306640625,-2.044952392578125
1783169914129549300,3.29354931640625,-4.843170166015625,-0.7928009033203125,-1.4880218505859375
1783169914139498500,3.30349853515625,-4.1317901611328125,-0.85150146484375,-0.895263671875
1783169914149477000,3.31347705078125,-3.5036163330078125,-0.911529541015625,-0.40740966796875
1783169914159426600,3.323426513671875,-2.936004638671875,-0.8752899169921875,-0.1017608642578125
1783169914169375500,3.33337548828125,-2.4160003662109375,-0.78692626953125,0.06463623046875
1783169914179323400,3.343323486328125,-1.89593505859375,-0.664398193359375,0.1358184814453125
1783169914189303300,3.35330322265625,-1.348602294921875,-0.589385986328125,0.170654296875
1783169914199251500,3.36325146484375,-0.8209686279296875,-0.4971160888671875,0.225433349609375
1783169914209200400,3.373200439453125,-0.3244781494140625,-0.3600616455078125,0.23785400390625
1783169914219179300,3.38317919921875,0.0630950927734375,-0.2181243896484375,0.178497314453125
1783169914229128400,3.39312841796875,0.352691650390625,-0.127105712890625,0.12158203125
1783169914239077400,3.403077392578125,0.583251953125,-0.092041015625,0.10205078125
1783169914249026300,3.4130263671875,0.777862548828125,-0.0807342529296875,0.1203460693359375
1783169914259005200,3.423005126953125,0.9248046875,-0.0588836669921875,0.09002685546875
1783169914268954400,3.432954345703125,1.0129547119140625,-0.063232421875,0.0438385009765625
1783169914278902300,3.44290234375,1.0398712158203125,-0.0381317138671875,0.0190887451171875
1783169914288882200,3.452882080078125,1.0140533447265625,-0.03546142578125,-0.00830078125
1783169914298830300,3.462830322265625,0.9430084228515625,-0.0460968017578125,-0.040069580078125
1783169914308779300,3.472779296875,0.8411102294921875,-0.0296783447265625,-0.07452392578125
1783169914318728400,3.482728515625,0.743499755859375,-0.0148162841796875,-0.101806640625
1783169914328707600,3.49270751953125,0.652587890625,-0.0112457275390625,-0.1089630126953125
1783169914338656500,3.502656494140625,0.581390380859375,-0.0034332275390625,-0.105224609375
1783169914348604400,3.5126044921875,0.5252685546875,0.010223388671875,-0.0949249267578125
1783169914358553300,3.52255322265625,0.4747161865234375,0.0228118896484375,-0.0835723876953125
1783169914368532500,3.532532470703125,0.43017578125,0.0066375732421875,-0.0623931884765625
1783169914378481400,3.5424814453125,0.4007720947265625,-0.0117950439453125,-0.0367889404296875
1783169914388430300,3.552430419921875,0.3603057861328125,-0.0070343017578125,-0.0435028076171875
1783169914398409500,3.562409423828125,0.2997894287109375,0.01519775390625,-0.069854736328125
1783169914408358400,3.5723583984375,0.248016357421875,0.0518341064453125,-0.1008758544921875
1783169914418307300,3.582307373046875,0.1718292236328125,0.102752685546875,-0.149658203125
1783169914428255200,3.592255126953125,0.0883331298828125,0.1762542724609375,-0.20648193359375
1783169914438235400,3.6022353515625,0.0209503173828125,0.2644195556640625,-0.2515869140625
1783169914448183300,3.612183349609375,0.0177459716796875,0.2813568115234375,-0.26629638671875
1783169914458132200,3.62213232421875,0.061859130859375,0.2850341796875,-0.268829345703125
1783169914468111400,3.632111328125,0.1246490478515625,0.3509368896484375,-0.299835205078125
1783169914478060300,3.642060302734375,0.2401275634765625,0.371612548828125,-0.333282470703125
1783169914488009500,3.652009521484375,0.32525634765625,0.3712615966796875,-0.3797607421875
1783169914497958400,3.66195849609375,0.2763671875,0.39923095703125,-0.5125274658203125
1783169914507937500,3.6719375,0.0683746337890625,0.3686065673828125,-0.746429443359375
1783169914517885400,3.681885498046875,-0.4116668701171875,0.33905029296875,-1.06512451171875
1783169914527834400,3.69183447265625,-1.119476318359375,0.3723297119140625,-1.4917755126953125
1783169914537846800,3.7018466796875,-2.0930938720703125,0.382232666015625,-2.015045166015625
1783169914547795700,3.711795654296875,-3.446014404296875,0.306793212890625,-2.6168212890625
1783169914557744600,3.72174462890625,-4.8162384033203125,0.1880950927734375,-3.4336700439453125
1783169914567693800,3.73169384765625,-5.73748779296875,0.0750885009765625,-4.1504974365234375
1783169914577672700,3.741672607421875,-5.9615325927734375,-0.008270263671875,-3.9976043701171875
1783169914587621600,3.75162158203125,-5.613922119140625,-0.2511138916015625,-3.224609375
1783169914597569800,3.76156982421875,-5.074737548828125,-0.4624481201171875,-2.304656982421875
1783169914607518700,3.771518798828125,-4.58880615234375,-0.5809478759765625,-1.3900146484375
1783169914617497600,3.78149755859375,-4.2441253662109375,-0.635406494140625,-0.761444091796875
1783169914627446500,3.791446533203125,-3.9590301513671875,-0.56640625,-0.4485321044921875
1783169914637395700,3.801395751953125,-3.6584014892578125,-0.4940948486328125,-0.238037109375
1783169914647374600,3.81137451171875,-3.223419189453125,-0.519287109375,-0.0032196044921875
1783169914657323800,3.82132373046875,-2.67205810546875,-0.632537841796875,0.271270751953125
1783169914667272700,3.831272705078125,-2.045623779296875,-0.7706146240234375,0.519073486328125
1783169914677220900,3.841220947265625,-1.39227294921875,-0.8928680419921875,0.7320556640625
1783169914687199700,3.85119970703125,-0.807647705078125,-0.95989990234375,0.890594482421875
1783169914697148700,3.861148681640625,-0.3763275146484375,-0.941802978515625,0.949188232421875
1783169914707097900,3.871097900390625,-0.033050537109375,-0.8544769287109375,0.9352264404296875
1783169914717076700,3.88107666015625,0.2510833740234375,-0.7260589599609375,0.86065673828125
1783169914727025700,3.891025634765625,0.5059967041015625,-0.5716400146484375,0.71722412109375
1783169914736974600,3.900974609375,0.728790283203125,-0.39862060546875,0.5311126708984375
1783169914746922800,3.9109228515625,0.90399169921875,-0.2375335693359375,0.342193603515625
1783169914756902700,3.920902587890625,1.021575927734375,-0.1519775390625,0.1928558349609375
1783169914766850800,3.930850830078125,1.1222381591796875,-0.1150360107421875,0.0931549072265625
1783169914776799700,3.9407998046875,1.1682891845703125,-0.1024169921875,-0.0009918212890625
1783169914786778600,3.950778564453125,1.1577911376953125,-0.0916748046875,-0.0640716552734375
1783169914796727600,3.9607275390625,1.112640380859375,-0.0719757080078125,-0.1210174560546875
1783169914806676700,3.9706767578125,1.03887939453125,-0.04644775390625,-0.172943115234375
1783169914816626000,3.9806259765625,0.962738037109375,-0.021270751953125,-0.211395263671875
1783169914826604800,3.990604736328125,0.883636474609375,0.0001220703125,-0.2270050048828125
1783169914836553700,4.0005537109375,0.7908782958984375,0.0352020263671875,-0.20660400390625
1783169914846502000,4.010501953125,0.7158660888671875,0.1045379638671875,-0.1805419921875
1783169914856481800,4.020481689453125,0.6453094482421875,0.185455322265625,-0.167572021484375
1783169914866429700,4.0304296875,0.5510406494140625,0.2746734619140625,-0.173187255859375
1783169914876379000,4.04037890625,0.4219512939453125,0.401123046875,-0.2083892822265625
1783169914886327800,4.050327880859375,0.26971435546875,0.57757568359375,-0.275482177734375
1783169914896306700,4.060306640625,0.1024627685546875,0.7578125,-0.320159912109375
1783169914906255600,4.070255615234375,-0.085784912109375,0.912811279296875,-0.3489990234375
1783169914916203800,4.080203857421875,-0.271697998046875,1.02294921875,-0.3902435302734375
1783169914926152700,4.090152587890625,-0.4005279541015625,1.0575714111328125,-0.4263916015625
1783169914936131800,4.1001318359375,-0.488433837890625,1.05426025390625,-0.4672698974609375
1783169914946080800,4.110080810546875,-0.57403564453125,0.997711181640625,-0.4918670654296875
1783169914956029700,4.12002978515625,-0.625732421875,0.8858642578125,-0.4887542724609375
1783169914966008600,4.130008544921875,-0.7163848876953125,0.72808837890625,-0.4724578857421875
1783169914975957800,4.139957763671875,-0.8979034423828125,0.528594970703125,-0.5057830810546875
1783169914985907000,4.149906982421875,-1.139129638671875,0.35906982421875,-0.5425872802734375
1783169914995854600,4.1598544921875,-1.3672943115234375,0.16986083984375,-0.5972442626953125
1783169915005834800,4.169834716796875,-1.6723480224609375,-0.026336669921875,-0.6606597900390625
1783169915015783000,4.179782958984375,-2.1220550537109375,-0.2275543212890625,-0.716583251953125
1783169915025731800,4.18973193359375,-2.639404296875,-0.3677978515625,-0.8061676025390625
1783169915035710700,4.199710693359375,-3.094757080078125,-0.4244384765625,-0.96649169921875
1783169915045660000,4.209659912109375,-3.4748382568359375,-0.528076171875,-1.113067626953125
1783169915055608800,4.21960888671875,-3.822021484375,-0.6537322998046875,-0.9974365234375
1783169915065556700,4.229556640625,-3.9593505859375,-0.7468109130859375,-0.7425537109375
1783169915075536600,4.23953662109375,-3.980316162109375,-0.9248504638671875,-0.5171661376953125
1783169915085484800,4.24948486328125,-3.9302978515625,-1.1145477294921875,-0.2646942138671875
1783169915095433700,4.259433837890625,-3.87042236328125,-1.20782470703125,-0.01165771484375
1783169915105412600,4.26941259765625,-3.7932281494140625,-1.1765289306640625,0.2408905029296875
1783169915115361800,4.27936181640625,-3.5734405517578125,-0.9760589599609375,0.4550018310546875
1783169915125310700,4.289310791015625,-3.28399658203125,-0.7073516845703125,0.634033203125
1783169915135259600,4.299259765625,-2.986541748046875,-0.47613525390625,0.815704345703125
1783169915145238500,4.309238525390625,-2.6787261962890625,-0.294403076171875,0.96417236328125
1783169915155188000,4.31918798828125,-2.344940185546875,-0.140472412109375,1.0549468994140625
1783169915165135600,4.329135498046875,-1.9862823486328125,-0.0213165283203125,1.073516845703125
1783169915175084800,4.339084716796875,-1.593353271484375,0.0810546875,1.0140228271484375
1783169915185064000,4.34906396484375,-1.1836700439453125,0.136260986328125,0.9120330810546875
1783169915195012900,4.359012939453125,-0.7568359375,0.1553497314453125,0.7871551513671875
1783169915204961800,4.3689619140625,-0.3314208984375,0.165618896484375,0.6488189697265625
1783169915214940700,4.378940673828125,0.04510498046875,0.1850128173828125,0.5270843505859375
1783169915224889900,4.388889892578125,0.36309814453125,0.213592529296875,0.430023193359375
1783169915234837800,4.398837646484375,0.62908935546875,0.2102203369140625,0.3459625244140625
1783169915244786700,4.40878662109375,0.824920654296875,0.219818115234375,0.2823486328125
1783169915254765800,4.418765869140625,0.951568603515625,0.2410736083984375,0.2226104736328125
1783169915264714800,4.42871484375,1.02490234375,0.2596282958984375,0.1701202392578125
1783169915274663700,4.43866357421875,1.066192626953125,0.282501220703125,0.1436920166015625
1783169915284642800,4.448642822265625,1.070098876953125,0.3048858642578125,0.1280975341796875
1783169915294591700,4.458591796875,1.028472900390625,0.3318328857421875,0.118988037109375
1783169915304540700,4.468540771484375,0.9297943115234375,0.3496246337890625,0.12677001953125
1783169915314488600,4.478488525390625,0.7932586669921875,0.372344970703125,0.114105224609375
1783169915324468700,4.48846875,0.649688720703125,0.39617919921875,0.0788116455078125
1783169915334416600,4.498416748046875,0.5226593017578125,0.40777587890625,0.03289794921875
1783169915344365800,4.50836572265625,0.4185638427734375,0.4221649169921875,-0.02069091796875
1783169915354345000,4.518344970703125,0.335906982421875,0.4418182373046875,-0.062744140625
1783169915364294000,4.5282939453125,0.251312255859375,0.4415130615234375,-0.08966064453125
1783169915374242800,4.538242919921875,0.1644287109375,0.43243408203125,-0.0992584228515625
1783169915384190700,4.548190673828125,0.0798797607421875,0.4086761474609375,-0.1172027587890625
1783169915394171000,4.5581708984375,0.0084991455078125,0.356109619140625,-0.1440277099609375
1783169915404118800,4.568118896484375,-0.071441650390625,0.3210601806640625,-0.17852783203125
1783169915414067700,4.578067626953125,-0.1665802001953125,0.2681884765625,-0.21099853515625
1783169915424016600,4.5880166015625,-0.2474212646484375,0.20941162109375,-0.2309722900390625
1783169915433995800,4.597995849609375,-0.3281402587890625,0.162322998046875,-0.25640869140625
1783169915443944700,4.60794482421875,-0.4339447021484375,0.1113433837890625,-0.2909698486328125
1783169915453893600,4.6178935546875,-0.52081298828125,0.036102294921875,-0.3580474853515625
1783169915463872800,4.627872802734375,-0.6817626953125,-0.0531158447265625,-0.5388946533203125
1783169915473821700,4.63782177734375,-0.9426116943359375,-0.1319580078125,-0.7916412353515625
1783169915483769600,4.64776953125,-1.22869873046875,-0.245452880859375,-1.045257568359375
1783169915493718500,4.657718505859375,-1.525299072265625,-0.3990020751953125,-1.2753448486328125
1783169915503697700,4.66769775390625,-1.90411376953125,-0.5030517578125,-1.5248565673828125
1783169915513646800,4.677646728515625,-2.455841064453125,-0.561981201171875,-1.7979888916015625
1783169915523595800,4.687595703125,-2.9954376220703125,-0.6794586181640625,-2.0733795166015625
1783169915533575000,4.697574951171875,-3.38970947265625,-0.8432159423828125,-2.28753662109375
1783169915543554800,4.707554931640625,-3.5628509521484375,-0.882110595703125,-2.261505126953125
1783169915553502700,4.717502685546875,-3.5820465087890625,-0.8335113525390625,-2.019439697265625
1783169915563451600,4.72745166015625,-3.709716796875,-0.8493194580078125,-1.6641693115234375
1783169915573430800,4.7374306640625,-3.7415771484375,-0.86102294921875,-1.24066162109375
1783169915583379700,4.747379638671875,-3.736572265625,-0.9284210205078125,-0.8251800537109375
1783169915593328600,4.75732861328125,-3.795318603515625,-1.03179931640625,-0.4525604248046875
1783169915603307800,4.767307861328125,-3.8187713623046875,-1.0683135986328125,-0.206512451171875
1783169915613256700,4.777256591796875,-3.8001251220703125,-1.0800628662109375,-0.1150665283203125
1783169915623205600,4.78720556640625,-3.6923065185546875,-1.04608154296875,-0.105865478515625
1783169915633153800,4.79715380859375,-3.424957275390625,-0.9188385009765625,-0.004119873046875
1783169915643134000,4.807134033203125,-3.0534210205078125,-0.76556396484375,0.171356201171875
1783169915653081900,4.817081787109375,-2.571563720703125,-0.5990142822265625,0.415618896484375
1783169915663030800,4.82703076171875,-1.9843597412109375,-0.432830810546875,0.679229736328125
1783169915673010000,4.837010009765625,-1.392181396484375,-0.2902069091796875,0.9260406494140625
1783169915682958800,4.846958740234375,-0.8303070068359375,-0.224609375,1.09136962890625
1783169915692907800,4.85690771484375,-0.318878173828125,-0.2293548583984375,1.1558685302734375
1783169915702856000,4.86685595703125,0.130615234375,-0.2337799072265625,1.09197998046875
1783169915712835800,4.8768359375,0.5264129638671875,-0.2315521240234375,0.9236297607421875
1783169915722783700,4.88678369140625,0.8325347900390625,-0.217926025390625,0.718353271484375
1783169915732732700,4.896732666015625,1.0491943359375,-0.1999664306640625,0.5319366455078125
1783169915742681900,4.906681884765625,1.18170166015625,-0.127593994140625,0.3418731689453125
1783169915752660700,4.91666064453125,1.271240234375,-0.0292816162109375,0.16619873046875
1783169915762609700,4.926609619140625,1.300933837890625,0.016387939453125,0.0447998046875
1783169915772558600,4.93655859375,1.25634765625,0.029876708984375,-0.008941650390625
1783169915782537700,4.946537841796875,1.19610595703125,0.0419464111328125,-0.03692626953125
1783169915792486700,4.956486572265625,1.0963897705078125,0.0537261962890625,-0.0478515625
1783169915802434600,4.9664345703125,0.9609375,0.077362060546875,-0.0692596435546875
1783169915812384000,4.976384033203125,0.8642425537109375,0.1251678466796875,-0.1208648681640625
1783169915822362600,4.986362548828125,0.7640533447265625,0.1829681396484375,-0.1835174560546875
1783169915832311800,4.996311767578125,0.6302947998046875,0.2573394775390625,-0.23663330078125
1783169915842260700,5.0062607421875,0.473297119140625,0.3309783935546875,-0.269989013671875
1783169915852240000,5.016239990234375,0.3204498291015625,0.3920745849609375,-0.3174285888671875
1783169915862188800,5.026188720703125,0.170166015625,0.4630279541015625,-0.398681640625
1783169915872137700,5.0361376953125,0.0291900634765625,0.5577392578125,-0.5555419921875
1783169915882086000,5.0460859375,-0.116180419921875,0.6296539306640625,-0.7198944091796875
1783169915892064800,5.056064697265625,-0.2570037841796875,0.6928558349609375,-0.827545166015625
1783169915902013700,5.066013671875,-0.3739471435546875,0.7203216552734375,-0.887908935546875
1783169915911962600,5.075962646484375,-0.48016357421875,0.671234130859375,-0.910797119140625
1783169915921941800,5.085941650390625,-0.603973388671875,0.549224853515625,-0.8983917236328125
1783169915931890700,5.095890625,-0.7562713623046875,0.4278717041015625,-0.9138031005859375
1783169915941839600,5.105839599609375,-0.881866455078125,0.2702178955078125,-0.989593505859375
1783169915951787800,5.115787841796875,-1.0066375732421875,0.06475830078125,-1.0529022216796875
1783169915961767700,5.125767578125,-1.1042022705078125,-0.07110595703125,-1.11767578125
1783169915971715600,5.135715576171875,-1.113128662109375,-0.1864166259765625,-1.1540069580078125
1783169915981664800,5.145664794921875,-1.1228790283203125,-0.3140411376953125,-1.1573028564453125
1783169915991614000,5.155614013671875,-1.1695098876953125,-0.43499755859375,-1.089385986328125
1783169916001592800,5.1655927734375,-1.403594970703125,-0.625244140625,-0.9878387451171875
1783169916011541800,5.175541748046875,-1.7763824462890625,-0.8330078125,-0.9359893798828125
1783169916021490700,5.18549072265625,-2.234893798828125,-0.9904937744140625,-0.9825592041015625
1783169916031469800,5.1954697265625,-2.84075927734375,-1.1041107177734375,-1.0704498291015625
1783169916041418800,5.205418701171875,-3.434112548828125,-1.160980224609375,-1.14337158203125
1783169916051367000,5.215366943359375,-3.903076171875,-1.148773193359375,-1.204315185546875
1783169916061315800,5.22531591796875,-4.286834716796875,-1.1297607421875,-1.1549530029296875
1783169916071294700,5.235294677734375,-4.5319061279296875,-1.1387176513671875,-0.9443511962890625
1783169916081243600,5.24524365234375,-4.5562744140625,-1.152496337890625,-0.6503753662109375
1783169916091192800,5.25519287109375,-4.3519439697265625,-1.125,-0.3512725830078125
1783169916101171700,5.265171630859375,-4.016204833984375,-1.058837890625,-0.020172119140625
1783169916111120600,5.27512060546875,-3.622283935546875,-0.970672607421875,0.299591064453125
1783169916121068800,5.28506884765625,-3.2076416015625,-0.85772705078125,0.54022216796875
1783169916131017700,5.295017822265625,-2.76739501953125,-0.7574462890625,0.6921234130859375
1783169916140996600,5.30499658203125,-2.32659912109375,-0.6372222900390625,0.7837066650390625
1783169916150945500,5.314945556640625,-1.8688507080078125,-0.529083251953125,0.8153228759765625
1783169916160895000,5.32489501953125,-1.3866119384765625,-0.43011474609375,0.835906982421875
1783169916170873900,5.334873779296875,-0.9192047119140625,-0.3400726318359375,0.868408203125
1783169916180822800,5.34482275390625,-0.50628662109375,-0.2874603271484375,0.8692169189453125
1783169916190771700,5.354771728515625,-0.1569366455078125,-0.241424560546875,0.836761474609375
1783169916200720000,5.364719970703125,0.1511688232421875,-0.188751220703125,0.78216552734375
1783169916210699800,5.37469970703125,0.392364501953125,-0.162200927734375,0.686187744140625
1783169916220648000,5.38464794921875,0.5641021728515625,-0.1281585693359375,0.572296142578125
1783169916230596900,5.394596923828125,0.6729888916015625,-0.0589141845703125,0.458282470703125
1783169916240545800,5.4045458984375,0.734771728515625,0.02716064453125,0.3427581787109375
1783169916250524700,5.414524658203125,0.768035888671875,0.1085205078125,0.2538299560546875
1783169916260473900,5.424473876953125,0.7875213623046875,0.1685333251953125,0.200469970703125
1783169916270421800,5.434421875,0.777435302734375,0.208282470703125,0.1776123046875
1783169916280401700,5.444401611328125,0.73309326171875,0.2544403076171875,0.1698455810546875
1783169916290349800,5.454349853515625,0.6594085693359375,0.302276611328125,0.163909912109375
1783169916300298800,5.464298828125,0.554473876953125,0.3462982177734375,0.15875244140625
1783169916310247700,5.47424755859375,0.4401397705078125,0.389739990234375,0.138031005859375
1783169916320226600,5.4842265625,0.3101806640625,0.42144775390625,0.1012725830078125
1783169916330176000,5.494176025390625,0.186431884765625,0.43145751953125,0.0592193603515625
1783169916340125000,5.504125,0.088531494140625,0.4209442138671875,0.0046844482421875
1783169916350103800,5.514103759765625,0.017059326171875,0.4014892578125,-0.0427398681640625
1783169916360052700,5.524052734375,-0.042877197265625,0.360626220703125,-0.0688323974609375
1783169916370001000,5.5340009765625,-0.103729248046875,0.2935638427734375,-0.08782958984375
1783169916379949800,5.54394970703125,-0.148895263671875,0.222747802734375,-0.105926513671875
1783169916389928700,5.5539287109375,-0.1868133544921875,0.1645965576171875,-0.1239166259765625
1783169916399878000,5.5638779296875,-0.2327423095703125,0.1182708740234375,-0.1342926025390625
1783169916409826800,5.573826904296875,-0.2761077880859375,0.0803985595703125,-0.1405029296875
1783169916419805700,5.5838056640625,-0.346893310546875,0.0532073974609375,-0.1427764892578125
1783169916429754600,5.593754638671875,-0.4280242919921875,0.00701904296875,-0.1474609375
1783169916439702800,5.603702880859375,-0.5710296630859375,-0.0930328369140625,-0.165435791015625
1783169916449651700,5.613651611328125,-0.8247528076171875,-0.2132415771484375,-0.1780242919921875
1783169916459630800,5.623630859375,-1.132232666015625,-0.3408203125,-0.2111358642578125
1783169916469579800,5.633579833984375,-1.474578857421875,-0.4575347900390625,-0.2903900146484375
1783169916479528700,5.64352880859375,-1.84918212890625,-0.55035400390625,-0.379852294921875
1783169916489478000,5.653477783203125,-2.24029541015625,-0.6434173583984375,-0.496612548828125
1783169916499456800,5.663456787109375,-2.6049346923828125,-0.70391845703125,-0.685516357421875
1783169916509406000,5.673406005859375,-2.936004638671875,-0.7172393798828125,-0.8783111572265625
1783169916519353900,5.683353759765625,-3.110809326171875,-0.7259368896484375,-0.9535369873046875
1783169916529333800,5.693333740234375,-3.1560211181640625,-0.7762451171875,-0.88970947265625
1783169916539305200,5.70330517578125,-3.1341705322265625,-0.8402862548828125,-0.680419921875
1783169916549254100,5.713254150390625,-3.072845458984375,-0.87432861328125,-0.4148101806640625
1783169916559203000,5.723203125,-3.035919189453125,-0.8794403076171875,-0.2145843505859375
1783169916569182200,5.73318212890625,-3.0358123779296875,-0.8800506591796875,-0.098297119140625
1783169916579131100,5.743131103515625,-2.998626708984375,-0.8385467529296875,-0.079620361328125
1783169916589079000,5.7530791015625,-2.8740692138671875,-0.7645416259765625,-0.1055908203125
1783169916599059200,5.76305908203125,-2.659820556640625,-0.6955108642578125,-0.091644287109375
1783169916609007000,5.773007080078125,-2.38275146484375,-0.6260528564453125,-0.0253448486328125
1783169916618956000,5.7829560546875,-2.0602264404296875,-0.559234619140625,0.0712432861328125
1783169916628905000,5.792905029296875,-1.6822967529296875,-0.492156982421875,0.1529083251953125
1783169916638884000,5.802884033203125,-1.289306640625,-0.4361724853515625,0.191864013671875
1783169916648833000,5.8128330078125,-0.9238433837890625,-0.386016845703125,0.2069244384765625
1783169916658782000,5.822781982421875,-0.5948028564453125,-0.328216552734375,0.1934051513671875
1783169916668761000,5.832760986328125,-0.299407958984375,-0.292572021484375,0.18048095703125
1783169916678710300,5.842710205078125,-0.055267333984375,-0.275482177734375,0.1813201904296875
1783169916688658000,5.852657958984375,0.139190673828125,-0.2563934326171875,0.19207763671875
1783169916698607000,5.862607177734375,0.2861480712890625,-0.25006103515625,0.219085693359375
1783169916708586200,5.872586181640625,0.38641357421875,-0.2704010009765625,0.2559051513671875
1783169916718535200,5.88253515625,0.4494781494140625,-0.290863037109375,0.2909698486328125
1783169916728484000,5.892484130859375,0.4769439697265625,-0.30096435546875,0.3037261962890625
1783169916738463200,5.902463134765625,0.4631500244140625,-0.3006591796875,0.281951904296875
1783169916748412200,5.912412109375,0.435699462890625,-0.297027587890625,0.2548980712890625
1783169916758360000,5.922360107421875,0.39434814453125,-0.292236328125,0.232940673828125
1783169916768309000,5.93230908203125,0.335113525390625,-0.274139404296875,0.2072906494140625
1783169916778288000,5.9422880859375,0.27142333984375,-0.2510833740234375,0.1801300048828125
1783169916788237000,5.952237060546875,0.2088165283203125,-0.220458984375,0.1550750732421875
1783169916798186000,5.96218603515625,0.184326171875,-0.1991424560546875,0.125823974609375
1783169916808135000,5.972135009765625,0.1591339111328125,-0.1878662109375,0.10614013671875
1783169916818114000,5.982114013671875,0.1339111328125,-0.1655426025390625,0.0927276611328125
1783169916828063000,5.99206298828125,0.10791015625,-0.1542816162109375,0.077667236328125
1783169916838011100,6.00201123046875,0.0668792724609375,-0.1355133056640625,0.06854248046875
1783169916847991000,6.011990966796875,0.0286407470703125,-0.116607666015625,0.060943603515625
1783169916857939000,6.02193896484375,-0.0165557861328125,-0.1031646728515625,0.0490264892578125
1783169916867888000,6.03188818359375,-0.0706329345703125,-0.087249755859375,0.0362548828125
1783169916877837000,6.041837158203125,-0.1420440673828125,-0.0700531005859375,0.027069091796875
1783169916887816200,6.051816162109375,-0.220123291015625,-0.0569610595703125,0.0205841064453125
1783169916897765000,6.06176513671875,-0.284088134765625,-0.03936767578125,0.019927978515625
1783169916907713300,6.07171337890625,-0.37640380859375,0.0000762939453125,0.0145263671875
1783169916917693200,6.081693115234375,-0.5189208984375,-0.003570556640625,0.0050811767578125
1783169916927641000,6.09164111328125,-0.683258056640625,-0.0146942138671875,-0.0317535400390625
1783169916937590000,6.101590087890625,-0.99127197265625,-0.0047149658203125,-0.103973388671875
1783169916947539200,6.111539306640625,-1.3937530517578125,-0.2170562744140625,-0.144287109375
1783169916957518000,6.12151806640625,-1.7523345947265625,-0.5314788818359375,-0.17340087890625
1783169916967467000,6.131467041015625,-2.3202056884765625,-0.7231292724609375,-0.1682586669921875
1783169916977416000,6.141416015625,-2.9775543212890625,-1.0183563232421875,-0.07037353515625
1783169916987395000,6.15139501953125,-3.4574127197265625,-1.306854248046875,0.0262451171875
1783169916997344000,6.161343994140625,-3.699951171875,-1.3632659912109375,-0.146392822265625
1783169917007292200,6.171292236328125,-3.8760833740234375,-1.30615234375,-0.5131072998046875
1783169917017241000,6.181240966796875,-3.881866455078125,-1.3162384033203125,-0.637359619140625
1783169917027220000,6.191219970703125,-3.610595703125,-1.3463287353515625,-0.5370025634765625
1783169917037169200,6.201169189453125,-3.2341766357421875,-1.2853240966796875,-0.408905029296875
1783169917047118000,6.2111181640625,-2.81243896484375,-1.19921875,-0.244842529296875
1783169917057067300,6.2210673828125,-2.40625,-1.166046142578125,-0.0338897705078125
1783169917067046100,6.231046142578125,-2.0712127685546875,-1.143035888671875,0.1488800048828125
1783169917076994300,6.240994384765625,-1.7707672119140625,-1.09844970703125,0.2195587158203125
1783169917086943200,6.250943115234375,-1.46112060546875,-1.003448486328125,0.1911773681640625
1783169917096922000,6.260922119140625,-1.1556243896484375,-0.853973388671875,0.10870361328125
1783169917106871000,6.27087109375,-0.8596343994140625,-0.701995849609375,0.0343475341796875
1783169917116820200,6.2808203125,-0.5884857177734375,-0.5557098388671875,0.021759033203125
1783169917126769200,6.29076904296875,-0.372344970703125,-0.41375732421875,0.02679443359375
1783169917136748000,6.300748046875,-0.2083892822265625,-0.2934417724609375,-0.001617431640625
1783169917146697000,6.310697021484375,-0.0631103515625,-0.1634521484375,-0.05914306640625
1783169917156645000,6.32064501953125,0.0631256103515625,-0.042388916015625,-0.119049072265625
1783169917166625000,6.330625,0.1797027587890625,0.0344696044921875,-0.1767578125
1783169917176573000,6.340572998046875,0.304931640625,0.078826904296875,-0.21002197265625
1783169917186522000,6.350522216796875,0.4462738037109375,0.0971221923828125,-0.2046051025390625
1783169917196471300,6.36047119140625,0.5760498046875,0.0929412841796875,-0.1694793701171875
1783169917206450200,6.3704501953125,0.679443359375,0.0796966552734375,-0.123077392578125
1783169917216399000,6.380399169921875,0.7650909423828125,0.0515899658203125,-0.0543670654296875
1783169917226348300,6.390348388671875,0.822296142578125,0.0009002685546875,0.0383758544921875
1783169917236327200,6.4003271484375,0.8528289794921875,-0.0430755615234375,0.1077728271484375
1783169917246275000,6.410275146484375,0.8610992431640625,-0.0789337158203125,0.14837646484375
1783169917256224300,6.420224365234375,0.8243560791015625,-0.1067352294921875,0.1652679443359375
1783169917266173200,6.430173095703125,0.7538604736328125,-0.100677490234375,0.154144287109375
1783169917276152000,6.440152099609375,0.6633758544921875,-0.08197021484375,0.1428985595703125
1783169917286101000,6.45010107421875,0.5480499267578125,-0.0682830810546875,0.1403656005859375
1783169917296050200,6.46005029296875,0.4140472412109375,-0.0533905029296875,0.124664306640625
1783169917305998000,6.469998046875,0.27972412109375,-0.0329742431640625,0.090545654296875
1783169917315978000,6.47997802734375,0.1417083740234375,0.0079345703125,0.0496978759765625
1783169917325926100,6.489926025390625,-0.0002899169921875,0.0593109130859375,0.0063018798828125
1783169917335875000,6.499875,-0.10015869140625,0.0818939208984375,-0.025146484375
1783169917345854000,6.50985400390625,-0.176116943359375,0.1025390625,-0.0333251953125
1783169917355803100,6.51980322265625,-0.260833740234375,0.1010894775390625,-0.02783203125
1783169917365752300,6.52975244140625,-0.3401336669921875,0.0710601806640625,-0.0297698974609375
1783169917375701200,6.539701171875,-0.4196624755859375,0.0458984375,-0.045257568359375
1783169917385680100,6.54968017578125,-0.5276336669921875,0.0269927978515625,-0.0520782470703125
1783169917395629000,6.559629150390625,-0.67718505859375,-0.0058441162109375,-0.1118011474609375
1783169917405577200,6.5695771484375,-0.79888916015625,-0.0354766845703125,-0.1944427490234375
1783169917415556000,6.57955615234375,-0.924224853515625,-0.063385009765625,-0.2355804443359375
1783169917425505300,6.58950537109375,-1.0986328125,-0.1007843017578125,-0.31884765625
1783169917435454200,6.5994541015625,-1.3278045654296875,-0.195404052734375,-0.5028228759765625
1783169917445403100,6.609403076171875,-1.7170257568359375,-0.3912506103515625,-0.67962646484375
1783169917455382000,6.619382080078125,-2.3713836669921875,-0.687652587890625,-0.89739990234375
1783169917465331200,6.629331298828125,-3.1290740966796875,-0.9779205322265625,-1.1693572998046875
1783169917475279000,6.639279052734375,-3.7400970458984375,-1.08880615234375,-1.6273040771484375
1783169917485259000,6.649259033203125,-4.1176300048828125,-1.0338592529296875,-2.26165771484375
1783169917495207200,6.659207275390625,-4.1388092041015625,-1.014129638671875,-2.6075286865234375
1783169917505156000,6.669156005859375,-3.9366607666015625,-1.0523681640625,-2.3909149169921875
1783169917515105000,6.67910498046875,-3.6065673828125,-1.1369171142578125,-1.734466552734375
1783169917525084000,6.689083984375,-3.2898406982421875,-1.1715240478515625,-1.0372772216796875
1783169917535033300,6.699033447265625,-3.0274200439453125,-1.166961669921875,-0.4737396240234375
1783169917544986400,6.708986328125,-2.79833984375,-1.145294189453125,-0.0898590087890625
1783169917554934500,6.7189345703125,-2.5625152587890625,-1.0791778564453125,0.0274200439453125
1783169917564914400,6.72891455078125,-2.2859954833984375,-0.9923248291015625,-0.003662109375
1783169917574862600,6.738862548828125,-1.9822540283203125,-0.9205169677734375,0.0026092529296875
1783169917584811500,6.7488115234375,-1.6621551513671875,-0.8293609619140625,0.1116790771484375
1783169917594790400,6.758790283203125,-1.2891387939453125,-0.707275390625,0.2531280517578125
1783169917604739300,6.7687392578125,-0.9022369384765625,-0.585296630859375,0.3739776611328125
1783169917614688500,6.7786884765625,-0.53094482421875,-0.4600067138671875,0.4570770263671875
1783169917624636400,6.788636474609375,-0.2064666748046875,-0.3342437744140625,0.5117645263671875
1783169917634616300,6.7986162109375,0.0716094970703125,-0.24298095703125,0.5263519287109375
1783169917644564500,6.808564453125,0.2810211181640625,-0.2032928466796875,0.5021209716796875
1783169917654513400,6.818513427734375,0.435638427734375,-0.19488525390625,0.470672607421875
1783169917664492300,6.8284921875,0.5382843017578125,-0.195098876953125,0.44219970703125
1783169917674441200,6.838441162109375,0.580078125,-0.1878509521484375,0.3908233642578125
1783169917684390400,6.848390380859375,0.5983428955078125,-0.17535400390625,0.3280181884765625
1783169917694339600,6.858339599609375,0.590240478515625,-0.159454345703125,0.26611328125
1783169917704318200,6.868318115234375,0.5676727294921875,-0.153839111328125,0.220672607421875
1783169917714267400,6.878267333984375,0.5570220947265625,-0.1453704833984375,0.1839599609375
1783169917724215600,6.888215576171875,0.5256805419921875,-0.13958740234375,0.15789794921875
1783169917734195500,6.898195556640625,0.4839935302734375,-0.13812255859375,0.1443328857421875
1783169917744143400,6.908143310546875,0.4438018798828125,-0.13006591796875,0.12774658203125
1783169917754092500,6.918092529296875,0.3948974609375,-0.1135711669921875,0.104095458984375
1783169917764041500,6.92804150390625,0.3379974365234375,-0.09210205078125,0.080413818359375
1783169917774020400,6.938020263671875,0.2741241455078125,-0.066131591796875,0.0561370849609375
1783169917783969300,6.94796923828125,0.2161712646484375,-0.035308837890625,0.0392608642578125
1783169917793917400,6.95791748046875,0.1700592041015625,-0.0039520263671875,0.0325775146484375
1783169917803866400,6.967866455078125,0.1361846923828125,0.0230560302734375,0.0233306884765625
1783169917813845500,6.977845458984375,0.1215972900390625,0.0501251220703125,0.0049896240234375
1783169917823794400,6.98779443359375,0.1352081298828125,0.074798583984375,-0.0220184326171875
1783169917833743400,6.997743408203125,0.1653900146484375,0.092010498046875,-0.050537109375
1783169917843722200,7.00772216796875,0.1604461669921875,0.09954833984375,-0.0771331787109375
1783169917853671400,7.01767138671875,0.1386566162109375,0.093780517578125,-0.0971221923828125
1783169917863620400,7.027620361328125,0.120819091796875,0.0809783935546875,-0.1007232666015625
1783169917873568300,7.037568359375,0.0912322998046875,0.075042724609375,-0.0894622802734375
1783169917883548400,7.04754833984375,0.0545501708984375,0.062347412109375,-0.08966064453125
1783169917893496600,7.05749658203125,-0.0198822021484375,0.0342864990234375,-0.0993194580078125
1783169917903445500,7.067445556640625,-0.1157073974609375,0.00970458984375,-0.10736083984375
1783169917913424400,7.07742431640625,-0.2641448974609375,-0.0088043212890625,-0.1325531005859375
1783169917923373600,7.08737353515625,-0.52801513671875,0.0029144287109375,-0.2120819091796875
1783169917933322500,7.097322509765625,-0.8500823974609375,0.000396728515625,-0.3188934326171875
1783169917943270400,7.1072705078125,-1.2640380859375,-0.092376708984375,-0.4467926025390625
1783169917953250300,7.117250244140625,-1.990386962890625,-0.2244873046875,-0.6336212158203125
1783169917963198500,7.127198486328125,-3.0390472412109375,-0.34716796875,-0.908660888671875
1783169917973147400,7.1371474609375,-4.20611572265625,-0.3800048828125,-1.448638916015625
1783169917983126500,7.14712646484375,-5.1576385498046875,-0.2760162353515625,-2.3459930419921875
1783169917993075500,7.157075439453125,-5.5450592041015625,-0.244598388671875,-2.995025634765625
1783169918003024400,7.1670244140625,-5.536865234375,-0.3695831298828125,-2.9469146728515625
1783169918012973300,7.176973388671875,-5.1480255126953125,-0.577423095703125,-2.3960723876953125
1783169918022952200,7.1869521484375,-4.5064239501953125,-0.69781494140625,-1.7610626220703125
1783169918032901400,7.1969013671875,-3.81549072265625,-0.76416015625,-1.1830291748046875
1783169918042849300,7.206849365234375,-3.1651153564453125,-0.811370849609375,-0.727508544921875
1783169918052798500,7.216798583984375,-2.613311767578125,-0.845916748046875,-0.4512939453125
1783169918062777300,7.22677734375,-2.1726837158203125,-0.85614013671875,-0.2795867919921875
1783169918072726500,7.2367265625,-1.7368927001953125,-0.8519439697265625,-0.1410980224609375
1783169918082675500,7.246675537109375,-1.303436279296875,-0.859130859375,0.0227508544921875
1783169918092654600,7.256654541015625,-0.8848876953125,-0.8512115478515625,0.2306365966796875
1783169918102603500,7.266603515625,-0.5074462890625,-0.7747802734375,0.320465087890625
1783169918112551400,7.276551513671875,-0.17578125,-0.63262939453125,0.3349456787109375
1783169918122500400,7.286500244140625,0.090606689453125,-0.485382080078125,0.3317108154296875
1783169918132479500,7.2964794921875,0.2397613525390625,-0.354248046875,0.305267333984375
1783169918142428400,7.306428466796875,0.35174560546875,-0.252532958984375,0.284942626953125
1783169918152377300,7.31637744140625,0.427276611328125,-0.1803436279296875,0.2481536865234375
1783169918162356500,7.3263564453125,0.4610748291015625,-0.1241455078125,0.2056732177734375
1783169918172305400,7.336305419921875,0.4788970947265625,-0.0847320556640625,0.1619720458984375
1783169918182254300,7.34625439453125,0.509918212890625,-0.0611419677734375,0.108062744140625
1783169918192202200,7.3562021484375,0.5416259765625,-0.0440216064453125,0.0653076171875
1783169918202182400,7.366182373046875,0.55377197265625,-0.026153564453125,0.0330810546875
1783169918212130300,7.37613037109375,0.558929443359375,-0.0157623291015625,-0.000030517578125
1783169918222079500,7.38607958984375,0.5585174560546875,-0.0044097900390625,-0.0313720703125
1783169918232058400,7.396058349609375,0.542938232421875,0.0047760009765625,-0.037200927734375
1783169918242007600,7.406007568359375,0.510040283203125,0.0072784423828125,-0.042755126953125
1783169918251956500,7.41595654296875,0.4581756591796875,0.019622802734375,-0.0508270263671875
1783169918261904400,7.425904296875,0.39837646484375,0.052276611328125,-0.0572662353515625
1783169918271884500,7.435884521484375,0.3311920166015625,0.0866851806640625,-0.057861328125
1783169918281832400,7.44583251953125,0.2626800537109375,0.1336822509765625,-0.056304931640625
1783169918291781400,7.455781494140625,0.205047607421875,0.1747589111328125,-0.061431884765625
1783169918301760500,7.465760498046875,0.1643218994140625,0.20367431640625,-0.0645294189453125
1783169918311709400,7.47570947265625,0.13006591796875,0.227569580078125,-0.0536956787109375
1783169918321658400,7.485658447265625,0.10546875,0.2501068115234375,-0.0425872802734375
1783169918331607300,7.495607177734375,0.088470458984375,0.258575439453125,-0.0456085205078125
1783169918341586400,7.50558642578125,0.06298828125,0.2696685791015625,-0.065155029296875
1783169918351535400,7.515535400390625,0.040985107421875,0.284088134765625,-0.10943603515625
1783169918361483300,7.525483154296875,0.0412445068359375,0.286956787109375,-0.164398193359375
1783169918371432200,7.53543212890625,0.0384979248046875,0.2857513427734375,-0.2027435302734375
1783169918381411300,7.545411376953125,0.044525146484375,0.277587890625,-0.2327728271484375
1783169918391360300,7.5553603515625,0.0211334228515625,0.2640228271484375,-0.2438812255859375
1783169918401309400,7.565309326171875,-0.0214996337890625,0.2483367919921875,-0.2602081298828125
1783169918411288600,7.57528857421875,-0.08587646484375,0.2171630859375,-0.3396148681640625
1783169918421237500,7.585237548828125,-0.2189788818359375,0.203399658203125,-0.484588623046875
1783169918431185400,7.595185302734375,-0.3616180419921875,0.224273681640625,-0.701019287109375
1783169918441134300,7.60513427734375,-0.6459503173828125,0.2456817626953125,-0.9429473876953125
1783169918451113500,7.615113525390625,-1.1573638916015625,0.2281036376953125,-1.17779541015625
1783169918461062400,7.6250625,-1.7953338623046875,0.1466064453125,-1.41552734375
1783169918471011300,7.63501123046875,-2.4947357177734375,0.0373687744140625,-1.7047882080078125
1783169918480990500,7.644990478515625,-3.4146270751953125,-0.0780181884765625,-2.05621337890625
1783169918490939400,7.654939453125,-4.4452362060546875,-0.1954193115234375,-2.3899078369140625
1783169918500888300,7.664888427734375,-5.2848968505859375,-0.2661895751953125,-2.6665191650390625
1783169918510836500,7.67483642578125,-5.8734588623046875,-0.308197021484375,-2.6819610595703125
1783169918520816400,7.68481640625,-6.0184326171875,-0.4818267822265625,-2.3787689208984375
1783169918530764300,7.694764404296875,-5.789093017578125,-0.6410064697265625,-1.937225341796875
1783169918540734700,7.704734619140625,-5.306549072265625,-0.7899017333984375,-1.44866943359375
1783169918550713900,7.7147138671875,-4.637481689453125,-0.9245758056640625,-0.963287353515625
1783169918560662800,7.724662841796875,-3.9046478271484375,-1.0091705322265625,-0.5332794189453125
1783169918570612000,7.734612060546875,-3.187164306640625,-1.015777587890625,-0.152374267578125
1783169918580561000,7.744560791015625,-2.504180908203125,-0.971099853515625,0.15631103515625
1783169918590540000,7.7545400390625,-1.8895721435546875,-0.848114013671875,0.317779541015625
1783169918600489000,7.764489013671875,-1.300201416015625,-0.6699066162109375,0.3818359375
1783169918610436900,7.774436767578125,-0.721466064453125,-0.4918670654296875,0.4150848388671875
1783169918620385800,7.7843857421875,-0.2100067138671875,-0.3427276611328125,0.420989990234375
1783169918630365000,7.794364990234375,0.2002716064453125,-0.2097625732421875,0.39739990234375
1783169918640313900,7.80431396484375,0.501617431640625,-0.0929718017578125,0.3282623291015625
1783169918650262800,7.8142626953125,0.7099456787109375,0.0174407958984375,0.232666015625
1783169918660242000,7.824241943359375,0.860931396484375,0.1092987060546875,0.1287689208984375
1783169918670190800,7.83419091796875,0.957855224609375,0.1662139892578125,0.040863037109375
1783169918680138800,7.844138671875,1.0025177001953125,0.2105865478515625,-0.015960693359375
1783169918690087700,7.854087646484375,1.0199127197265625,0.219940185546875,-0.0509490966796875
1783169918700066800,7.86406689453125,1.019134521484375,0.21002197265625,-0.066375732421875
1783169918710015700,7.874015625,1.000885009765625,0.2064208984375,-0.0836334228515625
1783169918719964700,7.883964599609375,0.9572906494140625,0.2125091552734375,-0.105743408203125
1783169918729943800,7.89394384765625,0.871917724609375,0.239959716796875,-0.1470184326171875
1783169918739893000,7.90389306640625,0.762451171875,0.27508544921875,-0.180938720703125
1783169918749842000,7.913842041015625,0.63555908203125,0.30364990234375,-0.2004852294921875
1783169918759789800,7.923789794921875,0.4962005615234375,0.3353118896484375,-0.2086029052734375
1783169918769770000,7.93377001953125,0.3533172607421875,0.3724365234375,-0.2062835693359375
1783169918779718000,7.9437177734375,0.2504119873046875,0.3824310302734375,-0.1948699951171875
1783169918789666800,7.953666748046875,0.1485748291015625,0.375732421875,-0.1968536376953125
1783169918799646000,7.96364599609375,0.0587921142578125,0.3713836669921875,-0.206329345703125
1783169918809595000,7.973594970703125,-0.0099639892578125,0.3470458984375,-0.2166290283203125
1783169918819543800,7.983543701171875,-0.07281494140625,0.2997283935546875,-0.2224273681640625
1783169918829492000,7.993491943359375,-0.1386566162109375,0.2493133544921875,-0.2252349853515625
1783169918839471900,8.003471923828124,-0.19793701171875,0.2119903564453125,-0.2428741455078125
1783169918849419800,8.013419677734374,-0.2404327392578125,0.1678314208984375,-0.261444091796875
1783169918859368700,8.02336865234375,-0.2631378173828125,0.126129150390625,-0.2716217041015625
1783169918869318000,8.03331787109375,-0.2757415771484375,0.0938720703125,-0.2850189208984375
1783169918879296800,8.043296875,-0.282623291015625,0.072723388671875,-0.2853240966796875
1783169918889245700,8.05324560546875,-0.2999420166015625,0.0482635498046875,-0.2904510498046875
1783169918899195000,8.06319482421875,-0.3363189697265625,0.0022430419921875,-0.2783050537109375
1783169918909174000,8.073174072265624,-0.4605255126953125,-0.037139892578125,-0.3056182861328125
1783169918919123000,8.083123046875,-0.7538909912109375,-0.101318359375,-0.371673583984375
1783169918929070800,8.09307080078125,-1.1740570068359375,-0.2052764892578125,-0.4441070556640625
1783169918939020000,8.10302001953125,-1.5813751220703125,-0.3137359619140625,-0.5229949951171875
1783169918948999000,8.1129990234375,-1.966705322265625,-0.4445343017578125,-0.5976715087890625
1783169918958947800,8.12294775390625,-2.47552490234375,-0.570892333984375,-0.655242919921875
1783169918968896800,8.132896728515625,-2.94384765625,-0.6190643310546875,-0.6513824462890625
1783169918978876000,8.1428759765625,-3.300811767578125,-0.6615142822265625,-0.5706024169921875
1783169918988824800,8.152824951171874,-3.480712890625,-0.7410125732421875,-0.426483154296875
1783169918998772700,8.162772705078124,-3.56256103515625,-0.8131256103515625,-0.23699951171875
1783169919008722000,8.172721923828124,-3.635955810546875,-0.8577880859375,-0.1270599365234375
1783169919018700800,8.18270068359375,-3.6830291748046875,-0.8658447265625,-0.145843505859375
1783169919028649700,8.192649658203125,-3.69317626953125,-0.86419677734375,-0.25738525390625
1783169919038598700,8.2025986328125,-3.5759429931640625,-0.8478240966796875,-0.4008941650390625
1783169919048577800,8.212577880859374,-3.2961578369140625,-0.825836181640625,-0.4775543212890625
1783169919058526700,8.222526611328124,-2.9162445068359375,-0.83868408203125,-0.39501953125
1783169919068476000,8.232475830078124,-2.486572265625,-0.829071044921875,-0.21539306640625
1783169919078424000,8.242424072265624,-1.998779296875,-0.780609130859375,-0.0715789794921875
1783169919088404000,8.252404052734375,-1.5247802734375,-0.7289886474609375,0.0109100341796875
1783169919098351900,8.262351806640625,-1.05828857421875,-0.665313720703125,0.0559539794921875
1783169919108300800,8.27230078125,-0.646514892578125,-0.5908203125,0.0845794677734375
1783169919118250000,8.28225,-0.330047607421875,-0.508392333984375,0.0755767822265625
1783169919128228900,8.292228759765624,-0.0751953125,-0.434295654296875,0.04339599609375
1783169919138177800,8.302177734375,0.1232757568359375,-0.4136962890625,-0.0098114013671875
1783169919148126000,8.3121259765625,0.224212646484375,-0.455047607421875,-0.0289459228515625
1783169919158105900,8.32210595703125,0.29998779296875,-0.452178955078125,-0.0083770751953125
1783169919168053800,8.3320537109375,0.376220703125,-0.41326904296875,-0.0087127685546875
1783169919178003000,8.3420029296875,0.3942413330078125,-0.3978729248046875,-0.0283966064453125
1783169919187951900,8.351951904296875,0.4004058837890625,-0.3681488037109375,-0.0214080810546875
1783169919197930800,8.3619306640625,0.4100341796875,-0.338226318359375,-0.0032958984375
1783169919207879700,8.371879638671874,0.3982086181640625,-0.323822021484375,-0.0036163330078125
1783169919217828900,8.381828857421874,0.367645263671875,-0.3004913330078125,0.00152587890625
1783169919227807700,8.391807861328125,0.3130340576171875,-0.2761077880859375,0.0064697265625
1783169919237757000,8.4017568359375,0.268829345703125,-0.2601776123046875,0.017364501953125
1783169919247704800,8.411704833984375,0.232452392578125,-0.2419281005859375,0.0326385498046875
1783169919257654000,8.421654052734375,0.17822265625,-0.2143707275390625,0.046783447265625
1783169919267633000,8.4316328125,0.1184844970703125,-0.18072509765625,0.0634918212890625
1783169919277581800,8.441581787109374,0.0836639404296875,-0.143280029296875,0.067230224609375
1783169919287531000,8.451531005859374,0.054107666015625,-0.1041259765625,0.0816650390625
1783169919297510000,8.461510009765625,0.033447265625,-0.0782012939453125,0.10833740234375
1783169919307458800,8.471458740234375,0.0066986083984375,-0.0575714111328125,0.124725341796875
1783169919317407000,8.481406982421875,-0.0296478271484375,-0.02972412109375,0.15283203125
1783169919327356000,8.49135595703125,-0.0790557861328125,-0.017120361328125,0.1662750244140625
1783169919337334800,8.501334716796874,-0.129791259765625,-0.00921630859375,0.1440582275390625
1783169919347284000,8.511283935546874,-0.1742706298828125,0.009307861328125,0.135528564453125
1783169919357233000,8.52123291015625,-0.203887939453125,-0.0175323486328125,0.1143798828125
1783169919367181800,8.531181884765624,-0.2471771240234375,-0.060394287109375,0.07110595703125
1783169919377160700,8.54116064453125,-0.3436279296875,-0.1270904541015625,0.0340118408203125
1783169919387109600,8.551109619140625,-0.5202484130859375,-0.177734375,-0.0025177001953125
1783169919397057800,8.561057861328125,-0.7930450439453125,-0.2249603271484375,-0.04217529296875
1783169919407038000,8.571037841796874,-1.046142578125,-0.327362060546875,-0.0736541748046875
1783169919416985900,8.58098583984375,-1.252471923828125,-0.4384613037109375,-0.1178131103515625
1783169919426935000,8.59093505859375,-1.5305938720703125,-0.52764892578125,-0.1611175537109375
1783169919436884000,8.600884033203124,-1.9545745849609375,-0.6052093505859375,-0.1378021240234375
1783169919446862800,8.61086279296875,-2.4178009033203125,-0.682373046875,-0.047454833984375
1783169919456812000,8.62081201171875,-2.788604736328125,-0.7391357421875,-0.02349853515625
1783169919466760000,8.630760009765625,-3.0264739990234375,-0.71197509765625,-0.20892333984375
1783169919476739800,8.64073974609375,-3.187652587890625,-0.6307830810546875,-0.5049285888671875
1783169919486688000,8.65068798828125,-3.3073577880859375,-0.6492767333984375,-0.672637939453125
1783169919496637000,8.660636962890624,-3.3008270263671875,-0.6880035400390625,-0.7122955322265625
1783169919506585900,8.6705859375,-3.1673126220703125,-0.6785125732421875,-0.7128448486328125
1783169919516564700,8.680564697265625,-2.9227294921875,-0.7081146240234375,-0.67547607421875
1783169919526514000,8.690513916015625,-2.6367034912109375,-0.767120361328125,-0.571533203125
1783169919536462800,8.700462890625,-2.3343963623046875,-0.8035736083984375,-0.456268310546875
1783169919546480400,8.71048046875,-2.0119171142578125,-0.8270263671875,-0.358489990234375
1783169919556429300,8.72042919921875,-1.693572998046875,-0.830841064453125,-0.292236328125
1783169919566377500,8.73037744140625,-1.348480224609375,-0.815704345703125,-0.2593231201171875
1783169919576326400,8.740326416015625,-1.01568603515625,-0.7747955322265625,-0.2357330322265625
1783169919586305300,8.75030517578125,-0.7481536865234375,-0.71234130859375,-0.2107391357421875
1783169919596254500,8.76025439453125,-0.5124053955078125,-0.6420135498046875,-0.214996337890625
1783169919606203600,8.77020361328125,-0.318878173828125,-0.5557861328125,-0.23590087890625
1783169919616152600,8.780152587890624,-0.15789794921875,-0.45465087890625,-0.2229156494140625
1783169919626131500,8.79013134765625,-0.032867431640625,-0.343353271484375,-0.1730194091796875
1783169919636079600,8.80007958984375,0.0628509521484375,-0.256805419921875,-0.119598388671875
1783169919646028500,8.810028564453125,0.14410400390625,-0.20001220703125,-0.0783843994140625
1783169919656007400,8.82000732421875,0.218109130859375,-0.1628570556640625,-0.03857421875
1783169919665956600,8.82995654296875,0.275634765625,-0.140625,0.0101776123046875
1783169919675905500,8.839905517578124,0.30224609375,-0.1312103271484375,0.0589752197265625
1783169919685854500,8.8498544921875,0.2905120849609375,-0.1273040771484375,0.0899505615234375
1783169919695833300,8.859833251953125,0.2439422607421875,-0.1306915283203125,0.0984954833984375
1783169919705782500,8.869782470703125,0.1899566650390625,-0.1424713134765625,0.0878143310546875
1783169919715730400,8.87973046875,0.13037109375,-0.154541015625,0.0625457763671875
1783169919725710300,8.88971044921875,0.0623626708984375,-0.163116455078125,0.0301055908203125
1783169919735658500,8.899658447265624,0.012542724609375,-0.164581298828125,0.0100555419921875
1783169919745607400,8.909607421875,-0.0174102783203125,-0.1595611572265625,-0.0018463134765625
1783169919755556600,8.919556640625,-0.0360565185546875,-0.155731201171875,-0.008636474609375
1783169919765535500,8.929535400390625,-0.0634765625,-0.15191650390625,-0.018890380859375
1783169919775484700,8.939484619140625,-0.0938720703125,-0.14312744140625,-0.0114288330078125
1783169919785433600,8.94943359375,-0.1296234130859375,-0.13140869140625,0.0054931640625
1783169919795412500,8.95941259765625,-0.18701171875,-0.1106414794921875,0.01666259765625
1783169919805360600,8.969360595703124,-0.240997314453125,-0.0909271240234375,0.0196380615234375
1783169919815309600,8.9793095703125,-0.2950897216796875,-0.0774078369140625,0.013519287109375
1783169919825258500,8.989258544921874,-0.39324951171875,-0.0504608154296875,0.0102386474609375
1783169919835237400,8.9992373046875,-0.5539703369140625,-0.0310516357421875,0.0173187255859375
1783169919845186600,9.0091865234375,-0.789215087890625,0.0081787109375,0.0521240234375
1783169919855135500,9.019135498046875,-1.0003662109375,0.0644683837890625,0.075714111328125
1783169919865083400,9.02908349609375,-1.1279144287109375,0.10638427734375,0.0715179443359375
1783169919875063300,9.039063232421874,-1.2693939208984375,0.0864410400390625,0.022705078125
1783169919885011500,9.049011474609374,-1.42413330078125,0.00225830078125,-0.1134796142578125
1783169919894960400,9.05896044921875,-1.5845947265625,-0.13092041015625,-0.2262115478515625
1783169919904939500,9.068939453125,-1.7990570068359375,-0.3201446533203125,-0.2134857177734375
1783169919914888400,9.078888427734375,-1.981414794921875,-0.5384063720703125,-0.155731201171875
1783169919924837600,9.088837646484375,-2.1878204345703125,-0.75244140625,-0.1180572509765625
1783169919934786600,9.09878662109375,-2.3366241455078125,-0.879791259765625,-0.096710205078125
1783169919944765400,9.108765380859374,-2.3843536376953125,-0.9576568603515625,-0.2254486083984375
1783169919954714600,9.118714599609374,-2.4135284423828125,-1.02703857421875,-0.4149932861328125
1783169919964662500,9.12866259765625,-2.3462371826171875,-1.063873291015625,-0.535552978515625
1783169919974641700,9.1386416015625,-2.2886810302734375,-1.1162261962890625,-0.5917816162109375
1783169919984590600,9.148590576171875,-2.2127227783203125,-1.1475982666015625,-0.520111083984375
1783169919994539500,9.15853955078125,-2.0623626708984375,-1.1425628662109375,-0.3511962890625
1783169920004488400,9.168488525390625,-1.9946136474609375,-1.12677001953125,-0.20965576171875
1783169920014467600,9.178467529296874,-2.0043487548828125,-1.0736083984375,-0.084747314453125
1783169920024416500,9.18841650390625,-1.9240570068359375,-0.9827423095703125,-0.0104827880859375
1783169920034364400,9.198364501953124,-1.729248046875,-0.854400634765625,-0.06072998046875
1783169920044344300,9.20834423828125,-1.5342254638671875,-0.7116851806640625,-0.1578369140625
1783169920054292500,9.21829248046875,-1.3365936279296875,-0.586669921875,-0.23736572265625
1783169920064241400,9.228241455078125,-1.1276092529296875,-0.4991302490234375,-0.2825469970703125
1783169920074190300,9.2381904296875,-0.934906005859375,-0.427581787109375,-0.269744873046875
1783169920084169500,9.24816943359375,-0.7716827392578125,-0.3615570068359375,-0.2216796875
1783169920094118700,9.25811865234375,-0.6274566650390625,-0.306610107421875,-0.16668701171875
1783169920104067600,9.268067626953124,-0.48699951171875,-0.2803802490234375,-0.110565185546875
1783169920114015500,9.278015380859374,-0.3604278564453125,-0.26556396484375,-0.0682525634765625
1783169920123995600,9.28799560546875,-0.2490386962890625,-0.255645751953125,-0.035430908203125
1783169920133943600,9.297943603515625,-0.1425323486328125,-0.25799560546875,-0.0078277587890625
1783169920143892500,9.307892578125,-0.063568115234375,-0.2614288330078125,0.0118408203125
1783169920153871600,9.31787158203125,0.0191497802734375,-0.2691192626953125,0.042022705078125
1783169920163820500,9.327820556640624,0.1109771728515625,-0.2818603515625,0.076873779296875
1783169920173769500,9.33776953125,0.1947021484375,-0.3031158447265625,0.10107421875
1783169920183717400,9.34771728515625,0.256927490234375,-0.3097991943359375,0.1091766357421875
1783169920193697500,9.357697509765625,0.3024749755859375,-0.279266357421875,0.1173095703125
1783169920203645400,9.3676455078125,0.3329925537109375,-0.2327423095703125,0.1335906982421875
1783169920213594400,9.377594482421875,0.34759521484375,-0.2065582275390625,0.1737518310546875
1783169920223573500,9.387573486328124,0.328765869140625,-0.1891632080078125,0.211395263671875
1783169920233522400,9.3975224609375,0.2945404052734375,-0.1778717041015625,0.255615234375
1783169920243471400,9.407471435546874,0.2320404052734375,-0.1219024658203125,0.255035400390625
1783169920253420500,9.417420654296874,0.1786041259765625,-0.073150634765625,0.2786712646484375
1783169920263399700,9.427399658203125,0.158111572265625,-0.06085205078125,0.2719268798828125
1783169920273348600,9.4373486328125,0.1083831787109375,-0.0382843017578125,0.25103759765625
1783169920283296500,9.447296630859375,0.027191162109375,-0.018341064453125,0.2233428955078125
1783169920293276700,9.457276611328124,-0.005126953125,-0.0210723876953125,0.2137603759765625
1783169920303224600,9.467224609375,0.0126953125,-0.01666259765625,0.1957244873046875
1783169920313173500,9.477173583984374,-0.0116729736328125,0.0105133056640625,0.158233642578125
1783169920323122400,9.487122314453124,-0.09783935546875,0.0286712646484375,0.1156768798828125
1783169920333101600,9.4971015625,-0.19073486328125,0.037445068359375,0.0500335693359375
1783169920343050500,9.507050537109375,-0.3021392822265625,0.0514678955078125,-0.0307464599609375
1783169920352998400,9.516998291015625,-0.490478515625,0.04229736328125,-0.097930908203125
1783169920362947600,9.526947509765625,-0.682403564453125,0.0245208740234375,-0.194610595703125
1783169920372926500,9.536926513671874,-1.0112762451171875,0.0200958251953125,-0.2581329345703125
1783169920382875400,9.54687548828125,-1.2595977783203125,-0.03765869140625,-0.3605499267578125
1783169920392824300,9.55682421875,-1.6104583740234375,-0.0746612548828125,-0.5959625244140625
1783169920402803500,9.566803466796875,-2.2687835693359375,0.0206298828125,-0.7759857177734375
1783169920412752400,9.57675244140625,-2.858795166015625,0.0793609619140625,-0.86474609375
1783169920422701600,9.58670166015625,-3.307037353515625,0.0890045166015625,-0.9850006103515625
1783169920432649500,9.5966494140625,-3.5848236083984375,0.11834716796875,-1.2730560302734375
1783169920442629600,9.606629638671874,-3.754425048828125,0.086700439453125,-1.4280853271484375
1783169920452577500,9.61657763671875,-3.6805419921875,0.0517120361328125,-1.372344970703125
1783169920462526500,9.6265263671875,-3.3805084228515625,-0.0168914794921875,-1.2904205322265625
1783169920472505600,9.636505615234375,-3.06439208984375,-0.093292236328125,-1.1510467529296875
1783169920482454500,9.64645458984375,-2.7750396728515625,-0.1476898193359375,-0.9206085205078125
1783169920492403500,9.656403564453125,-2.5258941650390625,-0.2215576171875,-0.6919097900390625
1783169920502351600,9.6663515625,-2.2408294677734375,-0.3118133544921875,-0.501556396484375
1783169920512331500,9.67633154296875,-1.9133453369140625,-0.4220428466796875,-0.3929595947265625
1783169920522279400,9.686279541015624,-1.612030029296875,-0.503082275390625,-0.3429718017578125
1783169920532228400,9.696228271484374,-1.3563995361328125,-0.5281829833984375,-0.2983856201171875
1783169920542232000,9.706232177734375,-1.1533203125,-0.5278778076171875,-0.2357635498046875
1783169920552181000,9.716180908203125,-0.9469451904296875,-0.522369384765625,-0.189300537109375
1783169920562130000,9.7261298828125,-0.76934814453125,-0.5070037841796875,-0.14324951171875
1783169920572078800,9.736078857421875,-0.6089019775390625,-0.462158203125,-0.0838775634765625
1783169920582058000,9.74605810546875,-0.460968017578125,-0.4040069580078125,-0.0179290771484375
1783169920592007000,9.7560068359375,-0.3131561279296875,-0.351318359375,0.068603515625
1783169920601954800,9.765954833984376,-0.1696929931640625,-0.3163604736328125,0.14703369140625
1783169920611904000,9.775904052734376,-0.0267181396484375,-0.2733917236328125,0.2026214599609375
1783169920621883000,9.7858828125,0.0563201904296875,-0.252899169921875,0.2113037109375
1783169920631832000,9.79583203125,0.102020263671875,-0.2594146728515625,0.1748809814453125
1783169920641781000,9.805781005859375,0.1584320068359375,-0.256622314453125,0.153717041015625
1783169920651760000,9.815760009765626,0.194091796875,-0.2381744384765625,0.1730194091796875
1783169920661709000,9.825708984375,0.2210540771484375,-0.214111328125,0.1868743896484375
1783169920671657000,9.835656982421876,0.2156219482421875,-0.2036895751953125,0.1915740966796875
1783169920681606100,9.845606201171876,0.192840576171875,-0.2080230712890625,0.1908111572265625
1783169920691585000,9.8555849609375,0.169647216796875,-0.216461181640625,0.16796875
1783169920701534000,9.865533935546875,0.1351470947265625,-0.2002410888671875,0.1322479248046875
1783169920711483000,9.87548291015625,0.07623291015625,-0.178924560546875,0.1000518798828125
1783169920721462000,9.8854619140625,0.013336181640625,-0.1759185791015625,0.0589752197265625
1783169920731411000,9.895410888671876,-0.0348663330078125,-0.1500091552734375,-0.005706787109375
1783169920741359900,9.90535986328125,-0.0804595947265625,-0.1620330810546875,-0.014892578125
1783169920751308000,9.91530810546875,-0.1274871826171875,-0.146087646484375,-0.0204010009765625
1783169920761288000,9.925287841796875,-0.178863525390625,-0.109893798828125,-0.024810791015625
1783169920771235800,9.93523583984375,-0.2876434326171875,-0.08660888671875,-0.0403289794921875
1783169920781185000,9.94518505859375,-0.3642578125,-0.062774658203125,-0.0745697021484375
1783169920791164000,9.955163818359376,-0.37164306640625,-0.0399627685546875,-0.1478424072265625
1783169920801113000,9.965113037109376,-0.307708740234375,-0.0186004638671875,-0.2207489013671875
1783169920811062000,9.97506201171875,-0.2936553955078125,0.0175933837890625,-0.246368408203125
1783169920821010200,9.98501025390625,-0.43994140625,0.071624755859375,-0.2601318359375
1783169920830990000,9.994989990234375,-0.7746429443359375,0.1474761962890625,-0.2922210693359375
1783169920840938000,10.00493798828125,-1.115264892578125,0.21710205078125,-0.3054656982421875
1783169920850887200,10.01488720703125,-1.3565216064453125,0.2403106689453125,-0.356231689453125
1783169920860836000,10.024836181640625,-1.5595703125,0.2179412841796875,-0.4141845703125
1783169920870815000,10.03481494140625,-1.9163665771484375,0.1734161376953125,-0.4214324951171875
1783169920880764000,10.044763916015626,-2.5871429443359375,0.1526641845703125,-0.3822784423828125
1783169920890713000,10.054713134765626,-2.94097900390625,0.1042327880859375,-0.4374237060546875
1783169920900692000,10.06469189453125,-2.842193603515625,0.010101318359375,-0.619354248046875
1783169920910641000,10.074640869140625,-2.849822998046875,0.087921142578125,-0.6844482421875
1783169920920589000,10.084589111328125,-3.02789306640625,0.347442626953125,-0.6372833251953125
1783169920930538000,10.0945380859375,-2.9161224365234375,0.43353271484375,-0.6784210205078125
1783169920940516900,10.104516845703126,-2.6674652099609375,0.4263916015625,-0.8012847900390625
1783169920950465800,10.1144658203125,-2.4260711669921875,0.3585662841796875,-0.8560638427734375
1783169920960415200,10.124415283203126,-2.4118499755859375,0.3289337158203125,-0.8106536865234375
1783169920970394000,10.13439404296875,-2.325286865234375,0.3006439208984375,-0.728485107421875
1783169920980343000,10.144343017578125,-2.15704345703125,0.22991943359375,-0.6334228515625
1783169920990291200,10.154291259765625,-2.001068115234375,0.0893096923828125,-0.6317596435546875
1783169921000240000,10.164240234375,-1.749725341796875,-0.045074462890625,-0.654449462890625
1783169921010219000,10.174218994140626,-1.573638916015625,-0.051025390625,-0.594818115234375
1783169921020168200,10.184168212890626,-1.4125213623046875,-0.0789031982421875,-0.5010528564453125
1783169921030117000,10.1941171875,-1.1424407958984375,-0.1866455078125,-0.45025634765625
1783169921040096000,10.204095947265625,-0.8628997802734375,-0.3296356201171875,-0.4237518310546875
1783169921050045000,10.214044921875,-0.7778167724609375,-0.4705657958984375,-0.4213409423828125
1783169921059993900,10.223993896484375,-0.6873931884765625,-0.54925537109375,-0.445159912109375
1783169921069942000,10.23394189453125,-0.494293212890625,-0.597412109375,-0.378265380859375
1783169921079922000,10.243921875,-0.2032623291015625,-0.506103515625,-0.0391998291015625
1783169921089870000,10.2538701171875,0.0665283203125,-0.365386962890625,0.3891754150390625
1783169921099819000,10.263819091796876,-0.10125732421875,-0.59771728515625,0.1369171142578125
1783169921109768000,10.273767822265626,-0.122802734375,-0.807373046875,-0.1830902099609375
1783169921119746800,10.283746826171875,0.0175323486328125,-0.7130584716796875,-0.086700439453125
1783169921129696300,10.2936962890625,0.0327301025390625,-0.5776824951171875,-0.0815277099609375
1783169921139645200,10.303645263671875,0.0595855712890625,-0.5394287109375,-0.1452484130859375
1783169921149624000,10.3136240234375,0.17578125,-0.527069091796875,-0.1450347900390625
1783169921159572200,10.323572265625,0.2437591552734375,-0.490814208984375,-0.1360015869140625
1783169921169521200,10.333521240234376,0.2673797607421875,-0.46014404296875,-0.1137237548828125
1783169921179470000,10.343469970703126,0.2891082763671875,-0.458892822265625,-0.081573486328125
1783169921189449000,10.353448974609375,0.3023223876953125,-0.453155517578125,-0.0674896240234375
1783169921199398100,10.363398193359375,0.288970947265625,-0.411773681640625,-0.05517578125
1783169921209347000,10.37334716796875,0.2563629150390625,-0.3682708740234375,-0.0641326904296875
1783169921219326000,10.383325927734376,0.206939697265625,-0.30047607421875,-0.0801544189453125
1783169921229275000,10.39327490234375,0.1410369873046875,-0.253021240234375,-0.1034088134765625
1783169921239223000,10.40322314453125,0.044921875,-0.21905517578125,-0.1143798828125
1783169921249172000,10.413171875,-0.0630340576171875,-0.1642303466796875,-0.12969970703125
1783169921259151000,10.423151123046875,-0.10650634765625,-0.115020751953125,-0.1848907470703125
1783169921269100000,10.43310009765625,-0.1438751220703125,-0.0916290283203125,-0.187255859375
1783169921279049000,10.443049072265625,-0.2722320556640625,-0.0870361328125,-0.165618896484375
1783169921289027800,10.45302783203125,-0.4137420654296875,-0.0971221923828125,-0.158721923828125
1783169921298977000,10.46297705078125,-0.574188232421875,-0.1101226806640625,-0.167572021484375
1783169921308926200,10.47292626953125,-0.692535400390625,-0.13568115234375,-0.1980133056640625
1783169921318874000,10.4828740234375,-0.7998046875,-0.1599884033203125,-0.2231903076171875
1783169921328854000,10.49285400390625,-1.1451568603515625,-0.1777191162109375,-0.1642608642578125
1783169921338802200,10.50280224609375,-1.50830078125,-0.260894775390625,-0.077239990234375
1783169921348751000,10.512751220703125,-1.7398681640625,-0.378509521484375,-0.093536376953125
1783169921358700000,10.522699951171875,-2.083587646484375,-0.3769683837890625,-0.095855712890625
1783169921368679200,10.53267919921875,-2.489532470703125,-0.28118896484375,-0.0563507080078125
1783169921378628000,10.542628173828126,-2.680938720703125,-0.191802978515625,-0.0652923583984375
1783169921388576000,10.552575927734376,-2.7683868408203125,-0.0770416259765625,-0.090911865234375
1783169921398556000,10.562555908203125,-2.8283538818359375,0.0744781494140625,-0.1138153076171875
1783169921408504000,10.572504150390625,-2.8029327392578125,0.125396728515625,-0.168853759765625
1783169921418453000,10.582452880859375,-2.7381439208984375,0.1011199951171875,-0.2662353515625
1783169921428402000,10.59240185546875,-2.7109222412109375,0.09722900390625,-0.4017333984375
1783169921438381000,10.602381103515626,-2.6555633544921875,0.074371337890625,-0.598663330078125
1783169921448330000,10.612330078125,-2.3477020263671875,0.0288543701171875,-0.7457275390625
1783169921458279200,10.622279052734376,-1.907012939453125,0.1005706787109375,-0.771148681640625
1783169921468258000,10.632258056640625,-1.5235443115234375,0.2908477783203125,-0.715301513671875
1783169921478207200,10.642207275390625,-1.2836761474609375,0.584991455078125,-0.53118896484375
1783169921488155100,10.652155029296875,-1.2026824951171875,0.8894500732421875,-0.260223388671875
1783169921498104000,10.66210400390625,-1.022125244140625,0.8203887939453125,-0.0864105224609375
1783169921508083200,10.672083251953126,-0.700927734375,0.72332763671875,0.153533935546875
1783169921518032100,10.6820322265625,-0.6651458740234375,0.7285919189453125,0.5229949951171875
1783169921527981000,10.69198095703125,-0.9546356201171875,0.315093994140625,0.669586181640625
1783169921537960000,10.7019599609375,-1.1007843017578125,-0.0036163330078125,0.5753173828125
1783169921547934000,10.711933837890625,-1.1032257080078125,-0.039337158203125,0.3775634765625
1783169921557882000,10.721882080078124,-0.93304443359375,-0.048065185546875,0.190093994140625
1783169921567831000,10.7318310546875,-0.7330322265625,0.0030975341796875,0.0236053466796875
1783169921577810200,10.74181005859375,-0.628143310546875,0.1409454345703125,-0.0993499755859375
1783169921587759000,10.751759033203125,-0.5960693359375,0.202362060546875,-0.1756134033203125
1783169921597708300,10.761708251953126,-0.56695556640625,0.0067596435546875,-0.1187744140625
1783169921607657200,10.7716572265625,-0.421600341796875,-0.2245025634765625,-0.033050537109375
1783169921617636000,10.781635986328125,-0.1746368408203125,-0.3270263671875,0.0699310302734375
1783169921627585300,10.791585205078125,-0.1269989013671875,-0.208038330078125,0.049224853515625
1783169921637533200,10.801533203125,-0.2471160888671875,-0.0449981689453125,-0.063873291015625
1783169921647513000,10.81151318359375,-0.35162353515625,-0.0365753173828125,-0.1226654052734375
1783169921657461200,10.821461181640625,-0.39837646484375,-0.1206817626953125,-0.037017822265625
1783169921667410200,10.83141015625,-0.3531341552734375,-0.0999908447265625,0.1104736328125
1783169921677359000,10.841359130859376,-0.300689697265625,-0.0236663818359375,0.1894073486328125
1783169921687338200,10.851338134765625,-0.324188232421875,-0.0016326904296875,0.156646728515625
1783169921697287200,10.861287109375,-0.46368408203125,-0.007965087890625,0.0424041748046875
1783169921707235000,10.871235107421874,-0.533294677734375,0.0013885498046875,-0.053131103515625
1783169921717215000,10.881215087890626,-0.3902130126953125,0.0584259033203125,-0.0551910400390625
1783169921727163100,10.8911630859375,-0.246795654296875,0.0680389404296875,-0.029327392578125
1783169921737112000,10.901112060546875,-0.2514190673828125,0.02911376953125,-0.0204925537109375
1783169921747061000,10.91106103515625,-0.3678131103515625,0.0440521240234375,-0.0228118896484375
1783169921757040000,10.9210400390625,-0.415191650390625,0.0494537353515625,-0.0545196533203125
1783169921766989000,10.930989013671875,-0.3878631591796875,-0.001495361328125,-0.084686279296875
1783169921776938200,10.940938232421875,-0.4026641845703125,-0.0667572021484375,-0.0957183837890625
1783169921786917000,10.950917236328126,-0.4431304931640625,-0.114105224609375,-0.074005126953125
1783169921796866300,10.9608662109375,-0.519134521484375,-0.149383544921875,-0.07843017578125
1783169921806814200,10.970814208984375,-0.576751708984375,-0.2760009765625,-0.1044464111328125
1783169921816763100,10.98076318359375,-0.7367401123046875,-0.3823089599609375,-0.095672607421875
1783169921826742300,10.9907421875,-0.902587890625,-0.52557373046875,-0.0758056640625
1783169921836691200,11.000691162109375,-1.101898193359375,-0.7298126220703125,-0.0660858154296875
1783169921846640000,11.01064013671875,-1.2335662841796875,-0.84979248046875,-0.0886688232421875
1783169921856588000,11.020588134765624,-1.341644287109375,-0.8928070068359375,-0.0996246337890625
1783169921866568200,11.030568115234376,-1.6376953125,-0.8032379150390625,-0.0490264892578125
1783169921876516000,11.04051611328125,-1.5972442626953125,-0.73291015625,0.03070068359375
1783169921886465000,11.050465087890625,-1.51092529296875,-0.6631622314453125,0.14056396484375
1783169921896444200,11.060444091796874,-1.6086273193359375,-0.6468353271484375,0.2794952392578125
1783169921906393000,11.07039306640625,-1.735809326171875,-0.6949920654296875,0.4227752685546875
1783169921916342000,11.080342041015625,-1.715301513671875,-0.70941162109375,0.5019073486328125
1783169921926291000,11.090291015625,-1.8468780517578125,-0.6686859130859375,0.5386199951171875
1783169921936270000,11.10027001953125,-1.9823150634765625,-0.62506103515625,0.490814208984375
1783169921946219300,11.11021923828125,-1.9341278076171875,-0.5534515380859375,0.3712158203125
1783169921956167200,11.120167236328125,-1.7337188720703125,-0.4395294189453125,0.2282562255859375
1783169921966147000,11.13014697265625,-1.4432220458984375,-0.2989349365234375,0.1148681640625
1783169921976095200,11.14009521484375,-1.1457672119140625,-0.236480712890625,0.0750885009765625
1783169921986044200,11.150044189453125,-0.9553375244140625,-0.2867889404296875,0.0852203369140625
1783169921995993000,11.1599931640625,-0.8583221435546875,-0.379608154296875,0.114898681640625
1783169922005972200,11.16997216796875,-0.7893524169921875,-0.485107421875,0.129241943359375
1783169922015921200,11.179921142578126,-0.720794677734375,-0.585723876953125,0.0779876708984375
1783169922025869000,11.189869140625,-0.6749114990234375,-0.6253814697265625,-0.0275726318359375
1783169922035849200,11.19984912109375,-0.6450347900390625,-0.6269073486328125,-0.1092987060546875
1783169922045797000,11.209797119140624,-0.6024169921875,-0.6095428466796875,-0.165771484375
1783169922055746000,11.21974609375,-0.5623626708984375,-0.5373077392578125,-0.2040557861328125
1783169922065695000,11.229695068359375,-0.51116943359375,-0.443572998046875,-0.237396240234375
1783169922075674000,11.239674072265625,-0.445892333984375,-0.420623779296875,-0.230926513671875
1783169922085623000,11.249623046875,-0.4206085205078125,-0.42938232421875,-0.1754913330078125
1783169922095572000,11.259572021484376,-0.4330291748046875,-0.460174560546875,-0.1075439453125
1783169922105520000,11.26952001953125,-0.4372406005859375,-0.49761962890625,-0.0187835693359375
1783169922115500300,11.279500244140625,-0.4162139892578125,-0.50787353515625,0.054840087890625
1783169922125448200,11.2894482421875,-0.3756103515625,-0.4654541015625,0.082275390625
1783169922135397000,11.299397216796875,-0.3162994384765625,-0.41705322265625,0.0867767333984375
1783169922145376300,11.309376220703125,-0.3171234130859375,-0.347503662109375,0.049560546875
1783169922155325200,11.3193251953125,-0.3633270263671875,-0.2728729248046875,-0.00750732421875
1783169922165274000,11.329274169921876,-0.3697509765625,-0.2519683837890625,-0.04937744140625
1783169922175222300,11.33922216796875,-0.3539581298828125,-0.2454376220703125,-0.070648193359375
1783169922185202200,11.3492021484375,-0.347686767578125,-0.243499755859375,-0.063873291015625
1783169922195150000,11.359150146484374,-0.359161376953125,-0.2423248291015625,-0.0475921630859375
1783169922205099000,11.36909912109375,-0.377532958984375,-0.2394866943359375,-0.0309600830078125
1783169922215078100,11.379078125,-0.37689208984375,-0.2585906982421875,-0.020721435546875
1783169922225027000,11.389027099609375,-0.3504638671875,-0.298858642578125,-0.011688232421875
1783169922234976000,11.39897607421875,-0.33441162109375,-0.334259033203125,0.0000762939453125
1783169922244925000,11.408925048828126,-0.363983154296875,-0.3504791259765625,0.0001220703125
1783169922254904000,11.418904052734375,-0.4325408935546875,-0.37042236328125,-0.0071258544921875
1783169922264853000,11.42885302734375,-0.5129547119140625,-0.4130859375,-0.0097198486328125
1783169922274801000,11.43880078125,-0.6115264892578125,-0.51776123046875,-0.0256195068359375
1783169922284781300,11.44878125,-0.71527099609375,-0.6204833984375,-0.036224365234375
1783169922294729000,11.45872900390625,-0.81500244140625,-0.6378631591796875,-0.0642852783203125
1783169922304678100,11.46867822265625,-0.9107513427734375,-0.5721588134765625,-0.11199951171875
1783169922314627000,11.478626953125,-1.05615234375,-0.494720458984375,-0.1171722412109375
1783169922324606200,11.488606201171875,-1.280059814453125,-0.5609893798828125,-0.02496337890625
1783169922334555100,11.49855517578125,-1.6425018310546875,-0.7674560546875,0.14532470703125
1783169922344504000,11.508504150390625,-2.06793212890625,-0.8692779541015625,0.2993927001953125
1783169922354452200,11.5184521484375,-2.28045654296875,-0.77203369140625,0.338226318359375
1783169922364431000,11.52843115234375,-2.283782958984375,-0.630615234375,0.2462005615234375
1783169922374380000,11.538380126953125,-2.33660888671875,-0.5014495849609375,0.1034088134765625
1783169922384329000,11.548328857421875,-2.420745849609375,-0.449066162109375,-0.005706787109375
1783169922394308000,11.55830810546875,-2.479248046875,-0.4758758544921875,-0.0403594970703125
1783169922404257000,11.568257080078125,-2.470306396484375,-0.4901580810546875,-0.0378875732421875
1783169922414206000,11.5782060546875,-2.3721923828125,-0.49560546875,0.0089569091796875
1783169922424154000,11.588154052734374,-2.2505340576171875,-0.5151519775390625,0.06463623046875
1783169922434134000,11.598134033203126,-2.118194580078125,-0.5348052978515625,0.0969696044921875
1783169922444082000,11.60808203125,-1.929718017578125,-0.5499725341796875,0.1057586669921875
1783169922454031000,11.618031005859375,-1.681793212890625,-0.5372467041015625,0.117218017578125
1783169922464010000,11.628010009765624,-1.4470367431640625,-0.47802734375,0.1361541748046875
1783169922473959200,11.637959228515625,-1.2389678955078125,-0.4268646240234375,0.1386260986328125
1783169922483908000,11.647908203125,-1.042083740234375,-0.435272216796875,0.113037109375
1783169922493857000,11.65785693359375,-0.8756103515625,-0.4683685302734375,0.067474365234375
1783169922503836200,11.667836181640626,-0.731658935546875,-0.4667510986328125,0.012969970703125
1783169922513785000,11.67778515625,-0.5808868408203125,-0.4163360595703125,-0.0308380126953125
1783169922523733200,11.687733154296875,-0.4298858642578125,-0.3590850830078125,-0.0587921142578125
1783169922533712100,11.697712158203124,-0.2949981689453125,-0.3198394775390625,-0.073944091796875
1783169922543671600,11.707671630859375,-0.1825408935546875,-0.30072021484375,-0.06427001953125
1783169922553620500,11.717620361328125,-0.0927581787109375,-0.2974090576171875,-0.02972412109375
1783169922563569700,11.727569580078125,-0.029693603515625,-0.304290771484375,0.0203094482421875
1783169922573548500,11.737548583984376,-0.005828857421875,-0.318817138671875,0.0719451904296875
1783169922583497500,11.74749755859375,-0.0231475830078125,-0.324493408203125,0.0883026123046875
1783169922593445600,11.757445556640626,-0.07061767578125,-0.2864990234375,0.082855224609375
1783169922603394600,11.76739453125,-0.1150970458984375,-0.2762908935546875,0.168731689453125
1783169922613373400,11.77737353515625,-0.1125030517578125,-0.3499298095703125,0.1792755126953125
1783169922623322600,11.787322509765625,-0.106536865234375,-0.4219970703125,0.1523284912109375
1783169922633271800,11.797271728515625,-0.148284912109375,-0.412445068359375,0.14532470703125
1783169922643250700,11.807250732421876,-0.211090087890625,-0.3232269287109375,0.1395263671875
1783169922653199600,11.81719970703125,-0.23876953125,-0.230010986328125,0.117156982421875
1783169922663148500,11.8271484375,-0.2209625244140625,-0.183441162109375,0.0800323486328125
1783169922673096700,11.8370966796875,-0.2126922607421875,-0.1766815185546875,0.0547943115234375
1783169922683076600,11.84707666015625,-0.222625732421875,-0.1877288818359375,0.0131378173828125
1783169922693024500,11.8570244140625,-0.23345947265625,-0.190185546875,-0.037628173828125
1783169922702973700,11.8669736328125,-0.2564849853515625,-0.1684722900390625,-0.0676116943359375
1783169922712952600,11.87695263671875,-0.2707061767578125,-0.142181396484375,-0.1023101806640625
1783169922722901500,11.886901611328126,-0.2656097412109375,-0.0976104736328125,-0.1259765625
1783169922732850400,11.896850341796876,-0.26605224609375,-0.03509521484375,-0.1239471435546875
1783169922742798600,11.906798583984376,-0.230865478515625,-0.01025390625,-0.11627197265625
1783169922752778500,11.916778564453125,-0.000701904296875,-0.0468292236328125,0.0527496337890625
1783169922762726700,11.9267265625,-0.3020172119140625,-0.2124786376953125,0.2361297607421875
1783169922772675600,11.936675537109375,-0.5623779296875,-0.3104095458984375,0.142425537109375
1783169922782654500,11.946654541015626,-0.589752197265625,-0.3226470947265625,0.0831756591796875
1783169922792603400,11.956603271484376,-0.669525146484375,-0.43377685546875,0.1278839111328125
1783169922802552600,11.966552490234376,-0.803619384765625,-0.5650634765625,0.1570892333984375
1783169922812501800,11.976501708984374,-1.006591796875,-0.6385345458984375,0.1114349365234375
