time,seconds_elapsed,z,y,x
1783152040431287800,0.159287841796875,-0.154541015625,-0.0500946044921875,0.66217041015625
1783152040440992300,0.1689921875,-0.23699951171875,0.255340576171875,-0.322540283203125
1783152040460493000,0.1884931640625,-0.2736663818359375,0.3591766357421875,-0.0097808837890625
1783152040470228200,0.198228271484375,-0.2883148193359375,0.3481903076171875,0.1679840087890625
1783152040479963100,0.207963134765625,-0.2889251708984375,0.2516632080078125,0.327423095703125
1783152040489698300,0.2176982421875,-0.2748870849609375,0.115447998046875,0.4544677734375
1783152040499403000,0.227403076171875,-0.2492218017578125,-0.0146636962890625,0.5363311767578125
1783152040509107500,0.237107421875,-0.2107391357421875,-0.113616943359375,0.577880859375
1783152040518842600,0.246842529296875,-0.1685791015625,-0.166778564453125,0.585205078125
1783152040528547300,0.25654736328125,-0.1398773193359375,-0.1881561279296875,0.5699310302734375
1783152040538251800,0.266251708984375,-0.1325531005859375,-0.1838836669921875,0.5393829345703125
1783152040547956500,0.27595654296875,-0.1417083740234375,-0.1466064453125,0.4972381591796875
1783152040557691400,0.28569140625,-0.1698150634765625,-0.07086181640625,0.4514312744140625
1783152040567396000,0.29539599609375,-0.2089080810546875,0.07757568359375,0.4324798583984375
1783152040577100800,0.305100830078125,-0.2547149658203125,0.270599365234375,0.474639892578125
1783152040586805200,0.31480517578125,-0.2938079833984375,0.4221038818359375,0.5931396484375
1783152040596510000,0.324510009765625,-0.3182525634765625,0.485015869140625,0.7849578857421875
1783152040606244900,0.334244873046875,-0.327423095703125,0.43798828125,1.0299072265625
1783152040615949600,0.343949462890625,-0.3304595947265625,0.2425079345703125,1.2510528564453125
1783152040625654300,0.353654296875,-0.327423095703125,-0.0928497314453125,1.36773681640625
1783152040635358700,0.363358642578125,-0.2803802490234375,-0.4398193359375,1.3848419189453125
1783152040645094000,0.373093994140625,-0.1698150634765625,-0.6224822998046875,1.36895751953125
1783152040654829000,0.3828291015625,-0.0378570556640625,-0.5241241455078125,1.3988800048828125
1783152040664533500,0.392533447265625,0.06414794921875,-0.175933837890625,1.5296173095703125
1783152040674238200,0.40223828125,0.118499755859375,0.2198944091796875,1.7195892333984375
1783152040683973000,0.41197314453125,0.127685546875,0.3817901611328125,1.8393096923828125
1783152040693677800,0.421677734375,0.094696044921875,0.2809906005859375,1.8252716064453125
1783152040703382500,0.431382568359375,0.0403289794921875,0.1148223876953125,1.7244720458984375
1783152040713087000,0.4410869140625,-0.0177001953125,-0.104461669921875,1.5748138427734375
1783152040722791700,0.450791748046875,-0.09039306640625,-0.6145477294921875,1.3011474609375
1783152040732526600,0.460526611328125,-0.1636962890625,-1.400726318359375,0.8295440673828125
1783152040742231300,0.470231201171875,-0.182647705078125,-2.010986328125,0.2828216552734375
1783152040751936000,0.47993603515625,-0.190582275390625,-2.22296142578125,-0.1618804931640625
1783152040761640400,0.489640380859375,-0.24005126953125,-2.1319427490234375,-0.4441070556640625
1783152040771375600,0.499375732421875,-0.2925872802734375,-1.8185577392578125,-0.5662689208984375
1783152040781080000,0.509080078125,-0.2925872802734375,-1.36041259765625,-0.57666015625
1783152040790784800,0.51878466796875,-0.2534942626953125,-0.8753814697265625,-0.5552825927734375
1783152040800489500,0.528489501953125,-0.2180633544921875,-0.455108642578125,-0.5797119140625
1783152040810224400,0.538224365234375,-0.2107391357421875,-0.1343841552734375,-0.670745849609375
1783152040819929000,0.54792919921875,-0.22601318359375,0.1032257080078125,-0.8136749267578125
1783152040829633500,0.557633544921875,-0.2461700439453125,0.2913665771484375,-0.9993896484375
1783152040839338200,0.567338134765625,-0.2467803955078125,0.483795166015625,-1.2113494873046875
1783152040849043000,0.57704296875,-0.2125701904296875,0.764190673828125,-1.4111175537109375
1783152040858777900,0.58677783203125,-0.15576171875,1.1374359130859375,-1.5528411865234375
1783152040868482600,0.596482666015625,-0.08612060546875,1.52044677734375,-1.6016998291015625
1783152040878187000,0.60618701171875,-0.003662109375,1.8313751220703125,-1.5326690673828125
1783152040887891700,0.6158916015625,0.0855255126953125,2.0024261474609375,-1.323760986328125
1783152040897627000,0.625626953125,0.178985595703125,1.95416259765625,-0.9810638427734375
1783152040907331300,0.635331298828125,0.285888671875,1.66094970703125,-0.5247344970703125
1783152040917036000,0.6450361328125,0.4001312255859375,1.16064453125,0.0030364990234375
1783152040926740500,0.654740478515625,0.49908447265625,0.4880828857421875,0.550994873046875
1783152040936475600,0.6644755859375,0.5473480224609375,-0.253509521484375,1.0610809326171875
1783152040946210800,0.6742109375,0.528411865234375,-0.8656005859375,1.483184814453125
1783152040955915300,0.683915283203125,0.431884765625,-1.295654296875,1.769073486328125
1783152040965620000,0.693619873046875,0.2693939208984375,-1.5619964599609375,1.8692474365234375
1783152040975324700,0.70332470703125,0.0885772705078125,-1.6304168701171875,1.778839111328125
1783152040985059600,0.7130595703125,-0.0732879638671875,-1.4819793701171875,1.5387725830078125
1783152040994764300,0.722764404296875,-0.2150115966796875,-1.1771392822265625,1.1881256103515625
1783152041004468700,0.73246875,-0.337799072265625,-0.850341796875,0.759307861328125
1783152041014173400,0.74217333984375,-0.44287109375,-0.5161895751953125,0.3084716796875
1783152041023908600,0.75190869140625,-0.5338897705078125,-0.099578857421875,-0.0922393798828125
1783152041033613000,0.761613037109375,-0.6114654541015625,0.3494110107421875,-0.400726318359375
1783152041043317800,0.77131787109375,-0.65972900390625,0.7269134521484375,-0.595001220703125
1783152041053022200,0.781022216796875,-0.66094970703125,1.053131103515625,-0.6585235595703125
1783152041062727000,0.790726806640625,-0.632232666015625,1.44287109375,-0.5760498046875
1783152041072462000,0.800462158203125,-0.620025634765625,1.8704681396484375,-0.3824005126953125
1783152041082166500,0.81016650390625,-0.6853790283203125,1.9376678466796875,-0.2266387939453125
1783152041091871200,0.819871337890625,-0.847259521484375,1.4385833740234375,-0.2327423095703125
1783152041101575700,0.82957568359375,-1.046417236328125,0.835662841796875,-0.3659210205078125
1783152041111310800,0.839310791015625,-1.265716552734375,0.4880828857421875,-0.540618896484375
1783152041121015600,0.849015625,-1.5039520263671875,0.329864501953125,-0.7715301513671875
1783152041130720000,0.858719970703125,-1.6517791748046875,0.36956787109375,-1.06842041015625
1783152041140424700,0.8684248046875,-1.632843017578125,0.7318115234375,-1.35064697265625
1783152041150160000,0.878159912109375,-1.4740142822265625,1.3377838134765625,-1.539398193359375
1783152041159864300,0.8878642578125,-1.271209716796875,1.856414794921875,-1.6273651123046875
1783152041169569000,0.897569091796875,-1.09527587890625,2.0476226806640625,-1.6664581298828125
1783152041179273500,0.9072734375,-0.9700469970703125,1.9486541748046875,-1.7012786865234375
1783152041188978200,0.916978271484375,-0.8955230712890625,1.67254638671875,-1.7336578369140625
1783152041198713300,0.92671337890625,-0.8283233642578125,1.3292388916015625,-1.7336578369140625
1783152041208417800,0.936417724609375,-0.7256927490234375,0.982269287109375,-1.695770263671875
1783152041218153000,0.946153076171875,-0.5772552490234375,0.6383514404296875,-1.65240478515625
1783152041227857400,0.955857421875,-0.3249664306640625,0.2595977783203125,-1.5974273681640625
1783152041237592600,0.965592529296875,0.0537567138671875,-0.1460113525390625,-1.4923553466796875
1783152041247297300,0.97529736328125,0.5100860595703125,-0.5094757080078125,-1.3011627197265625
1783152041257001700,0.985001708984375,0.9786224365234375,-0.740997314453125,-1.0079345703125
1783152041266706400,0.99470654296875,1.400726318359375,-0.7696990966796875,-0.6322479248046875
1783152041276441600,1.004441650390625,1.7391510009765625,-0.6682891845703125,-0.20587158203125
1783152041286146000,1.01414599609375,1.9798431396484375,-0.5479583740234375,0.22601318359375
1783152041295850800,1.023850830078125,2.1246185302734375,-0.424560546875,0.620025634765625
1783152041305555200,1.03355517578125,2.1710357666015625,-0.2822265625,0.9401092529296875
1783152041315260000,1.043260009765625,2.114837646484375,-0.1899871826171875,1.1673583984375
1783152041324995000,1.0529951171875,1.974334716796875,-0.177764892578125,1.3109130859375
1783152041334699500,1.062699462890625,1.7703094482421875,-0.2235870361328125,1.3958282470703125
1783152041344404200,1.072404296875,1.5198516845703125,-0.2993316650390625,1.44287109375
1783152041354108700,1.082108642578125,1.2431182861328125,-0.384857177734375,1.4709625244140625
1783152041363843800,1.09184375,0.9505157470703125,-0.4783172607421875,1.4825592041015625
1783152041373548500,1.101548583984375,0.6267547607421875,-0.537567138671875,1.492950439453125
1783152041383253000,1.1112529296875,0.2767181396484375,-0.5247344970703125,1.5015106201171875
1783152041392957700,1.120957763671875,-0.046417236328125,-0.4312744140625,1.5076141357421875
1783152041402692600,1.130692626953125,-0.2803802490234375,-0.254730224609375,1.51373291015625
1783152041412397300,1.140397216796875,-0.410491943359375,-0.042144775390625,1.51495361328125
1783152041422102000,1.15010205078125,-0.4544677734375,0.1453704833984375,1.492340087890625
1783152041441511200,1.16951123046875,-0.2608184814453125,0.3518524169921875,1.424530029296875
1783152041451246000,1.17924609375,-0.015869140625,0.5992431640625,1.4343109130859375
1783152041460950800,1.18895068359375,0.255950927734375,0.9291229248046875,1.424530029296875
1783152041470655500,1.198655517578125,0.4874725341796875,1.1673583984375,1.3109130859375
1783152041480360000,1.20835986328125,0.6615753173828125,1.1740875244140625,1.0623016357421875
1783152041490095000,1.21809521484375,0.7721405029296875,0.8912506103515625,0.6853790283203125
1783152041499799600,1.227799560546875,0.8442230224609375,0.51678466796875,0.269378662109375
1783152041509534700,1.23753466796875,0.86376953125,0.23883056640625,-0.07574462890625
1783152041519239400,1.247239501953125,0.8094024658203125,0.0659637451171875,-0.3084869384765625
1783152041528974300,1.256974365234375,0.759918212890625,0.0201416015625,-0.4080657958984375
1783152041538679000,1.266678955078125,0.7715301513671875,0.0610809326171875,-0.390960693359375
1783152041548383700,1.2763837890625,0.8320159912109375,0.0751190185546875,-0.3023834228515625
1783152041558088200,1.286088134765625,0.886993408203125,-0.0085601806640625,-0.2309112548828125
1783152041567793000,1.29579296875,0.886993408203125,-0.2376251220703125,-0.281005859375
1783152041577527800,1.30552783203125,0.821624755859375,-0.540618896484375,-0.4569244384765625
1783152041587232500,1.315232421875,0.7330474853515625,-0.78558349609375,-0.6682891845703125
1783152041596937200,1.324937255859375,0.6579132080078125,-0.85400390625,-0.8686676025390625
1783152041606641700,1.3346416015625,0.5980377197265625,-0.6951751708984375,-1.0855255126953125
1783152041616376800,1.344376953125,0.50823974609375,-0.318878173828125,-1.3738555908203125
1783152041626081300,1.354081298828125,0.35858154296875,0.196685791015625,-1.7470855712890625
1783152041635786000,1.363785888671875,0.1979217529296875,0.7483062744140625,-2.122772216796875
1783152041645490700,1.37349072265625,0.097137451171875,1.279754638671875,-2.3836212158203125
1783152041655195100,1.383195068359375,0.0910186767578125,1.696990966796875,-2.4501953125
1783152041664930300,1.392930419921875,0.1569976806640625,1.8722991943359375,-2.2883148193359375
1783152041674634800,1.402634765625,0.249237060546875,1.8026580810546875,-1.9150848388671875
1783152041684339500,1.41233935546875,0.322540283203125,1.5980224609375,-1.386077880859375
1783152041694044200,1.422044189453125,0.34576416015625,1.3585662841796875,-0.7703094482421875
1783152041703779000,1.431779052734375,0.3121490478515625,1.1099395751953125,-0.1502685546875
1783152041713483800,1.44148388671875,0.2388458251953125,0.844207763671875,0.412322998046875
1783152041723188200,1.451188232421875,0.1502685546875,0.5766448974609375,0.8753662109375
1783152041732893000,1.460892822265625,0.0849151611328125,0.331085205078125,1.22906494140625
1783152041742628000,1.470628173828125,0.06048583984375,0.134368896484375,1.4764556884765625
1783152041752332500,1.48033251953125,0.0586395263671875,0,1.634674072265625
1783152041762037200,1.490037353515625,0.0458221435546875,-0.0910186767578125,1.7226409912109375
1783152041771741700,1.49974169921875,-0.0066986083984375,-0.1924285888671875,1.7525787353515625
1783152041781476900,1.509476806640625,-0.1087188720703125,-0.325592041015625,1.7391357421875
1783152041791212000,1.5192119140625,-0.269378662109375,-0.4312744140625,1.696990966796875
1783152041800916500,1.52891650390625,-0.4954071044921875,-0.4520416259765625,1.630401611328125
1783152041810621200,1.53862109375,-0.775787353515625,-0.36224365234375,1.5387725830078125
1783152041820326000,1.548325927734375,-1.059844970703125,-0.177764892578125,1.409271240234375
1783152041830060800,1.558060791015625,-1.267547607421875,0.048248291015625,1.24127197265625
1783152041839765500,1.567765625,-1.352447509765625,0.2950286865234375,1.053741455078125
1783152041849470000,1.577469970703125,-1.3231353759765625,0.480133056640625,0.8594818115234375
1783152041859174700,1.587174560546875,-1.196075439453125,0.5607757568359375,0.6792755126953125
1783152041868909800,1.596909912109375,-1.0341949462890625,0.5021209716796875,0.5418243408203125
1783152041878614300,1.6066142578125,-0.8991851806640625,0.2913665771484375,0.444091796875
1783152041888319000,1.616319091796875,-0.7751922607421875,0.0647430419921875,0.401336669921875
1783152041898023400,1.6260234375,-0.6328582763671875,-0.028717041015625,0.4269866943359375
1783152041907728100,1.63572802734375,-0.480743408203125,-0.06231689453125,0.476470947265625
1783152041917463300,1.64546337890625,-0.340240478515625,-0.1227874755859375,0.4966278076171875
1783152041927167700,1.655167724609375,-0.200347900390625,-0.20892333984375,0.4673004150390625
1783152041936872400,1.66487255859375,-0.08184814453125,-0.34576416015625,0.3622283935546875
1783152041946577000,1.674576904296875,-0.0048828125,-0.4868621826171875,0.1600341796875
1783152041956312000,1.68431201171875,0.039703369140625,-0.455108642578125,-0.1191253662109375
1783152041966016800,1.694016845703125,0.0452117919921875,-0.174713134765625,-0.4288330078125
1783152041975721200,1.70372119140625,0.0085601806640625,0.2999267578125,-0.7177734375
1783152041985426000,1.713426025390625,-0.0348052978515625,0.8778076171875,-0.9431915283203125
1783152041995161000,1.7231611328125,-0.0629119873046875,1.4532470703125,-1.0995635986328125
1783152042004865500,1.732865478515625,-0.0653533935546875,1.8619232177734375,-1.2009735107421875
1783152042014570200,1.7425703125,0,2.0060882568359375,-1.2400665283203125
1783152042024274700,1.752274658203125,0.1936492919921875,1.911407470703125,-1.1985321044921875
1783152042033979400,1.7619794921875,0.5088653564453125,1.633453369140625,-1.0830841064453125
1783152042043714600,1.771714599609375,0.8662261962890625,1.24310302734375,-0.9144744873046875
1783152042072828200,1.800828125,1.4783172607421875,0.3035888671875,-0.35430908203125
1783152042082563300,1.810563232421875,1.4996795654296875,0.23577880859375,-0.1973114013671875
1783152042092298500,1.820298583984375,1.472808837890625,0.263885498046875,-0.0476531982421875
1783152042102003000,1.8300029296875,1.4337158203125,0.337799072265625,0.0959014892578125
1783152042111707600,1.839707763671875,1.401947021484375,0.4318695068359375,0.23577880859375
1783152042121442800,1.84944287109375,1.3793487548828125,0.52410888671875,0.37384033203125
1783152042131147300,1.859147216796875,1.35430908203125,0.562591552734375,0.50946044921875
1783152042140852000,1.86885205078125,1.3011627197265625,0.5063934326171875,0.6383514404296875
1783152042150556400,1.878556396484375,1.2009735107421875,0.3567352294921875,0.7525787353515625
1783152042160261000,1.88826123046875,1.0476531982421875,0.1404876708984375,0.839324951171875
1783152042169996300,1.897996337890625,0.8478851318359375,-0.100799560546875,0.8716888427734375
1783152042179700700,1.90770068359375,0.6243133544921875,-0.306671142578125,0.841766357421875
1783152042189405400,1.917405517578125,0.395233154296875,-0.41845703125,0.7446441650390625
1783152042199110000,1.92710986328125,0.175323486328125,-0.4477691650390625,0.5791015625
1783152042208845000,1.936844970703125,-0.0115966796875,-0.4074554443359375,0.3622283935546875
1783152042218549800,1.9465498046875,-0.14599609375,-0.2400665283203125,0.135589599609375
1783152042228254200,1.956254150390625,-0.2186737060546875,0.018310546875,-0.0525360107421875
1783152042237959000,1.965958984375,-0.2119598388671875,0.3152008056640625,-0.139892578125
1783152042247693800,1.97569384765625,-0.1288909912109375,0.6798858642578125,-0.094696044921875
1783152042257398500,1.9853984375,-0.0219879150390625,1.0299072265625,0.0384674072265625
1783152042267103200,1.995103271484375,0.0794219970703125,1.1624755859375,0.2034149169921875
1783152042276807700,2.0048076171875,0.165557861328125,1.0177001953125,0.3628387451171875
1783152042286512400,2.014512451171875,0.1600494384765625,0.5949859619140625,0.4532470703125
1783152042296247300,2.024247314453125,0.0561981201171875,-0.037261962890625,0.4422607421875
1783152042305952000,2.033951904296875,-0.119110107421875,-0.714111328125,0.3237457275390625
1783152042315656700,2.04365673828125,-0.36712646484375,-1.251068115234375,0.0971221923828125
1783152042325361200,2.053361083984375,-0.6487274169921875,-1.5271759033203125,-0.2266387939453125
1783152042335096300,2.063096435546875,-0.872314453125,-1.5546722412109375,-0.605987548828125
1783152042344800800,2.07280078125,-0.991424560546875,-1.4893035888671875,-1.0171051025390625
1783152042354505500,2.08250537109375,-1.02197265625,-1.3573455810546875,-1.4153900146484375
1783152042364240600,2.09224072265625,-0.993255615234375,-1.044586181640625,-1.7257080078125
1783152042373975800,2.101975830078125,-0.9333953857421875,-0.613922119140625,-1.9156951904296875
1783152042383680300,2.11168017578125,-0.8741455078125,-0.1838836669921875,-1.9883880615234375
1783152042393385000,2.121385009765625,-0.8576507568359375,0.131927490234375,-1.960296630859375
1783152042403089400,2.13108935546875,-0.8991851806640625,0.268157958984375,-1.862548828125
1783152042412794000,2.140794189453125,-0.9682159423828125,0.2809906005859375,-1.72265625
1783152042422529000,2.150529052734375,-1.0274658203125,0.2180633544921875,-1.5687255859375
1783152042432233700,2.160233642578125,-1.0506744384765625,0.0745086669921875,-1.4184417724609375
1783152042441938400,2.1699384765625,-1.01220703125,-0.1392822265625,-1.257781982421875
1783152042451643000,2.179642822265625,-0.8851318359375,-0.387298583984375,-1.06719970703125
1783152042461378000,2.1893779296875,-0.692108154296875,-0.6121063232421875,-0.8332366943359375
1783152042471082500,2.19908251953125,-0.4935760498046875,-0.7770233154296875,-0.5540618896484375
1783152042480787200,2.208787109375,-0.339630126953125,-0.8558349609375,-0.250457763671875
1783152042490492000,2.218491943359375,-0.2467803955078125,-0.8405609130859375,0.0378570556640625
1783152042500226800,2.228226806640625,-0.197906494140625,-0.77642822265625,0.2816009521484375
1783152042509931500,2.237931640625,-0.1649169921875,-0.7012786865234375,0.468536376953125
1783152042519636000,2.247635986328125,-0.1337738037109375,-0.64263916015625,0.6071929931640625
1783152042529340700,2.257340576171875,-0.1062774658203125,-0.6230926513671875,0.707366943359375
1783152042539045400,2.26704541015625,-0.08062744140625,-0.6334686279296875,0.7819061279296875
1783152042548780300,2.2767802734375,-0.059234619140625,-0.64569091796875,0.843597412109375
1783152042558485000,2.286485107421875,-0.046417236328125,-0.6621856689453125,0.8985748291015625
1783152042568189400,2.296189453125,-0.048858642578125,-0.678680419921875,0.94378662109375
1783152042577894100,2.30589404296875,-0.0757293701171875,-0.674407958984375,0.9712677001953125
1783152042587629300,2.31562939453125,-0.121551513671875,-0.673797607421875,0.9615020751953125
1783152042597333800,2.325333740234375,-0.1771392822265625,-0.686004638671875,0.918121337890625
1783152042607038500,2.33503857421875,-0.23760986328125,-0.675628662109375,0.87109375
1783152042616743000,2.344742919921875,-0.3072509765625,-0.6304168701171875,0.839324951171875
1783152042626447600,2.354447509765625,-0.3646697998046875,-0.5583343505859375,0.835052490234375
1783152042636182800,2.364182861328125,-0.3830108642578125,-0.471588134765625,0.8778076171875
1783152042645917700,2.373917724609375,-0.36773681640625,-0.4074554443359375,0.95843505859375
1783152042655622400,2.383622314453125,-0.347564697265625,-0.4508209228515625,1.0262451171875
1783152042665327000,2.3933271484375,-0.3109130859375,-0.704345703125,1.0482330322265625
1783152042675062000,2.40306201171875,-0.23394775390625,-1.22052001953125,1.0347900390625
1783152042684766700,2.4127666015625,-0.1313323974609375,-1.7489166259765625,1.0323486328125
1783152042694471200,2.42247119140625,-0.0598602294921875,-1.9291229248046875,1.0751190185546875
1783152042704175900,2.43217578125,-0.047027587890625,-1.5943756103515625,1.16552734375
1783152042723615500,2.451615478515625,-0.194854736328125,-0.4050140380859375,1.23638916015625
1783152042733320200,2.4613203125,-0.338409423828125,-0.2944488525390625,1.0323486328125
1783152042743024600,2.471024658203125,-0.473419189453125,-0.49053955078125,0.632232666015625
1783152042752759800,2.480759765625,-0.5845794677734375,-0.820404052734375,0.0604705810546875
1783152042762464500,2.490464599609375,-0.698822021484375,-1.039703369140625,-0.6230926513671875
1783152042772169000,2.5001689453125,-0.842987060546875,-0.961517333984375,-1.3029937744140625
1783152042781873700,2.509873779296875,-0.985931396484375,-0.676849365234375,-1.8766021728515625
1783152042791578000,2.519578125,-1.053741455078125,-0.2975006103515625,-2.2767181396484375
1783152042801313300,2.529313232421875,-1.0244140625,0.111785888671875,-2.4850311279296875
1783152042811018000,2.53901806640625,-0.94622802734375,0.4275970458984375,-2.5399932861328125
1783152042820722400,2.548722412109375,-0.8729248046875,0.552215576171875,-2.480743408203125
1783152042830427100,2.55842724609375,-0.79351806640625,0.5070037841796875,-2.3200836181640625
1783152042840162300,2.568162353515625,-0.65850830078125,0.3561248779296875,-2.0659637451171875
1783152042849866800,2.57786669921875,-0.4581451416015625,0.14599609375,-1.7324371337890625
1783152042859571500,2.587571533203125,-0.2131805419921875,-0.106903076171875,-1.329254150390625
1783152042869276000,2.59727587890625,0.0537567138671875,-0.4117279052734375,-0.8778228759765625
1783152042878980600,2.606980712890625,0.3042144775390625,-0.7018890380859375,-0.4251708984375
1783152042888715800,2.6167158203125,0.4783172607421875,-0.93890380859375,-0.0403289794921875
1783152042898420200,2.626420166015625,0.5449066162109375,-1.1197357177734375,0.2205047607421875
1783152042908125000,2.636125,0.5235137939453125,-1.2089080810546875,0.342071533203125
1783152042917829400,2.645829345703125,0.4447174072265625,-1.186920166015625,0.332916259765625
1783152042927564500,2.655564453125,0.3372039794921875,-1.0598602294921875,0.22601318359375
1783152042937299700,2.6652998046875,0.246795654296875,-0.8509368896484375,0.0726776123046875
1783152042947004200,2.675004150390625,0.20831298828125,-0.6016998291015625,-0.07452392578125
1783152042956708900,2.684708984375,0.239471435546875,-0.35064697265625,-0.1869354248046875
1783152042966444000,2.694444091796875,0.324371337890625,-0.135009765625,-0.246185302734375
1783152042976148500,2.7041484375,0.4306640625,0.0177001953125,-0.246185302734375
1783152042985853200,2.713853271484375,0.5241241455078125,0.0959014892578125,-0.180206298828125
1783152042995557600,2.7235576171875,0.5711669921875,0.126434326171875,-0.0580291748046875
1783152043005262300,2.733262451171875,0.5583343505859375,0.149658203125,0.1007843017578125
1783152043014997500,2.74299755859375,0.49725341796875,0.158203125,0.2834320068359375
1783152043024702000,2.752701904296875,0.397064208984375,0.159423828125,0.472198486328125
1783152043044111000,2.772111083984375,0.1618804931640625,0.1832427978515625,0.839324951171875
1783152043053846300,2.78184619140625,0.0775909423828125,0.1801910400390625,0.994476318359375
1783152043063551000,2.791551025390625,0.028106689453125,0.1795806884765625,1.1074981689453125
1783152043073255400,2.80125537109375,0.0140533447265625,0.195465087890625,1.1673583984375
1783152043082960100,2.810960205078125,0.0171051025390625,0.185089111328125,1.1508636474609375
1783152043092695000,2.820695068359375,0.0439910888671875,0.1410980224609375,1.0635223388671875
1783152043102399700,2.830399658203125,0.109954833984375,0.126434326171875,0.94927978515625
1783152043112104400,2.8401044921875,0.20343017578125,0.1502532958984375,0.834442138671875
1783152043121809000,2.849808837890625,0.3048248291015625,0.1661376953125,0.7318115234375
1783152043131513600,2.859513671875,0.4111175537109375,0.133148193359375,0.66766357421875
1783152043141248500,2.86924853515625,0.530242919921875,0.013427734375,0.65911865234375
1783152043150953200,2.878953125,0.6585235595703125,-0.238250732421875,0.6853790283203125
1783152043160658000,2.888657958984375,0.757476806640625,-0.604766845703125,0.6792755126953125
1783152043170362400,2.8983623046875,0.78131103515625,-0.93341064453125,0.5668792724609375
1783152043180097500,2.90809765625,0.7208251953125,-1.0439910888671875,0.3237457275390625
1783152043189802000,2.917802001953125,0.5833740234375,-0.8888092041015625,-0.0195465087890625
1783152043199506700,2.927506591796875,0.389739990234375,-0.5907135009765625,-0.4074554443359375
1783152043209211400,2.93721142578125,0.1985321044921875,-0.241912841796875,-0.750762939453125
1783152043218946300,2.9469462890625,0.0580291748046875,0.1172637939453125,-0.967010498046875
1783152043228681500,2.956681396484375,-0.0268707275390625,0.4263763427734375,-1.0207672119140625
1783152043238386200,2.96638623046875,-0.0934600830078125,0.66888427734375,-0.93280029296875
1783152043248090600,2.976090576171875,-0.1667633056640625,0.80572509765625,-0.761138916015625
1783152043257795300,2.98579541015625,-0.2382354736328125,0.8148956298828125,-0.546722412109375
1783152043267530500,2.995530517578125,-0.266937255859375,0.7110443115234375,-0.320098876953125
1783152043277235000,3.00523486328125,-0.23028564453125,0.4941864013671875,-0.0940704345703125
1783152043286939600,3.014939697265625,-0.1417083740234375,0.2046356201171875,0.1001739501953125
1783152043296644000,3.02464404296875,-0.046417236328125,-0.0861358642578125,0.2205047607421875
1783152043306379300,3.034379150390625,0.0171051025390625,-0.3433074951171875,0.2461700439453125
1783152043316083700,3.044083740234375,0.037872314453125,-0.5693359375,0.188140869140625
1783152043325788400,3.053788330078125,0.022003173828125,-0.7415924072265625,0.0696258544921875
1783152043335493000,3.0634931640625,-0.0225830078125,-0.8045196533203125,-0.0824737548828125
1783152043354932700,3.0829326171875,-0.133148193359375,-0.545501708984375,-0.384857177734375
1783152043364637200,3.09263720703125,-0.1649169921875,-0.2767181396484375,-0.5125274658203125
1783152043374342000,3.102341796875,-0.193634033203125,0.013427734375,-0.6145477294921875
1783152043384046600,3.112046630859375,-0.23638916015625,0.264495849609375,-0.6670684814453125
1783152043393781500,3.121781494140625,-0.3096923828125,0.4581451416015625,-0.6591339111328125
1783152043403486200,3.131486328125,-0.406829833984375,0.6090240478515625,-0.5968170166015625
1783152043413190700,3.141190673828125,-0.4954071044921875,0.721435546875,-0.4801483154296875
1783152043422895400,3.150895263671875,-0.5442657470703125,0.764801025390625,-0.317657470703125
1783152043432630500,3.160630615234375,-0.5296173095703125,0.7140960693359375,-0.117279052734375
1783152043442335000,3.1703349609375,-0.4624176025390625,0.5754241943359375,0.111785888671875
1783152043452039700,3.180039794921875,-0.37261962890625,0.37384033203125,0.3573455810546875
1783152043461744000,3.189744140625,-0.29443359375,0.1404876708984375,0.5968017578125
1783152043471479300,3.199479248046875,-0.2455596923828125,-0.0861358642578125,0.79351806640625
1783152043481184000,3.20918408203125,-0.22357177734375,-0.253509521484375,0.910797119140625
1783152043490888400,3.218888427734375,-0.2186737060546875,-0.3384246826171875,0.9303436279296875
1783152043500593200,3.22859326171875,-0.22845458984375,-0.329254150390625,0.848480224609375
1783152043520063200,3.248063232421875,-0.263885498046875,-0.0543670654296875,0.5326690673828125
1783152043529768000,3.257767822265625,-0.2901458740234375,0.1007843017578125,0.37078857421875
1783152043539472400,3.267472412109375,-0.3219146728515625,0.159423828125,0.191192626953125
1783152043549177000,3.277177001953125,-0.329864501953125,0.1380462646484375,-0.0024566650390625
1783152043558912300,3.286912353515625,-0.3054351806640625,0.1081085205078125,-0.172882080078125
1783152043568616700,3.29661669921875,-0.2455596923828125,0.08978271484375,-0.2901611328125
1783152043578321400,3.3063212890625,-0.1551513671875,0.0598602294921875,-0.36102294921875
1783152043588025900,3.31602587890625,-0.0421295166015625,0.0232086181640625,-0.398284912109375
1783152043597730600,3.32573046875,0.093475341796875,-0.0152740478515625,-0.3989105224609375
1783152043607465700,3.3354658203125,0.2333526611328125,0.0232086181640625,-0.36163330078125
1783152043617170200,3.345170166015625,0.3262176513671875,0.2559356689453125,-0.2767181396484375
1783152043626875000,3.354875,0.321319580078125,0.6817169189453125,-0.137451171875
1783152043636579300,3.364579345703125,0.1997528076171875,1.050079345703125,0.0250244140625
1783152043646314500,3.374314453125,-0.009765625,1.066558837890625,0.1349945068359375
1783152043656019200,3.384019287109375,-0.23211669921875,0.7293548583984375,0.1123809814453125
1783152043665723600,3.3937236328125,-0.411102294921875,0.2510528564453125,-0.097137451171875
1783152043675428400,3.403428466796875,-0.5351104736328125,-0.1337890625,-0.50823974609375
1783152043685163500,3.41316357421875,-0.5796966552734375,-0.2614593505859375,-1.0592498779296875
1783152043694868000,3.422867919921875,-0.51251220703125,-0.0879669189453125,-1.617584228515625
1783152043704572700,3.43257275390625,-0.335968017578125,0.295654296875,-2.0561981201171875
1783152043714277000,3.442277099609375,-0.1032257080078125,0.66705322265625,-2.29443359375
1783152043723981800,3.45198193359375,0.0800323486328125,0.835052490234375,-2.3145904541015625
1783152043733717000,3.461717041015625,0.1502685546875,0.7104339599609375,-2.1575927734375
1783152043743421400,3.47142138671875,0.1356048583984375,0.3561248779296875,-1.892486572265625
1783152043753126100,3.481126220703125,0.0891876220703125,-0.0849151611328125,-1.6029205322265625
1783152043762830600,3.49083056640625,0.06170654296875,-0.452667236328125,-1.3457489013671875
1783152043772565800,3.500565673828125,0.0818634033203125,-0.6646270751953125,-1.147216796875
1783152043782270500,3.5102705078125,0.166778564453125,-0.718994140625,-0.9951171875
1783152043792005400,3.52000537109375,0.2968902587890625,-0.64813232421875,-0.8698883056640625
1783152043801710000,3.5297099609375,0.4398193359375,-0.4874725341796875,-0.7593231201171875
1783152043811445200,3.5394453125,0.5638275146484375,-0.252899169921875,-0.6658477783203125
1783152043821149700,3.549149658203125,0.6573028564453125,0.0360260009765625,-0.5833740234375
1783152043830854400,3.5588544921875,0.7196044921875,0.3011474609375,-0.49664306640625
1783152043840558800,3.568558837890625,0.7703094482421875,0.4593658447265625,-0.384246826171875
1783152043850263600,3.578263671875,0.822235107421875,0.484405517578125,-0.2266387939453125
1783152043859998700,3.587998779296875,0.8692626953125,0.4007110595703125,-0.0201568603515625
1783152043869703200,3.597703125,0.897979736328125,0.259002685546875,0.2180633544921875
1783152043879407900,3.607407958984375,0.9102020263671875,0.1172637939453125,0.4575347900390625
1783152043889112300,3.6171123046875,0.903472900390625,0.0164794921875,0.66705322265625
1783152043898847500,3.626847412109375,0.883331298828125,-0.0403289794921875,0.8173370361328125
1783152043908552200,3.63655224609375,0.8668212890625,-0.0500946044921875,0.905303955078125
1783152043918256600,3.646256591796875,0.8607177734375,-0.0164947509765625,0.94805908203125
1783152043927961300,3.65596142578125,0.852783203125,0.0348052978515625,0.9676055908203125
1783152043937696500,3.665696533203125,0.8320159912109375,0.0726776123046875,0.979827880859375
1783152043947401000,3.67540087890625,0.7984161376953125,0.07635498046875,0.9926605224609375
1783152043957105700,3.685105712890625,0.7642059326171875,0.08062744140625,1.018310546875
1783152043966810000,3.69481005859375,0.7159423828125,0.09161376953125,1.054962158203125
1783152043976514800,3.704514892578125,0.64019775390625,0.115447998046875,1.08062744140625
1783152043986249700,3.714249755859375,0.544281005859375,0.189361572265625,1.08917236328125
1783152043995954400,3.723954345703125,0.4532623291015625,0.2595977783203125,1.09161376953125
1783152044005659100,3.7336591796875,0.4086761474609375,0.2748870849609375,1.08612060546875
1783152044015363600,3.743363525390625,0.4398193359375,0.2180633544921875,1.0702362060546875
1783152044025098800,3.7530986328125,0.538177490234375,0.0714569091796875,1.0518951416015625
1783152044034803200,3.76280322265625,0.6573028564453125,-0.1466064453125,1.0177001953125
1783152044044508000,3.7725078125,0.7464752197265625,-0.3414764404296875,0.909576416015625
1783152044054212600,3.782212646484375,0.7959747314453125,-0.4025726318359375,0.7055511474609375
1783152044063947500,3.791947509765625,0.78863525390625,-0.325592041015625,0.448974609375
1783152044073652200,3.80165234375,0.6957855224609375,-0.1197357177734375,0.188751220703125
1783152044083387400,3.811387451171875,0.4813690185546875,0.195465087890625,-0.0549774169921875
1783152044093091800,3.821091796875,0.1551666259765625,0.52044677734375,-0.2864990234375
1783152044102796500,3.830796630859375,-0.2119598388671875,0.768463134765625,-0.49420166015625
1783152044112531700,3.84053173828125,-0.5375518798828125,0.8930816650390625,-0.706787109375
1783152044122236200,3.850236083984375,-0.7751922607421875,0.8240509033203125,-0.9761810302734375
1783152044131940900,3.85994091796875,-0.9388885498046875,0.6499481201171875,-1.2791595458984375
1783152044141645300,3.869645263671875,-1.0726776123046875,0.58154296875,-1.540008544921875
1783152044151380500,3.87938037109375,-1.1722412109375,0.6707305908203125,-1.7049407958984375
1783152044161085200,3.889085205078125,-1.1722412109375,0.8240509033203125,-1.7819061279296875
1783152044170789600,3.89878955078125,-1.0054779052734375,0.9297332763671875,-1.7764129638671875
1783152044180494300,3.908494384765625,-0.7153167724609375,0.9187469482421875,-1.687225341796875
1783152044190229200,3.918229248046875,-0.4404296875,0.7586822509765625,-1.5161895751953125
1783152044199934000,3.927933837890625,-0.268157958984375,0.4660797119140625,-1.2889404296875
1783152044209638400,3.937638427734375,-0.1783599853515625,0.09222412109375,-1.049468994140625
1783152044219343000,3.947343017578125,-0.117889404296875,-0.314605712890625,-0.8393402099609375
1783152044229047800,3.9570478515625,-0.0604705810546875,-0.6970062255859375,-0.684173583984375
1783152044238782700,3.96678271484375,0.0146636962890625,-0.998779296875,-0.568115234375
1783152044248487400,3.9764873046875,0.135009765625,-1.180816650390625,-0.462432861328125
1783152044258192000,3.98619189453125,0.2889404296875,-1.22052001953125,-0.35675048828125
1783152044267896600,3.995896484375,0.4398193359375,-1.138671875,-0.2553558349609375
1783152044277631700,4.0056318359375,0.5485687255859375,-0.9914398193359375,-0.166778564453125
1783152044287336200,4.015336181640625,0.6004791259765625,-0.8466644287109375,-0.0861358642578125
1783152044297041000,4.025041015625,0.6145477294921875,-0.7373199462890625,0.0018157958984375
1783152044306745300,4.034745361328125,0.606597900390625,-0.63775634765625,0.1081085205078125
1783152044316480500,4.04448046875,0.5797119140625,-0.532684326171875,0.22906494140625
1783152044326185200,4.054185302734375,0.542449951171875,-0.4343414306640625,0.3616180419921875
1783152044335889700,4.0638896484375,0.50091552734375,-0.35369873046875,0.51617431640625
1783152044345594400,4.073594482421875,0.4496002197265625,-0.3011627197265625,0.700653076171875
1783152044355298800,4.083298828125,0.3824005126953125,-0.27734375,0.9071197509765625
1783152044365034000,4.093033935546875,0.3017730712890625,-0.27490234375,1.1136016845703125
1783152044374769200,4.10276904296875,0.21563720703125,-0.2920074462890625,1.2913665771484375
1783152044384473900,4.112473876953125,0.1368408203125,-0.3262176513671875,1.423309326171875
1783152044394178300,4.12217822265625,0.06781005859375,-0.34881591796875,1.5051727294921875
1783152044403913500,4.13191357421875,0.0134429931640625,-0.35308837890625,1.550384521484375
1783152044413618000,4.141617919921875,-0.0201416015625,-0.3756866455078125,1.5754241943359375
1783152044423322600,4.151322509765625,-0.0360260009765625,-0.459991455078125,1.5839691162109375
1783152044433027000,4.161027099609375,-0.0384674072265625,-0.610870361328125,1.557098388671875
1783152044442762200,4.17076220703125,-0.008544921875,-0.79107666015625,1.489288330078125
1783152044452467000,4.180467041015625,0.07208251953125,-0.93646240234375,1.37261962890625
1783152044462171400,4.19017138671875,0.1826629638671875,-1.0537567138671875,1.1795806884765625
1783152044471876000,4.1998759765625,0.318267822265625,-1.1734771728515625,0.9022369384765625
1783152044481580500,4.20958056640625,0.463653564453125,-1.21868896484375,0.5784759521484375
1783152044491315700,4.219315673828125,0.57666015625,-1.2064666748046875,0.2534942626953125
1783152044501020400,4.2290205078125,0.610260009765625,-1.2791595458984375,-0.0843048095703125
1783152044510724900,4.238724853515625,0.5247344970703125,-1.4483795166015625,-0.4202728271484375
1783152044520429600,4.2484296875,0.3029937744140625,-1.604766845703125,-0.6963958740234375
1783152044530164700,4.258164794921875,-0.0396881103515625,-1.7196044921875,-0.885772705078125
1783152044539869200,4.267869140625,-0.408660888671875,-1.7037200927734375,-0.962127685546875
1783152044549574000,4.277573974609375,-0.701263427734375,-1.4178314208984375,-0.9217987060546875
1783152044559278300,4.2872783203125,-0.8588714599609375,-0.8808746337890625,-0.78680419921875
1783152044568983000,4.296983154296875,-0.867431640625,-0.243743896484375,-0.5748291015625
1783152044578718200,4.30671826171875,-0.7427978515625,0.2822113037109375,-0.3097076416015625
1783152044588422700,4.316422607421875,-0.5467071533203125,0.577880859375,-0.0146636962890625
1783152044598127400,4.32612744140625,-0.4007110595703125,0.6804962158203125,0.2828216552734375
1783152044607831800,4.335831787109375,-0.3927764892578125,0.619415283203125,0.5063934326171875
1783152044617567000,4.34556689453125,-0.51861572265625,0.401336669921875,0.5968017578125
1783152044627271700,4.355271728515625,-0.692718505859375,0.0983428955078125,0.5320587158203125
1783152044636976000,4.36497607421875,-0.80633544921875,-0.167999267578125,0.3267974853515625
1783152044646680800,4.374680908203125,-0.7873992919921875,-0.3701934814453125,0.00244140625
1783152044656415700,4.384415771484375,-0.6395721435546875,-0.5497894287109375,-0.4074554443359375
1783152044666151000,4.39415087890625,-0.423919677734375,-0.7024993896484375,-0.8509368896484375
1783152044675855600,4.403855712890625,-0.2150115966796875,-0.7403717041015625,-1.258392333984375
1783152044685560000,4.41356005859375,-0.0738983154296875,-0.6359100341796875,-1.57421875
1783152044695295200,4.423295166015625,-0.0146484375,-0.4410400390625,-1.764190673828125
1783152044705000000,4.433,-0.0018157958984375,-0.21441650390625,-1.816741943359375
1783152044714704400,4.442704345703125,-0.0030364990234375,0.0103759765625,-1.7373199462890625
1783152044724409000,4.4524091796875,0.0061187744140625,0.2064666748046875,-1.547332763671875
1783152044734113500,4.462113525390625,0.028717041015625,0.3481903076171875,-1.2803802490234375
1783152044743848700,4.4718486328125,0.0439910888671875,0.43798828125,-0.967010498046875
1783152044753553400,4.481553466796875,0.037261962890625,0.4740142822265625,-0.64202880859375
1783152044763257900,4.4912578125,-0.0054779052734375,0.4385833740234375,-0.3359832763671875
1783152044772962600,4.500962646484375,-0.0738983154296875,0.3231353759765625,-0.06964111328125
1783152044782697700,4.51069775390625,-0.1527099609375,0.1435394287109375,0.1429290771484375
1783152044792402200,4.520402099609375,-0.23089599609375,-0.0549774169921875,0.298095703125
1783152044802107000,4.53010693359375,-0.2962493896484375,-0.20953369140625,0.3939971923828125
1783152044811811300,4.539811279296875,-0.340850830078125,-0.2840576171875,0.4324798583984375
1783152044821546500,4.54954638671875,-0.37689208984375,-0.2767181396484375,0.4196624755859375
1783152044831251200,4.559251220703125,-0.411102294921875,-0.2003631591796875,0.36773681640625
1783152044840955600,4.56895556640625,-0.4385833740234375,-0.07513427734375,0.2987060546875
1783152044850660400,4.578660400390625,-0.4563140869140625,0.0677947998046875,0.23455810546875
1783152044860364800,4.58836474609375,-0.4550933837890625,0.198516845703125,0.1856842041015625
1783152044870100000,4.598099853515625,-0.4275970458984375,0.2834320068359375,0.152099609375
1783152044879804400,4.607804443359375,-0.36590576171875,0.3072509765625,0.119720458984375
1783152044889509000,4.617509033203125,-0.268768310546875,0.3158111572265625,0.08673095703125
1783152044899213800,4.6272138671875,-0.1588134765625,0.338409423828125,0.0610809326171875
1783152044908948700,4.63694873046875,-0.045806884765625,0.335968017578125,0.046417236328125
1783152044918653400,4.6466533203125,0.06536865234375,0.260223388671875,0.0280914306640625
1783152044928358000,4.65635791015625,0.184478759765625,0.09283447265625,-0.0085601806640625
1783152044938093000,4.666093017578125,0.3329315185546875,-0.1453857421875,-0.0537567138671875
1783152044947797800,4.6757978515625,0.5216827392578125,-0.3811798095703125,-0.0916290283203125
1783152044957533000,4.685532958984375,0.7006683349609375,-0.5161895751953125,-0.099578857421875
1783152044967237400,4.6952373046875,0.78863525390625,-0.529632568359375,-0.06903076171875
1783152044976942000,4.704942138671875,0.7556610107421875,-0.450225830078125,-0.0036773681640625
1783152044986646500,4.714646484375,0.6016998291015625,-0.2639007568359375,0.0684051513671875
1783152045006086400,4.73408642578125,0.0910186767578125,0.009765625,0.047027587890625
1783152045015790800,4.743790771484375,-0.1093292236328125,-0.06170654296875,-0.0965118408203125
1783152045025495600,4.75349560546875,-0.199127197265625,-0.1551666259765625,-0.3121490478515625
1783152045035230500,4.76323046875,-0.2034149169921875,-0.2028045654296875,-0.5925445556640625
1783152045044935200,4.77293505859375,-0.1563720703125,-0.108123779296875,-0.9108123779296875
1783152045054639900,4.782639892578125,-0.09405517578125,0.196075439453125,-1.21502685546875
1783152045074049000,4.802049072265625,0.0146636962890625,1.0152435302734375,-1.6597442626953125
1783152045083784000,4.811783935546875,0.0555877685546875,1.2999114990234375,-1.7819061279296875
1783152045093488600,4.821488525390625,0.0855255126953125,1.5015106201171875,-1.8155059814453125
1783152045103193000,4.831193115234375,0.114837646484375,1.623077392578125,-1.749542236328125
1783152045112897800,4.840897705078125,0.1551666259765625,1.629791259765625,-1.585205078125
1783152045122633000,4.850633056640625,0.21929931640625,1.52227783203125,-1.328033447265625
1783152045132337400,4.86033740234375,0.3005523681640625,1.3194580078125,-1
1783152045161481700,4.889481689453125,0.5675048828125,0.6316375732421875,-0.0452117919921875
1783152045171186400,4.8991865234375,0.64630126953125,0.4893035888671875,0.121551513671875
1783152045180891000,4.908890869140625,0.70556640625,0.416595458984375,0.2046356201171875
1783152045190595600,4.918595703125,0.7464752197265625,0.408050537109375,0.22479248046875
1783152045200300000,4.928300048828125,0.7690887451171875,0.423919677734375,0.202789306640625
1783152045210035200,4.93803515625,0.7715301513671875,0.420257568359375,0.1600341796875
1783152045219740000,4.947739990234375,0.750762939453125,0.3909454345703125,0.1160430908203125
1783152045229475000,4.95747509765625,0.7000579833984375,0.338409423828125,0.08367919921875
1783152045239179500,4.967179443359375,0.6224822998046875,0.2797698974609375,0.0641326904296875
1783152045248914700,4.976914794921875,0.541229248046875,0.2382354736328125,0.0708465576171875
1783152045258619100,4.986619140625,0.4777069091796875,0.23272705078125,0.1087188720703125
1783152045268323800,4.99632373046875,0.4422760009765625,0.269989013671875,0.1844635009765625
1783152045278028500,5.006028564453125,0.4373779296875,0.336578369140625,0.30419921875
1783152045287763500,5.015763427734375,0.463653564453125,0.43798828125,0.4599761962890625
1783152045297468200,5.02546826171875,0.5094757080078125,0.565032958984375,0.6340789794921875
1783152045307172600,5.035172607421875,0.5601654052734375,0.6432342529296875,0.80267333984375
1783152045316877300,5.044877197265625,0.597442626953125,0.6493377685546875,0.94683837890625
1783152045326581800,5.054581787109375,0.6145477294921875,0.613311767578125,1.060455322265625
1783152045336317000,5.06431689453125,0.6004791259765625,0.5381622314453125,1.130706787109375
1783152045346021600,5.074021728515625,0.5595550537109375,0.4447021484375,1.158203125
1783152045355726000,5.08372607421875,0.50152587890625,0.3494110107421875,1.1429290771484375
1783152045365430800,5.0934306640625,0.427001953125,0.1844635009765625,1.0708465576171875
1783152045375166000,5.103166015625,0.3475799560546875,-0.100189208984375,0.919342041015625
1783152045384870400,5.112870361328125,0.2968902587890625,-0.422119140625,0.696990966796875
1783152045404279600,5.132279541015625,0.4123382568359375,-0.9150848388671875,0.22784423828125
1783152045414014700,5.1420146484375,0.5528411865234375,-1.0103759765625,0.1087188720703125
1783152045423719400,5.151719482421875,0.6261444091796875,-0.93463134765625,0.08978271484375
1783152045433424000,5.161423828125,0.5235137939453125,-0.8509368896484375,0.08062744140625
1783152045443128600,5.171128662109375,0.2565765380859375,-0.9474639892578125,-0.0073394775390625
1783152045452833000,5.1808330078125,-0.0946807861328125,-1.147216796875,-0.2241973876953125
1783152045462568200,5.190568115234375,-0.469757080078125,-1.2315216064453125,-0.5711669921875
1783152045472273000,5.20027294921875,-0.8301544189453125,-1.001220703125,-0.9786224365234375
1783152045481977300,5.209977294921875,-1.1441497802734375,-0.4208984375,-1.35919189453125
1783152045491682000,5.21968212890625,-1.3646697998046875,0.37445068359375,-1.64996337890625
1783152045501417200,5.229417236328125,-1.4391937255859375,1.1783599853515625,-1.8430023193359375
1783152045511152000,5.239152099609375,-1.36773681640625,1.8729248046875,-1.9578399658203125
1783152045520856800,5.24885693359375,-1.2272186279296875,2.351226806640625,-2.0256500244140625
1783152045530561300,5.258561279296875,-1.1160430908203125,2.53570556640625,-2.08306884765625
1783152045540266000,5.268265869140625,-1.0781707763671875,2.4349212646484375,-2.1643218994140625
1783152045550001200,5.278001220703125,-1.0745086669921875,2.1203155517578125,-2.259002685546875
1783152045559705600,5.28770556640625,-1.0494537353515625,1.703704833984375,-2.3426971435546875
1783152045569410300,5.297410400390625,-0.982269287109375,1.2852630615234375,-2.4129486083984375
1783152045579114800,5.30711474609375,-0.8833160400390625,0.9303436279296875,-2.464263916015625
1783152045588850000,5.316849853515625,-0.768463134765625,0.6707305908203125,-2.480133056640625
1783152045598554600,5.3265546875,-0.6481170654296875,0.5082244873046875,-2.4184417724609375
1783152045608259000,5.336259033203125,-0.5320587158203125,0.4300384521484375,-2.260223388671875
1783152045617963800,5.3459638671875,-0.439208984375,0.409271240234375,-2.0213775634765625
1783152045627699000,5.355698974609375,-0.3585662841796875,0.421478271484375,-1.7208251953125
1783152045637403400,5.3654033203125,-0.2510528564453125,0.422698974609375,-1.3775177001953125
1783152045647108000,5.375108154296875,-0.08795166015625,0.37017822265625,-1.0054931640625
1783152045656812500,5.3848125,0.1392822265625,0.2431182861328125,-0.615142822265625
1783152045666547700,5.394547607421875,0.4098968505859375,0.056793212890625,-0.21258544921875
1783152045676252400,5.40425244140625,0.685394287109375,-0.1533355712890625,0.197906494140625
1783152045685956900,5.413956787109375,0.92669677734375,-0.35919189453125,0.6090240478515625
1783152045695661600,5.42366162109375,1.113006591796875,-0.542449951171875,1.0066986083984375
1783152045705366000,5.433365966796875,1.2431182861328125,-0.7024993896484375,1.3707733154296875
1783152045715101200,5.44310107421875,1.331085205078125,-0.8405609130859375,1.6835479736328125
1783152045724806000,5.452805908203125,1.395233154296875,-0.9529571533203125,1.921173095703125
1783152045734510300,5.46251025390625,1.4496002197265625,-1.0500946044921875,2.062896728515625
1783152045744215000,5.472215087890625,1.50152587890625,-1.1325531005859375,2.10687255859375
1783152045753950000,5.481949951171875,1.5540618896484375,-1.194244384765625,2.070220947265625
1783152045763654700,5.491654541015625,1.5986480712890625,-1.2345733642578125,1.9749298095703125
1783152045773359000,5.501359130859375,1.6273651123046875,-1.243743896484375,1.848480224609375
1783152045783063800,5.511063720703125,1.624908447265625,-1.1685943603515625,1.7232513427734375
1783152045792799000,5.520799072265625,1.5894927978515625,-1.039703369140625,1.6248931884765625
1783152045802534100,5.5305341796875,1.5259552001953125,-0.9541778564453125,1.5418243408203125
1783152045812238600,5.540238525390625,1.4453277587890625,-0.9419708251953125,1.456298828125
1783152045821943300,5.549943359375,1.3500213623046875,-0.972503662109375,1.3719940185546875
1783152045831647700,5.559647705078125,1.2467803955078125,-1.0207672119140625,1.2986907958984375
1783152045841383000,5.5693828125,1.1417236328125,-1.0158843994140625,1.2541046142578125
1783152045851087600,5.579087646484375,1.0287017822265625,-0.92120361328125,1.23883056640625
1783152045860792000,5.5887919921875,0.9102020263671875,-0.78985595703125,1.2247772216796875
1783152045870496800,5.598496826171875,0.8014678955078125,-0.5858306884765625,1.1765289306640625
1783152045880231700,5.608231689453125,0.7000579833984375,-0.247406005859375,1.0696258544921875
1783152045889936400,5.617936279296875,0.575439453125,0.190582275390625,0.912628173828125
1783152045899641000,5.62764111328125,0.4202728271484375,0.5992431640625,0.732421875
1783152045909345500,5.637345458984375,0.2840576171875,0.8558197021484375,0.51556396484375
1783152045919050200,5.64705029296875,0.252899169921875,0.8961334228515625,0.22601318359375
1783152045928785200,5.65678515625,0.34942626953125,0.80023193359375,-0.13623046875
1783152045938489900,5.66648974609375,0.50457763671875,0.626129150390625,-0.5497894287109375
1783152045948194600,5.676194580078125,0.616363525390625,0.3561248779296875,-0.9774017333984375
1783152045957899000,5.68589892578125,0.64385986328125,0.0610809326171875,-1.35186767578125
1783152045967634200,5.69563427734375,0.595001220703125,-0.1594390869140625,-1.6273651123046875
1783152045977338600,5.705338623046875,0.4819793701171875,-0.252899169921875,-1.79107666015625
1783152045987043300,5.715043212890625,0.3323211669921875,-0.165557861328125,-1.836883544921875
1783152045996747800,5.724747802734375,0.1863250732421875,0.120941162109375,-1.763580322265625
1783152046006483000,5.73448291015625,0.06048583984375,0.549163818359375,-1.610870361328125
1783152046016187600,5.744187744140625,-0.046417236328125,0.985931396484375,-1.439208984375
1783152046025892000,5.75389208984375,-0.1423187255859375,1.300537109375,-1.3011627197265625
1783152046035596800,5.7635966796875,-0.22906494140625,1.4636383056640625,-1.20953369140625
1783152046045301200,5.77330126953125,-0.2858734130859375,1.489898681640625,-1.142333984375
1783152046055036400,5.783036376953125,-0.30419921875,1.38055419921875,-1.0916290283203125
1783152046064741000,5.7927412109375,-0.271209716796875,1.158203125,-1.0543670654296875
1783152046074445600,5.802445556640625,-0.189361572265625,0.8790283203125,-1.0219879150390625
1783152046084180700,5.8121806640625,-0.0677947998046875,0.615753173828125,-0.9786224365234375
1783152046093916000,5.821916015625,0.06719970703125,0.4459228515625,-0.9150848388671875
1783152046103620400,5.831620361328125,0.1997528076171875,0.3885040283203125,-0.826507568359375
1783152046113325000,5.841324951171875,0.321319580078125,0.4208831787109375,-0.7244873046875
1783152046123029800,5.85102978515625,0.4312744140625,0.5338897705078125,-0.6243133544921875
1783152046132764700,5.8607646484375,0.5565032958984375,0.67010498046875,-0.5088653564453125
1783152046142469400,5.870469482421875,0.70556640625,0.79840087890625,-0.36224365234375
1783152046152173800,5.880173828125,0.8643798828125,0.9058990478515625,-0.174102783203125
1783152046161878500,5.88987841796875,1.0274810791015625,0.94500732421875,0.058624267578125
1783152046171583200,5.899583251953125,1.1924285888671875,0.8649749755859375,0.3243560791015625
1783152046181318100,5.909318115234375,1.3689727783203125,0.708587646484375,0.6016845703125
1783152046191022800,5.91902294921875,1.5338897705078125,0.562591552734375,0.846038818359375
1783152046200727300,5.928727294921875,1.64935302734375,0.407440185546875,0.9987640380859375
1783152046210432000,5.938431884765625,1.7086029052734375,0.22967529296875,1.056793212890625
1783152046220167200,5.948167236328125,1.7079925537109375,0.0354156494140625,1.0341949462890625
1783152046229871600,5.95787158203125,1.64996337890625,-0.1521148681640625,0.9657745361328125
1783152046239576300,5.967576416015625,1.57177734375,-0.2840576171875,0.915679931640625
1783152046249280800,5.97728076171875,1.4868621826171875,-0.317657470703125,0.9333953857421875
1783152046259016000,5.987015869140625,1.37078857421875,-0.252899169921875,1.0091400146484375
1783152046268720600,5.996720703125,1.2113494873046875,-0.0830841064453125,1.1166534423828125
1783152046278425000,6.006425048828125,1.0042724609375,0.15576171875,1.2425079345703125
1783152046288129800,6.0161298828125,0.7556610107421875,0.400115966796875,1.37445068359375
1783152046297834200,6.025834228515625,0.4801483154296875,0.6365203857421875,1.5063934326171875
1783152046307569400,6.0355693359375,0.21624755859375,0.79718017578125,1.67254638671875
1783152046317274000,6.045274169921875,0.0061187744140625,0.8594818115234375,1.8930816650390625
1783152046326978600,6.054978515625,-0.15576171875,0.840545654296875,2.136810302734375
1783152046336683300,6.064683349609375,-0.3188629150390625,0.7153167724609375,2.32373046875
1783152046346418400,6.07441845703125,-0.51373291015625,0.44775390625,2.3701629638671875
1783152046356123000,6.084122802734375,-0.688446044921875,-0.034210205078125,2.24188232421875
1783152046365858000,6.093858154296875,-0.7293548583984375,-0.6921234130859375,1.94317626953125
1783152046375562500,6.1035625,-0.6505584716796875,-1.248626708984375,1.4954071044921875
1783152046385297700,6.113297607421875,-0.6004638671875,-1.548553466796875,0.918121337890625
1783152046395002400,6.12300244140625,-0.6444549560546875,-1.66156005859375,0.2437286376953125
1783152046404706800,6.132706787109375,-0.7128753662109375,-1.5235137939453125,-0.4178314208984375
1783152046414411500,6.14241162109375,-0.7379150390625,-1.07269287109375,-0.9517364501953125
1783152046424116000,6.152115966796875,-0.704925537109375,-0.396453857421875,-1.2901611328125
1783152046433851100,6.16185107421875,-0.629791259765625,0.3078765869140625,-1.4245452880859375
1783152046443555800,6.171555908203125,-0.5735931396484375,0.764190673828125,-1.4141693115234375
1783152046453260300,6.18126025390625,-0.561370849609375,0.874755859375,-1.3463592529296875
1783152046462965000,6.190965087890625,-0.5796966552734375,0.7489166259765625,-1.2742767333984375
1783152046472700200,6.2007001953125,-0.5955810546875,0.51739501953125,-1.2382354736328125
1783152046482404600,6.210404541015625,-0.5870361328125,0.2089080810546875,-1.2773284912109375
1783152046492109300,6.220109375,-0.548553466796875,-0.13623046875,-1.3903350830078125
1783152046501813800,6.229813720703125,-0.4905242919921875,-0.4483795166015625,-1.542449951171875
1783152046511549000,6.239548828125,-0.412933349609375,-0.7238922119140625,-1.679290771484375
1783152046521253600,6.249253662109375,-0.3152008056640625,-0.9865570068359375,-1.756256103515625
1783152046530958000,6.2589580078125,-0.2058563232421875,-1.22113037109375,-1.753814697265625
1783152046540662800,6.268662841796875,-0.08551025390625,-1.399505615234375,-1.6676788330078125
1783152046550367200,6.2783671875,0.0531463623046875,-1.476470947265625,-1.4899139404296875
1783152046560102400,6.288102294921875,0.21441650390625,-1.431884765625,-1.2241973876953125
1783152046569807000,6.29780712890625,0.392791748046875,-1.2840576171875,-0.91998291015625
1783152046579511600,6.307511474609375,0.57666015625,-1.1288909912109375,-0.6359100341796875
1783152046589216300,6.31721630859375,0.7727508544921875,-1.0238189697265625,-0.4062347412109375
1783152046598951200,6.326951171875,0.968231201171875,-1.06719970703125,-0.241912841796875
1783152046608656000,6.33665576171875,1.1618804931640625,-1.2718353271484375,-0.102020263671875
1783152046618360600,6.346360595703125,1.323760986328125,-1.3561248779296875,0.0421295166015625
1783152046628065000,6.35606494140625,1.404998779296875,-1.2229766845703125,0.1832427978515625
1783152046637800200,6.36580029296875,1.4092864990234375,-0.92486572265625,0.3048095703125
1783152046647504600,6.375504638671875,1.36590576171875,-0.5577239990234375,0.3921661376953125
1783152046657239800,6.38523974609375,1.2938232421875,-0.2235870361328125,0.4361419677734375
1783152046666979600,6.3949794921875,1.190582275390625,0.047027587890625,0.4569091796875
1783152046676684300,6.404684326171875,1.039703369140625,0.269989013671875,0.475860595703125
1783152046686419200,6.414419189453125,0.828338623046875,0.4208831787109375,0.4960174560546875
1783152046696124000,6.4241240234375,0.5638275146484375,0.4905242919921875,0.51495361328125
1783152046705828400,6.433828369140625,0.2669525146484375,0.546112060546875,0.5338897705078125
1783152046715533000,6.443532958984375,-0.041534423828125,0.65240478515625,0.559539794921875
1783152046725268200,6.453268310546875,-0.336578369140625,0.8167266845703125,0.5858154296875
1783152046734972700,6.46297265625,-0.5980224609375,1.013427734375,0.619415283203125
1783152046744677400,6.472677490234375,-0.8240509033203125,1.2516632080078125,0.6841583251953125
1783152046754381800,6.4823818359375,-1.018310546875,1.5167694091796875,0.7922821044921875
1783152046764117000,6.492116943359375,-1.1765289306640625,1.7250823974609375,0.9266815185546875
1783152046773821700,6.50182177734375,-1.268157958984375,1.7366943359375,1.051300048828125
1783152046783526100,6.511526123046875,-1.2614288330078125,1.5436553955078125,1.135589599609375
1783152046793230800,6.52123095703125,-1.1697998046875,1.2595977783203125,1.1789703369140625
1783152046802935300,6.530935302734375,-1.054351806640625,0.94195556640625,1.1612548828125
1783152046812670500,6.54067041015625,-0.984100341796875,0.486236572265625,1.0073089599609375
1783152046822375200,6.550375244140625,-0.977386474609375,-0.1942596435546875,0.65911865234375
1783152046832079600,6.56007958984375,-0.987152099609375,-1.0641326904296875,0.1001739501953125
1783152046841784300,6.569784423828125,-0.94500732421875,-1.93524169921875,-0.6206512451171875
1783152046851519500,6.57951953125,-0.81060791015625,-2.51312255859375,-1.36590576171875
1783152046861224000,6.589223876953125,-0.5723724365234375,-2.5613861083984375,-1.9303436279296875
1783152046870928600,6.5989287109375,-0.262664794921875,-2.156982421875,-2.1753082275390625
1783152046880633000,6.608633056640625,0.0537567138671875,-1.4984588623046875,-2.037872314453125
1783152046890337800,6.618337890625,0.306671142578125,-0.671966552734375,-1.612701416015625
1783152046900073000,6.628072998046875,0.4544830322265625,0.0708465576171875,-1.1606597900390625
1783152046909777400,6.63777734375,0.5919342041015625,0.620635986328125,-0.538787841796875
1783152046919482000,6.647482177734375,0.605377197265625,1.0390777587890625,0.202178955078125
1783152046929186600,6.6571865234375,0.36285400390625,1.2235565185546875,0.775787353515625
1783152046938921700,6.666921630859375,-0.052520751953125,1.0610809326171875,1.1190948486328125
1783152046948657000,6.676656982421875,-0.4605865478515625,0.6798858642578125,1.198516845703125
1783152046958361300,6.686361328125,-0.7476959228515625,0.339019775390625,1.056182861328125
1783152046968066000,6.696066162109375,-0.8918609619140625,0.1728668212890625,0.7501373291015625
1783152046977801200,6.70580126953125,-0.913848876953125,0.1588134765625,0.3237457275390625
1783152046987505700,6.715505615234375,-0.8283233642578125,0.2180633544921875,-0.138671875
1783152046997210400,6.72521044921875,-0.6762237548828125,0.331695556640625,-0.5736083984375
1783152047006914800,6.734914794921875,-0.51312255859375,0.5057830810546875,-0.92486572265625
1783152047016619500,6.74461962890625,-0.4007110595703125,0.723876953125,-1.1600494384765625
1783152047026354700,6.754354736328125,-0.3518524169921875,0.8570404052734375,-1.2681732177734375
1783152047036059100,6.76405908203125,-0.345123291015625,0.8173370361328125,-1.243743896484375
1783152047045763800,6.773763916015625,-0.37139892578125,0.6395721435546875,-1.0946807861328125
1783152047055468300,6.78346826171875,-0.423919677734375,0.417816162109375,-0.8515625
1783152047065203500,6.793203369140625,-0.4990692138671875,0.23333740234375,-0.543060302734375
1783152047074908200,6.802908203125,-0.6090240478515625,0.1649169921875,-0.1893768310546875
1783152047084612600,6.812612548828125,-0.633453369140625,0.059234619140625,0.1777496337890625
1783152047094317300,6.8223173828125,-0.612091064453125,-0.0152740478515625,0.51190185546875
1783152047104052200,6.83205224609375,-0.5760345458984375,-0.042144775390625,0.7873992919921875
1783152047113757000,6.8417568359375,-0.51800537109375,-0.1215667724609375,0.989593505859375
1783152047123461600,6.851461669921875,-0.4398040771484375,-0.241912841796875,1.133148193359375
1783152047133166000,6.861166015625,-0.3176422119140625,-0.4141693115234375,1.2534942626953125
1783152047142870800,6.870870849609375,-0.1685791015625,-0.745880126953125,1.3695526123046875
1783152047152605700,6.880605712890625,-0.0225830078125,-1.2767181396484375,1.52044677734375
1783152047162310400,6.890310302734375,0.0775909423828125,-1.9535675048828125,1.7470703125
1783152047172015000,6.90001513671875,0.093475341796875,-2.6707305908203125,2.056793212890625
1783152047181719600,6.909719482421875,0.024444580078125,-3.2498321533203125,2.4349212646484375
1783152047191454700,6.919454833984375,-0.120330810546875,-3.5815277099609375,2.849700927734375
1783152047201159200,6.9291591796875,-0.340240478515625,-3.73974609375,3.2302703857421875
1783152047210863900,6.93886376953125,-0.6114654541015625,-3.66705322265625,3.4880523681640625
1783152047220568600,6.948568603515625,-0.836273193359375,-3.36590576171875,3.6010589599609375
1783152047230303500,6.958303466796875,-1.0018157958984375,-2.9266815185546875,3.53082275390625
1783152047240038700,6.96803857421875,-1.1123809814453125,-2.411102294921875,3.221710205078125
1783152047249743400,6.977743408203125,-1.1142120361328125,-1.830780029296875,2.6994171142578125
1783152047259447800,6.98744775390625,-1.0079193115234375,-1.1618804931640625,2.0751190185546875
1783152047269152500,6.997152587890625,-0.9388885498046875,-0.50823974609375,1.4636383056640625
1783152047278887400,7.006887451171875,-0.9981536865234375,-0.1453857421875,0.9364471435546875
1783152047288592100,7.016592041015625,-1.1832427978515625,-0.2968902587890625,0.420257568359375
1783152047298296800,7.026296875,-1.3231353759765625,-0.676239013671875,-0.177154541015625
1783152047308001300,7.036001220703125,-1.1697998046875,-0.92791748046875,-0.8368988037109375
1783152047317736400,7.045736328125,-0.7855682373046875,-0.92486572265625,-1.475860595703125
1783152047327441000,7.05544091796875,-0.3610076904296875,-0.6603546142578125,-2.0006103515625
1783152047337145600,7.0651455078125,-0.1502532958984375,-0.1991424560546875,-2.398284912109375
1783152047346850300,7.074850341796875,-0.1679840087890625,0.340850830078125,-2.6456756591796875
1783152047356585200,7.084585205078125,-0.2950286865234375,0.8863525390625,-2.7122650146484375
1783152047366290000,7.0942900390625,-0.4544677734375,1.344512939453125,-2.606597900390625
1783152047375994400,7.103994384765625,-0.5644378662109375,1.6517791748046875,-2.399505615234375
1783152047385699000,7.113698974609375,-0.623077392578125,1.691497802734375,-2.1679840087890625
1783152047395403800,7.12340380859375,-0.6719512939453125,1.4013214111328125,-1.9541778564453125
1783152047405138700,7.133138671875,-0.7055511474609375,0.9327850341796875,-1.756866455078125
1783152047414843400,7.142843505859375,-0.7067718505859375,0.4263763427734375,-1.5577239990234375
1783152047424547800,7.1525478515625,-0.6847686767578125,0.00244140625,-1.36285400390625
1783152047434252500,7.16225244140625,-0.620025634765625,-0.2724609375,-1.184478759765625
1783152047443987700,7.17198779296875,-0.491119384765625,-0.3714141845703125,-1.0244293212890625
1783152047453692200,7.181692138671875,-0.2840423583984375,-0.318267822265625,-0.8619384765625
1783152047463396900,7.19139697265625,0.0024566650390625,-0.2229766845703125,-0.7220458984375
1783152047473101300,7.201101318359375,0.323760986328125,-0.109344482421875,-0.5925445556640625
1783152047482836500,7.21083642578125,0.6285858154296875,-0.0158843994140625,-0.455108642578125
1783152047492541200,7.220541259765625,0.78497314453125,-0.0189361572265625,-0.3298797607421875
1783152047502245600,7.23024560546875,0.79168701171875,-0.1380615234375,-0.21075439453125
1783152047511980800,7.239980712890625,0.686004638671875,-0.27734375,-0.117279052734375
1783152047521685500,7.249685546875,0.5229034423828125,-0.3677520751953125,-0.06414794921875
1783152047531420400,7.25942041015625,0.36102294921875,-0.3653106689453125,-0.0452117919921875
1783152047541125000,7.269125,0.246795654296875,-0.2767181396484375,-0.022003173828125
1783152047550829600,7.27882958984375,0.1930389404296875,-0.1521148681640625,0.018310546875
1783152047560534300,7.2885341796875,0.1967010498046875,-0.034210205078125,0.0751190185546875
1783152047570269400,7.29826953125,0.2357940673828125,0.0360260009765625,0.1502532958984375
1783152047579974000,7.307973876953125,0.2730560302734375,0.042755126953125,0.24005126953125
1783152047589678600,7.3176787109375,0.3023834228515625,0.015869140625,0.331085205078125
1783152047599383000,7.327383056640625,0.2950439453125,0.050079345703125,0.412933349609375
1783152047609118200,7.3371181640625,0.2565765380859375,0.1490325927734375,0.51129150390625
1783152047618823000,7.346822998046875,0.1979217529296875,0.2192840576171875,0.621856689453125
1783152047628527400,7.35652734375,0.0812530517578125,0.2058563232421875,0.702484130859375
1783152047638232000,7.366232177734375,-0.049468994140625,0.1386566162109375,0.7495269775390625
1783152047647936500,7.3759365234375,-0.15087890625,0.1398773193359375,0.7855682373046875
1783152047657671700,7.385671630859375,-0.2150115966796875,0.2797698974609375,0.832000732421875
1783152047667376400,7.39537646484375,-0.263885498046875,0.51007080078125,0.8918609619140625
1783152047677080800,7.405080810546875,-0.3139801025390625,0.699432373046875,0.94744873046875
1783152047686785500,7.41478564453125,-0.3457489013671875,0.7244720458984375,0.9651641845703125
1783152047696520700,7.424520751953125,-0.340240478515625,0.5430450439453125,0.8967437744140625
1783152047706225200,7.43422509765625,-0.268157958984375,0.2095184326171875,0.7397613525390625
1783152047715929900,7.443929931640625,-0.152099609375,-0.0140533447265625,0.52227783203125
1783152047725634300,7.45363427734375,-0.0702362060546875,0.122772216796875,0.3628387451171875
1783152047735369500,7.463369384765625,-0.125213623046875,0.409271240234375,0.22723388671875
1783152047745074200,7.47307421875,-0.3054351806640625,0.634674072265625,0.040313720703125
1783152047754778600,7.482778564453125,-0.483184814453125,0.8161163330078125,-0.178985595703125
1783152047764483300,7.4924833984375,-0.561370849609375,0.920562744140625,-0.384857177734375
1783152047774187800,7.502187744140625,-0.6071929931640625,1.08184814453125,-0.6133270263671875
1783152047783923000,7.5119228515625,-0.6529998779296875,1.2577667236328125,-0.8662261962890625
1783152047793627600,7.521627685546875,-0.6792755126953125,1.37445068359375,-1.1221771240234375
1783152047803362600,7.531362548828125,-0.6719512939453125,1.4447021484375,-1.337799072265625
1783152047813067300,7.5410673828125,-0.6340789794921875,1.4062042236328125,-1.465484619140625
1783152047822802400,7.550802490234375,-0.592529296875,1.1612548828125,-1.50762939453125
1783152047832507000,7.5605068359375,-0.6114654541015625,0.775787353515625,-1.5247344970703125
1783152047842211600,7.570211669921875,-0.563812255859375,0.3976593017578125,-1.4465484619140625
1783152047851916000,7.579916015625,-0.36651611328125,0.01953125,-1.2779388427734375
1783152047861620700,7.589620849609375,-0.0348052978515625,-0.4349365234375,-1.06353759765625
1783152047871356000,7.59935595703125,0.2681732177734375,-0.6591339111328125,-0.8405609130859375
1783152047881060400,7.609060302734375,0.4373779296875,-0.6359100341796875,-0.6310272216796875
1783152047890765000,7.61876513671875,0.456329345703125,-0.613922119140625,-0.4709930419921875
1783152047900469500,7.628469482421875,0.310333251953125,-0.609039306640625,-0.4111175537109375
1783152047910204700,7.63820458984375,0.117279052734375,-0.71533203125,-0.4557037353515625
1783152047919909400,7.647909423828125,-0.0757293701171875,-0.861328125,-0.5937652587890625
1783152047929613800,7.65761376953125,-0.271820068359375,-0.7990264892578125,-0.78375244140625
1783152047939318500,7.667318603515625,-0.3878936767578125,-0.5736083984375,-0.968841552734375
1783152047949053400,7.677053466796875,-0.3640594482421875,-0.35552978515625,-1.113006591796875
1783152047958758100,7.686758056640625,-0.2192840576171875,-0.20953369140625,-1.2028045654296875
1783152047968462800,7.696462890625,-0.0005950927734375,-0.0965118408203125,-1.22052001953125
1783152047978167300,7.706167236328125,0.2370147705078125,-0.0140533447265625,-1.1563720703125
1783152047987872000,7.7158720703125,0.461822509765625,-0.024444580078125,-1.0189361572265625
1783152047997607000,7.72560693359375,0.6346893310546875,-0.1429443359375,-0.830780029296875
1783152048007311600,7.7353115234375,0.7360992431640625,-0.34881591796875,-0.604156494140625
1783152048017016300,7.745016357421875,0.7696990966796875,-0.5723876953125,-0.3323211669921875
1783152048026720800,7.754720703125,0.7238922119140625,-0.709228515625,-0.0134429931640625
1783152048036456000,7.7644560546875,0.601104736328125,-0.7281494140625,0.333526611328125
1783152048046160400,7.774160400390625,0.4410400390625,-0.6682891845703125,0.6798858642578125
1783152048055865000,7.783864990234375,0.3005523681640625,-0.5522308349609375,0.990814208984375
1783152048065569800,7.79356982421875,0.20953369140625,-0.3793487548828125,1.22906494140625
1783152048075304700,7.8033046875,0.1490478515625,-0.1875457763671875,1.38360595703125
1783152048085039900,7.813039794921875,0.0897979736328125,-0.0452117919921875,1.45751953125
1783152048094744600,7.82274462890625,0.0067138671875,0.0409088134765625,1.4691314697265625
1783152048104449000,7.832448974609375,-0.09405517578125,0.08306884765625,1.4453125
1783152048114153700,7.84215380859375,-0.22418212890625,0.08673095703125,1.37933349609375
1783152048123888600,7.851888671875,-0.3634490966796875,0.08795166015625,1.267547607421875
1783152048133593300,7.86159326171875,-0.4703521728515625,0.1502532958984375,1.134979248046875
1783152048143298000,7.871298095703125,-0.51922607421875,0.268768310546875,1.0060882568359375
1783152048153002500,7.88100244140625,-0.5009002685546875,0.3603973388671875,0.8924713134765625
1783152048162737700,7.890737548828125,-0.4160003662109375,0.3872833251953125,0.79901123046875
1783152048172442000,7.900442138671875,-0.3103179931640625,0.3518524169921875,0.7189788818359375
1783152048182146800,7.910146728515625,-0.22906494140625,0.23883056640625,0.630401611328125
1783152048191851500,7.9198515625,-0.190582275390625,0.0665740966796875,0.50946044921875
1783152048201586400,7.92958642578125,-0.2131805419921875,-0.0965118408203125,0.333526611328125
1783152048211291100,7.939291015625,-0.274261474609375,-0.1569976806640625,0.113006591796875
1783152048220995600,7.94899560546875,-0.3585662841796875,-0.031158447265625,-0.1215667724609375
1783152048230700300,7.9587001953125,-0.44775390625,0.197906494140625,-0.35247802734375
1783152048240405000,7.968405029296875,-0.51556396484375,0.400115966796875,-0.5784912109375
1783152048250140000,7.978139892578125,-0.5363311767578125,0.5412139892578125,-0.78863525390625
1783152048259844600,7.9878447265625,-0.483795166015625,0.6352996826171875,-0.9444122314453125
1783152048269549000,7.997549072265625,-0.37994384765625,0.693328857421875,-1.0122222900390625
1783152048279253800,8.007253662109376,-0.2595977783203125,0.72509765625,-0.962127685546875
1783152048288989000,8.016989013671875,-0.1429290771484375,0.7147064208984375,-0.7959747314453125
1783152048298693400,8.026693359375,-0.0354156494140625,0.59375,-0.5577239990234375
1783152048308398000,8.036398193359375,0.07330322265625,0.339630126953125,-0.2987213134765625
1783152048318102500,8.0461025390625,0.1936492919921875,-0.0091705322265625,-0.06842041015625
1783152048327837700,8.055837646484376,0.323760986328125,-0.36285400390625,0.1038360595703125
1783152048337542400,8.06554248046875,0.4477691650390625,-0.6255340576171875,0.194244384765625
1783152048347246800,8.075246826171876,0.5577239990234375,-0.7782440185546875,0.2119598388671875
1783152048356951600,8.08495166015625,0.63409423828125,-0.8430023193359375,0.1655426025390625
1783152048366656000,8.094656005859376,0.6640167236328125,-0.8051300048828125,0.056793212890625
1783152048386126300,8.114126220703126,0.5711669921875,-0.3475799560546875,-0.2956695556640625
1783152048395830800,8.123830810546876,0.466705322265625,-0.0513153076171875,-0.4783172607421875
1783152048405535500,8.133535400390626,0.35308837890625,0.2119598388671875,-0.63775634765625
1783152048415270700,8.143270751953125,0.251678466796875,0.3878936767578125,-0.7556610107421875
1783152048424975000,8.15297509765625,0.175933837890625,0.470977783203125,-0.8124542236328125
1783152048434679800,8.1626796875,0.1484527587890625,0.4740142822265625,-0.8014678955078125
1783152048444384300,8.17238427734375,0.180206298828125,0.411712646484375,-0.7238922119140625
1783152048454119400,8.182119384765626,0.2675628662109375,0.29931640625,-0.5809326171875
1783152048463824100,8.19182421875,0.3671417236328125,0.1746978759765625,-0.3824005126953125
1783152048473528600,8.201528564453126,0.4392242431640625,0.1001739501953125,-0.1527252197265625
1783152048483233300,8.2112333984375,0.461212158203125,0.113006591796875,0.08856201171875
1783152048492937700,8.220937744140626,0.4367828369140625,0.1722564697265625,0.3219146728515625
1783152048502673000,8.2306728515625,0.395233154296875,0.22845458984375,0.5418243408203125
1783152048512377600,8.240377685546875,0.35858154296875,0.2877044677734375,0.7397613525390625
1783152048522082000,8.25008203125,0.317657470703125,0.3591766357421875,0.8985748291015625
1783152048531786800,8.259786865234375,0.2639007568359375,0.3958282470703125,0.9999847412109375
1783152048541522000,8.26952197265625,0.21685791015625,0.3872833251953125,1.054351806640625
1783152048551226400,8.279226318359376,0.1912078857421875,0.37322998046875,1.0751190185546875
1783152048560931000,8.28893115234375,0.179595947265625,0.38360595703125,1.0684051513671875
1783152048570635500,8.298635498046876,0.170440673828125,0.420257568359375,1.0384674072265625
1783152048580370700,8.30837060546875,0.1600494384765625,0.4893035888671875,1.009765625
1783152048599779800,8.32777978515625,0.1130218505859375,0.59130859375,1.0347900390625
1783152048609484500,8.337484619140625,0.06781005859375,0.51068115234375,1.066558837890625
1783152048619189000,8.34718896484375,0.0006103515625,0.3078765869140625,1.0720672607421875
1783152048628924200,8.356924072265626,-0.0653533935546875,-0.0079345703125,1.01953125
1783152048638628900,8.36662890625,-0.1038360595703125,-0.3384246826171875,0.8790283203125
1783152048648333300,8.376333251953126,-0.08795166015625,-0.49847412109375,0.66461181640625
1783152048658068500,8.386068359375,-0.0995635986328125,-0.35369873046875,0.408660888671875
1783152048667803600,8.3958037109375,-0.1844635009765625,-0.030548095703125,0.120330810546875
1783152048677508000,8.405508056640626,-0.2877044677734375,0.2822113037109375,-0.1973114013671875
1783152048687212800,8.415212890625,-0.3072509765625,0.472198486328125,-0.541229248046875
1783152048696917200,8.424917236328126,-0.2180633544921875,0.51739501953125,-0.8839263916015625
1783152048706652400,8.43465234375,-0.08612060546875,0.550994873046875,-1.1734771728515625
1783152048716357000,8.444357177734375,-0.0164794921875,0.66339111328125,-1.36590576171875
1783152048726061600,8.4540615234375,-0.054962158203125,0.7599029541015625,-1.4349365234375
1783152048735766300,8.463766357421875,-0.14599609375,0.7880096435546875,-1.3665313720703125
1783152048745470700,8.473470703125,-0.2425079345703125,0.758087158203125,-1.1948699951171875
1783152048755206000,8.483205810546876,-0.2938079833984375,0.6450653076171875,-0.968231201171875
1783152048764910600,8.49291064453125,-0.2761077880859375,0.4624176025390625,-0.752593994140625
1783152048774615000,8.502614990234376,-0.185089111328125,0.23089599609375,-0.602935791015625
1783152048784319700,8.51231982421875,-0.0396881103515625,0.0115966796875,-0.5449066162109375
1783152048794054700,8.5220546875,0.1252288818359375,-0.1588287353515625,-0.5827789306640625
1783152048803759400,8.53175927734375,0.2712249755859375,-0.2852783203125,-0.7012786865234375
1783152048813464000,8.541464111328125,0.3720245361328125,-0.3653106689453125,-0.8784332275390625
1783152048823168500,8.55116845703125,0.4361572265625,-0.36285400390625,-1.07757568359375
1783152048832873200,8.560873291015625,0.48809814453125,-0.27490234375,-1.249237060546875
1783152048842608000,8.570608154296876,0.532073974609375,-0.1563873291015625,-1.35797119140625
1783152048852312800,8.580312744140626,0.570556640625,-0.0592498779296875,-1.3854522705078125
1783152048862017500,8.590017578125,0.6243133544921875,0.01953125,-1.3139801025390625
1783152048871722000,8.599721923828126,0.704345703125,0.0946807861328125,-1.1270599365234375
1783152048881457200,8.60945703125,0.78802490234375,0.14599609375,-0.829559326171875
1783152048891161600,8.61916162109375,0.8521575927734375,0.122772216796875,-0.4447174072265625
1783152048900866300,8.6288662109375,0.8680419921875,-0.0018310546875,-0.0250396728515625
1783152048910571000,8.638571044921875,0.827117919921875,-0.21258544921875,0.37384033203125
1783152048930010600,8.6580107421875,0.64447021484375,-0.6579132080078125,0.9590606689453125
1783152048939715000,8.667715087890626,0.5449066162109375,-0.864990234375,1.1093292236328125
1783152048949450200,8.6774501953125,0.4777069091796875,-1.0274810791015625,1.1759033203125
1783152048959155000,8.687155029296875,0.431884765625,-1.0830841064453125,1.1697998046875
1783152048968890000,8.69689013671875,0.3775177001953125,-0.9951171875,1.09283447265625
1783152048978594600,8.706594482421876,0.3054351806640625,-0.758697509765625,0.9566192626953125
1783152048988299300,8.71629931640625,0.22174072265625,-0.4025726318359375,0.7831268310546875
1783152048998003700,8.726003662109376,0.130126953125,0.001220703125,0.6047515869140625
1783152049007739000,8.73573876953125,0.0189361572265625,0.347564697265625,0.4447021484375
1783152049017443300,8.745443359375,-0.120330810546875,0.5656585693359375,0.3206939697265625
1783152049027148000,8.75514794921875,-0.2773284912109375,0.65362548828125,0.24127197265625
1783152049036852700,8.764852783203125,-0.4312591552734375,0.65118408203125,0.196685791015625
1783152049046587600,8.774587646484376,-0.549774169921875,0.6016845703125,0.1716461181640625
1783152049056292400,8.784292236328126,-0.6096343994140625,0.5057830810546875,0.1514739990234375
1783152049065996800,8.793996826171876,-0.5974273681640625,0.3817901611328125,0.126434326171875
1783152049075701500,8.803701416015626,-0.51983642578125,0.2877044677734375,0.1074981689453125
1783152049085406200,8.81340625,-0.3982696533203125,0.23211669921875,0.114227294921875
1783152049095141000,8.82314111328125,-0.2559356689453125,0.193023681640625,0.1514739990234375
1783152049104845800,8.832845703125,-0.1123809814453125,0.15087890625,0.202789306640625
1783152049114550300,8.84255029296875,0.020782470703125,0.0738983154296875,0.267547607421875
1783152049124255000,8.8522548828125,0.106903076171875,-0.031768798828125,0.3542938232421875
1783152049133990100,8.861990234375,0.112396240234375,-0.174102783203125,0.4575347900390625
1783152049143694600,8.871694580078126,0.0531463623046875,-0.35675048828125,0.563812255859375
1783152049153399300,8.8813994140625,-0.048248291015625,-0.527801513671875,0.622467041015625
1783152049163103700,8.891103759765626,-0.199737548828125,-0.6157684326171875,0.558319091796875
1783152049172839000,8.9008388671875,-0.401336669921875,-0.536956787109375,0.338409423828125
1783152049182543600,8.910543701171875,-0.6365203857421875,-0.273681640625,-0.0110015869140625
1783152049192248000,8.920248046875,-0.8588714599609375,0.08306884765625,-0.422119140625
1783152049201952800,8.929952880859375,-1.0079193115234375,0.4300384521484375,-0.8130645751953125
1783152049211657200,8.9396572265625,-1.0409088134765625,0.7104339599609375,-1.116668701171875
1783152049221392400,8.949392333984376,-0.9730987548828125,0.911407470703125,-1.2877197265625
1783152049231127600,8.95912744140625,-0.842376708984375,1.0030364990234375,-1.3090972900390625
1783152049240832000,8.96883203125,-0.700653076171875,0.93707275390625,-1.21197509765625
1783152049250536700,8.97853662109375,-0.58642578125,0.66827392578125,-1.0488739013671875
1783152049260271900,8.98827197265625,-0.483184814453125,0.23455810546875,-0.8723297119140625
1783152049269976300,8.997976318359376,-0.347564697265625,-0.2400665283203125,-0.7257080078125
1783152049279681000,9.007680908203126,-0.1514739990234375,-0.6346893310546875,-0.6285858154296875
1783152049289385500,9.017385498046876,0.0836944580078125,-0.8381195068359375,-0.5687255859375
1783152049299120600,9.02712060546875,0.2987213134765625,-0.8594970703125,-0.5113067626953125
1783152049308825300,9.036825439453125,0.453887939453125,-0.816741943359375,-0.4312744140625
1783152049318529800,9.04652978515625,0.532073974609375,-0.7794647216796875,-0.326812744140625
1783152049328234500,9.056234375,0.538177490234375,-0.7379302978515625,-0.20404052734375
1783152049337939000,9.06593896484375,0.49908447265625,-0.6640167236328125,-0.0763702392578125
1783152049347674000,9.075674072265626,0.4324951171875,-0.5571136474609375,0.0354156494140625
1783152049357378800,9.08537890625,0.35675048828125,-0.4471588134765625,0.120941162109375
1783152049367083300,9.095083251953126,0.2956695556640625,-0.3420867919921875,0.193023681640625
1783152049376788000,9.1047880859375,0.2620697021484375,-0.244964599609375,0.271209716796875
1783152049386523100,9.114523193359375,0.260833740234375,-0.172882080078125,0.36895751953125
1783152049396227600,9.1242275390625,0.2975006103515625,-0.1343841552734375,0.4966278076171875
1783152049405932300,9.133932373046875,0.3708038330078125,-0.13623046875,0.66339111328125
1783152049425372000,9.153371826171876,0.5577239990234375,-0.35125732421875,1.1056671142578125
1783152049435076600,9.16307666015625,0.6597442626953125,-0.5699462890625,1.39031982421875
1783152049444781000,9.172781005859376,0.748321533203125,-0.78985595703125,1.703704833984375
1783152049454485800,9.18248583984375,0.79656982421875,-0.959686279296875,2.0048675537109375
1783152049464190200,9.192190185546876,0.8069610595703125,-1.06353759765625,2.25286865234375
1783152049473925400,9.20192529296875,0.7990264892578125,-1.1435546875,2.4300384521484375
1783152049483630000,9.211630126953125,0.78680419921875,-1.21502685546875,2.5406036376953125
1783152049493334500,9.22133447265625,0.7635955810546875,-1.248626708984375,2.5894775390625
1783152049503039200,9.231039306640625,0.7232666015625,-1.21868896484375,2.5711517333984375
1783152049512774100,9.240774169921876,0.6664581298828125,-1.0910186767578125,2.4788970947265625
1783152049522509300,9.25050927734375,0.595001220703125,-0.8570556640625,2.3109130859375
1783152049532214000,9.260214111328125,0.50396728515625,-0.57666015625,2.063507080078125
1783152049541918500,9.26991845703125,0.393402099609375,-0.2987213134765625,1.732421875
1783152049551653600,9.279653564453126,0.2724609375,-0.06109619140625,1.3292388916015625
1783152049561358300,9.2893583984375,0.169830322265625,0.08367919921875,0.8900146484375
1783152049571062800,9.299062744140626,0.116058349609375,0.123992919921875,0.4599761962890625
1783152049580767500,9.308767578125,0.117279052734375,0.1563720703125,0.0946807861328125
1783152049590472000,9.318471923828126,0.1392822265625,0.2437286376953125,-0.1557769775390625
1783152049600207000,9.32820703125,0.1447906494140625,0.3145904541015625,-0.3023834228515625
1783152049609911800,9.337911865234375,0.1356048583984375,0.2846527099609375,-0.4178314208984375
1783152049619616300,9.3476162109375,0.1496734619140625,0.194244384765625,-0.5626068115234375
1783152049629321000,9.357321044921875,0.20770263671875,0.1288909912109375,-0.7330474853515625
1783152049639056100,9.36705615234375,0.2639007568359375,0.133148193359375,-0.896148681640625
1783152049648760600,9.376760498046876,0.2345733642578125,0.2046356201171875,-1.0219879150390625
1783152049658465300,9.38646533203125,0.0910186767578125,0.3549041748046875,-1.0910186767578125
1783152049668169700,9.396169677734376,-0.1087188720703125,0.5735931396484375,-1.0934600830078125
1783152049677905000,9.40590478515625,-0.2803802490234375,0.844207763671875,-1.0219879150390625
1783152049687609300,9.415609375,-0.38238525390625,1.125213623046875,-0.893707275390625
1783152049697314000,9.42531396484375,-0.408050537109375,1.348785400390625,-0.7379302978515625
1783152049707018800,9.435018798828125,-0.37261962890625,1.44287109375,-0.5955963134765625
1783152049716723200,9.44472314453125,-0.3267974853515625,1.38116455078125,-0.5210723876953125
1783152049726458400,9.454458251953126,-0.293212890625,1.1472015380859375,-0.5491790771484375
1783152049736162800,9.464162841796876,-0.2467803955078125,0.773345947265625,-0.673187255859375
1783152049745867500,9.473867431640626,-0.1435394287109375,0.37628173828125,-0.8558349609375
1783152049755572200,9.483572265625,0.033599853515625,0.111785888671875,-1.0476531982421875
1783152049765307100,9.49330712890625,0.2412872314453125,0.0396881103515625,-1.20953369140625
1783152049775011800,9.50301171875,0.4025726318359375,0.0934600830078125,-1.3103179931640625
1783152049784716300,9.51271630859375,0.4777069091796875,0.201568603515625,-1.330474853515625
1783152049794421000,9.5224208984375,0.4746551513671875,0.3292388916015625,-1.2700042724609375
1783152049804156200,9.53215625,0.4147796630859375,0.4544677734375,-1.142333984375
1783152049813891300,9.541891357421875,0.3029937744140625,0.5711517333984375,-0.965789794921875
1783152049823595800,9.551595703125,0.1453857421875,0.65362548828125,-0.744659423828125
1783152049833300500,9.561300537109375,-0.0250244140625,0.66217041015625,-0.4899139404296875
1783152049843005000,9.5710048828125,-0.1814117431640625,0.6047515869140625,-0.2248077392578125
1783152049852740000,9.580739990234376,-0.3023681640625,0.4972381591796875,0.0225830078125
1783152049862444800,9.59044482421875,-0.37261962890625,0.3542938232421875,0.22662353515625
1783152049872149200,9.600149169921876,-0.3952178955078125,0.2107391357421875,0.37872314453125
1783152049881854000,9.60985400390625,-0.37628173828125,0.09405517578125,0.485015869140625
1783152049891588900,9.6195888671875,-0.3249664306640625,0.0140380859375,0.552215576171875
1783152049901293600,9.62929345703125,-0.261444091796875,-0.0238189697265625,0.5845794677734375
1783152049910998000,9.638998046875,-0.2034149169921875,-0.0110015869140625,0.5796966552734375
1783152049920702700,9.64870263671875,-0.1636962890625,0.042755126953125,0.5320587158203125
1783152049930407400,9.658407470703125,-0.135589599609375,0.115447998046875,0.4581451416015625
1783152049949847000,9.677846923828126,-0.1502532958984375,0.2186737060546875,0.3115386962890625
1783152049959551500,9.687551513671876,-0.188751220703125,0.192413330078125,0.2492218017578125
1783152049969256200,9.697256103515626,-0.2394561767578125,0.1673583984375,0.202789306640625
1783152049978991400,9.706991455078125,-0.2816009521484375,0.197906494140625,0.189971923828125
1783152049988695800,9.71669580078125,-0.2987060546875,0.2803802490234375,0.22357177734375
1783152049998400500,9.726400390625,-0.3048095703125,0.3542938232421875,0.2773284912109375
1783152050008105000,9.73610498046875,-0.3158111572265625,0.347564697265625,0.3249664306640625
1783152050017840000,9.745840087890626,-0.334747314453125,0.2131805419921875,0.342071533203125
1783152050027544800,9.755544921875,-0.3457489013671875,-0.0439910888671875,0.3072509765625
1783152050037249300,9.765249267578126,-0.335968017578125,-0.36041259765625,0.2180633544921875
1783152050046954000,9.7749541015625,-0.2889251708984375,-0.64813232421875,0.09893798828125
1783152050056689200,9.784689208984375,-0.198516845703125,-0.855224609375,-0.024444580078125
1783152050066393600,9.7943935546875,-0.07757568359375,-0.9572296142578125,-0.14111328125
1783152050076098300,9.804098388671875,0.06964111328125,-0.9486846923828125,-0.2266387939453125
1783152050085833500,9.81383349609375,0.21807861328125,-0.8338470458984375,-0.245574951171875
1783152050095538000,9.823537841796876,0.3121490478515625,-0.6524200439453125,-0.1918182373046875
1783152050105273000,9.833273193359375,0.323150634765625,-0.452667236328125,-0.07696533203125
1783152050114977500,9.8429775390625,0.246185302734375,-0.251678466796875,0.0781707763671875
1783152050124682200,9.85268212890625,0.0977325439453125,-0.0867462158203125,0.23211669921875
1783152050134386700,9.86238671875,-0.09527587890625,-0.0507049560546875,0.3115386962890625
1783152050144121900,9.872121826171876,-0.28955078125,-0.1942596435546875,0.2437286376953125
1783152050153826600,9.88182666015625,-0.434326171875,-0.36102294921875,0.0219879150390625
1783152050163531000,9.891531005859376,-0.5045623779296875,-0.397064208984375,-0.322540283203125
1783152050173235700,9.901235595703126,-0.51251220703125,-0.3005523681640625,-0.761138916015625
1783152050182940200,9.910940185546876,-0.4715728759765625,-0.1307220458984375,-1.2431182861328125
1783152050192675300,9.92067529296875,-0.37811279296875,0.0684051513671875,-1.686614990234375
1783152050202380000,9.930380126953125,-0.22967529296875,0.261444091796875,-2.0006103515625
1783152050212084500,9.94008447265625,-0.0225830078125,0.37750244140625,-2.1007843017578125
1783152050221789200,9.9497890625,0.20709228515625,0.37261962890625,-1.9523468017578125
1783152050231524400,9.9595244140625,0.395843505859375,0.2492218017578125,-1.583984375
1783152050241228800,9.969228759765626,0.49542236328125,0.0696258544921875,-1.06475830078125
1783152050250933500,9.97893359375,0.4874725341796875,-0.1215667724609375,-0.4844207763671875
1783152050260638000,9.988637939453126,0.4080657958984375,-0.3042144775390625,0.0635223388671875
1783152050270373000,9.998373046875,0.3072662353515625,-0.4380035400390625,0.485015869140625
1783152050280077800,10.008077880859375,0.2235870361328125,-0.466094970703125,0.708587646484375
1783152050289782300,10.0177822265625,0.172882080078125,-0.3720245361328125,0.7195892333984375
1783152050299487000,10.027487060546875,0.1661529541015625,-0.174713134765625,0.5693206787109375
1783152050309191400,10.03719140625,0.2015838623046875,0.0696258544921875,0.343902587890625
1783152050318926600,10.046926513671876,0.243743896484375,0.3011474609375,0.119110107421875
1783152050328631300,10.05663134765625,0.258392333984375,0.469757080078125,-0.033599853515625
1783152050338335700,10.066335693359376,0.2278594970703125,0.557098388671875,-0.0574188232421875
1783152050348040400,10.07604052734375,0.1637115478515625,0.550384521484375,0.058624267578125
1783152050357775400,10.085775390625,0.0916290283203125,0.4648590087890625,0.2828216552734375
1783152050367480000,10.09547998046875,0.036041259765625,0.36590576171875,0.565032958984375
1783152050377215200,10.10521533203125,-0.001220703125,0.2761077880859375,0.8527679443359375
1783152050386919700,10.114919677734376,-0.0225830078125,0.183868408203125,1.1032257080078125
1783152050406359600,10.134359619140625,-0.0115966796875,0.0659637451171875,1.4275970458984375
1783152050416064000,10.14406396484375,-0.0115966796875,0.051910400390625,1.480743408203125
1783152050425768700,10.153768798828125,-0.0299224853515625,0.056793212890625,1.4532470703125
1783152050464617500,10.192617431640626,-0.1148223876953125,0.1313323974609375,0.7861785888671875
1783152050474322200,10.202322265625,-0.125213623046875,0.1368255615234375,0.5619964599609375
1783152050484057300,10.212057373046875,-0.121551513671875,0.1710357666015625,0.3610076904296875
1783152050493761800,10.22176171875,-0.114227294921875,0.23455810546875,0.2156219482421875
1783152050503466500,10.231466552734375,-0.128265380859375,0.3121337890625,0.1404876708984375
1783152050513171000,10.2411708984375,-0.1514739990234375,0.3964385986328125,0.1392669677734375
1783152050522906000,10.250906005859376,-0.1832427978515625,0.4654693603515625,0.193634033203125
1783152050532610600,10.260610595703126,-0.2198944091796875,0.477081298828125,0.2541046142578125
1783152050542315300,10.270315185546876,-0.22296142578125,0.421478271484375,0.296875
1783152050552020000,10.28002001953125,-0.1551513671875,0.2834320068359375,0.3188629150390625
1783152050561724400,10.289724365234376,-0.0256500244140625,0.0745086669921875,0.3139801025390625
1783152050571459600,10.29945947265625,0.1472320556640625,-0.175323486328125,0.2974853515625
1783152050581164000,10.3091640625,0.35430908203125,-0.48809814453125,0.2803802490234375
1783152050590868700,10.31886865234375,0.5522308349609375,-0.827117919921875,0.2406768798828125
1783152050600573400,10.328573486328125,0.684783935546875,-0.92913818359375,0.1740875244140625
1783152050610308400,10.338308349609376,0.6957855224609375,-0.6921234130859375,0.0708465576171875
1783152050620013000,10.348012939453126,0.564453125,-0.2364044189453125,-0.06353759765625
1783152050629717500,10.357717529296876,0.325592041015625,0.3060302734375,-0.1912078857421875
1783152050639422200,10.367422119140626,0.07574462890625,0.81304931640625,-0.2724609375
1783152050649157400,10.377157470703125,-0.0934600830078125,1.1398773193359375,-0.287109375
1783152050658892500,10.386892578125,-0.158203125,1.204620361328125,-0.252899169921875
1783152050668597000,10.396596923828126,-0.1362152099609375,1.0757293701171875,-0.1942596435546875
1783152050678301700,10.4063017578125,-0.042755126953125,0.79595947265625,-0.1429443359375
1783152050688006100,10.416006103515626,0.105072021484375,0.3817901611328125,-0.1319427490234375
1783152050697741300,10.4257412109375,0.2920074462890625,-0.07452392578125,-0.178985595703125
1783152050717150500,10.445150390625,0.7293701171875,-0.78619384765625,-0.5534515380859375
1783152050726855200,10.454855224609375,0.889434814453125,-0.9841156005859375,-0.9242401123046875
1783152050736590000,10.464590087890626,0.9877777099609375,-0.973114013671875,-1.3500213623046875
1783152050746294800,10.474294677734376,1.0219879150390625,-0.7275543212890625,-1.7220458984375
1783152050755999200,10.483999267578126,0.968231201171875,-0.3084869384765625,-1.93768310546875
1783152050765704000,10.493703857421876,0.8411712646484375,0.1172637939453125,-1.92974853515625
1783152050775439000,10.503439208984375,0.686004638671875,0.4019317626953125,-1.683563232421875
1783152050785143600,10.5131435546875,0.5235137939453125,0.5027313232421875,-1.251678466796875
1783152050794848300,10.52284814453125,0.3463592529296875,0.4526519775390625,-0.7367095947265625
1783152050804552700,10.532552734375,0.1460113525390625,0.2840423583984375,-0.2620697021484375
1783152050814257400,10.54225732421875,-0.051300048828125,0.0274810791015625,0.0702362060546875
1783152050823992600,10.55199267578125,-0.194854736328125,-0.2003631591796875,0.22235107421875
1783152050833697000,10.561697021484376,-0.264495849609375,-0.2852783203125,0.2040252685546875
1783152050843401700,10.571401611328126,-0.274261474609375,-0.244964599609375,0.047027587890625
1783152050853106200,10.581106201171876,-0.22967529296875,-0.13134765625,-0.1899871826171875
1783152050862841300,10.59084130859375,-0.15087890625,0.0360260009765625,-0.4410400390625
1783152050872546000,10.600546142578125,-0.0629119873046875,0.23638916015625,-0.64324951171875
1783152050882250500,10.61025048828125,0.0146636962890625,0.4263763427734375,-0.758697509765625
1783152050891955200,10.619955078125,0.06903076171875,0.549163818359375,-0.7635955810546875
1783152050901690400,10.6296904296875,0.0910186767578125,0.5632171630859375,-0.6542510986328125
1783152050911394800,10.639394775390626,0.07818603515625,0.4599761962890625,-0.4410400390625
1783152050921099500,10.649099609375,0.037872314453125,0.275482177734375,-0.1435546875
1783152050930804000,10.658803955078126,-0.0232086181640625,0.050079345703125,0.193634033203125
1783152050950243800,10.678243896484375,-0.1820220947265625,-0.4092864990234375,0.7501373291015625
1783152050959978800,10.687978759765626,-0.256561279296875,-0.5852203369140625,0.8802490234375
1783152050969683500,10.697683349609376,-0.3048095703125,-0.683563232421875,0.8924713134765625
1783152050979388000,10.707387939453126,-0.328643798828125,-0.6896820068359375,0.7886199951171875
1783152050989123000,10.717123046875,-0.3194732666015625,-0.5503997802734375,0.5870361328125
1783152050998827800,10.726827880859375,-0.259002685546875,-0.241912841796875,0.3573455810546875
1783152051008532200,10.7365322265625,-0.182647705078125,0.125213623046875,0.15576171875
1783152051018237000,10.74623681640625,-0.0971221923828125,0.3628387451171875,0.0238037109375
1783152051027972000,10.75597216796875,-0.0128173828125,0.3982696533203125,-0.0116119384765625
1783152051037676500,10.765676513671876,0.0580291748046875,0.4556884765625,0.0641326904296875
1783152051047381200,10.77538134765625,0.0922393798828125,0.7483062744140625,0.22723388671875
1783152051057085700,10.785085693359376,0.137451171875,0.7189788818359375,0.3530731201171875
1783152051066790400,10.794790283203126,0.2303009033203125,-0.306671142578125,0.22479248046875
1783152051076525600,10.804525634765625,0.310333251953125,-1.607818603515625,-0.1514892578125
1783152051086230000,10.81422998046875,0.2950439453125,-1.836883544921875,-0.5516204833984375
1783152051095934700,10.823934814453125,0.1331634521484375,-0.9920501708984375,-0.8698883056640625
1783152051105639200,10.83363916015625,-0.1539306640625,0.0238037109375,-1.1685943603515625
1783152051115374300,10.843374267578126,-0.4520263671875,0.6829376220703125,-1.472198486328125
1783152051125079000,10.8530791015625,-0.6377410888671875,1.1050567626953125,-1.66033935546875
1783152051134783500,10.862783447265626,-0.687225341796875,1.4764556884765625,-1.64019775390625
1783152051144488200,10.87248828125,-0.701263427734375,1.67071533203125,-1.4868621826171875
1783152051154223400,10.882223388671875,-0.775787353515625,1.5070037841796875,-1.327423095703125
1783152051163927800,10.891927734375,-0.8912506103515625,1.057403564453125,-1.2125701904296875
1783152051173632500,10.901632568359375,-0.9657745361328125,0.51556396484375,-1.1362152099609375
1783152051183337000,10.9113369140625,-0.94439697265625,0.0372467041015625,-1.0861358642578125
1783152051193041700,10.921041748046875,-0.8185577392578125,-0.2864990234375,-1.06597900390625
1783152051202776600,10.930776611328126,-0.634674072265625,-0.4471588134765625,-1.0891876220703125
1783152051212481300,10.940481201171876,-0.4373626708984375,-0.4770965576171875,-1.1313323974609375
1783152051222186000,10.95018603515625,-0.2382354736328125,-0.394012451171875,-1.1514892578125
1783152051231921000,10.9599208984375,-0.051300048828125,-0.2021942138671875,-1.1380462646484375
1783152051241656000,10.969656005859376,0.0824737548828125,0.0238037109375,-1.109344482421875
1783152051251360800,10.97936083984375,0.1545562744140625,0.1734771728515625,-1.08489990234375
1783152051261065200,10.989065185546876,0.1869354248046875,0.2119598388671875,-1.07818603515625
1783152051270770000,10.99877001953125,0.20404052734375,0.1685791015625,-1.0910186767578125
1783152051280474400,11.008474365234376,0.2309112548828125,0.08489990234375,-1.115447998046875
1783152051290209500,11.01820947265625,0.2901611328125,-0.0091705322265625,-1.1337738037109375
1783152051299914200,11.027914306640625,0.384246826171875,-0.0879669189453125,-1.1264495849609375
1783152051309618700,11.03761865234375,0.5100860595703125,-0.1270599365234375,-1.0629119873046875
1783152051319323400,11.047323486328125,0.6554718017578125,-0.108123779296875,-0.9126434326171875
1783152051329058600,11.05705859375,0.78619384765625,-0.038482666015625,-0.6627960205078125
1783152051338763000,11.066762939453126,0.8515625,0.0042572021484375,-0.320098876953125
1783152051348467700,11.0764677734375,0.828948974609375,-0.036651611328125,0.08367919921875
1783152051358172200,11.086172119140626,0.7324371337890625,-0.135009765625,0.5021209716796875
1783152051367907300,11.0959072265625,0.5833740234375,-0.2351837158203125,0.8887939453125
1783152051377612000,11.105612060546875,0.4135589599609375,-0.313995361328125,1.1930084228515625
1783152051387316500,11.11531640625,0.2577972412109375,-0.35614013671875,1.37445068359375
1783152051397021200,11.125021240234375,0.13623046875,-0.3335418701171875,1.413543701171875
1783152051406725600,11.1347255859375,0.0561981201171875,-0.247406005859375,1.31396484375
1783152051416460800,11.144460693359376,0.027496337890625,-0.1246185302734375,1.09161376953125
1783152051426165200,11.154165283203126,0.0537567138671875,-0.0238189697265625,0.770294189453125
1783152051435870000,11.163869873046876,0.1337890625,0.0329742431640625,0.3848419189453125
1783152051445574700,11.17357470703125,0.2675628662109375,0.08184814453125,0.0103759765625
1783152051455309600,11.1833095703125,0.4166107177734375,0.1783599853515625,-0.243743896484375
1783152051465014300,11.19301416015625,0.526580810546875,0.3500213623046875,-0.285888671875
1783152051474718700,11.20271875,0.5980377197265625,0.480133056640625,-0.0849151611328125
1783152051484423400,11.21242333984375,0.63775634765625,0.3500213623046875,0.3133544921875
1783152051494158600,11.22215869140625,0.5852203369140625,-0.1588287353515625,0.764190673828125
1783152051503863000,11.231863037109376,0.3665313720703125,-0.78009033203125,1.09527587890625
1783152051513567700,11.241567626953126,-0.001220703125,-1.07452392578125,1.24005126953125
1783152051523303000,11.251302978515625,-0.3842315673828125,-0.8698883056640625,1.23333740234375
1783152051533007400,11.26100732421875,-0.6414031982421875,-0.3799591064453125,1.132537841796875
1783152051542742500,11.270742431640626,-0.701263427734375,0.08612060546875,0.9700469970703125
1783152051562151700,11.290151611328126,-0.2119598388671875,0.3610076904296875,0.549163818359375
1783152051571856400,11.2998564453125,0.1893768310546875,0.2938079833984375,0.3933868408203125
1783152051581591300,11.30959130859375,0.453887939453125,0.1441497802734375,0.274261474609375
1783152051591296000,11.3192958984375,0.4532623291015625,-0.170440673828125,0.1136016845703125
1783152051601000700,11.329000732421875,0.21624755859375,-0.6658477783203125,-0.1991424560546875
1783152051610705200,11.338705078125,-0.0720672607421875,-1.183868408203125,-0.7428131103515625
1783152051620440300,11.3484404296875,-0.2070770263671875,-1.3769073486328125,-1.4850311279296875
1783152051630144800,11.358144775390626,-0.14599609375,-1.039703369140625,-2.2809906005859375
1783152051639849500,11.367849365234376,0.031158447265625,-0.2626800537109375,-2.908355712890625
1783152051649554000,11.377553955078126,0.2339630126953125,0.696990966796875,-3.191802978515625
1783152051659258600,11.387258544921876,0.4117279052734375,1.492950439453125,-3.0616912841796875
1783152051668993800,11.396993896484375,0.5155792236328125,1.8863525390625,-2.5797119140625
1783152051678698200,11.4066982421875,0.49420166015625,1.80999755859375,-1.895538330078125
1783152051688403000,11.41640283203125,0.3329315185546875,1.5051727294921875,-1.190582275390625
1783152051698107400,11.426107421875,0.0897979736328125,1.23089599609375,-0.63165283203125
1783152051707842600,11.435842529296876,-0.1527099609375,1.125823974609375,-0.311553955078125
1783152051717547300,11.44554736328125,-0.346343994140625,1.266326904296875,-0.258392333984375
1783152051736956400,11.464956298828126,-0.37811279296875,2.0824432373046875,-0.7238922119140625
1783152051746691600,11.474691650390625,-0.186920166015625,2.4856109619140625,-1.0201568603515625
1783152051756396000,11.48439599609375,0.138671875,2.700042724609375,-1.2076873779296875
1783152051766100700,11.494100830078125,0.5589447021484375,2.6603240966796875,-1.21807861328125
1783152051775805200,11.50380517578125,0.99755859375,2.3683319091796875,-1.042144775390625
1783152051785510000,11.513510009765625,1.3750762939453125,1.8735198974609375,-0.6939544677734375
1783152051795245000,11.5232451171875,1.64019775390625,1.23577880859375,-0.21685791015625
1783152051804980000,11.53297998046875,1.768463134765625,0.5381622314453125,0.327423095703125
1783152051814684700,11.5426845703125,1.7342681884765625,-0.039093017578125,0.8802490234375
1783152051824389400,11.552389404296875,1.6682891845703125,-0.608428955078125,1.38909912109375
1783152051834124300,11.562124267578126,1.481353759765625,-1.36285400390625,1.787994384765625
1783152051843829000,11.5718291015625,1.172882080078125,-1.9669952392578125,2.058624267578125
1783152051853533400,11.581533447265626,0.889434814453125,-2.21990966796875,2.2186737060546875
1783152051863238100,11.591238037109376,0.680511474609375,-2.1612701416015625,2.2284393310546875
1783152051872973300,11.600973388671875,0.5723876953125,-1.972503662109375,2.09710693359375
1783152051882677800,11.610677734375,0.5204620361328125,-1.7397613525390625,1.8307647705078125
1783152051892382500,11.620382568359375,0.4819793701171875,-1.4422607421875,1.483795166015625
1783152051902087000,11.6300869140625,0.4349365234375,-1.044586181640625,1.1600341796875
1783152051911791600,11.63979150390625,0.35186767578125,-0.678680419921875,0.95050048828125
1783152051921526800,11.64952685546875,0.242523193359375,-0.50396728515625,0.879638671875
1783152051931231200,11.659231201171876,0.1295013427734375,-0.4844207763671875,0.9413299560546875
1783152051940936000,11.66893603515625,0.0067138671875,-0.384857177734375,1.128875732421875
1783152051950640400,11.678640380859376,-0.186920166015625,-0.0830841064453125,1.4049835205078125
1783152051960375600,11.68837548828125,-0.5015106201171875,0.193023681640625,1.635894775390625
1783152051970080300,11.698080322265625,-0.8594818115234375,0.1746978759765625,1.6884307861328125
1783152051979784700,11.70778466796875,-1.1417083740234375,-0.1307220458984375,1.51129150390625
1783152051989489400,11.717489501953125,-1.2822113037109375,-0.5192413330078125,1.1600341796875
1783152051999224600,11.727224609375,-1.2583770751953125,-0.8460540771484375,0.72998046875
1783152052008929000,11.736928955078126,-1.1111602783203125,-1.050689697265625,0.2748870849609375
1783152052018633700,11.7466337890625,-0.912017822265625,-1.0262603759765625,-0.174102783203125
1783152052028338200,11.756338134765626,-0.7318115234375,-0.7703094482421875,-0.5907135009765625
1783152052038043000,11.76604296875,-0.623077392578125,-0.384246826171875,-0.93768310546875
1783152052047778000,11.775778076171875,-0.6047515869140625,0.057403564453125,-1.180816650390625
1783152052057482500,11.785482421875,-0.6395721435546875,0.409271240234375,-1.3042144775390625
1783152052067187200,11.795187255859375,-0.65484619140625,0.5748138427734375,-1.3139801025390625
1783152052076891600,11.8048916015625,-0.5980224609375,0.5674896240234375,-1.21807861328125
1783152052086626800,11.814626708984376,-0.477081298828125,0.4575347900390625,-1.036651611328125
1783152052096362000,11.824362060546875,-0.331085205078125,0.3182525634765625,-0.814910888671875
1783152052106066400,11.83406640625,-0.2113494873046875,0.1795806884765625,-0.610260009765625
1783152052115771100,11.843771240234375,-0.1423187255859375,0.053131103515625,-0.4722137451171875
1783152052125506300,11.85350634765625,-0.1148223876953125,-0.031768798828125,-0.4190521240234375
1783152052135210800,11.863210693359376,-0.1087188720703125,-0.039703369140625,-0.4441070556640625
1783152052144915500,11.87291552734375,-0.0959014892578125,0.045196533203125,-0.5180206298828125
1783152052154620000,11.882619873046876,-0.056182861328125,0.22906494140625,-0.606597900390625
1783152052164324600,11.89232470703125,0.0061187744140625,0.4935760498046875,-0.682952880859375
1783152052174059800,11.902059814453125,0.0800323486328125,0.7611236572265625,-0.7208251953125
1783152052183764200,11.91176416015625,0.1429443359375,0.9071197509765625,-0.7000579833984375
1783152052193469000,11.921468994140625,0.165557861328125,0.8600921630859375,-0.6016998291015625
1783152052203173400,11.93117333984375,0.1233978271484375,0.615753173828125,-0.419677734375
1783152052212908500,11.940908447265626,0.0116119384765625,0.22601318359375,-0.1661529541015625
1783152052222613200,11.95061328125,-0.1631011962890625,-0.22174072265625,0.1337738037109375
1783152052232317700,11.960317626953126,-0.3866729736328125,-0.6182098388671875,0.44775390625
1783152052242022400,11.9700224609375,-0.5791015625,-0.814300537109375,0.7531890869140625
1783152052251726800,11.979726806640626,-0.66766357421875,-0.7263336181640625,1.0115814208984375
1783152052261462000,11.9894619140625,-0.6487274169921875,-0.395843505859375,1.1685791015625
1783152052271166700,11.999166748046875,-0.5882568359375,-0.032989501953125,1.1801910400390625
1783152052290576000,12.018575927734375,-0.343902587890625,0.1062774658203125,1.051300048828125
1783152052300310800,12.028310791015626,-0.129486083984375,-0.032989501953125,0.977996826171875
1783152052310015500,12.038015380859376,0.1502685546875,-0.1508941650390625,0.872314453125
1783152052319720000,12.047719970703126,0.459381103515625,-0.1496734619140625,0.697601318359375
1783152052329424600,12.057424560546876,0.7171630859375,0.0287017822265625,0.484405517578125
1783152052339159800,12.067159912109375,0.895538330078125,0.482574462890625,0.2431182861328125
1783152052348864300,12.0768642578125,1.0653533935546875,1.2247772216796875,0.0659637451171875
1783152052358569000,12.08656884765625,1.1313323974609375,1.988372802734375,0.1814117431640625
1783152052368273400,12.0962734375,0.6872406005859375,2.202789306640625,0.9755401611328125
1783152052378008600,12.106008544921876,-0.1349945068359375,0.9297332763671875,1.5711517333984375
1783152052387743700,12.11574365234375,-0.50885009765625,-0.4764862060546875,1.9034576416015625
1783152052397448400,12.125448486328125,-0.3603973388671875,-1.1295013427734375,2.02685546875
1783152052407153000,12.13515283203125,-0.1398773193359375,-1.684783935546875,1.7629547119140625
1783152052416857600,12.144857666015625,-0.1136016845703125,-1.981658935546875,1.08551025390625
1783152052426592500,12.154592529296876,-0.183868408203125,-1.51007080078125,0.1478118896484375
1783152052436297200,12.164297119140626,-0.2174530029296875,-0.617584228515625,-0.9205780029296875
1783152052446002000,12.174001953125,-0.2034149169921875,0.122161865234375,-1.9889984130859375
1783152052455706400,12.183706298828126,-0.189971923828125,0.4966278076171875,-2.7886199951171875
1783152052465441500,12.193441650390625,-0.2473907470703125,0.480743408203125,-3.1349945068359375
