time,seconds_elapsed,z,y,x
1782858524295046400,0.10404638671875,-0.07197964936494827,-0.03175526484847069,0.20479042828083038
1782858524304995300,0.113995361328125,-0.05536685138940811,-0.05162431299686432,0.24801459908485413
1782858524314974200,0.12397412109375,-0.028656944632530212,-0.03530339524149895,0.2766510248184204
1782858524324923400,0.13392333984375,-0.018099108710885048,-0.03798653185367584,0.2644825279712677
1782858524334872300,0.143872314453125,-0.015361378900706768,-0.0416925847530365,0.2393563985824585
1782858524344821500,0.153821533203125,-0.012658004648983479,-0.024459803476929665,0.19696126878261566
1782858524354800400,0.16380029296875,-0.009046225808560848,-0.007811317685991526,0.15407878160476685
1782858524364749300,0.173749267578125,-0.0006745787104591727,-0.003549194661900401,0.11328554898500443
1782858524374697500,0.183697509765625,0.001564873498864472,-0.006820355542004108,0.07816670835018158
1782858524384646400,0.193646484375,0.0032032502349466085,-0.010280867107212543,0.033786460757255554
1782858524394595300,0.20359521484375,0.014300109818577766,0.0032237565610557795,0.0013235911028459668
1782858524404574500,0.213574462890625,0.02401026152074337,0.00010120012302650139,-0.005026450380682945
1782858524414523400,0.2235234375,0.027281422168016434,-0.013522200286388397,0.0011116034584119916
1782858524424471300,0.23347119140625,0.030427148565649986,-0.010920558124780655,0.012823120690882206
1782858524434420200,0.243420166015625,0.03308045491576195,-0.0046328348107635975,0.013864416629076004
1782858524444399400,0.2533994140625,0.031566981226205826,-0.012821522541344166,0.00896579772233963
1782858524454348300,0.263348388671875,0.03624109551310539,-0.0226158294826746,-0.004466387443244457
1782858524464297200,0.273297119140625,0.03717533126473427,-0.02990197204053402,-0.02899330109357834
1782858524474246100,0.28324609375,0.03927603363990784,-0.017377657815814018,-0.057919759303331375
1782858524484225300,0.293225341796875,0.03922862932085991,0.0011416971683502197,-0.08103786408901215
1782858524494174200,0.30317431640625,0.034318290650844574,0.010782074183225632,-0.08886516094207764
1782858524504122400,0.313122314453125,0.03361974656581879,0.015546469017863274,-0.09178877621889114
1782858524514071600,0.323071533203125,0.039028625935316086,0.02148451842367649,-0.09259597957134247
1782858524524050200,0.33305029296875,0.041915226727724075,0.01853160560131073,-0.09645836055278778
1782858524533999400,0.342999267578125,0.05116038769483566,-0.014525147154927254,-0.0976213663816452
1782858524543948300,0.3529482421875,0.052985452115535736,-0.0007837683078832924,-0.08870004117488861
1782858524553897500,0.3628974609375,0.045631133019924164,-0.0018588864477351308,-0.07515307515859604
1782858524563845400,0.372845458984375,0.035417113453149796,-0.01332778949290514,-0.07135353982448578
1782858524573841700,0.382841552734375,0.03224875032901764,-0.007303719408810139,-0.07971347123384476
1782858524583789600,0.39278955078125,0.03158961609005928,-0.0002591255761217326,-0.09249557554721832
1782858524593738500,0.402738525390625,0.02901300974190235,0.0006956176948733628,-0.10239934176206589
1782858524603687400,0.4126875,0.02761351875960827,-0.004178766161203384,-0.10697944462299347
1782858524613666600,0.42266650390625,0.02943352237343788,-0.007532484829425812,-0.10444597899913788
1782858524623615500,0.432615478515625,0.027900340035557747,-0.022191587835550308,-0.09400079399347305
1782858524633563400,0.4425634765625,0.029331790283322334,-0.04844130203127861,-0.08041441440582275
1782858524643512600,0.4525126953125,0.03766242414712906,-0.06593054533004761,-0.06936522573232651
1782858524653491500,0.462491455078125,0.04320259764790535,-0.07478422671556473,-0.06339788436889648
1782858524663440400,0.4724404296875,0.04663940891623497,-0.08460196852684021,-0.04635125398635864
1782858524673389300,0.482389404296875,0.05013800039887428,-0.06695692986249924,-0.013013004325330257
1782858524683338500,0.49233837890625,0.04854995757341385,-0.03491084650158882,0.03686853498220444
1782858524693286400,0.502286376953125,0.04583007097244263,-0.010773551650345325,0.09348814189434052
1782858524703266300,0.512266357421875,0.04103265330195427,0.003148122690618038,0.13894616067409515
1782858524713214500,0.52221435546875,0.03710875287652016,-0.0006804376607760787,0.15405774116516113
1782858524723163400,0.532163330078125,0.03157523646950722,-0.030616499483585358,0.13930116593837738
1782858524733112600,0.542112548828125,0.0423772856593132,-0.04252162575721741,0.11398223042488098
1782858524743091500,0.552091552734375,0.045221541076898575,-0.054001450538635254,0.07092423737049103
1782858524753040600,0.56204052734375,0.03792980685830116,-0.07887563854455948,0.009591374546289444
1782858524762988500,0.571988525390625,0.028371186926960945,-0.09963471442461014,-0.0421285443007946
1782858524772937500,0.5819375,0.012447348795831203,-0.15774302184581757,-0.06943819671869278
1782858524782916600,0.59191650390625,-0.03554574400186539,-0.2545851469039917,-0.06263329088687897
1782858524792865500,0.601865478515625,-0.11523871123790741,-0.3768404722213745,-0.022488264366984367
1782858524802814500,0.611814453125,-0.1246441975235939,-0.5225279331207275,0.06355340778827667
1782858524812763400,0.621763427734375,-0.0876275897026062,-0.4240082800388336,0.18470007181167603
1782858524822742500,0.631742431640625,-0.17211344838142395,-0.6653441786766052,0.19103999435901642
1782858524832691500,0.64169140625,-0.22385840117931366,-1.1095552444458008,0.12815050780773163
1782858524842639400,0.651639404296875,-0.15501222014427185,-1.2845180034637451,0.05775703862309456
1782858524852588300,0.66158837890625,-0.07180601358413696,-1.1893999576568604,0.023816116154193878
1782858524862537500,0.671537353515625,-0.07084381580352783,-0.9534787535667419,0.045524075627326965
1782858524872516400,0.681516357421875,-0.11802783608436584,-0.6021028757095337,0.13147173821926117
1782858524882465300,0.69146533203125,-0.23980674147605896,-0.40683141350746155,0.2079571932554245
1782858524892414500,0.70141455078125,-0.41833066940307617,-0.49307122826576233,0.21890944242477417
1782858524902362600,0.711362548828125,-0.6297070980072021,-0.7828229069709778,0.20634545385837555
1782858524912341200,0.72134130859375,-0.8948085308074951,-1.109495759010315,0.2099476456642151
1782858524922290700,0.731290771484375,-1.0972285270690918,-1.1961326599121094,0.2546972632408142
1782858524932239600,0.741239501953125,-1.1780493259429932,-1.1308228969573975,0.3415251076221466
1782858524942188500,0.7511884765625,-1.1719791889190674,-1.0176985263824463,0.43989190459251404
1782858524952167400,0.76116748046875,-1.0914568901062012,-0.9558457732200623,0.5165104866027832
1782858524962116400,0.771116455078125,-0.985299289226532,-0.9304115176200867,0.5368152260780334
1782858524972064500,0.781064453125,-0.8770812153816223,-0.8764708042144775,0.48056289553642273
1782858524982013400,0.791013427734375,-0.7946534156799316,-0.7033730745315552,0.3641044497489929
1782858524991992600,0.80099267578125,-0.7280184626579285,-0.4095105528831482,0.22491993010044098
1782858525001941500,0.81094140625,-0.6867610812187195,-0.014038586989045143,0.07444413751363754
1782858525011890400,0.820890380859375,-0.6616463661193848,0.42667675018310547,-0.06842087209224701
1782858525021839400,0.83083935546875,-0.6182251572608948,0.8244180083274841,-0.19656339287757874
1782858525031787500,0.84078759765625,-0.5382483005523682,1.041703462600708,-0.3206709623336792
1782858525041767400,0.850767333984375,-0.42067453265190125,0.9774520397186279,-0.4496246874332428
1782858525051715300,0.86071533203125,-0.29036951065063477,0.7118192911148071,-0.5428949594497681
1782858525061664500,0.87066455078125,-0.17580591142177582,0.45172351598739624,-0.5816197395324707
1782858525071613400,0.880613525390625,-0.059293683618307114,0.2530839145183563,-0.5690919756889343
1782858525081592600,0.890592529296875,0.06599605828523636,0.044251348823308945,-0.5250789523124695
1782858525091541500,0.90054150390625,0.18506759405136108,-0.21036869287490845,-0.4568311870098114
1782858525101489700,0.91048974609375,0.2706906199455261,-0.47607412934303284,-0.35216549038887024
1782858525111438600,0.9204384765625,0.28527089953422546,-0.5804569721221924,-0.2344876080751419
1782858525121417500,0.93041748046875,0.21508754789829254,-0.5525758266448975,-0.0866675153374672
1782858525131366400,0.940366455078125,0.07101132720708847,-0.4094761908054352,0.031198665499687195
1782858525141315600,0.950315673828125,-0.08265253901481628,-0.21324943006038666,0.09104815125465393
1782858525151264500,0.960264404296875,-0.1844547986984253,0.04706018790602684,0.08083412796258926
1782858525161243400,0.970243408203125,-0.22645364701747894,0.2984255850315094,-0.020742297172546387
1782858525171192300,0.9801923828125,-0.20083323121070862,0.47522592544555664,-0.1854068785905838
1782858525181140500,0.990140380859375,-0.13743801414966583,0.5403252840042114,-0.37450650334358215
1782858525191089400,1.00008935546875,-0.07896246016025543,0.4750341773033142,-0.5494644641876221
1782858525201038300,1.010038330078125,-0.049139849841594696,0.31141701340675354,-0.676497220993042
1782858525211017500,1.020017578125,-0.06693536043167114,0.16186825931072235,-0.7493743896484375
1782858525220966700,1.029966552734375,-0.1221884936094284,0.03664270043373108,-0.7881696820259094
1782858525230914600,1.03991455078125,-0.2413998395204544,-0.09853190183639526,-0.8397844433784485
1782858525240863500,1.049863525390625,-0.33745500445365906,-0.23705275356769562,-0.8976221680641174
1782858525250842600,1.059842529296875,-0.36261308193206787,-0.38158729672431946,-0.9513447880744934
1782858525260791600,1.06979150390625,-0.3622263967990875,-0.45116931200027466,-0.9974507689476013
1782858525270740500,1.079740478515625,-0.3932865858078003,-0.4597603976726532,-1.0267963409423828
1782858525280689400,1.089689453125,-0.4875957667827606,-0.5355595350265503,-1.018094778060913
1782858525290668500,1.09966845703125,-0.6524217128753662,-0.6179417967796326,-0.9738487601280212
1782858525300617500,1.109617431640625,-0.7572179436683655,-0.6397549510002136,-0.8722121715545654
1782858525310565400,1.1195654296875,-0.7279924154281616,-0.5685417652130127,-0.7738267183303833
1782858525320514600,1.1295146484375,-0.5027193427085876,-0.41611945629119873,-0.7501107454299927
1782858525330463500,1.13946337890625,-0.14962731301784515,-0.25693005323410034,-0.8341310620307922
1782858525340442400,1.1494423828125,0.07628065347671509,-0.2585122585296631,-0.8721618056297302
1782858525350391300,1.159391357421875,0.11781105399131775,-0.4701930582523346,-0.8564973473548889
1782858525360340500,1.169340576171875,0.07089441269636154,-0.7728732824325562,-0.8089383840560913
1782858525370288400,1.179288330078125,0.046597860753536224,-1.0302577018737793,-0.7419718503952026
1782858525380268500,1.1892685546875,0.10031674802303314,-1.215806007385254,-0.6721075773239136
1782858525390216700,1.199216796875,0.23055145144462585,-1.3059585094451904,-0.6237951517105103
1782858525400165600,1.20916552734375,0.3749544322490692,-1.3082685470581055,-0.5863492488861084
1782858525410114600,1.219114501953125,0.4868524670600891,-1.1872845888137817,-0.5671113729476929
1782858525420093400,1.229093505859375,0.5492045283317566,-0.9123204350471497,-0.5657368898391724
1782858525430042600,1.239042724609375,0.5571143627166748,-0.5075162053108215,-0.579660177230835
1782858525439990500,1.248990478515625,0.5043531656265259,-0.032887909561395645,-0.6062060594558716
1782858525449939500,1.258939453125,0.3733203113079071,0.39124420285224915,-0.6581251621246338
1782858525459918600,1.268918701171875,0.11397930234670639,0.8121887445449829,-0.9284208416938782
1782858525469867500,1.278867431640625,-0.08906915783882141,0.9005833268165588,-1.175156831741333
1782858525479816400,1.28881640625,-0.09990528970956802,0.8075812458992004,-1.3935821056365967
1782858525489765400,1.298765380859375,-0.07389526069164276,0.7029658555984497,-1.5543744564056396
1782858525499713500,1.308713623046875,-0.031153392046689987,0.5941792130470276,-1.6588764190673828
1782858525509693400,1.318693359375,0.01744716800749302,0.49273860454559326,-1.720292091369629
1782858525519641300,1.328641357421875,0.06580804288387299,0.4532913267612457,-1.742478847503662
1782858525529590300,1.33859033203125,0.12278877198696136,0.4120085835456848,-1.7075868844985962
1782858525539539500,1.34853955078125,0.1931614726781845,0.4269244372844696,-1.594393014907837
1782858525549518600,1.3585185546875,0.22725285589694977,0.5205318927764893,-1.4301224946975708
1782858525559467500,1.368467529296875,0.16980208456516266,0.7437279224395752,-1.2141602039337158
1782858525569432000,1.37843212890625,0.07007735222578049,0.9148964881896973,-0.9979661107063293
1782858525579381000,1.388381103515625,0.04517466947436333,0.9160371422767639,-0.8247647285461426
1782858525589359900,1.39835986328125,0.07531286031007767,0.87269127368927,-0.7057917714118958
1782858525599309000,1.40830908203125,0.11021997779607773,0.852227509021759,-0.583473801612854
1782858525609258000,1.418258056640625,0.16479800641536713,0.8294093012809753,-0.40338048338890076
1782858525619207000,1.42820703125,0.23842482268810272,0.8102031350135803,-0.19649867713451385
1782858525629154800,1.43815478515625,0.32167497277259827,0.7809562683105469,-0.008518120273947716
1782858525639135000,1.448135009765625,0.426970511674881,0.7399728894233704,0.17486661672592163
1782858525649083000,1.458082763671875,0.5448550581932068,0.7095710635185242,0.3539018929004669
1782858525659031800,1.46803173828125,0.6565864086151123,0.6791952848434448,0.5056730508804321
1782858525668981000,1.47798095703125,0.7524313926696777,0.6301766037940979,0.6103251576423645
1782858525678960000,1.487960205078125,0.8226547241210938,0.5409399271011353,0.6619699597358704
1782858525688909000,1.497908935546875,0.8475531339645386,0.41266027092933655,0.6639300584793091
1782858525698858000,1.50785791015625,0.8592004776000977,0.5978639721870422,0.6155515909194946
1782858525708806100,1.51780615234375,0.8621997237205505,0.7366442084312439,0.588467001914978
1782858525718785000,1.527784912109375,0.864180326461792,0.836014986038208,0.5258622169494629
1782858525728734000,1.53773388671875,0.850729763507843,0.8214283585548401,0.441022664308548
1782858525738683000,1.547682861328125,0.8140020966529846,0.8280627727508545,0.3480514585971832
1782858525748632000,1.557632080078125,0.7605226635932922,0.871941328048706,0.25593137741088867
1782858525758611000,1.56761083984375,0.7184505462646484,0.8925222158432007,0.17867973446846008
1782858525768559900,1.577559814453125,0.7091507911682129,0.8890236020088196,0.12297465652227402
1782858525778508000,1.587508056640625,0.7073225378990173,0.8429626226425171,0.08798018842935562
1782858525788457000,1.59745703125,0.7021059393882751,0.7829035520553589,0.0921778604388237
1782858525798406000,1.607406005859375,0.6963574886322021,0.7335118055343628,0.13363902270793915
1782858525808384800,1.617384765625,0.6826416850090027,0.6984542012214661,0.21399244666099548
1782858525818334000,1.627333984375,0.6582356691360474,0.6761723160743713,0.30427494645118713
1782858525828283100,1.637283203125,0.6365396976470947,0.6479771733283997,0.4121473431587219
1782858525838231000,1.64723095703125,0.6135417222976685,0.6311616897583008,0.525256872177124
1782858525848211000,1.6572109375,0.5910412073135376,0.6190347671508789,0.6297286748886108
1782858525858159000,1.6671591796875,0.5719119906425476,0.5887306332588196,0.7190535068511963
1782858525868108000,1.67710791015625,0.5560805201530457,0.5344356894493103,0.7865664958953857
1782858525878057000,1.687056884765625,0.537371814250946,0.4743790328502655,0.8301387429237366
1782858525888036000,1.6970361328125,0.5046711564064026,0.40672436356544495,0.844610333442688
1782858525897985000,1.706985107421875,0.45573902130126953,0.32180652022361755,0.8308151960372925
1782858525907933000,1.716932861328125,0.39702484011650085,0.21913927793502808,0.7872660756111145
1782858525917881900,1.7268818359375,0.34771057963371277,0.12840963900089264,0.7316446304321289
1782858525927831000,1.7368310546875,0.3182469606399536,0.06018903851509094,0.6768173575401306
1782858525937810000,1.746809814453125,0.3068978786468506,0.005112203769385815,0.6278260946273804
1782858525947758800,1.7567587890625,0.31765198707580566,-0.055390555411577225,0.5921461582183838
1782858525957707800,1.766707763671875,0.33547094464302063,-0.1104266420006752,0.5651422142982483
1782858525967656000,1.776656005859375,0.34922483563423157,-0.16776849329471588,0.5420161485671997
1782858525977635800,1.7866357421875,0.35550644993782043,-0.21169094741344452,0.5293823480606079
1782858525987584000,1.796583984375,0.3492269814014435,-0.23213602602481842,0.530265748500824
1782858525997533200,1.806533203125,0.33245277404785156,-0.24370694160461426,0.5365760922431946
1782858526007482000,1.816482177734375,0.3133576512336731,-0.25343093276023865,0.5503827333450317
1782858526017461000,1.8264609375,0.2899892032146454,-0.2556551992893219,0.5839563608169556
1782858526027410000,1.836409912109375,0.25600993633270264,-0.22044049203395844,0.623820960521698
1782858526037358000,1.846358154296875,0.21374477446079254,-0.17735373973846436,0.658711314201355
1782858526047307000,1.85630712890625,0.1743140071630478,-0.15702183544635773,0.6743611097335815
1782858526057286100,1.8662861328125,0.1433560997247696,-0.153750941157341,0.6733962297439575
1782858526067235000,1.876235107421875,0.12386628240346909,-0.15014342963695526,0.6551306843757629
1782858526077184000,1.88618408203125,0.11677321791648865,-0.14312520623207092,0.6324155330657959
1782858526087133000,1.8961328125,0.11654286086559296,-0.11527572572231293,0.6136738061904907
1782858526097080800,1.906080810546875,0.10871236771345139,-0.0839335173368454,0.5910038948059082
1782858526107061000,1.91606103515625,0.09480933099985123,-0.06717584282159805,0.5607674717903137
1782858526117009000,1.9260087890625,0.06371000409126282,-0.06965257972478867,0.5183326601982117
1782858526126957800,1.935957763671875,0.022191321477293968,-0.08759403228759766,0.4594371020793915
1782858526136906800,1.94590673828125,-0.02245470881462097,-0.10986844450235367,0.38339293003082275
1782858526146886000,1.955885986328125,-0.06272490322589874,-0.11022637039422989,0.3066960275173187
1782858526156835000,1.9658349609375,-0.09699765592813492,-0.08143733441829681,0.2378852665424347
1782858526166784000,1.975783935546875,-0.1291302889585495,-0.03695375844836235,0.17826373875141144
1782858526176732200,1.985732177734375,-0.1584857851266861,0.009213738143444061,0.13037079572677612
1782858526186712000,1.995712158203125,-0.1814478188753128,0.058949071913957596,0.08779030293226242
1782858526196660000,2.005659912109375,-0.19580385088920593,0.09803309291601181,0.04712676629424095
1782858526206609000,2.01560888671875,-0.20463968813419342,0.12018472701311111,0.008655539713799953
1782858526216558000,2.02555810546875,-0.21029651165008545,0.14229509234428406,-0.02598845772445202
1782858526226506000,2.035506103515625,-0.21267764270305634,0.16253910958766937,-0.04246490076184273
1782858526236486000,2.04548583984375,-0.2125793695449829,0.18805938959121704,-0.04396665841341019
1782858526246434000,2.05543408203125,-0.19851788878440857,0.2132158726453781,-0.03520379215478897
1782858526256383000,2.065383056640625,-0.1730295717716217,0.2274848222732544,-0.023086942732334137
1782858526266332000,2.075331787109375,-0.1329793483018875,0.22466640174388885,-0.009616941213607788
1782858526276311000,2.08531103515625,-0.09290304034948349,0.20041219890117645,0.0013688647886738181
1782858526286260000,2.095260009765625,-0.05886145308613777,0.15719547867774963,0.007514641620218754
1782858526296209000,2.105208984375,-0.028834577649831772,0.099028579890728,0.01618456281721592
1782858526306156800,2.11515673828125,-0.00657694274559617,0.03724803775548935,0.02371305227279663
1782858526316137000,2.125136962890625,0.007592139765620232,-0.015122760087251663,0.034752920269966125
1782858526326085000,2.135085205078125,0.012358132749795914,-0.039260853081941605,0.03460804373025894
1782858526336034000,2.145033935546875,0.01534513384103775,-0.059245478361845016,0.017048224806785583
1782858526345983000,2.15498291015625,0.015204252675175667,-0.07583750784397125,-0.017947308719158173
1782858526355962000,2.164962158203125,0.01613076590001583,-0.09069661051034927,-0.06915243715047836
1782858526365911000,2.1749111328125,0.025668611750006676,-0.07581540197134018,-0.11998739093542099
1782858526375859000,2.18485888671875,0.044190630316734314,-0.03321068361401558,-0.15556909143924713
1782858526385808000,2.194807861328125,0.05957917496562004,0.014519021846354008,-0.18313653767108917
1782858526395757000,2.204757080078125,0.07258232682943344,0.055092278867959976,-0.1977679431438446
1782858526405736000,2.21473583984375,0.07946605980396271,0.08593275398015976,-0.20767809450626373
1782858526415684900,2.224684814453125,0.08015155792236328,0.09152805060148239,-0.2145269513130188
1782858526425633800,2.2346337890625,0.08188235014677048,0.07298552989959717,-0.2179136872291565
1782858526435582000,2.24458203125,0.09256588667631149,0.053189717233181,-0.2225574404001236
1782858526445561900,2.254561767578125,0.10420016944408417,0.04439409449696541,-0.2187137007713318
1782858526455510000,2.264510009765625,0.11272282153367996,0.03292039781808853,-0.21025922894477844
1782858526465459000,2.274458984375,0.10287125408649445,0.014172544702887535,-0.20082923769950867
1782858526475408100,2.284408203125,0.08651864528656006,-0.0024117587599903345,-0.19000323116779327
1782858526485387000,2.294386962890625,0.07163263857364655,-0.0221529733389616,-0.17904378473758698
1782858526495336000,2.3043359375,0.0646359845995903,-0.03382960334420204,-0.16593144834041595
1782858526505285000,2.31428515625,0.05867955833673477,-0.04021266847848892,-0.16310343146324158
1782858526515233000,2.32423291015625,0.05939541757106781,-0.05465365946292877,-0.16863375902175903
1782858526525182000,2.334181884765625,0.05570081248879433,-0.0647161453962326,-0.18861359357833862
1782858526535161000,2.3441611328125,0.05571705847978592,-0.05633943900465965,-0.20839156210422516
1782858526545110000,2.354110107421875,0.05820604786276817,-0.03171904757618904,-0.21727053821086884
1782858526555059000,2.364058837890625,0.06161702424287796,0.03198802471160889,-0.21169014275074005
1782858526565006800,2.3740068359375,0.06195604428648949,0.09502451866865158,-0.19018006324768066
1782858526575010300,2.38401025390625,0.058399926871061325,0.1451960802078247,-0.16053588688373566
1782858526584958200,2.393958251953125,0.05359878018498421,0.17570550739765167,-0.12147077172994614
1782858526594907400,2.403907470703125,0.05644836276769638,0.20118610560894012,-0.0829974114894867
1782858526604856300,2.413856201171875,0.06873432546854019,0.22385014593601227,-0.03442109003663063
1782858526614835200,2.423835205078125,0.0828607976436615,0.24162887036800385,0.010516823269426823
1782858526624784100,2.4337841796875,0.08974959701299667,0.23050963878631592,0.03756282106041908
1782858526634733300,2.4437333984375,0.09608551859855652,0.1859954297542572,0.054789211601018906
1782858526644681200,2.45368115234375,0.10672485083341599,0.11960629373788834,0.06715959310531616
1782858526654661000,2.4636611328125,0.11791066080331802,0.07128376513719559,0.08917354792356491
1782858526664609300,2.473609375,0.12708817422389984,0.05407814681529999,0.11337023228406906
1782858526674558200,2.48355810546875,0.13364647328853607,0.05422062799334526,0.14503362774848938
1782858526684507100,2.493507080078125,0.1341751217842102,0.0602249912917614,0.17489910125732422
1782858526694455000,2.503455078125,0.13041898608207703,0.06722430884838104,0.19460676610469818
1782858526704435200,2.513435302734375,0.12578456103801727,0.07559888809919357,0.20795638859272003
1782858526714383000,2.523383056640625,0.11445201188325882,0.0729498416185379,0.20978544652462006
1782858526724332300,2.533332275390625,0.1042017713189125,0.056412141770124435,0.2003788948059082
1782858526734281200,2.54328125,0.09357655793428421,0.045228198170661926,0.18236421048641205
1782858526744260400,2.55326025390625,0.08435935527086258,0.031001592054963112,0.16601507365703583
1782858526754209300,2.563209228515625,0.0721500962972641,0.01931803859770298,0.14022581279277802
1782858526764158200,2.573158203125,0.05832003057003021,0.008357532322406769,0.11179950088262558
1782858526774106400,2.5831064453125,0.04777444526553154,0.009603625163435936,0.0823177769780159
1782858526784086300,2.593086181640625,0.0464327447116375,0.013273194432258606,0.05429279804229736
1782858526794034200,2.6030341796875,0.049860499799251556,0.01392620149999857,0.0299091637134552
1782858526803983000,2.612983154296875,0.052327919751405716,0.014991998672485352,0.003061569994315505
1782858526813932300,2.622932373046875,0.05666274577379227,0.014722486957907677,-0.02155322954058647
1782858526823881200,2.632881103515625,0.059589825570583344,0.016379771754145622,-0.038115695118904114
1782858526833860000,2.642860107421875,0.06349615007638931,0.021639514714479446,-0.04374321922659874
1782858526843808300,2.652808349609375,0.0640583410859108,0.025111477822065353,-0.04294214025139809
1782858526853757200,2.662757080078125,0.058771438896656036,0.026096848770976067,-0.04327423870563507
1782858526863706000,2.6727060546875,0.05024612694978714,0.025800438597798347,-0.039630234241485596
1782858526873685200,2.682685302734375,0.049004826694726944,0.02406192570924759,-0.035283155739307404
1782858526883634400,2.692634521484375,0.05206453427672386,0.021753765642642975,-0.028424451127648354
1782858526893583400,2.702583251953125,0.05488934740424156,0.024580176919698715,-0.012941365130245686
1782858526903531300,2.71253125,0.05964788421988487,0.022003835067152977,-0.003299922915175557
1782858526913511200,2.72251123046875,0.06006839871406555,0.0023070964962244034,-0.0018871158827096224
1782858526923459300,2.732459228515625,0.06273742020130157,-0.029677467420697212,-0.00586747657507658
1782858526933408300,2.742408203125,0.06364528834819794,-0.0513199120759964,-0.009466738440096378
1782858526943357200,2.752357177734375,0.06499950587749481,-0.05247332900762558,-0.015215171501040459
1782858526953336300,2.76233642578125,0.06272490322589874,-0.03946991264820099,-0.02219904586672783
1782858526963285200,2.77228515625,0.053575608879327774,-0.026693129912018776,-0.03133315593004227
1782858526973234200,2.782234130859375,0.04962507635354996,-0.01907728798687458,-0.04657895490527153
1782858526983182000,2.79218212890625,0.051772914826869965,-0.0035087147261947393,-0.05819699540734291
1782858526993131300,2.80213134765625,0.05323339253664017,0.012330169789493084,-0.06666558235883713
1782858527003110100,2.812110107421875,0.058454256504774094,0.0237620547413826,-0.06895936280488968
1782858527013059000,2.82205908203125,0.061291586607694626,0.03801742196083069,-0.055813997983932495
1782858527023008000,2.832008056640625,0.06486954540014267,0.052017129957675934,-0.027286481112241745
1782858527032956200,2.8419560546875,0.05560760200023651,0.0692773386836052,0.012380236759781837
1782858527042936300,2.851936279296875,0.03983742743730545,0.07336476445198059,0.045571211725473404
1782858527052884200,2.86188427734375,0.02520495466887951,0.06166629493236542,0.07418528199195862
1782858527062833400,2.87183349609375,0.01378079317510128,0.047081492841243744,0.09184310585260391
1782858527072782300,2.8817822265625,0.010816428810358047,0.029463615268468857,0.09518563747406006
1782858527082761200,2.89176123046875,0.016650615260004997,0.01605965942144394,0.08611597865819931
1782858527092710100,2.901710205078125,0.02562946267426014,0.02093750610947609,0.0681564137339592
1782858527102659300,2.911659423828125,0.03879080340266228,0.03447142243385315,0.05121871083974838
1782858527112607200,2.921607177734375,0.047331031411886215,0.043591685593128204,0.028538433834910393
1782858527122587100,2.931587158203125,0.04819602519273758,0.049493782222270966,0.009709352627396584
1782858527132535300,2.941535400390625,0.04644792526960373,0.04809482395648956,-0.0004964132094755769
1782858527142484200,2.951484130859375,0.04517386853694916,0.04375147446990013,-0.013951768167316914
1782858527152433200,2.96143310546875,0.047874581068754196,0.028742965310811996,-0.016032762825489044
1782858527162381000,2.971381103515625,0.049860499799251556,0.022769227623939514,-0.014256699942052364
1782858527172361200,2.981361328125,0.048654086887836456,0.022049641236662865,-0.007456584833562374
1782858527182309000,2.99130908203125,0.045099034905433655,0.00011851066665258259,-0.003823234001174569
1782858527192258000,3.001258056640625,0.029153091832995415,-0.03381282463669777,-0.008779643103480339
1782858527202207200,3.011207275390625,0.009869408793747425,-0.05742121487855911,-0.01920298859477043
1782858527212186400,3.021186279296875,0.004187820944935083,-0.06785521656274796,-0.032464198768138885
1782858527222135300,3.03113525390625,0.003447994589805603,-0.06228920817375183,-0.045571211725473404
1782858527232084200,3.041084228515625,0.008641957305371761,-0.048461541533470154,-0.058333348482847214
1782858527242032400,3.051032470703125,0.01210007257759571,-0.03829545900225639,-0.0727546289563179
1782858527252012300,3.06101220703125,0.014355769380927086,-0.03308125585317612,-0.08002372831106186
1782858527261960200,3.070960205078125,0.012590093538165092,-0.024270452558994293,-0.08339688926935196
1782858527271909000,3.0809091796875,0.0027334685437381268,-0.009978597983717918,-0.07808548212051392
1782858527281858300,3.0908583984375,-0.011946141719818115,0.003686880227178335,-0.0709838941693306
1782858527291807200,3.10080712890625,-0.02256762608885765,0.009782323613762856,-0.0646815225481987
1782858527301786000,3.1107861328125,-0.0266028493642807,0.0046386937610805035,-0.060990650206804276
1782858527311735000,3.120735107421875,-0.027936292812228203,0.004191549029201269,-0.06061514467000961
1782858527321683200,3.13068310546875,-0.030109167098999023,0.007698932196944952,-0.06267350167036057
1782858527331632000,3.140632080078125,-0.03223942965269089,0.008376174606382847,-0.06440801918506622
1782858527341611300,3.150611328125,-0.030399451032280922,0.010451043024659157,-0.06757025420665741
1782858527351560200,3.160560302734375,-0.029380260035395622,0.010973555035889149,-0.06435182690620422
1782858527361509400,3.17050927734375,-0.025844646617770195,0.009512544609606266,-0.06810448318719864
1782858527371457300,3.180457275390625,-0.028692098334431648,0.00475587323307991,-0.07718586176633835
1782858527381437200,3.190437255859375,-0.028327245265245438,-0.002416019793599844,-0.09001777321100235
1782858527391385300,3.20038525390625,-0.024819595739245415,0.005948436446487904,-0.09617739915847778
1782858527401334300,3.210334228515625,-0.015567242167890072,0.03381229192018509,-0.0880795270204544
1782858527411283200,3.220283203125,-0.007198790553957224,0.06291691213846207,-0.0721849799156189
1782858527421262300,3.230262451171875,-0.007517571095377207,0.07443588227033615,-0.05404858663678169
1782858527431211300,3.240211181640625,-0.010070477612316608,0.06625678390264511,-0.04012158513069153
1782858527441160200,3.25016015625,-0.01501303818076849,0.050994474440813065,-0.024452079087495804
1782858527451108000,3.260108154296875,-0.021086376160383224,0.04772571101784706,-0.0104752779006958
1782858527461057300,3.270057373046875,-0.02857518568634987,0.04981149733066559,-0.0002567287301644683
1782858527471036200,3.2800361328125,-0.03510366007685661,0.04915955662727356,-0.0013683321885764599
1782858527480985000,3.289985107421875,-0.03404931351542473,0.03598436713218689,-0.012006329372525215
1782858527490934000,3.29993408203125,-0.03056137077510357,0.024278441444039345,-0.026585804298520088
1782858527500882200,3.309882080078125,-0.026737604290246964,0.0022506373934447765,-0.0394696444272995
1782858527510862000,3.319862060546875,-0.028799423947930336,-0.019931362941861153,-0.06185031682252884
1782858527520810200,3.329810302734375,-0.032289229333400726,-0.03255394846200943,-0.078321173787117
1782858527530759400,3.339759521484375,-0.0386429987847805,-0.027282221242785454,-0.09317921102046967
1782858527540708400,3.349708251953125,-0.04170883074402809,-0.006850981619209051,-0.10429338365793228
1782858527550687200,3.359687255859375,-0.05331781506538391,0.005928196478635073,-0.11706297099590302
1782858527560636200,3.36963623046875,-0.07054926455020905,0.013016998767852783,-0.13059821724891663
1782858527570592000,3.379592041015625,-0.08025862276554108,0.01751268096268177,-0.14274996519088745
1782858527580540000,3.389539794921875,-0.0820716992020607,0.030539799481630325,-0.14064820110797882
1782858527590488800,3.39948876953125,-0.07899894565343857,0.0479012131690979,-0.12416961789131165
1782858527600468000,3.409468017578125,-0.07632885873317719,0.057382334023714066,-0.10244807600975037
1782858527610417000,3.4194169921875,-0.07788734138011932,0.057193782180547714,-0.07557092607021332
1782858527620365800,3.42936572265625,-0.07872623950242996,0.048583514988422394,-0.05186479538679123
1782858527630315000,3.43931494140625,-0.07704684883356094,0.050277285277843475,-0.023141538724303246
1782858527640294100,3.449294189453125,-0.07776243984699249,0.05242272838950157,0.0032975259236991405
1782858527650242000,3.459241943359375,-0.08037899434566498,0.05570640414953232,0.014452708885073662
1782858527660191000,3.46919091796875,-0.08251059055328369,0.05559694766998291,0.021694377064704895
1782858527670140000,3.479139892578125,-0.07825139909982681,0.07101345807313919,0.021454691886901855
1782858527680119000,3.489119140625,-0.07585934549570084,0.09083563089370728,0.019776102155447006
1782858527690068000,3.49906787109375,-0.08440808951854706,0.08570744842290878,0.009890980087220669
1782858527700017000,3.509016845703125,-0.08599639683961868,0.06770075112581253,-0.00800013542175293
1782858527709965000,3.518965087890625,-0.08131057024002075,0.045769352465867996,-0.022644592449069023
1782858527719945000,3.528945068359375,-0.07715310901403427,0.03500432148575783,-0.04776592552661896
1782858527729892900,3.538892822265625,-0.07172718644142151,0.01762346923351288,-0.07773207873106003
1782858527739842000,3.548842041015625,-0.06083725020289421,0.004321777727454901,-0.11025033891201019
1782858527749791000,3.558791015625,-0.04725486412644386,0.008009457029402256,-0.14574122428894043
1782858527759740000,3.568739990234375,-0.02942926064133644,0.020552679896354675,-0.16680629551410675
1782858527769718800,3.57871875,-0.01648896187543869,0.03652285784482956,-0.1753491759300232
1782858527779668000,3.58866796875,-0.009400425478816032,0.05299690365791321,-0.1694343090057373
1782858527789615900,3.598615966796875,-0.0032924660481512547,0.060516607016325,-0.149433434009552
1782858527799565000,3.60856494140625,0.001931058126501739,0.0652511715888977,-0.10885031521320343
1782858527809544200,3.618544189453125,-0.0004852279380429536,0.056604158133268356,-0.056413207203149796
1782858527819493000,3.6284931640625,-0.006638461723923683,0.04056686908006668,-0.0072717610746622086
1782858527829442000,3.638442138671875,-0.011937352828681469,0.02015533484518528,0.035641349852085114
1782858527839390000,3.648389892578125,-0.016233032569289207,0.0008191883680410683,0.06875962018966675
1782858527849370000,3.6583701171875,-0.024508804082870483,-0.007957259193062782,0.0861884132027626
1782858527859318000,3.668318115234375,-0.03731061890721321,-0.009034507907927036,0.09246309101581573
1782858527869267000,3.678266845703125,-0.05321395397186279,0.00046046054922044277,0.08826195448637009
1782858527879215900,3.6882158203125,-0.07395625114440918,0.014136059209704399,0.07311335951089859
1782858527889164800,3.698164794921875,-0.09725943952798843,0.027579696848988533,0.052986785769462585
1782858527899144000,3.70814404296875,-0.11969257891178131,0.03971918299794197,0.02081686444580555
1782858527909092900,3.7180927734375,-0.1382441520690918,0.04866713657975197,-0.014573083259165287
1782858527919041000,3.728041015625,-0.1456456184387207,0.0575767420232296,-0.050334278494119644
1782858527928990000,3.737989990234375,-0.1423070728778839,0.07262573391199112,-0.07808468490839005
1782858527938968800,3.74796875,-0.12706740200519562,0.0886550322175026,-0.09357282519340515
1782858527948917800,3.757917724609375,-0.11156754195690155,0.10789664089679718,-0.08494844287633896
1782858527958867200,3.7678671875,-0.09058183431625366,0.12186864763498306,-0.06344049423933029
1782858527968815000,3.777815185546875,-0.07392215728759766,0.12262072414159775,-0.03551245480775833
1782858527978795000,3.787794921875,-0.05724464729428291,0.11297741532325745,-0.009159409441053867
1782858527988743200,3.7977431640625,-0.034449584782123566,0.09094508737325668,0.017173128202557564
1782858527998692000,3.807692138671875,-0.017076987773180008,0.06154724955558777,0.040590304881334305
1782858528008641000,3.81764111328125,-0.001181378262117505,0.02737649716436863,0.05276015028357506
1782858528018620000,3.827619873046875,0.01756674237549305,0.0020362529903650284,0.06305300444364548
1782858528028569000,3.837569091796875,0.03614708408713341,-0.011663580313324928,0.0662626400589943
1782858528038518000,3.84751806640625,0.05022908374667168,-0.026152508333325386,0.06127054616808891
1782858528048466000,3.8574658203125,0.058827098459005356,-0.03666773438453674,0.04740959405899048
1782858528058414800,3.867414794921875,0.05486644431948662,-0.04332217201590538,0.02052924409508705
1782858528068394000,3.87739404296875,0.05241713672876358,-0.040773261338472366,-0.00708747049793601
1782858528078343000,3.887343017578125,0.05158276855945587,-0.028983447700738907,-0.03501763939857483
1782858528088291800,3.897291748046875,0.05711947754025459,-0.01678164303302765,-0.061468154191970825
1782858528098241000,3.907240966796875,0.05349491536617279,-0.019244801253080368,-0.07988551259040833
1782858528108220000,3.917219970703125,0.04007577896118164,-0.0401303768157959,-0.09712947905063629
1782858528118169000,3.927169189453125,0.018602978438138962,-0.05468375235795975,-0.10999920219182968
1782858528128117000,3.937116943359375,-0.006216616835445166,-0.06272729486227036,-0.1186361014842987
1782858528138066200,3.947066162109375,-0.030366428196430206,-0.0741402730345726,-0.12799417972564697
1782858528148045000,3.957045166015625,-0.04885675385594368,-0.07873635739088058,-0.135964497923851
1782858528157994000,3.966993896484375,-0.059670254588127136,-0.0755930244922638,-0.13276204466819763
1782858528167943000,3.97694287109375,-0.06329481303691864,-0.06577182561159134,-0.1306898295879364
1782858528177891000,3.98689111328125,-0.05944894626736641,-0.051964662969112396,-0.11950429528951645
1782858528187840000,3.996840087890625,-0.05101870745420456,-0.046176549047231674,-0.09694492071866989
1782858528197819000,4.00681884765625,-0.05012575164437294,-0.04621836170554161,-0.0747128501534462
1782858528207768000,4.01676806640625,-0.052317798137664795,-0.05053401365876198,-0.05017555132508278
1782858528217717000,4.026717041015625,-0.05492130666971207,-0.05763985961675644,-0.023273097351193428
1782858528227666000,4.036666015625,-0.04866926744580269,-0.06198986619710922,0.005870139691978693
1782858528237644800,4.046644775390625,-0.035540685057640076,-0.065061554312706,0.03326794132590294
1782858528247594000,4.056593994140625,-0.02551574632525444,-0.07024193555116653,0.05758153647184372
1782858528257542000,4.0665419921875,-0.01793505810201168,-0.08169432729482651,0.06978201121091843
1782858528267490800,4.07649072265625,-0.009253153577446938,-0.08823585510253906,0.07661115378141403
1782858528277470000,4.086469970703125,-0.0034522556234151125,-0.08314096182584763,0.08231644332408905
1782858528287419100,4.096419189453125,-0.009785518981516361,-0.06986350566148758,0.08151696622371674
1782858528297368000,4.1063681640625,-0.020843496546149254,-0.05938396602869034,0.07214556634426117
1782858528307316000,4.11631591796875,-0.028243888169527054,-0.05387335270643234,0.05724012106657028
1782858528317296000,4.126296142578125,-0.038964178413152695,-0.043235354125499725,0.04051386937499046
1782858528327244000,4.136244140625,-0.05410318076610565,-0.030543262138962746,0.027769045904278755
1782858528337193000,4.14619287109375,-0.07592245936393738,-0.01762373559176922,0.013158679008483887
1782858528347142000,4.156141845703125,-0.10248269885778427,-0.012136558070778847,-0.0019006980583071709
1782858528357091000,4.166091064453125,-0.12725302577018738,-0.0044381581246852875,-0.015332350507378578
1782858528367070000,4.176070068359375,-0.15833264589309692,0.009867011569440365,-0.025707494467496872
1782858528377019000,4.186018798828125,-0.17911595106124878,0.009852364659309387,-0.045815691351890564
1782858528386967000,4.195967041015625,-0.1897536814212799,-0.005025384947657585,-0.06584745645523071
1782858528396916000,4.205916015625,-0.18111705780029297,-0.01278929878026247,-0.08605285733938217
1782858528406894800,4.215894775390625,-0.16925054788589478,-0.006591323763132095,-0.10332585871219635
1782858528416843800,4.22584375,-0.16248904168605804,-0.0029353362042456865,-0.11835380643606186
1782858528426793000,4.23579296875,-0.15303589403629303,0.005291967187076807,-0.1322733461856842
1782858528436742100,4.2457421875,-0.14767920970916748,0.0047060721553862095,-0.13862818479537964
1782858528446721000,4.255720947265625,-0.1479833424091339,0.0015299860388040543,-0.14295236766338348
1782858528456669200,4.265669189453125,-0.14762993156909943,-0.004388356581330299,-0.13198094069957733
1782858528466618000,4.2756181640625,-0.1501159965991974,-0.011446000076830387,-0.11527119576931
1782858528476567000,4.285567138671875,-0.15024276077747345,-0.025667279958724976,-0.08774662762880325
1782858528486516000,4.295515869140625,-0.15639600157737732,-0.03869359940290451,-0.05728965625166893
1782858528496495000,4.3054951171875,-0.16480013728141785,-0.05086264759302139,-0.032271917909383774
1782858528506444000,4.315444091796875,-0.17301039397716522,-0.06440002471208572,-0.008262723684310913
1782858528516392000,4.325391845703125,-0.18006297945976257,-0.06582242250442505,0.004289819858968258
1782858528526340900,4.3353408203125,-0.18153490126132965,-0.06635372340679169,0.014462295919656754
1782858528536320000,4.345320068359375,-0.18061451613903046,-0.06139545142650604,0.021520737558603287
1782858528546269000,4.35526904296875,-0.18619491159915924,-0.041660893708467484,0.033976875245571136
1782858528556217900,4.3652177734375,-0.19761188328266144,-0.016344618052244186,0.04583273455500603
1782858528566166800,4.375166748046875,-0.2144678235054016,-0.006312224548310041,0.0583631731569767
1782858528576169200,4.385169189453125,-0.22600729763507843,-0.006823285017162561,0.06844031065702438
1782858528586118400,4.395118408203125,-0.24458551406860352,-0.013236443512141705,0.08508080244064331
1782858528596066300,4.40506640625,-0.26104676723480225,-0.02881699986755848,0.09963817894458771
1782858528606015500,4.415015380859375,-0.27537885308265686,-0.050755057483911514,0.11348900943994522
1782858528615994400,4.424994384765625,-0.2821568548679352,-0.07157831639051437,0.12046808749437332
1782858528625943300,4.434943359375,-0.2820359468460083,-0.08776287734508514,0.11937406659126282
1782858528635892500,4.444892578125,-0.27906039357185364,-0.09875347465276718,0.11885794252157211
1782858528645840400,4.45484033203125,-0.27513036131858826,-0.1063954159617424,0.10984180867671967
1782858528655789300,4.464789306640625,-0.26806366443634033,-0.10214900225400925,0.09148117899894714
1782858528665768400,4.4747685546875,-0.27340543270111084,-0.085495725274086,0.05096757784485817
1782858528675717400,4.48471728515625,-0.2861502766609192,-0.06370547413825989,-0.0022213426418602467
1782858528685666300,4.494666259765625,-0.29164543747901917,-0.03705628961324692,-0.06593587249517441
1782858528695615200,4.504615234375,-0.29233279824256897,-0.014209029264748096,-0.13319027423858643
1782858528705594400,4.514594482421875,-0.28304076194763184,0.011835620738565922,-0.1933566778898239
1782858528715543300,4.524543212890625,-0.2666756212711334,0.0447581484913826,-0.23626819252967834
1782858528725491200,4.5344912109375,-0.25538888573646545,0.09284711629152298,-0.25785017013549805
1782858528735440100,4.544440185546875,-0.2413492351770401,0.13335566222667694,-0.25820624828338623
1782858528745419300,4.554419189453125,-0.2222040444612503,0.15339088439941406,-0.2470976710319519
1782858528755368200,4.5643681640625,-0.19786913692951202,0.16040298342704773,-0.22046153247356415
1782858528765317400,4.5743173828125,-0.16955147683620453,0.16693200170993805,-0.18377062678337097
1782858528775265500,4.584265625,-0.1353178769350052,0.1711006462574005,-0.1379552036523819
1782858528785214500,4.59421435546875,-0.10733205080032349,0.17489084601402283,-0.08389542996883392
1782858528795193300,4.604193359375,-0.08647869527339935,0.1840721070766449,-0.028088359162211418
1782858528805142500,4.614142578125,-0.06178906559944153,0.17362211644649506,0.03032648004591465
1782858528815091500,4.624091552734375,-0.04354614391922951,0.1452418863773346,0.07598690688610077
1782858528825040400,4.634040283203125,-0.023733291774988174,0.10200812667608261,0.10881569236516953
1782858528835019300,4.644019287109375,-0.001567802974022925,0.04664526507258415,0.1342773735523224
1782858528844968200,4.65396826171875,0.020773189142346382,-0.0027513117529451847,0.15425455570220947
1782858528854916400,4.663916259765625,0.041202299296855927,-0.04359035566449165,0.164996936917305
1782858528864865300,4.673865234375,0.07162092626094818,-0.07729505747556686,0.17145217955112457
1782858528874844400,4.683844482421875,0.10795629024505615,-0.11211934685707092,0.17407459020614624
1782858528884793300,4.69379345703125,0.14538143575191498,-0.14704324305057526,0.18651528656482697
1782858528894742300,4.7037421875,0.17380374670028687,-0.1550859957933426,0.19431887567043304
1782858528904691500,4.71369140625,0.1809985488653183,-0.16262033581733704,0.19501662254333496
1782858528914670600,4.723670654296875,0.1807253062725067,-0.1763199120759964,0.18529503047466278
1782858528924619500,4.73361962890625,0.17423412203788757,-0.18394826352596283,0.1664944440126419
1782858528934567400,4.7435673828125,0.16843295097351074,-0.16348692774772644,0.1402154266834259
1782858528944516400,4.753516357421875,0.16477802395820618,-0.13918158411979675,0.10905484855175018
1782858528954465300,4.76346533203125,0.16108475625514984,-0.11026312410831451,0.07270749658346176
1782858528964444400,4.7734443359375,0.15997661650180817,-0.07936512678861618,0.03988137096166611
1782858528974393300,4.783393310546875,0.1603345423936844,-0.0531790666282177,0.012179167941212654
1782858528984341500,4.793341552734375,0.1669253408908844,-0.03140266239643097,-0.02189784124493599
1782858528994290400,4.80329052734375,0.17367857694625854,-0.044193558394908905,-0.047020237892866135
1782858529004269300,4.813269287109375,0.17987895011901855,-0.08063412457704544,-0.07149602472782135
1782858529014218200,4.82321826171875,0.19146449863910675,-0.11516813188791275,-0.08747684955596924
1782858529024167400,4.83316748046875,0.21088746190071106,-0.1319151520729065,-0.09059274941682816
1782858529034116400,4.843116455078125,0.22657588124275208,-0.12262365221977234,-0.08134519308805466
1782858529044095200,4.85309521484375,0.24009649455547333,-0.10053406655788422,-0.0646948367357254
1782858529054044200,4.863044189453125,0.24108025431632996,-0.0880475640296936,-0.04847805202007294
1782858529063992300,4.872992431640625,0.22043995559215546,-0.07287687063217163,-0.0287629384547472
1782858529073941200,4.882941162109375,0.18604230880737305,-0.06698516011238098,-0.021410217508673668
1782858529083890400,4.892890380859375,0.14832502603530884,-0.08512022346258163,-0.018814167007803917
1782858529093869600,4.90286962890625,0.12195253372192383,-0.10628436505794525,-0.023671507835388184
1782858529103818500,4.912818603515625,0.11163119226694107,-0.1271747350692749,-0.03467302396893501
1782858529113766400,4.922766357421875,0.11063037067651749,-0.148856058716774,-0.046843405812978745
1782858529123715300,4.93271533203125,0.11983931809663773,-0.1564497947692871,-0.05429892614483833
1782858529133694500,4.942694580078125,0.12835584580898285,-0.1253291517496109,-0.05209062993526459
1782858529143643400,4.952643310546875,0.13363130390644073,-0.0577692911028862,-0.0369470976293087
1782858529153592300,4.96259228515625,0.12641999125480652,-0.0038485340774059296,-0.02129330486059189
1782858529163541200,4.972541259765625,0.10738717764616013,0.019343869760632515,-0.014910772442817688
1782858529173520400,4.982520263671875,0.08989126980304718,0.003222425002604723,-0.016932643949985504
1782858529183469300,4.99246923828125,0.0884622186422348,-0.03313717991113663,-0.023685887455940247
1782858529193417200,5.002417236328125,0.09691695868968964,-0.07788174599409103,-0.040220923721790314
1782858529203366400,5.012366455078125,0.11820892989635468,-0.0992586761713028,-0.058463577181100845
1782858529213345300,5.02234521484375,0.14520859718322754,-0.10035989433526993,-0.07756350189447403
1782858529223294200,5.032294189453125,0.17633721232414246,-0.0889626294374466,-0.08989500254392624
1782858529233243400,5.042243408203125,0.20335258543491364,-0.049440786242485046,-0.09302900731563568
1782858529243192300,5.0521923828125,0.22718387842178345,-0.018087124451994896,-0.09489642083644867
1782858529253140500,5.062140380859375,0.24284033477306366,0.0017038905061781406,-0.0985550656914711
1782858529263119400,5.072119384765625,0.25907737016677856,0.008519452065229416,-0.09342901408672333
1782858529273068500,5.082068603515625,0.2712072730064392,0.015082812868058681,-0.08853359520435333
1782858529283017500,5.092017578125,0.2863960862159729,0.01720934733748436,-0.07935713976621628
1782858529292966400,5.10196630859375,0.3021385669708252,0.025314943864941597,-0.06040555238723755
1782858529302945300,5.1119453125,0.30460143089294434,0.03406102955341339,-0.03996312990784645
1782858529312894500,5.12189453125,0.29882290959358215,0.04627775028347969,-0.014151771552860737
1782858529322842400,5.13184228515625,0.283290296792984,0.04413150995969772,0.003067961661145091
1782858529332791300,5.141791259765625,0.273990273475647,0.024115988984704018,0.0180509053170681
1782858529342770400,5.1517705078125,0.2721675932407379,0.01056156400591135,0.03200933337211609
1782858529352719400,5.16171923828125,0.2759455740451813,-0.003951065707951784,0.04577654227614403
1782858529362668300,5.171668212890625,0.28013285994529724,-0.02004161849617958,0.059543486684560776
1782858529372617200,5.1816171875,0.27882257103919983,-0.033422671258449554,0.07096152752637863
1782858529382596400,5.191596435546875,0.27219611406326294,-0.03580034151673317,0.07761836051940918
1782858529392545500,5.201545654296875,0.25293371081352234,-0.042866505682468414,0.07711528986692429
1782858529402493200,5.2114931640625,0.23021642863750458,-0.05643291398882866,0.06821633875370026
1782858529412442400,5.2214423828125,0.20908743143081665,-0.06620299071073532,0.05374365672469139
1782858529422391300,5.231391357421875,0.19008338451385498,-0.0676536113023758,0.037087712436914444
1782858529432370400,5.241370361328125,0.17375394701957703,-0.06444902718067169,0.01830257475376129
1782858529442319400,5.2513193359375,0.16155853867530823,-0.06254780292510986,0.000035952674807049334
1782858529452267500,5.261267578125,0.14859773218631744,-0.05874640494585037,-0.01865677535533905
1782858529462216400,5.271216552734375,0.13534876704216003,-0.058158643543720245,-0.042324554175138474
1782858529472195300,5.2811953125,0.12392647564411163,-0.05763240158557892,-0.06538566201925278
1782858529482144300,5.291144287109375,0.10748518258333206,-0.06958919763565063,-0.08579613268375397
1782858529492093400,5.301093505859375,0.08645472675561905,-0.07352188974618912,-0.11194650828838348
1782858529502042400,5.31104248046875,0.0740521252155304,-0.06329827755689621,-0.13493198156356812
1782858529512021200,5.321021240234375,0.0660296157002449,-0.043297939002513885,-0.14413294196128845
1782858529521970200,5.33097021484375,0.06018797308206558,-0.027944283559918404,-0.14661288261413574
1782858529531918300,5.34091845703125,0.06069637089967728,-0.02225310727953911,-0.14385198056697845
1782858529541867300,5.3508671875,0.06228068470954895,-0.014659370295703411,-0.13044854998588562
1782858529551816400,5.36081640625,0.06239387020468712,-0.0033835461363196373,-0.11013156175613403
1782858529561795300,5.37079541015625,0.05565980076789856,0.018187792971730232,-0.09014187753200531
1782858529571752000,5.380751953125,0.051064249128103256,0.04250378534197807,-0.07477650046348572
1782858529581699800,5.390699951171875,0.04773822799324989,0.04963279888033867,-0.06411001086235046
1782858529591648800,5.400648681640625,0.04543432593345642,0.03933462128043175,-0.06005694344639778
1782858529601628000,5.4106279296875,0.03677239641547203,0.02137053571641445,-0.04793796315789223
1782858529611576800,5.420576904296875,0.02839861810207367,0.0038538603112101555,-0.030459105968475342
1782858529621525800,5.43052587890625,0.02227228321135044,-0.009879794903099537,-0.008732238784432411
1782858529631474700,5.440474609375,0.011423096992075443,-0.022457106038928032,0.01206704881042242
1782858529641453800,5.450453857421875,0.00213585514575243,-0.031204525381326675,0.024655545130372047
1782858529651402800,5.46040283203125,-0.004335892386734486,-0.038111697882413864,0.027712853625416756
1782858529661350700,5.4703505859375,-0.010988202877342701,-0.03854925557971001,0.020557206124067307
1782858529671299600,5.480299560546875,-0.02105335332453251,-0.031128091737627983,0.0023182816803455353
1782858529681278700,5.49027880859375,-0.030348051339387894,-0.006499444600194693,-0.022350579500198364
1782858529691227600,5.5002275390625,-0.0410398431122303,0.007859520614147186,-0.047621048986911774
1782858529701176800,5.5101767578125,-0.04571262747049332,0.01452807616442442,-0.07452696561813354
1782858529711125800,5.520125732421875,-0.049966759979724884,0.012235094793140888,-0.0907173827290535
1782858529721074000,5.530073974609375,-0.05571173131465912,0.012622051872313023,-0.09103216975927353
1782858529731053800,5.5400537109375,-0.05880685895681381,0.009038768708705902,-0.08839670568704605
1782858529741001700,5.550001708984375,-0.06529272347688675,0.003939614165574312,-0.08049564063549042
1782858529750951000,5.559950927734375,-0.06874603778123856,-0.0003382214636076242,-0.06766106933355331
1782858529760899800,5.56989990234375,-0.07522258162498474,-0.011759987100958824,-0.05808247625827789
1782858529770878700,5.579878662109375,-0.0790034756064415,-0.018062623217701912,-0.053525008261203766
1782858529780827600,5.58982763671875,-0.08022080361843109,-0.014222878031432629,-0.042340800166130066
1782858529790775800,5.59977587890625,-0.07582472264766693,-0.007743939757347107,-0.03557530418038368
1782858529800724700,5.609724853515625,-0.07188750803470612,-0.005135905928909779,-0.03147963061928749
1782858529810704000,5.619703857421875,-0.06987521797418594,-0.01073946338146925,-0.03261253610253334
1782858529820652800,5.62965283203125,-0.06915696710348129,-0.02190210297703743,-0.036497291177511215
1782858529830601700,5.639601806640625,-0.06247908994555473,-0.027410585433244705,-0.047149669378995895
1782858529840550700,5.649550537109375,-0.05144694447517395,-0.03311294689774513,-0.059775982052087784
1782858529850498600,5.65949853515625,-0.03389112278819084,-0.029826605692505836,-0.07175540924072266
1782858529860479000,5.66947900390625,-0.015024223364889622,-0.018604576587677002,-0.07977232336997986
1782858529870426600,5.679426513671875,0.00017496968212071806,0.0024197481106966734,-0.08544885367155075
1782858529880375800,5.689375732421875,0.009795638732612133,0.018375545740127563,-0.08242030441761017
1782858529890324700,5.69932470703125,0.016102537512779236,0.02503078430891037,-0.07246487587690353
1782858529900304000,5.709303955078125,0.02184111624956131,0.03093501180410385,-0.061290789395570755
1782858529910252800,5.719252685546875,0.023921843618154526,0.02292156033217907,-0.05120193585753441
1782858529920200700,5.72920068359375,0.023575101047754288,0.016029566526412964,-0.040705885738134384
1782858529930150000,5.73914990234375,0.02021232806146145,0.008493353612720966,-0.034450918436050415
1782858529940128800,5.749128662109375,0.013083045370876789,-0.016046345233917236,-0.029814355075359344
1782858529950077700,5.75907763671875,0.005693039391189814,-0.03170546516776085,-0.03639049828052521
1782858529960026600,5.769026611328125,0.005678392015397549,-0.03798440098762512,-0.041425470262765884
1782858529969975800,5.778975830078125,0.010830809362232685,-0.03272439166903496,-0.046660181134939194
1782858529979954700,5.78895458984375,0.017137441784143448,-0.01685008592903614,-0.05820498242974281
1782858529989903600,5.798903564453125,0.023146864026784897,-0.005626194179058075,-0.06917933374643326
1782858529999851800,5.808851806640625,0.028317391872406006,0.011609784327447414,-0.07553283870220184
1782858530009800700,5.81880078125,0.028114724904298782,0.018310030922293663,-0.0860251635313034
1782858530019750000,5.82875,0.022638998925685883,0.010005496442317963,-0.09392969310283661
1782858530029728800,5.838728759765625,0.016235163435339928,0.009168464690446854,-0.09544316679239273
1782858530039678000,5.848677978515625,0.006971622817218304,0.013085974380373955,-0.09426924586296082
1782858530049627000,5.858626953125,0.0030487868934869766,0.010005230084061623,-0.09384899586439133
1782858530059574800,5.86857470703125,0.002843723399564624,0.00821052584797144,-0.08978182077407837
1782858530069554000,5.878553955078125,0.0032916669733822346,0.006144977640360594,-0.08597296476364136
1782858530079502800,5.8885029296875,0.0034906051587313414,0.004516987595707178,-0.08559080213308334
1782858530089451800,5.89845166015625,0.003879959462210536,-0.0009486179915256798,-0.08490770310163498
1782858530099400700,5.908400634765625,0.007705057505518198,-0.015118232928216457,-0.09211714565753937
1782858530109379800,5.9183798828125,0.010182863101363182,-0.030857780948281288,-0.10063579678535461
1782858530119328800,5.928328857421875,0.015850868076086044,-0.03651539981365204,-0.10957629233598709
1782858530129276700,5.938276611328125,0.01926237717270851,-0.03166605159640312,-0.11863397061824799
1782858530139225600,5.9482255859375,0.021028319373726845,-0.026334134861826897,-0.1269262582063675
1782858530149174800,5.9581748046875,0.023731695488095284,-0.015106248669326305,-0.12632492184638977
1782858530159153700,5.968153564453125,0.027027355507016182,-0.003055178327485919,-0.12068860232830048
1782858530169102600,5.9781025390625,0.03265807777643204,0.0025933862198144197,-0.10595200210809708
1782858530179051800,5.9880517578125,0.0352618508040905,0.004290885291993618,-0.0879058837890625
1782858530188999700,5.997999755859375,0.03148362413048744,-0.005724464543163776,-0.06914098560810089
1782858530198979800,6.007979736328125,0.032046880573034286,-0.024821726605296135,-0.043713659048080444
1782858530208927700,6.017927734375,0.035232290625572205,-0.03497076779603958,-0.02069968543946743
1782858530218877000,6.027876953125,0.0374981053173542,-0.03772420808672905,-0.007441937457770109
1782858530228825900,6.037825927734375,0.04018230736255646,-0.044853489845991135,-0.004228034522384405
1782858530238804700,6.0478046875,0.046235404908657074,-0.05217505246400833,-0.007874967530369759
1782858530248753700,6.057753662109375,0.050634946674108505,-0.04047978296875954,-0.012765063904225826
1782858530258701800,6.067701904296875,0.05402515083551407,-0.027587952092289925,-0.025305623188614845
1782858530268650800,6.077650634765625,0.05884973332285881,-0.03207990527153015,-0.03554867208003998
1782858530278630000,6.0876298828125,0.06282343715429306,-0.04734514653682709,-0.04215757176280022
1782858530288578800,6.097578857421875,0.061949919909238815,-0.04469875991344452,-0.043163981288671494
1782858530298527700,6.10752783203125,0.05741722136735916,-0.03886856883764267,-0.036864541471004486
1782858530308476700,6.1174765625,0.045826345682144165,-0.03279842808842659,-0.027340011671185493
1782858530318424600,6.127424560546875,0.03520805388689041,-0.028247084468603134,-0.023600401356816292
1782858530328404700,6.13740478515625,0.024327177554368973,-0.03160799294710159,-0.02593785710632801
1782858530338352600,6.1473525390625,0.02020993083715439,-0.034567032009363174,-0.03305249288678169
1782858530348301600,6.157301513671875,0.021750569343566895,-0.03394145518541336,-0.042093124240636826
1782858530358250800,6.167250732421875,0.026093386113643646,-0.024155935272574425,-0.04783037304878235
1782858530368230000,6.17722998046875,0.03203090280294418,-0.01233443059027195,-0.05736022815108299
1782858530378178800,6.1871787109375,0.03335556015372276,-0.00917672086507082,-0.06254087388515472
1782858530388127000,6.197126953125,0.034395258873701096,-0.0044077979400753975,-0.06118958815932274
1782858530398076000,6.207075927734375,0.03400430455803871,0.007245129905641079,-0.0518602691590786
1782858530408054800,6.2170546875,0.02990729920566082,0.01896090805530548,-0.033074330538511276
1782858530418003700,6.227003662109375,0.021265873685479164,0.019887421280145645,-0.014164554886519909
1782858530427952600,6.23695263671875,0.012072641402482986,0.011425759643316269,0.004890096373856068
1782858530437901800,6.24690185546875,0.011493937112390995,-0.0020908478181809187,0.02184804156422615
1782858530447849700,6.256849609375,0.014272146858274937,-0.0067838700488209724,0.03857908397912979
1782858530457829600,6.26682958984375,0.014740862883627415,-0.005154015496373177,0.05161818861961365
1782858530467777800,6.27677783203125,0.007671235594898462,-0.007449926808476448,0.05739591643214226
1782858530477726700,6.286726806640625,-0.007423295173794031,-0.006696252152323723,0.057252902537584305
1782858530487675600,6.296675537109375,-0.021512215957045555,-0.0027023095171898603,0.04663674533367157
1782858530497654800,6.30665478515625,-0.03327672928571701,-0.007896805182099342,0.03123621642589569
1782858530507604000,6.31660400390625,-0.043716054409742355,-0.00971387978643179,0.01031602080911398
1782858530517553000,6.326552978515625,-0.057371679693460464,-0.0014530207263305783,-0.02304406650364399
1782858530527500800,6.336500732421875,-0.07031437754631042,0.011326690204441547,-0.051413655281066895
1782858530537480700,6.346480712890625,-0.08471435308456421,0.018034394830465317,-0.08062160760164261
1782858530547428900,6.356428955078125,-0.09680990129709244,0.02257668226957321,-0.10280121117830276
1782858530557377800,6.366377685546875,-0.10073406994342804,0.027729365974664688,-0.11880947649478912
1782858530567326700,6.37632666015625,-0.10247950255870819,0.03831569850444794,-0.12817901372909546
1782858530577321700,6.38632177734375,-0.10136869549751282,0.04392750933766365,-0.12129020690917969
1782858530587270700,6.396270751953125,-0.10476076602935791,0.03616200014948845,-0.10835417360067368
1782858530597218800,6.40621875,-0.10949134081602097,0.018919894471764565,-0.08791361004114151
1782858530607167700,6.416167724609375,-0.11444614827632904,-0.006579872220754623,-0.0639057457447052
1782858530617116700,6.42611669921875,-0.11422724276781082,-0.02257561683654785,-0.04406199976801872
1782858530627095800,6.436095703125,-0.10980692505836487,-0.02948012761771679,-0.025560220703482628
1782858530637044700,6.446044677734375,-0.10727425664663315,-0.025677399709820747,-0.012496883049607277
1782858530646994000,6.455993896484375,-0.10003605484962463,-0.007349791936576366,-0.010875284671783447
1782858530656941600,6.465941650390625,-0.09019966423511505,0.00920042209327221,-0.013623134233057499
1782858530666921700,6.475921630859375,-0.0816115066409111,0.014241786673665047,-0.020854149013757706
1782858530676870000,6.485869873046875,-0.07905513793230057,0.017713217064738274,-0.031690020114183426
1782858530686818800,6.49581884765625,-0.07569263130426407,0.015116901136934757,-0.04126221686601639
1782858530696767700,6.505767822265625,-0.07235116511583328,0.013513145968317986,-0.04357277601957321
1782858530706747000,6.515746826171875,-0.0672067329287529,0.02473890222609043,-0.04248381033539772
1782858530716695800,6.52569580078125,-0.05577564612030983,0.02749527432024479,-0.035590749233961105
1782858530726643700,6.535643798828125,-0.04675392434000969,0.028919266536831856,-0.019036540761590004
1782858530736593000,6.545593017578125,-0.048173386603593826,0.026083532720804214,-0.0012042814632877707
1782858530746541800,6.555541748046875,-0.05147171393036842,0.014542191289365292,0.020356936380267143
1782858530756520700,6.565520751953125,-0.057064883410930634,0.007880027405917645,0.04211229830980301
1782858530766469600,6.5754697265625,-0.05602678284049034,0.006084257736802101,0.063090018928051
1782858530776418600,6.58541845703125,-0.05014066398143768,0.00239258399233222,0.07936326414346695
1782858530786366700,6.59536669921875,-0.04368942230939865,0.008723716251552105,0.0845782682299614
1782858530796346600,6.6053466796875,-0.03640727698802948,0.014781076461076736,0.08174838870763779
1782858530806294800,6.615294677734375,-0.027759991586208344,0.01269928365945816,0.06655000150203705
1782858530816243700,6.62524365234375,-0.01896144077181816,0.0070619042962789536,0.042924296110868454
1782858530826193000,6.63519287109375,-0.01363378670066595,-0.000032490566809428856,0.018446918576955795
1782858530836171800,6.645171875,-0.01251153089106083,-0.005621133837848902,-0.0057313889265060425
1782858530846121000,6.655120849609375,-0.020307667553424835,0.0004146541759837419,-0.023502396419644356
1782858530856070000,6.66506982421875,-0.0252198688685894,0.009245163761079311,-0.03261227160692215
1782858530866017800,6.675017822265625,-0.03364957123994827,0.012529107742011547,-0.03586585447192192
1782858530875997000,6.684996826171875,-0.03663737326860428,0.018632007762789726,-0.031152859330177307
1782858530885945900,6.69494580078125,-0.03738092631101608,0.02178332582116127,-0.02544756978750229
1782858530895894800,6.704894775390625,-0.03479313477873802,0.017664747312664986,-0.011151188053190708
1782858530905843700,6.71484375,-0.03524880111217499,0.009763148613274097,0.000050333743274677545
1782858530915792000,6.7247919921875,-0.03163755312561989,0.005363872740417719,0.009001484140753746
1782858530925771800,6.734771728515625,-0.02774028480052948,0.0012889700010418892,0.018560102209448814
1782858530935719700,6.7447197265625,-0.024265924468636513,-0.001439971150830388,0.025847310200333595
1782858530945668600,6.754668701171875,-0.024461401626467705,-0.0032149681355804205,0.027907265350222588
1782858530955617800,6.76461767578125,-0.024700285866856575,-0.0046509443782269955,0.020484767854213715
1782858530965596700,6.7745966796875,-0.021508753299713135,-0.010026268661022186,0.013144031167030334
1782858530975545900,6.7845458984375,-0.017005614936351776,-0.010446249507367611,0.0011022823164239526
1782858530985494800,6.794494873046875,-0.01076902449131012,-0.00762969022616744,-0.011836153455078602
1782858530995443000,6.80444287109375,-0.0030479878187179565,-0.0017305220244452357,-0.018642393872141838
1782858531005422800,6.8144228515625,0.006030728109180927,0.010487794876098633,-0.011997540481388569
1782858531015370800,6.824370849609375,0.018624549731612206,0.026371153071522713,0.006587328854948282
1782858531025320000,6.83431982421875,0.021581191569566727,0.015178420580923557,0.030042320489883423
1782858531035268900,6.844268798828125,0.024215856567025185,-0.005597165785729885,0.05584116280078888
1782858531045216800,6.854216796875,0.02870994247496128,-0.019292205572128296,0.07780638337135315
1782858531055196700,6.86419677734375,0.03831729665398598,-0.02623959258198738,0.096637062728405
1782858531065144800,6.874144775390625,0.05118435621261597,-0.027360783889889717,0.10524386167526245
1782858531075093800,6.88409375,0.06058771163225174,-0.02688887156546116,0.10905511677265167
1782858531085042700,6.894042724609375,0.06263355165719986,-0.01507216040045023,0.09932605177164078
1782858531095021800,6.904021728515625,0.06250225752592087,-0.0062829297967255116,0.08620759099721909
1782858531104970800,6.913970703125,0.06358909606933594,-0.003352919826284051,0.07034473866224289
1782858531114919700,6.923919677734375,0.06126708537340164,-0.0068387314677238464,0.054000649601221085
1782858531124867600,6.93386767578125,0.05481238290667534,-0.006975085008889437,0.041486721485853195
1782858531134848000,6.943847900390625,0.049005359411239624,-0.007917577400803566,0.026931216940283775
1782858531144795600,6.953795654296875,0.051303133368492126,-0.007612912449985743,0.015327024273574352
1782858531154744800,6.963744873046875,0.052984654903411865,-0.0009691243176348507,0.008160191588103771
1782858531164693800,6.97369384765625,0.05542437732219696,0.012142417021095753,0.0028386632911860943
1782858531174673000,6.9836728515625,0.055866461247205734,0.01847168430685997,0.005108209326863289
1782858531184621800,6.993621826171875,0.054427023977041245,0.024529578164219856,0.011532552540302277
1782858531194569700,7.00356982421875,0.05161738768219948,0.02142433263361454,0.01950525864958763
1782858531204519000,7.013518798828125,0.05157744139432907,0.013767477124929428,0.031037012115120888
1782858531214467800,7.0234677734375,0.0500493198633194,-0.0006905576447024941,0.03756149113178253
1782858531224446700,7.03344677734375,0.04759974405169487,-0.010055030696094036,0.04152533784508705
1782858531234395600,7.043395751953125,0.04475149139761925,-0.013521933928132057,0.04194958135485649
1782858531244344800,7.0533447265625,0.046601589769124985,-0.01338584627956152,0.037272803485393524
1782858531254292700,7.063292724609375,0.046718768775463104,-0.010689395479857922,0.027719778940081596
1782858531264272600,7.073272705078125,0.045880138874053955,-0.0011558119440451264,0.016560068354010582
1782858531274220800,7.083220703125,0.0410265289247036,0.011443336494266987,0.0060051619075238705
1782858531284169700,7.093169677734375,0.03357420489192009,0.028498221188783646,-0.007093329448252916
1782858531294119000,7.103118896484375,0.024565530940890312,0.03821396455168724,-0.018985409289598465
1782858531304097500,7.11309765625,0.01978888548910618,0.03419765084981918,-0.027579696848988533
1782858531314047000,7.123046875,0.01870817318558693,0.02431679144501686,-0.03365063667297363
1782858531323996000,7.132995849609375,0.013411412946879864,0.004927114117890596,-0.03418007493019104
1782858531333943800,7.14294384765625,0.006307164207100868,-0.013124857097864151,-0.030890004709362984
1782858531343892700,7.152892822265625,0.00327275856398046,-0.02207893691956997,-0.020426977425813675
1782858531353872000,7.162871826171875,-0.004775314126163721,-0.0232283566147089,-0.00589490681886673
1782858531363820800,7.17282080078125,-0.009466205723583698,-0.02502812072634697,0.012264655902981758
1782858531373769700,7.182769775390625,-0.01691240444779396,-0.015957128256559372,0.03778120130300522
1782858531383718000,7.1927177734375,-0.03002447821199894,-0.008304801769554615,0.06648661196231842
1782858531393697800,7.20269775390625,-0.04036686569452286,0.00373135507106781,0.09282927215099335
1782858531403645700,7.212645751953125,-0.04093172028660774,0.014365890063345432,0.12051629275083542
1782858531413594600,7.2225947265625,-0.030900124460458755,0.011026551946997643,0.14205621182918549
1782858531423543800,7.232543701171875,-0.022547386586666107,-0.0038719698786735535,0.16450318694114685
1782858531433522700,7.242522705078125,-0.013072924688458443,-0.005821936298161745,0.18300950527191162
1782858531443471600,7.2524716796875,0.001915878034196794,-0.006462692748755217,0.19432127475738525
1782858531453420800,7.2624208984375,0.014660702086985111,-0.010190585628151894,0.19973868131637573
1782858531463368700,7.27236865234375,0.022340193390846252,-0.015182415023446083,0.19687896966934204
1782858531473348900,7.282348876953125,0.02093670703470707,-0.022766832262277603,0.19093480706214905
1782858531483296800,7.292296875,0.01925039291381836,-0.03013606369495392,0.18114155530929565
1782858531493246000,7.302245849609375,0.02051992155611515,-0.03153901919722557,0.16668619215488434
1782858531503195000,7.31219482421875,0.03200400620698929,-0.019755860790610313,0.1491767019033432
1782858531513142800,7.322142822265625,0.04253441095352173,-0.007416370790451765,0.12785063683986664
1782858531523122700,7.332122802734375,0.0460500493645668,-0.00755032803863287,0.1080484390258789
1782858531533070800,7.34207080078125,0.04055967554450035,-0.020074907690286636,0.08683556318283081
1782858531543019800,7.352019775390625,0.02599644660949707,-0.029875341802835464,0.0657166987657547
1782858531552968700,7.36196875,0.011124290525913239,-0.02827691100537777,0.04903252422809601
1782858531562947800,7.37194775390625,0.008636364713311195,-0.024164458736777306,0.03609541803598404
1782858531572928300,7.38192822265625,0.014475345611572266,-0.018391257151961327,0.01817900314927101
1782858531582877200,7.391877197265625,0.027691015973687172,-0.011091266758739948,0.0018287927377969027
1782858531592825000,7.4018251953125,0.04244279861450195,-0.005390504375100136,-0.012806076556444168
1782858531602805200,7.41180517578125,0.05408294126391411,0.007936486043035984,-0.020445886999368668
1782858531612753200,7.421753173828125,0.050940945744514465,0.024772724136710167,-0.006737264804542065
1782858531622702000,7.4317021484375,0.03923102468252182,0.0331566222012043,0.014638597145676613
1782858531632651300,7.4416513671875,0.03139600530266762,0.026998061686754227,0.03618383780121803
1782858531642600200,7.45160009765625,0.027903802692890167,0.008827846497297287,0.060811419039964676
1782858531652579300,7.461579345703125,0.030616499483585358,-0.007399859372526407,0.07658958435058594
1782858531662528300,7.4715283203125,0.03545919060707092,-0.021073326468467712,0.0808490440249443
1782858531672476400,7.481476318359375,0.04005847126245499,-0.03315262869000435,0.07793527841567993
1782858531682425300,7.49142529296875,0.043468113988637924,-0.02226828783750534,0.06870049983263016
1782858531692404200,7.501404296875,0.040647294372320175,-0.01245320774614811,0.0561402328312397
1782858531702353200,7.511353271484375,0.03801875561475754,-0.0028634308837354183,0.041130926460027695
1782858531712302000,7.521302001953125,0.03261999413371086,0.010972755961120129,0.029024727642536163
1782858531722250200,7.531250244140625,0.027941087260842323,0.007678159512579441,0.01798858866095543
1782858531732230100,7.541230224609375,0.02688620798289776,0.011599930934607983,0.010863566771149635
1782858531742178300,7.55117822265625,0.033362749963998795,0.021086376160383224,0.005277852527797222
1782858531752127200,7.561127197265625,0.04519331082701683,0.027469707652926445,0.004318848252296448
1782858531762076200,7.571076171875,0.05488508567214012,0.029648706316947937,0.004190484061837196
1782858531772055000,7.581054931640625,0.06079650670289993,0.03651167079806328,0.0065596322529017925
1782858531782004200,7.591004150390625,0.06930184364318848,0.04220151528716087,0.01601252146065235
1782858531791953400,7.600953369140625,0.07482683658599854,0.04295945167541504,0.027789020910859108
1782858531801901300,7.6109013671875,0.07883542776107788,0.04049229994416237,0.041603103280067444
1782858531811850200,7.620850341796875,0.08388824015855789,0.028794363141059875,0.05170181021094322
1782858531821829400,7.630829345703125,0.09103803336620331,0.015422099269926548,0.0580449253320694
1782858531831778300,7.6407783203125,0.09194856882095337,0.002163019496947527,0.05384538695216179
1782858531841727200,7.650727294921875,0.08334389328956604,-0.0031707596499472857,0.04456906393170357
1782858531851675400,7.66067529296875,0.07798507809638977,0.01896463707089424,0.031445540487766266
1782858531861655300,7.6706552734375,0.0737525150179863,0.05934055522084236,0.010595652274787426
1782858531871603200,7.680603271484375,0.06983766704797745,0.08090124279260635,-0.014476144686341286
1782858531881552100,7.69055224609375,0.06940597295761108,0.08050469309091568,-0.03927603363990784
1782858531891501300,7.700501220703125,0.06552201509475708,0.08793757855892181,-0.06772365421056747
1782858531901480200,7.710480224609375,0.06223008409142494,0.10096176713705063,-0.09709059447050095
1782858531911429000,7.72042919921875,0.055741291493177414,0.09706342965364456,-0.12432914227247238
1782858531921378000,7.7303779296875,0.050524160265922546,0.08765954524278641,-0.15412431955337524
1782858531931326200,7.740326171875,0.041019339114427567,0.08307331800460815,-0.18052077293395996
1782858531941306000,7.75030615234375,0.02617407962679863,0.08764249831438065,-0.2022732049226761
1782858531951254000,7.76025390625,-0.002457564929500222,0.10079985111951828,-0.23470811545848846
1782858531961203500,7.770203369140625,-0.048825595527887344,0.12090218812227249,-0.28460562229156494
1782858531971152400,7.78015234375,-0.1050284132361412,0.12986904382705688,-0.3546116054058075
1782858531981101300,7.790101318359375,-0.16161125898361206,0.12619228661060333,-0.45262765884399414
1782858531991080200,7.800080078125,-0.22530795633792877,0.13370533287525177,-0.5911221504211426
1782858532001028400,7.8100283203125,-0.2761487662792206,0.1585041582584381,-0.7656856775283813
1782858532010977300,7.819977294921875,-0.3110295236110687,0.18425266444683075,-0.9780102372169495
1782858532020926200,7.82992626953125,-0.33663687109947205,0.15736831724643707,-1.197581171989441
1782858532030905300,7.8399052734375,-0.3983881175518036,0.13489577174186707,-1.3979398012161255
1782858532040854300,7.849854248046875,-0.5014945268630981,0.10380922257900238,-1.5695582628250122
1782858532050803200,7.85980322265625,-0.6171231269836426,0.032817866653203964,-1.6730785369873047
1782858532060751000,7.869751220703125,-0.7700671553611755,-0.009861951693892479,-1.7078561782836914
1782858532070731300,7.879731201171875,-0.9138379096984863,-0.06419762969017029,-1.6855082511901855
1782858532080679200,7.88967919921875,-1.0054442882537842,-0.1277100294828415,-1.6178854703903198
1782858532090628000,7.899628173828125,-1.0447962284088135,-0.19563661515712738,-1.5301282405853271
1782858532100577000,7.909576904296875,-1.0242486000061035,-0.26902908086776733,-1.439723014831543
1782858532110526200,7.919526123046875,-0.9732207655906677,-0.35951316356658936,-1.348648190498352
1782858532120505300,7.92950537109375,-0.9055317640304565,-0.4332345128059387,-1.2661831378936768
1782858532130454300,7.939454345703125,-0.8253844380378723,-0.46357643604278564,-1.1813881397247314
1782858532140402400,7.94940234375,-0.7468180060386658,-0.48479679226875305,-1.0868514776229858
1782858532150351400,7.959351318359375,-0.6841849684715271,-0.5183648467063904,-0.9743214845657349
1782858532160330200,7.969330322265625,-0.650195837020874,-0.5552440285682678,-0.833175778388977
1782858532170279200,7.979279052734375,-0.6387152671813965,-0.578244149684906,-0.6790847778320312
1782858532180228400,7.989228271484375,-0.6308205723762512,-0.6081607937812805,-0.5046945810317993
1782858532190176300,7.99917626953125,-0.5903685092926025,-0.6183454990386963,-0.3149089515209198
1782858532200156200,8.00915625,-0.5336735248565674,-0.5955922603607178,-0.11334573477506638
1782858532210104300,8.019104248046874,-0.5001706480979919,-0.515471875667572,0.09795505553483963
1782858532220053200,8.02905322265625,-0.4050167202949524,-0.2624364197254181,0.2986556589603424
1782858532230002200,8.039002197265624,-0.3341763913631439,-0.20720139145851135,0.47237101197242737
1782858532239981000,8.04898095703125,-0.3058786988258362,-0.4540711045265198,0.5842458605766296
1782858532249930200,8.05893017578125,-0.2691446542739868,-0.758608341217041,0.6438112258911133
1782858532259879200,8.068879150390625,-0.1612144559621811,-0.9624501466751099,0.6366521120071411
1782858532269827000,8.0788271484375,0.061173077672719955,-1.0747178792953491,0.5797635316848755
1782858532279776300,8.0887763671875,0.344033807516098,-1.126873254776001,0.49577298760414124
1782858532289755100,8.098755126953124,0.601089596748352,-1.1269608736038208,0.38218438625335693
1782858532299704300,8.108704345703124,0.7921167612075806,-1.0707404613494873,0.26805436611175537
1782858532309653200,8.1186533203125,0.9340286254882812,-0.9820132255554199,0.17817826569080353
1782858532319601400,8.128601318359374,1.025128722190857,-0.8288574814796448,0.11306237429380417
1782858532329581300,8.138581298828125,1.0553302764892578,-0.588539183139801,0.06995857506990433
1782858532339529200,8.148529296875,1.0307786464691162,-0.27396416664123535,0.014151505194604397
1782858532349478100,8.15847802734375,0.9547933340072632,0.06118825450539589,-0.04890069738030434
1782858532359427300,8.16842724609375,0.842664897441864,0.3728486895561218,-0.10675626993179321
1782858532369406200,8.17840625,0.7131417989730835,0.6146272420883179,-0.1422058790922165
1782858532379355100,8.188355224609374,0.5621826648712158,0.7845126390457153,-0.13351304829120636
1782858532389304000,8.198303955078124,0.37024784088134766,0.8597086071968079,-0.11496306955814362
1782858532399252200,8.208252197265624,0.16067463159561157,0.8151946663856506,-0.06304661184549332
1782858532409201200,8.218201171875,-0.021853899583220482,0.6750607490539551,0.013973872177302837
1782858532419180000,8.228179931640625,-0.14312227070331573,0.49070659279823303,0.11482831835746765
1782858532429129200,8.238129150390625,-0.20447272062301636,0.3340722620487213,0.21606145799160004
1782858532439078400,8.248078369140625,-0.16853708028793335,0.281835675239563,0.32648757100105286
1782858532449027300,8.25802734375,-0.06101914495229721,0.22792130708694458,0.481625497341156
1782858532459006200,8.268006103515624,0.06967015564441681,0.23129872977733612,0.6652839779853821
1782858532468955400,8.277955322265624,0.17262662947177887,0.3082267940044403,0.8582726120948792
1782858532478903300,8.2879033203125,0.19304722547531128,0.4040739834308624,1.0527595281600952
1782858532488852200,8.297852294921874,0.14144660532474518,0.46622443199157715,1.1981143951416016
1782858532498831400,8.307831298828125,0.04000307619571686,0.4619191586971283,1.270933985710144
1782858532508780300,8.3177802734375,-0.06692364066839218,0.3792005777359009,1.2854101657867432
1782858532518729200,8.327729248046875,-0.17181596159934998,0.26769083738327026,1.2394415140151978
1782858532528677000,8.337677001953125,-0.2538439929485321,0.17897213995456696,1.1388044357299805
1782858532538657300,8.3476572265625,-0.3052624464035034,0.14340217411518097,1.00145423412323
1782858532548605200,8.357605224609374,-0.32905858755111694,0.1663740575313568,0.8426710367202759
1782858532558554000,8.36755419921875,-0.33665579557418823,0.2469530552625656,0.6849825978279114
1782858532568503000,8.3775029296875,-0.3311883211135864,0.36293771862983704,0.5425841808319092
1782858532578445600,8.387445556640625,-0.31527140736579895,0.4680558741092682,0.42381227016448975
1782858532588424700,8.3974248046875,-0.2849539816379547,0.5281440019607544,0.3307177424430847
1782858532598373600,8.40737353515625,-0.2419106364250183,0.5430179834365845,0.2635924816131592
1782858532608321800,8.41732177734375,-0.19427360594272614,0.5590238571166992,0.21655414998531342
1782858532618271000,8.42727099609375,-0.1485692411661148,0.5830021500587463,0.18618878722190857
1782858532628249900,8.437249755859375,-0.12077701836824417,0.5934579968452454,0.16160087287425995
1782858532638198800,8.44719873046875,-0.11142559349536896,0.5921661257743835,0.1431475728750229
1782858532648147700,8.457147705078125,-0.11964863538742065,0.5776007771492004,0.13348855078220367
1782858532658095900,8.467095947265625,-0.13683827221393585,0.542384684085846,0.13622547686100006
1782858532668075800,8.47707568359375,-0.16277986764907837,0.4782765507698059,0.15438131988048553
1782858532678024000,8.48702392578125,-0.1933601349592209,0.37125104665756226,0.17387698590755463
1782858532687972900,8.496972900390626,-0.2151232212781906,0.234760582447052,0.18984529376029968
1782858532697921800,8.506921875,-0.2204897701740265,0.10326433926820755,0.2093590795993805
1782858532707870700,8.51687060546875,-0.20944616198539734,0.005539907608181238,0.23265428841114044
1782858532717849900,8.526849853515625,-0.18650995194911957,-0.025135979056358337,0.25856417417526245
1782858532727798800,8.536798828125,-0.1526491940021515,-0.0036637107841670513,0.28393691778182983
1782858532737746700,8.54674658203125,-0.11337795853614807,0.04039216414093971,0.2993518114089966
1782858532747695600,8.556695556640625,-0.07266035676002502,0.06981077045202255,0.3061031997203827
1782858532757674800,8.5666748046875,-0.0438271090388298,0.08537322282791138,0.29974064230918884
1782858532767623700,8.576623779296876,-0.02430667169392109,0.08605046570301056,0.2781112492084503
1782858532777572900,8.58657275390625,-0.005567604675889015,0.07657520473003387,0.25221332907676697
1782858532787521800,8.596521728515626,0.009242233820259571,0.06950211524963379,0.21804311871528625
1782858532797501000,8.6065009765625,0.022361764684319496,0.054655522108078,0.18218845129013062
1782858532807448800,8.61644873046875,0.037457361817359924,0.027951739728450775,0.13696503639221191
1782858532817397800,8.626397705078125,0.05378040671348572,0.002659698948264122,0.09098290652036667
1782858532827346700,8.6363466796875,0.07593178004026413,-0.0364762507379055,0.040836114436388016
1782858532837325800,8.646325927734376,0.10015136748552322,-0.07650303095579147,-0.013743242248892784
1782858532847274800,8.656274658203126,0.12631772458553314,-0.10681406408548355,-0.07011224329471588
1782858532857223700,8.6662236328125,0.14314411580562592,-0.10821355879306793,-0.11840121448040009
1782858532867171800,8.676171875,0.15383882820606232,-0.07699891179800034,-0.15821680426597595
1782858532877120800,8.686120849609376,0.1562063843011856,-0.03069213218986988,-0.1943092942237854
1782858532887099600,8.696099609375,0.15290166437625885,0.014426076784729958,-0.22744594514369965
1782858532897048800,8.706048828125,0.1432165503501892,0.04981815442442894,-0.26227742433547974
1782858532906997800,8.715997802734375,0.1401539146900177,0.07786976546049118,-0.2995704710483551
1782858532916946700,8.72594677734375,0.14151957631111145,0.09364526718854904,-0.3278670907020569
1782858532926925600,8.735925537109376,0.15173999965190887,0.09246122092008591,-0.3473536968231201
1782858532936874800,8.745874755859376,0.1599784791469574,0.07988497614860535,-0.35402438044548035
1782858532946823000,8.755822998046876,0.158906027674675,0.06325194239616394,-0.3478386700153351
1782858532956771800,8.765771728515626,0.15236397087574005,0.055212389677762985,-0.3280292749404907
1782858532966751000,8.7757509765625,0.1381104737520218,0.0442071408033371,-0.29924848675727844
1782858532976700000,8.785699951171875,0.1191231980919838,0.028741633519530296,-0.26267024874687195
1782858532986648800,8.79564892578125,0.10308510810136795,0.013405820354819298,-0.22449995577335358
1782858532996596700,8.8055966796875,0.09197546541690826,0.0029204224701970816,-0.17773297429084778
1782858533006545700,8.815545654296875,0.08679215610027313,0.002600310370326042,-0.13250824809074402
1782858533016524800,8.82552490234375,0.0785752385854721,-0.0009020126308314502,-0.0956125408411026
1782858533026473700,8.8354736328125,0.07189708948135376,-0.010325075127184391,-0.06790447980165482
1782858533036422700,8.845422607421876,0.06691484898328781,-0.017061274498701096,-0.04824822396039963
1782858533046371600,8.85537158203125,0.06129904463887215,-0.02912406250834465,-0.03509699925780296
1782858533056350700,8.865350830078125,0.054791077971458435,-0.04382631182670593,-0.0348312184214592
1782858533066299600,8.875299560546875,0.045585326850414276,-0.05073774605989456,-0.04111095145344734
1782858533076247800,8.885247802734375,0.034324683248996735,-0.05674237385392189,-0.05596153438091278
1782858533086196700,8.89519677734375,0.025777535513043404,-0.05826810002326965,-0.06933459639549255
1782858533096175600,8.905175537109375,0.024297082796692848,-0.05282193422317505,-0.08155558258295059
1782858533106124800,8.915124755859376,0.022881347686052322,-0.03670501708984375,-0.08070230484008789
1782858533116073700,8.92507373046875,0.022225411608815193,0.0013646037550643086,-0.06766852736473083
1782858533126022000,8.93502197265625,0.02309812791645527,0.03681553900241852,-0.04887380078434944
1782858533136001800,8.945001708984375,0.020851219072937965,0.05516711622476578,-0.032782182097435
1782858533145950000,8.954949951171875,0.018671156838536263,0.04209818318486214,-0.017060209065675735
1782858533155899000,8.96489892578125,0.019584620371460915,0.02281263843178749,-0.010577277280390263
1782858533165847800,8.974847900390625,0.01678137667477131,-0.0013499563792720437,-0.012957077473402023
1782858533175796700,8.984796630859375,0.017723336815834045,-0.014767494052648544,-0.009009473957121372
1782858533185775900,8.99477587890625,0.020256003364920616,-0.013467605225741863,-0.016942230984568596
1782858533195724800,9.004724853515626,0.015530490316450596,-0.013479855842888355,-0.023034213110804558
1782858533205672700,9.014672607421875,0.023383885622024536,0.0012974920682609081,-0.020770525559782982
1782858533215621600,9.02462158203125,0.032215192914009094,0.018306303769350052,-0.015960590913891792
1782858533225600800,9.034600830078125,0.044328849762678146,0.02901487424969673,-0.011348527856171131
1782858533235549700,9.0445498046875,0.05576259642839432,0.016271380707621574,-0.006012352649122477
1782858533245498600,9.05449853515625,0.06623335182666779,0.003878627670928836,-0.0035547874867916107
1782858533255447800,9.06444775390625,0.07103875279426575,0.0065622953698039055,-0.0031941954512149096
1782858533265427000,9.074427001953126,0.07556932419538498,0.0226251520216465,-0.006406234111636877
1782858533275375900,9.0843759765625,0.08123573660850525,0.0390978679060936,-0.011767176911234856
1782858533285323800,9.09432373046875,0.08466029167175293,0.04104064404964447,-0.01998862251639366
1782858533295272700,9.104272705078126,0.09070513397455215,0.020963339135050774,-0.025474732741713524
1782858533305222000,9.114221923828126,0.08968114852905273,-0.0002639192680362612,-0.031436752527952194
1782858533315200800,9.12420068359375,0.09051018953323364,-0.006382798310369253,-0.03663044795393944
1782858533325149700,9.134149658203125,0.08556017279624939,-0.010270747356116772,-0.03615693747997284
1782858533335097900,9.144097900390625,0.08882015198469162,-0.013100888580083847,-0.03459419682621956
1782858533345046800,9.154046875,0.09064281731843948,-0.021450430154800415,-0.038988146930933
1782858533355025700,9.164025634765625,0.09837689995765686,-0.023182284086942673,-0.043473973870277405
1782858533364974800,9.173974853515626,0.10787320137023926,-0.019219234585762024,-0.050522830337285995
1782858533374923800,9.183923828125,0.11445440351963043,-0.011887285858392715,-0.0499316081404686
1782858533384872700,9.193872802734376,0.12237411737442017,-0.011902465485036373,-0.03885765001177788
1782858533394851600,9.2038515625,0.12113095074892044,-0.01750815287232399,-0.03261466696858406
1782858533404800800,9.21380078125,0.12033386528491974,-0.03852235898375511,-0.016989901661872864
1782858533414748700,9.223748779296875,0.11094515770673752,-0.05493621900677681,-0.003040530951693654
1782858533424697900,9.23369775390625,0.09437044709920883,-0.06440375745296478,0.0062336609698832035
1782858533434676700,9.2436767578125,0.07535174489021301,-0.069065622985363,0.014572817832231522
1782858533444626000,9.2536259765625,0.0635928213596344,-0.07592619210481644,0.017606690526008606
1782858533454574800,9.263574951171876,0.05849074199795723,-0.08064291626214981,0.01335868239402771
1782858533464522800,9.273522705078125,0.05745157599449158,-0.08871708810329437,0.007756456732749939
1782858533474471700,9.2834716796875,0.0610782690346241,-0.07448329031467438,0.0009440905996598303
1782858533484450800,9.293450927734375,0.06933166831731796,-0.04699653759598732,-0.002335592173039913
1782858533494399700,9.303399658203125,0.08024903386831284,-0.011612447910010815,-0.00202320353128016
1782858533504348700,9.3133486328125,0.08353909850120544,0.016502544283866882,-0.006435528863221407
1782858533514297600,9.323297607421875,0.08444244414567947,0.03813353553414345,-0.0017052220646291971
1782858533524276700,9.33327685546875,0.08126715570688248,0.052264537662267685,0.0003296993381809443
1782858533534225700,9.3432255859375,0.07624736428260803,0.05238970369100571,0.006404103245586157
1782858533544173800,9.353173828125,0.07486545294523239,0.03838920220732689,0.020786505192518234
1782858533554122800,9.363122802734376,0.07354479283094406,0.02634665183722973,0.0299586970359087
1782858533564101600,9.3731015625,0.06959452480077744,0.0027443873696029186,0.041248105466365814
1782858533574088400,9.38308837890625,0.07160095125436783,-0.011389275081455708,0.04953133314847946
1782858533584037400,9.393037353515625,0.076547771692276,-0.02107066474854946,0.05481584370136261
1782858533593986300,9.402986328125,0.08123759925365448,-0.01643170416355133,0.05546911805868149
1782858533603934200,9.412934326171875,0.08312604576349258,-0.01079885195940733,0.052327387034893036
1782858533613913300,9.422913330078124,0.08735088258981705,-0.012505405582487583,0.04797391593456268
1782858533623862300,9.4328623046875,0.0870952233672142,-0.01823599450290203,0.03340669348835945
1782858533633811200,9.442811279296874,0.08701452612876892,-0.014631673693656921,0.02588352933526039
1782858533643760000,9.452760009765624,0.08661079406738281,-0.006421946454793215,0.019477294757962227
1782858533653739300,9.4627392578125,0.0862525999546051,-0.0004495415778364986,0.015748070552945137
1782858533663688200,9.472688232421875,0.0800359770655632,0.0024019049014896154,0.015429290011525154
1782858533673636000,9.482635986328125,0.07992732524871826,0.006765494588762522,0.01689828932285309
1782858533683585300,9.492585205078125,0.07741622626781464,0.014732873067259789,0.022251775488257408
1782858533693564200,9.502564208984374,0.07494987547397614,0.02305684983730316,0.027658259496092796
1782858533703513000,9.51251318359375,0.06856627762317657,0.024920795112848282,0.03802940621972084
1782858533713462000,9.5224619140625,0.0642588809132576,0.02111061103641987,0.053469616919755936
1782858533723411200,9.5324111328125,0.0631888210773468,0.015063371509313583,0.07116419076919556
1782858533733390300,9.542390380859375,0.06766533106565475,0.005160140804946423,0.0855439305305481
1782858533743339300,9.55233935546875,0.07280389964580536,-0.002549444092437625,0.09754759818315506
1782858533753287400,9.562287353515625,0.07699491828680038,-0.0007928230334073305,0.09977053850889206
1782858533763236400,9.572236328125,0.07982585579156876,-0.008066714741289616,0.10240226984024048
1782858533773185300,9.582185302734375,0.08629333972930908,-0.014085192233324051,0.09687834233045578
1782858533783164200,9.5921640625,0.09159117192029953,-0.016516126692295074,0.08931709825992584
1782858533793113300,9.60211328125,0.09939316660165787,-0.025982864201068878,0.08588801324367523
1782858533803061200,9.612061279296874,0.10302704572677612,-0.04177753999829292,0.09327082335948944
1782858533813010200,9.62201025390625,0.09780912101268768,-0.041975945234298706,0.10170745104551315
1782858533822989300,9.6319892578125,0.08923719823360443,-0.03650767728686333,0.10683456808328629
1782858533832938200,9.641938232421875,0.08405149728059769,-0.033235449343919754,0.10578341782093048
1782858533842887200,9.65188720703125,0.08168261498212814,-0.027426298707723618,0.0974154993891716
1782858533852836000,9.661836181640625,0.0813145637512207,-0.027177026495337486,0.08182695508003235
1782858533862815200,9.671815185546874,0.0812021791934967,-0.01997903361916542,0.0638684630393982
1782858533872764200,9.68176416015625,0.08264188468456268,-0.006432066671550274,0.0535508431494236
1782858533882712000,9.691712158203124,0.08547841757535934,0.006794789340347052,0.04992761090397835
1782858533892661200,9.7016611328125,0.08508533239364624,0.0028453213162720203,0.04791799187660217
1782858533902610200,9.711610107421874,0.08226557821035385,-0.011233746074140072,0.05059473216533661
1782858533912589300,9.72158935546875,0.07675310224294662,-0.0229340773075819,0.05608244240283966
1782858533922538200,9.731538330078125,0.0740521252155304,-0.03423040732741356,0.058287542313337326
1782858533932486400,9.741486328125,0.07115353643894196,-0.03861849755048752,0.05615168437361717
1782858533942435300,9.751435302734375,0.07033408433198929,-0.02634824998676777,0.05144268274307251
1782858533952414200,9.761414306640624,0.07351549714803696,-0.00347409350797534,0.047804273664951324
1782858533962363100,9.771363037109374,0.07648784667253494,0.010663297027349472,0.04267289489507675
1782858533972312300,9.781312255859374,0.07833874970674515,0.006672816351056099,0.03298298269510269
1782858533982261200,9.79126123046875,0.08239367604255676,-0.001865011639893055,0.026765834540128708
1782858533992240000,9.801240234375,0.08433778584003448,-0.002088717184960842,0.023612385615706444
1782858534002189000,9.81118896484375,0.08617802709341049,-0.006786000914871693,0.025420937687158585
1782858534012137200,9.82113720703125,0.08867847174406052,-0.005618204362690449,0.023813720792531967
1782858534022086100,9.831086181640625,0.08328290283679962,-0.009062470868229866,0.016828248277306557
1782858534032065300,9.841065185546874,0.0887378603219986,-0.008843026123940945,0.012478773482143879
1782858534042014200,9.85101416015625,0.09755585342645645,-0.009729859419167042,-0.0008335694437846541
1782858534051963400,9.86096337890625,0.10905085504055023,-0.014577078633010387,-0.011720571666955948
1782858534061912300,9.870912353515624,0.12432993948459625,-0.021880265325307846,-0.02539297379553318
1782858534071860200,9.880860107421874,0.13839036226272583,-0.02238013967871666,-0.0357619933784008
1782858534081840400,9.89084033203125,0.14259043335914612,-0.01737898960709572,-0.0384637676179409
1782858534091788300,9.900788330078125,0.1443862020969391,-0.007993211969733238,-0.038484808057546616
1782858534101737200,9.9107373046875,0.14363040030002594,0.008147141896188259,-0.030340595170855522
1782858534111686100,9.92068603515625,0.1478608399629593,0.014552044682204723,-0.0123645244166255
1782858534121665300,9.930665283203124,0.15222442150115967,0.0051926313899457455,0.0032631712965667248
1782858534131614200,9.9406142578125,0.15376132726669312,-0.006686132401227951,0.01641865447163582
1782858534141562000,9.95056201171875,0.1535717099905014,-0.015933159738779068,0.028908614069223404
1782858534151511300,9.96051123046875,0.15020787715911865,-0.017971543595194817,0.03326554596424103
1782858534161490200,9.970490234375,0.14432334899902344,-0.012396215461194515,0.033782731741666794
1782858534171439000,9.980439208984375,0.13783030211925507,-0.00965928565710783,0.029511285945773125
1782858534181388000,9.990387939453125,0.12777847051620483,-0.022238992154598236,0.022578546777367592
1782858534191337200,10.000337158203125,0.11806432157754898,-0.04878431558609009,0.008320247754454613
1782858534201285000,10.01028515625,0.1041298657655716,-0.06884830445051193,-0.010872621089220047
1782858534211265300,10.020265380859374,0.08771733194589615,-0.06652789562940598,-0.029440445825457573
1782858534221213400,10.03021337890625,0.07145873457193375,-0.04502446576952934,-0.04310273006558418
1782858534231162400,10.040162353515624,0.05956878885626793,-0.011450793594121933,-0.058643605560064316
1782858534241111300,10.050111328125,0.05348026752471924,0.01581704616546631,-0.07305716723203659
1782858534251090200,10.060090087890625,0.05041443929076195,0.028616730123758316,-0.0874805822968483
1782858534261039400,10.070039306640625,0.04285319149494171,0.030462834984064102,-0.09751030802726746
1782858534270987300,10.0799873046875,0.03271107375621796,0.03735163435339928,-0.10010422766208649
1782858534280936200,10.089936279296875,0.022395586594939232,0.039626769721508026,-0.10271039605140686
1782858534290915300,10.099915283203124,0.010157296434044838,0.025792714208364487,-0.11158192157745361
1782858534300864300,10.1098642578125,-0.0048424256965518,-0.001680987305007875,-0.12482821941375732
1782858534310813200,10.119813232421874,-0.015148060396313667,-0.005247758701443672,-0.13271144032478333
1782858534320762000,10.12976220703125,-0.015813050791621208,0.006142580881714821,-0.13835494220256805
1782858534330741200,10.1397412109375,-0.009958891198039055,0.00987180508673191,-0.14188656210899353
1782858534340690200,10.149690185546875,-0.001722798915579915,0.011226555332541466,-0.13905322551727295
1782858534350638000,10.15963818359375,0.005334577988833189,0.020138558000326157,-0.11946940422058105
1782858534360587000,10.1695869140625,0.010489125736057758,0.031745944172143936,-0.09331503510475159
1782858534370536400,10.179536376953125,0.010252637788653374,0.04151149094104767,-0.061295848339796066
1782858534380515300,10.189515380859374,0.006016080733388662,0.03508182242512703,-0.032709211111068726
1782858534390464300,10.19946435546875,-0.00213665422052145,0.012404205277562141,-0.015150456689298153
1782858534400413200,10.2094130859375,-0.005883455276489258,-0.012561864219605923,-0.002430667169392109
1782858534410361300,10.219361328125,-0.0037875475827604532,-0.010746121406555176,0.0055092815309762955
1782858534420341200,10.22934130859375,0.004314853344112635,-0.0028181569650769234,0.006595051847398281
1782858534430289200,10.2392890625,0.01137143187224865,0.0021470405627042055,-0.001246625673957169
1782858534440238300,10.24923828125,0.01991138979792595,0.012251872569322586,-0.00812317430973053
1782858534450187300,10.259187255859375,0.02708434872329235,0.028184233233332634,-0.012679043225944042
1782858534460166100,10.269166259765624,0.028785841539502144,0.033482592552900314,-0.02100728079676628
1782858534470115000,10.279114990234374,0.022354308515787125,0.03338298946619034,-0.03171105682849884
1782858534480063200,10.289063232421874,0.01894572749733925,0.03328525274991989,-0.03133608400821686
1782858534490012200,10.29901220703125,0.02179024927318096,0.043830569833517075,-0.03418033942580223
1782858534499991300,10.3089912109375,0.029439382255077362,0.048178981989622116,-0.03099227137863636
1782858534509940200,10.318940185546875,0.03556891158223152,0.041614290326833725,-0.017160611227154732
1782858534519889200,10.32888916015625,0.040757015347480774,0.030433539301156998,-0.0004713795206043869
1782858534529838300,10.33883837890625,0.04159271717071533,0.02268427424132824,0.013008209876716137
1782858534539786200,10.3487861328125,0.04426546394824982,0.014761901460587978,0.027766117826104164
1782858534549766400,10.358766357421874,0.0436105951666832,0.004546015989035368,0.03954421356320381
1782858534559714300,10.36871435546875,0.04373043775558472,-0.0023497070651501417,0.041669148951768875
1782858534569663200,10.378663330078124,0.04230617731809616,0.004193679895251989,0.036916740238666534
1782858534579614700,10.38861474609375,0.03924141079187393,0.011757856234908104,0.024162594228982925
1782858534589593600,10.398593505859376,0.022299446165561676,0.02269545942544937,-0.009529589675366879
1782858534599542500,10.40854248046875,0.002998719457536936,0.04881680756807327,-0.0638711228966713
1782858534609490700,10.41849072265625,-0.004299141000956297,0.086391881108284,-0.1283515840768814
1782858534619439600,10.428439697265626,-0.007931692525744438,0.11708907037973404,-0.1871429979801178
1782858534629418500,10.43841845703125,0.0065322015434503555,0.15506921708583832,-0.21851342916488647
1782858534639367700,10.44836767578125,0.020712468773126602,0.2120555341243744,-0.22578652203083038
1782858534649316600,10.458316650390625,0.04234692454338074,0.2674168050289154,-0.21517781913280487
1782858534659265500,10.468265625,0.07349152863025665,0.2926606237888336,-0.18152505159378052
1782858534669213400,10.47821337890625,0.0941331535577774,0.26826366782188416,-0.1343170553445816
1782858534679193600,10.488193603515626,0.10603348910808563,0.18208032846450806,-0.08428265899419785
1782858534689141500,10.4981416015625,0.11721690744161606,0.04893984645605087,-0.02407204732298851
1782858534699090400,10.50809033203125,0.12329529970884323,-0.10481296479701996,0.03272785246372223
1782858534709039600,10.51803955078125,0.12004784494638443,-0.24056494235992432,0.08482673764228821
1782858534719018800,10.528018798828125,0.10104752331972122,-0.3361348807811737,0.11966275423765182
1782858534728967700,10.5379677734375,0.06117653846740723,-0.36957430839538574,0.1378481537103653
1782858534738915600,10.54791552734375,0.027933895587921143,-0.3193332552909851,0.15115436911582947
1782858534748864800,10.55786474609375,0.02196015976369381,-0.18786311149597168,0.1557547152042389
1782858534758843600,10.56784375,0.026943467557430267,-0.043718717992305756,0.13300944864749908
1782858534768792600,10.57779248046875,0.04989059269428253,0.07156020402908325,0.08719455450773239
1782858534778741500,10.587741455078126,0.08436601608991623,0.1644856184720993,0.03958149626851082
1782858534788690700,10.597690673828126,0.1205514445900917,0.23683997988700867,-0.00261841993778944
1782858534798669600,10.607669677734375,0.1453678458929062,0.2733069062232971,-0.027293939143419266
1782858534808618500,10.617618408203125,0.16973204910755157,0.2909868359565735,-0.04385054484009743
1782858534818566700,10.627566650390625,0.18878695368766785,0.3031044900417328,-0.058041997253894806
1782858534828515600,10.637515625,0.2044205218553543,0.33975809812545776,-0.07390405237674713
1782858534838464500,10.647464599609375,0.21378391981124878,0.37827593088150024,-0.08649707585573196
1782858534848443400,10.657443359375,0.21454878151416779,0.39678090810775757,-0.09482771158218384
1782858534858392800,10.667392822265626,0.20517419278621674,0.38477298617362976,-0.10354103893041611
1782858534868341800,10.677341796875,0.1862843930721283,0.3589954376220703,-0.09839341789484024
1782858534878289700,10.68728955078125,0.16779007017612457,0.3351958394050598,-0.0691886618733406
1782858534888269600,10.69726953125,0.15452885627746582,0.2879801094532013,-0.020319651812314987
1782858534898217700,10.7072177734375,0.14580780267715454,0.2017512321472168,0.05230661481618881
1782858534908166700,10.717166748046875,0.130791574716568,0.1115795224905014,0.1257113218307495
1782858534918115600,10.727115478515625,0.11675511300563812,0.042876891791820526,0.2031392753124237
1782858534928094700,10.7370947265625,0.10378365218639374,-0.0028759476263076067,0.2762531638145447
1782858534938043600,10.747043701171876,0.0972735583782196,-0.03219948336482048,0.34011363983154297
1782858534947991600,10.756991455078126,0.08965558558702469,-0.03549114987254143,0.37789857387542725
1782858534957940500,10.7669404296875,0.08650773018598557,-0.013764015398919582,0.38275375962257385
1782858534967889700,10.7768896484375,0.07949748635292053,-0.009547432884573936,0.35335567593574524
1782858534977868500,10.78686865234375,0.07524655014276505,-0.02203179895877838,0.3026038110256195
1782858534987817500,10.7968173828125,0.07316315919160843,-0.021682126447558403,0.2475844919681549
1782858534997766400,10.806766357421875,0.07498742640018463,-0.021989988163113594,0.18893396854400635
1782858535007714600,10.816714599609375,0.08009190857410431,-0.002752643311396241,0.12566737830638885
1782858535017694700,10.82669482421875,0.08153107762336731,0.04418530315160751,0.06490762531757355
1782858535027642400,10.836642333984376,0.07992039620876312,0.066610187292099,0.021836057305336
1782858535037591800,10.846591796875,0.0695284754037857,0.05681614577770233,-0.005894640926271677
1782858535047540700,10.856540771484376,0.04818670451641083,0.044383708387613297,-0.03562776744365692
1782858535057519600,10.86651953125,0.020424582064151764,0.024830780923366547,-0.06323223561048508
1782858535067468500,10.876468505859375,-0.005468002520501614,-0.0054909056052565575,-0.09344819188117981
1782858535077416700,10.886416748046875,-0.034261833876371384,-0.023802002891898155,-0.12313977628946304
1782858535087365600,10.89636572265625,-0.05748699605464935,-0.038483478128910065,-0.15970151126384735
1782858535097344500,10.906344482421876,-0.0801054909825325,-0.07664817571640015,-0.19599001109600067
1782858535107293700,10.916293701171876,-0.0976400077342987,-0.13921354711055756,-0.23110724985599518
1782858535117242600,10.92624267578125,-0.11090894043445587,-0.2063305377960205,-0.2538876533508301
1782858535127191600,10.936191650390626,-0.10892994701862335,-0.25752049684524536,-0.2627890110015869
1782858535137139500,10.946139404296876,-0.0803033635020256,-0.29013434052467346,-0.2765200138092041
1782858535147119600,10.95611962890625,-0.027757061645388603,-0.2723606824874878,-0.2832479476928711
1782858535157067500,10.966067626953125,0.039444610476493835,-0.21237164735794067,-0.26976144313812256
1782858535167016400,10.976016357421875,0.08836235105991364,-0.14768533408641815,-0.2621879279613495
1782858535176965600,10.985965576171875,0.11614551395177841,-0.08205918222665787,-0.250373899936676
1782858535186944500,10.995944580078126,0.12936943769454956,-0.006865895353257656,-0.2397385537624359
1782858535196893700,11.005893798828126,0.12322073429822922,0.01654701866209507,-0.23782001435756683
1782858535206842600,11.015842529296876,0.10365022718906403,-0.003168629016727209,-0.22608213126659393
1782858535216790800,11.025790771484376,0.08567468822002411,-0.00672341650351882,-0.19277504086494446
1782858535226770700,11.035770751953125,0.07933876663446426,-0.010961837135255337,-0.1632096916437149
1782858535236718600,11.045718505859375,0.08866089582443237,-0.04700692370533943,-0.13368988037109375
1782858535246667500,11.05566748046875,0.10196924209594727,-0.1024336963891983,-0.11342642456293106
1782858535256616700,11.06561669921875,0.10478606820106506,-0.13926094770431519,-0.09730923920869827
1782858535266564600,11.075564697265625,0.0862525999546051,-0.1549466997385025,-0.07744445651769638
1782858535276544500,11.08554443359375,0.05905533209443092,-0.12652331590652466,-0.05193403735756874
1782858535286492700,11.09549267578125,0.037149231880903244,-0.07643298804759979,-0.020498083904385567
1782858535296441600,11.105441650390626,0.020140955224633217,-0.04787884280085564,0.010978614911437035
1782858535306390500,11.115390625,0.0113975303247571,-0.04006858915090561,0.04242788255214691
1782858535316369400,11.125369384765625,-0.005191565956920385,-0.039800144731998444,0.07094847410917282
1782858535326318600,11.135318603515625,-0.02063124254345894,-0.04053917154669762,0.09546340256929398
1782858535336267800,11.145267822265625,-0.030316893011331558,-0.04442525655031204,0.10808971524238586
1782858535346215400,11.15521533203125,-0.04091067984700203,-0.06240851804614067,0.10497861355543137
1782858535356195600,11.165195556640626,-0.05233297869563103,-0.07159855216741562,0.08645313233137131
1782858535366143700,11.175143798828126,-0.06139278784394264,-0.04935023933649063,0.06547567993402481
1782858535376092700,11.1850927734375,-0.06309081614017487,-0.019936423748731613,0.044956024736166
1782858535386041600,11.19504150390625,-0.05793547257781029,-0.005375324282795191,0.020130302757024765
1782858535396020700,11.205020751953125,-0.05254283547401428,-0.0040826257318258286,0.003980893176048994
1782858535405969700,11.2149697265625,-0.04675259068608284,0.020018182694911957,-0.0036549223586916924
1782858535415917600,11.22491748046875,-0.0488402433693409,0.05083734914660454,-0.006506368983536959
1782858535425866500,11.234866455078125,-0.05549628287553787,0.05294550582766533,-0.007148989476263523
1782858535435815700,11.244815673828125,-0.06013231351971626,0.03314011171460152,-0.0004543352697510272
1782858535445794600,11.254794677734376,-0.06588421016931534,0.009347694925963879,0.011517905630171299
1782858535455743500,11.264743408203126,-0.06774495542049408,-0.01293683797121048,0.015139804221689701
1782858535465692400,11.2746923828125,-0.06320426613092422,-0.017119597643613815,0.017056481912732124
1782858535475640600,11.284640625,-0.052800364792346954,0.0057164751924574375,0.02305631712079048
1782858535485620500,11.294620361328125,-0.046843938529491425,0.04228939861059189,0.012743491679430008
1782858535495568600,11.304568603515625,-0.04258580878376961,0.07454720139503479,-0.0017504957504570484
1782858535505517600,11.314517578125,-0.033373404294252396,0.09678060561418533,-0.021075990051031113
1782858535515466800,11.324466796875,-0.024985244497656822,0.0889357328414917,-0.042388204485177994
1782858535525445600,11.334445556640626,-0.017709488049149513,0.0718851089477539,-0.05926545336842537
1782858535535394600,11.34439453125,-0.009755425155162811,0.05290236324071884,-0.07147818058729172
1782858535545343700,11.35434375,-0.005537510849535465,0.040516000241041183,-0.07737415283918381
1782858535555291600,11.364291748046876,-0.0015161376213654876,0.019031215459108353,-0.07555680721998215
1782858535565240600,11.374240478515626,0.0017382452497258782,-0.010385529138147831,-0.06856441497802734
1782858535575219700,11.3842197265625,0.00432976707816124,-0.026700852438807487,-0.05223417654633522
1782858535585196300,11.3941962890625,0.01696912944316864,-0.009385245852172375,-0.026822293177247047
1782858535595145200,11.404145263671875,0.026637203991413116,0.005858155433088541,-0.006493852008134127
1782858535605093000,11.414093017578125,0.03701420873403549,0.024649687111377716,0.004866127856075764
1782858535615073300,11.4240732421875,0.05139235034584999,0.04259353131055832,0.011937619186937809
1782858535625021200,11.434021240234374,0.05927078053355217,0.04378316551446915,0.010482468642294407
1782858535634970000,11.44397021484375,0.06053951010107994,0.029569609090685844,0.005939648021012545
1782858535644919000,11.4539189453125,0.06420375406742096,0.022885873913764954,0.002132392954081297
1782858535654898200,11.463898193359375,0.0613323338329792,0.021933261305093765,0.0009664611425250769
1782858535664847000,11.47384716796875,0.06107800081372261,0.020989438518881798,0.0013547500129789114
1782858535674796000,11.483796142578125,0.059480637311935425,0.025014007464051247,0.00007882956560933962
1782858535684744200,11.493744140625,0.05780763924121857,0.038410771638154984,-0.000015712650565546937
1782858535694724000,11.50372412109375,0.05385763943195343,0.047979243099689484,0.002796851797029376
1782858535704672000,11.513672119140624,0.049255162477493286,0.06468338519334793,0.014733672142028809
1782858535714621200,11.52362109375,0.0362168587744236,0.09404686838388443,0.013063870370388031
1782858535724570000,11.533570068359374,0.0335124209523201,0.1570623219013214,0.008840629830956459
1782858535734518000,11.54351806640625,0.05573330447077751,0.2104499191045761,0.004987568128854036
1782858535744498200,11.553498291015625,0.08560092002153397,0.19424112141132355,0.0046903593465685844
1782858535754446000,11.563446044921875,0.11198725551366806,0.11378888040781021,0.007665909361094236
1782858535764395300,11.573395263671875,0.1287260204553604,0.020352676510810852,0.025139441713690758
1782858535774344200,11.58334423828125,0.1387043595314026,-0.037453364580869675,0.049550507217645645
1782858535784323300,11.5933232421875,0.14077283442020416,-0.055624645203351974,0.07225928455591202
1782858535794272300,11.603272216796874,0.12090271711349487,-0.06870396435260773,0.09509402513504028
1782858535804221200,11.61322119140625,0.09705650806427002,-0.05018780380487442,0.11922173202037811
1782858535814169000,11.623169189453124,0.08332551270723343,-0.013026585802435875,0.13358362019062042
1782858535824149200,11.633149169921875,0.0896633043885231,-0.001695900922641158,0.13424542546272278
1782858535834097200,11.64309716796875,0.11758415400981903,0.009368468075990677,0.12772972881793976
1782858535844046000,11.653046142578125,0.13789768517017365,0.01992923393845558,0.1227663978934288
1782858535853995000,11.6629951171875,0.14512789249420166,0.037568945437669754,0.11906327307224274
1782858535863974100,11.67297412109375,0.13913364708423615,0.06607888638973236,0.11069562286138535
1782858535873923000,11.682923095703124,0.1208270862698555,0.10755841434001923,0.09356909990310669
1782858535883871000,11.69287109375,0.0982045978307724,0.14579741656780243,0.05993257462978363
1782858535893820200,11.702820068359374,0.0692720115184784,0.13637861609458923,0.026740800589323044
1782858535903769300,11.712769287109374,0.03658570721745491,0.09774547070264816,0.01739576831459999
1782858535913748000,11.722748046875,0.0035545211285352707,0.07168803364038467,0.025078721344470978
1782858535923697200,11.732697265625,-0.010240919888019562,-0.005645635072141886,0.043114446103572845
1782858535933646000,11.74264599609375,-0.0004346278728917241,-0.09606634825468063,0.07417809218168259
1782858535943594200,11.75259423828125,0.02419348619878292,-0.13115988671779633,0.11984571069478989
1782858535953574100,11.76257421875,0.043306995183229446,-0.13305258750915527,0.1577286422252655
1782858535963522300,11.772522216796874,0.05528615787625313,-0.13376206159591675,0.18018095195293427
1782858535973471200,11.78247119140625,0.058692075312137604,-0.08105330914258957,0.17465995252132416
1782858535983420200,11.792420166015624,0.060375992208719254,0.021455757319927216,0.12698085606098175
1782858535993399000,11.80239892578125,0.056041963398456573,0.08924465626478195,0.06578221172094345
1782858536003348200,11.81234814453125,0.054188668727874756,0.15235118567943573,0.015366439707577229
1782858536013297200,11.822297119140625,0.0694483146071434,0.2807440459728241,-0.023577498272061348
1782858536023245000,11.8322451171875,0.12863734364509583,0.4793247878551483,-0.04719254747033119
1782858536033194000,11.842194091796875,0.24177880585193634,0.664308488368988,-0.032637838274240494
1782858536043173000,11.852173095703124,0.33179470896720886,0.8261733055114746,0.28127536177635193
1782858536053122000,11.8621220703125,0.24597994983196259,0.25949522852897644,0.536322295665741
1782858536063071200,11.8720712890625,0.09303593635559082,-0.46314582228660583,0.6768059134483337
1782858536073019100,11.88201904296875,0.02190796099603176,-0.9040949940681458,0.7496880888938904
1782858536082999300,11.891999267578125,0.028540564700961113,-0.9510473012924194,0.7673765420913696
1782858536092947200,11.901947265625,0.05026130750775337,-0.6978999972343445,0.6828597784042358
1782858536102896000,11.911896240234375,0.06730101257562637,-0.42823177576065063,0.5118483901023865
1782858536112845000,11.921844970703125,0.14125965535640717,-0.19197475910186768,0.25902143120765686
1782858536122824200,11.93182421875,0.2724509537220001,0.0851798728108406,-0.011177287437021732
1782858536132773000,11.941773193359374,0.37678828835487366,0.3284953236579895,-0.22535322606563568
