time,seconds_elapsed,z,y,x
1783169404290409200,0.1364091796875,0.10154606528580189,-0.023577859464287757,-0.06160422325879335
1783169404300358100,0.146358154296875,0.09910334830880164,0.03615618600845337,-0.09332710299491882
1783169404310307000,0.15630712890625,0.06568623187541961,0.056552492827177045,-0.12060703184753656
1783169404320286000,0.166285888671875,0.009576806640625,0.011120528951287269,-0.15054507399350403
1783169404330235000,0.17623486328125,-0.019433014744520187,-0.0008095628172159195,-0.17768384080976246
1783169404340184000,0.18618408203125,0.0022176760494709014,0.014928689062595367,-0.16695435700267552
1783169404350163000,0.196162841796875,-0.013318331256508827,-0.0010819500178098679,-0.1216857852612622
1783169404360111900,0.20611181640625,-0.05869418103098869,-0.048505379971861835,-0.07572130367755889
1783169404370060000,0.21606005859375,-0.025604981377720833,-0.018267478096485136,-0.08485445820391177
1783169404380009000,0.226009033203125,0.0036368951976299283,-0.0013607669591903686,-0.11748714626133441
1783169404389987800,0.23598779296875,-0.00870879163444042,-0.03359071943461895,-0.07930851451456546
1783169404399937000,0.24593701171875,0.0033791210442781446,-0.03986965357363224,-0.019071213961113245
1783169404409886000,0.255885986328125,0.04695347435474395,-0.0212099612891674,-0.01621726756840944
1783169404419833900,0.265833740234375,0.07352467041611671,-0.016572949138283728,-0.026550445534288883
1783169404429814000,0.27581396484375,0.05697802476286888,-0.005887304472923278,0.01217179156988859
1783169404439762000,0.285761962890625,0.0032698154509067535,0.006136310797929764,0.008228899163007735
1783169404449711000,0.295711181640625,-0.03454173654913902,-0.023336451923847198,-0.0401826650455594
1783169404459690000,0.30568994140625,-0.03964695073366165,-0.02094692643880844,-0.08182225090116262
1783169404469639200,0.31563916015625,-0.024070611417293546,0.023340543577075004,-0.10038052863776684
1783169404479588000,0.325588134765625,-0.04864858783483505,0.06134557232260704,-0.0848971283018589
1783169404489537000,0.335537109375,-0.01982932058572769,0.09654548051953316,-0.08761603187173604
1783169404499516000,0.345515869140625,0.02793780823945999,0.12657120094895363,-0.1354606098473072
1783169404509465000,0.355465087890625,0.023967735564708707,0.12646949414014816,-0.16382424228340386
1783169404519413000,0.3654130859375,0.015649404552578926,0.10780921733379363,-0.14667027838677166
1783169404529362000,0.37536181640625,0.063643327870965,0.14979191753864288,-0.13967910432517527
1783169404539341000,0.385341064453125,0.09999942036569118,0.20635084010660648,-0.15240589942932128
1783169404549290000,0.3952900390625,0.09812602770924568,0.1912438718676567,-0.17309037553966045
1783169404559239000,0.405239013671875,0.12786767050027847,0.20988836658298968,-0.1924553117503412
1783169404569218000,0.415218017578125,0.18947627767324446,0.24998715273737906,-0.1748784280002117
1783169404579167000,0.4251669921875,0.2120750629723072,0.25608371604681013,-0.11620733558386563
1783169404589115000,0.435114990234375,0.18657529553472996,0.20144553240835666,-0.08832565971212461
1783169404599063800,0.445063720703125,0.2268663893908262,0.17506021430790422,-0.10155103372186422
1783169404609043000,0.45504296875,0.27474866902828216,0.2368406709164381,-0.09054331749528646
1783169404618992000,0.4649921875,0.2740133404910564,0.24615911888182163,-0.08257569961696863
1783169404628941000,0.474941162109375,0.24216157367825505,0.20738719741702077,-0.06302168884128331
1783169404638890000,0.484889892578125,0.2405430325657129,0.19075287348031997,-0.05885872394293546
1783169404648869000,0.494869140625,0.2614671626508236,0.19531097517609594,-0.06736965491771697
1783169404658818000,0.504818115234375,0.2405009469896555,0.1976186675965786,-0.08000497234612702
1783169404668766000,0.514765869140625,0.26728081736564635,0.1782727466136217,-0.09684504798799752
1783169404678746000,0.52474609375,0.3126835551470518,0.15174538969397544,-0.08748173796758055
1783169404688694000,0.534694091796875,0.27437574406266213,0.10863806937336921,-0.047294542877376076
1783169404698643000,0.544642822265625,0.26579846985340116,0.03278758635818958,-0.012488766830880195
1783169404708591900,0.554591796875,0.33258535644710063,-0.007924363258481025,0.015205880302470177
1783169404718571000,0.564571044921875,0.36589667441844936,-0.015482815814018249,0.036891222284734244
1783169404728520000,0.57452001953125,0.32174189087152477,-0.004015080860257148,0.06336173445060848
1783169404738467800,0.5844677734375,0.2916413516402244,0.025234394499659536,0.030234248613566158
1783169404748417000,0.5944169921875,0.24635434919297694,0.032712183034420014,0.026031536226719616
1783169404758396000,0.60439599609375,0.17438801413476465,0.021750059515237806,0.04765884614512324
1783169404768344800,0.6143447265625,0.14629355402886868,0.03429740639925003,0.06526186898350715
1783169404778294000,0.6242939453125,0.0790542474925518,0.004405541482567787,0.08905830310191959
1783169404788273200,0.634273193359375,0.04497252967059612,-0.03213175279796123,0.0717571858195588
1783169404798222000,0.64422216796875,0.055313890942931175,-0.03545592878460884,0.058787996794283384
1783169404808171000,0.6541708984375,0.009293898046016692,-0.06093816056549549,0.06633315147683023
1783169404818119200,0.664119140625,-0.03736322371065617,-0.08287292899787425,0.06812208072021603
1783169404828099000,0.67409912109375,-0.02932546320557594,-0.04231061698496341,0.024518939706683156
1783169404838047000,0.684046875,-0.09395195689499378,-0.03444295234978199,-0.00633753245845437
1783169404847996000,0.693995849609375,-0.15469605619311333,-0.05935118363499641,-0.07408626808794215
1783169404857945000,0.703945068359375,-0.1455471195757389,-0.0231271930873394,-0.09971768081486225
1783169404867924000,0.713924072265625,-0.1648228979319334,-0.01540390535891056,-0.09842590570496394
1783169404877873000,0.723872802734375,-0.21582827802598475,-0.06370353362560272,-0.0702338304434903
1783169404887821000,0.733821044921875,-0.19314941322803497,-0.08876783225536346,-0.03957797715067863
1783169404897801000,0.743801025390625,-0.16013678594231603,-0.04951718736290931,-0.053837534780055284
1783169404907748900,0.753748779296875,-0.180795543089509,-0.04785129997730255,-0.048689376502949744
1783169404917697800,0.76369775390625,-0.16046061106920242,-0.0679307959318161,-0.017664415903110055
1783169404927647000,0.77364697265625,-0.12521511016488074,-0.04890694651007652,-0.008190905240178108
1783169404937625900,0.7836259765625,-0.11068681859672069,-0.008229483684897423,-0.007022153721749782
1783169404947575000,0.793574951171875,-0.08119710474014281,0.037458500778675075,-0.012862258052080869
1783169404957524000,0.80352392578125,-0.06434066248536109,0.08718260889053345,-0.029574177269637583
1783169404967472000,0.81347216796875,-0.05068623114228248,0.1311205348163843,-0.05378640738101676
1783169404977452000,0.8234521484375,-0.06677519615590571,0.14151917923390864,-0.049615971562266346
1783169404987400000,0.83339990234375,-0.06496259377598762,0.1498036079764366,-0.01164616026058793
1783169404997349000,0.84334912109375,-0.017225860089063644,0.17487550539076327,0.01201144990902394
1783169405007328000,0.853327880859375,0.014358780220150946,0.18916297394037246,0.0027066286101937293
1783169405017277000,0.86327685546875,0.03217325385212898,0.19063655362427234,-0.012892799320816993
1783169405027225900,0.873225830078125,0.08018120569586754,0.19577859268784523,-0.0006716156512498855
1783169405037175000,0.883175048828125,0.11533727475106716,0.20139701709151267,0.040108540363423525
1783169405047154000,0.89315380859375,0.12893033129572867,0.2299602637529373,0.041852497953921555
1783169405057102000,0.90310205078125,0.13688333612680434,0.26443361124098297,0.0048110535435378545
1783169405067051000,0.913051025390625,0.06459200689792632,0.23959318449497222,-0.027998452385514974
1783169405077000000,0.923,0.01779109275639057,0.20329729775488375,-0.03852645880375057
1783169405086978800,0.932978759765625,0.0575128622919321,0.20958850685358046,-0.06468976818397641
1783169405096928000,0.942927978515625,0.08688976342380046,0.24235797303318976,-0.07645999321565032
1783169405106914800,0.952914794921875,0.10162965191602706,0.22002456067204473,-0.0602928483992815
1783169405116862700,0.96286279296875,0.09305588483810424,0.15742109724283218,-0.04328296914845705
1783169405126842600,0.972842529296875,0.06728489924371242,0.11434943275749683,-0.03680431118626147
1783169405136790800,0.982790771484375,0.08670797711610793,0.10590426049530506,-0.051300125256925816
1783169405146739700,0.99273974609375,0.11846505138278007,0.11268763702511787,-0.06373875106945634
1783169405156718800,1.00271875,0.14628537072241304,0.09963760131597518,-0.07281973701715469
1783169405166667800,1.012667724609375,0.18703297617435455,0.10060264695584774,-0.08356018060967325
1783169405176616700,1.02261669921875,0.15910276671946047,0.10645838724672793,-0.0593072348954156
1783169405186566000,1.03256591796875,0.10644611228704452,0.06621580870747566,-0.05260565489754081
1783169405196544800,1.042544677734375,0.09477613275945186,0.037537411233782764,-0.07510200273543596
1783169405206494000,1.052493896484375,0.11341478225588798,0.04894903208613395,-0.07227730070352553
1783169405216441900,1.06244189453125,0.11740122154355048,0.04577274013757705,-0.0408057653799653
1783169405226390800,1.072390869140625,0.09220891261994839,0.03533902440667152,-0.005426408962905406
1783169405236370000,1.082369873046875,0.03533434823155403,0.005195815077424049,0.008563537944853305
1783169405246318800,1.09231884765625,-0.0170142631649971,-0.011671733093261718,-0.004941401924937963
1783169405256267800,1.102267822265625,-0.05537585026323795,-0.02455927171707153,-0.035468386407382785
1783169405266247000,1.112246826171875,-0.07324409990906715,-0.03444645948112011,-0.050195378885418175
1783169405276195800,1.12219580078125,-0.09559387888312339,-0.027061025404930113,-0.05085998027399182
1783169405286143700,1.132143798828125,-0.10817395899295806,-0.0307563727915287,-0.041883477614074946
1783169405296092700,1.1420927734375,-0.08980360504388808,-0.039003976655006406,-0.04544862274974584
1783169405306071800,1.15207177734375,-0.09395897115767002,-0.03135550772845745,-0.038706455013155935
1783169405316020700,1.162020751953125,-0.0522673628538847,-0.03409340825974941,-0.024007336922734976
1783169405325969700,1.1719697265625,-0.011790391036868094,-0.023225977286696432,-0.004658785591274499
1783169405335918600,1.181918701171875,-0.01064472813308239,-0.016463643544912338,0.023643472046405076
1783169405345897700,1.191897705078125,-0.0047129999965429305,-0.016582301488518712,0.01553933177422732
1783169405355847000,1.201846923828125,0.03944353711605072,0.024014497315883634,0.012401362542062998
1783169405365794800,1.211794921875,0.05929740762114524,0.07990940301716327,-0.0028517361693084237
1783169405375775000,1.22177490234375,0.08535188633203505,0.08103402313292025,-0.012232435715943573
1783169405385723000,1.231722900390625,0.07984452108740805,0.08081482742428779,0.006896627645939588
1783169405395671800,1.241671875,0.08226677979826927,0.05070493584275245,0.05879544944837689
1783169405405620700,1.251620849609375,0.14623802444934844,0.08256371691823006,0.05184504578858613
1783169405415599900,1.261599853515625,0.16803659928143022,0.12116320442557334,0.010034779541194439
1783169405425548800,1.271548828125,0.15805296540558336,0.13059621868133545,-0.0062507309578359125
1783169405435496700,1.28149658203125,0.17388181817829607,0.15738018071055412,-0.012377543275058269
1783169405445446000,1.29144580078125,0.1799327887803316,0.1714408547669649,-0.013600801459699868
1783169405455424800,1.3014248046875,0.1704214485913515,0.15667290922403335,-0.0017475743196904657
1783169405465373700,1.311373779296875,0.1554372299492359,0.146401106056571,0.031777496000193056
1783169405475322600,1.321322509765625,0.1286024145156145,0.13856091395020484,0.04852247723713517
1783169405485301800,1.3313017578125,0.09806699099838734,0.12073474988043308,0.049825924518518146
1783169405495250700,1.341250732421875,0.05693769275248051,0.08816577470898627,0.05112739903852343
1783169405505199600,1.35119970703125,0.01647884111404419,0.06708148562610149,0.039352936223149296
1783169405515147800,1.361147705078125,-0.0002922609448432922,0.07070785942971707,0.0020711071856319902
1783169405525128000,1.3711279296875,-0.023037761238217352,0.0813414816468954,-0.023286329171806574
1783169405535075600,1.38107568359375,-0.055614919716119766,0.07207271804213523,-0.025557635104656216
1783169405545024800,1.391024658203125,-0.07298515671193599,0.07552724241018295,-0.02562514738291502
1783169405554974000,1.400973876953125,-0.09049275635182857,0.07870821053385733,-0.03116977589800954
1783169405564952800,1.410952880859375,-0.1036842463582754,0.07781096943318844,-0.04891282826159149
1783169405574901800,1.42090185546875,-0.11969488543868065,0.08514613462686538,-0.046887715642154215
1783169405584850000,1.430849853515625,-0.12469254759550094,0.09287585209608078,-0.039476124211400745
1783169405594829800,1.440829833984375,-0.12521920181810856,0.08871347171962261,-0.046443807799555356
1783169405604777700,1.45077783203125,-0.142850135576725,0.06273205824494361,-0.042837271207571026
1783169405614726700,1.4607265625,-0.1433908183246851,0.06680792938172816,-0.015147154118865728
1783169405624675800,1.47067578125,-0.14189619585275648,0.0771066205561161,-0.0013294950380921362
1783169405634654700,1.48065478515625,-0.16606325338184832,0.06429506977796554,-0.0027742870189249513
1783169405644603600,1.490603759765625,-0.16267127285599708,0.07403378898203372,0.006254822611063718
1783169405654552600,1.500552490234375,-0.1970908443301916,0.104748076197505,0.01796688771471381
1783169405664500700,1.510500732421875,-0.22566578142940996,0.09236264187693595,0.008851122714579105
1783169405674480600,1.520480712890625,-0.21778291922509668,0.08054419378936291,-0.005930887886323034
1783169405684428800,1.5304287109375,-0.17925182077884674,0.1264759238809347,-0.030438246753066778
1783169405694378000,1.5403779296875,-0.121339145514369,0.144474521908164,-0.04714651270881295
1783169405704356600,1.550356689453125,-0.042537996000051495,0.12471651299297809,-0.02423442367687821
1783169405714305800,1.560305908203125,-0.006351999375224113,0.12441314613223076,0.004008651119470596
1783169405724254700,1.570254638671875,0.009459317740797996,0.1549795493096113,-0.003340980990976095
1783169405734203000,1.580202880859375,0.04790098433792591,0.18498773408234118,-0.029821868420392274
1783169405744182800,1.590182861328125,0.06406652171909809,0.22041034511923788,-0.03835632640123367
1783169405754131000,1.600130859375,0.08322130404412746,0.2565706227809191,-0.01154050792902708
1783169405764079900,1.610079833984375,0.11682254487276077,0.28528350704610345,0.012330197001993655
1783169405774028800,1.62002880859375,0.1132522851705551,0.2858119148343801,0.016842267598956823
1783169405784007700,1.630007568359375,0.14062427622079848,0.27862697176635265,0.017839608073234557
1783169405793956900,1.639956787109375,0.19818974548280238,0.28837270523309705,0.0002678571559488773
1783169405803905800,1.64990576171875,0.21311375837028027,0.33223873496651646,-0.02055456612035632
1783169405813884700,1.659884765625,0.17995850774347782,0.3161275581210852,-0.004853139119595289
1783169405823833600,1.66983349609375,0.1435515618443489,0.25252806939184663,-0.01374912388920784
1783169405833781800,1.67978173828125,0.1036930141866207,0.225882054528594,-0.041998774556815624
1783169405843730700,1.689730712890625,0.08586275846362114,0.2083195098310709,-0.06076528821662068
1783169405853709800,1.699709716796875,0.07914309481978415,0.1833966654986143,-0.07612623121663928
1783169405863658800,1.70965869140625,0.0798170485585928,0.17378595658838747,-0.06661971333324909
1783169405873608000,1.71960791015625,0.08383329846262931,0.15475743099153041,-0.08324837471414356
1783169405883556900,1.729556884765625,0.07836042000949382,0.10989128430485724,-0.10473408420477062
1783169405893535700,1.73953564453125,0.09514262798428536,0.056715574434399604,-0.09374328258037566
1783169405903484000,1.74948388671875,0.09712006553709507,0.020443068569898606,-0.06903335034623742
1783169405913432800,1.759432861328125,0.051501054656505584,-0.01505319222509861,-0.08441329030767082
1783169405923412000,1.769411865234375,0.04770750759243965,-0.04573299264907837,-0.07923091923370956
1783169405933361000,1.77936083984375,0.093733345708251,-0.026253216153383253,-0.07629486578181385
1783169405943309800,1.789309814453125,0.07875146515369415,-0.01761865879893303,-0.06278919525966048
1783169405953258800,1.7992587890625,0.08996902473866938,-0.018437573966383933,-0.03968233257429674
1783169405963238000,1.80923779296875,0.10679331828951835,-0.0028127193331718443,-0.01903188659772277
1783169405973186800,1.819186767578125,0.05392097527980804,0.028439912542700767,-0.05287294579790905
1783169405983134700,1.829134765625,0.0593693038135767,0.059115621313452715,-0.09380438338415696
1783169405993083600,1.839083740234375,0.09957330390810966,0.07889642658233642,-0.10263327600061893
1783169406003062800,1.849062744140625,0.06646013885736465,0.057903907436132426,-0.08245572649911045
1783169406013011700,1.85901171875,0.07592880894839764,0.006527355942130089,-0.04951749789016321
1783169406022961000,1.8689609375,0.14847557424306868,-0.0008253449082374572,-0.02251651384308934
1783169406032909800,1.878909912109375,0.14870003064870835,0.006664134064316749,-0.002948766802996397
1783169406042889000,1.888888916015625,0.10702478895783424,0.0015244330883026121,0.022795476914942263
1783169406052838000,1.898837890625,0.015761632755398748,0.004345920249819756,0.02265314583480358
1783169406062785800,1.908785888671875,-0.04185702799856662,0.05378536620140075,0.010932002375554292
1783169406072765000,1.918764892578125,-0.04592705391645431,0.1269774436622858,-0.02774433149397373
1783169406082713900,1.9287138671875,-0.06881225494146347,0.178359840375185,-0.04433364724516868
1783169406092662800,1.938662841796875,-0.09965689053833485,0.19840601858198642,-0.045833694810885936
1783169406102611700,1.94861181640625,-0.10199030192196369,0.22304653884172437,-0.06286474471390247
1783169406112610300,1.9586103515625,-0.048648003312945366,0.2156903308600187,-0.08751463559018448
1783169406122559200,1.968559326171875,-0.017243980267643927,0.20890870789587496,-0.106485439650435
1783169406132507400,1.97850732421875,-0.01903846246898174,0.2032172182559967,-0.0967176404823549
1783169406142456300,1.988456298828125,0.028223054921627043,0.1900584614753723,-0.09456745844483375
1783169406152435200,1.998435302734375,0.05838204634189605,0.20456454121172427,-0.10301496879458427
1783169406162384400,2.00838427734375,0.07612696186900138,0.20472645377516746,-0.09513561372160911
1783169406172333600,2.01833349609375,0.10822072074413298,0.1737456245779991,-0.07171791325509548
1783169406182312200,2.028312255859375,0.14310615616440772,0.14523147775530815,-0.06767039142996073
1783169406192261400,2.038261474609375,0.2146107189297676,0.12426584661602973,-0.048741526815295214
1783169406202210300,2.048210205078125,0.3239373550891876,0.12446516858041286,-0.00788666159659624
1783169406212158500,2.058158447265625,0.3949526730328798,0.12563304331600667,0.03150397628843784
1783169406222138400,2.068138427734375,0.3551496549546718,0.0937502968430519,0.09595628245472908
1783169406232086500,2.07808642578125,0.24861937151551244,0.03249006471633911,0.12914207435026764
1783169406242035500,2.088035400390625,0.14571779996752737,-0.030617256581783294,0.08900134875029325
1783169406251984400,2.097984375,0.10272972211241721,-0.026257892328500745,0.057007835379242894
1783169406261963300,2.10796337890625,0.09810206231176853,0.010750526595115661,0.01834595016017556
1783169406271912400,2.117912353515625,0.11069324833750724,0.011308160477876663,-0.018887655821442605
1783169406281860400,2.1278603515625,0.15644260759949682,-0.024696634361147878,-0.020069266821444033
1783169406291840300,2.13784033203125,0.1644949811518192,-0.04989186589419842,-0.014427169281244278
1783169406301788400,2.147788330078125,0.11292904456555843,-0.09238134657740592,-0.04012700760187581
1783169406311737300,2.1577373046875,0.11324234829843044,-0.12455343138575553,-0.03632072892040014
1783169406321686300,2.167686279296875,0.14686463191509247,-0.12125848149359225,-0.0032106326095759866
1783169406331665200,2.1776650390625,0.11125438935160636,-0.09419745608866215,0.008161240754276513
1783169406341614600,2.187614501953125,0.01656710391938686,-0.07793371903002262,-0.038871290186047555
1783169406351563500,2.1975634765625,-0.07163257305920123,-0.06285773045122624,-0.10456995228477753
1783169406361511400,2.207511474609375,-0.08151742273569107,-0.0038940848290920254,-0.15000453737601638
1783169406371491300,2.2174912109375,-0.05388999561965465,0.04872983637750149,-0.1284940039713867
1783169406381439500,2.227439453125,-0.04279109397828579,0.058953708750009534,-0.05860051139816642
1783169406391388400,2.237388427734375,-0.108494861510396,0.04849310501217842,-0.06508229289921
1783169406401367600,2.247367431640625,-0.1502706409662962,-0.0113327103972435,-0.03959273632839322
1783169406411316500,2.25731640625,-0.08368015372753143,0.024478023174405096,0.0075001464970409866
1783169406421265400,2.267265380859375,-0.045263037049770354,0.09637480012774467,-0.03137099755853414
1783169406431213300,2.27721337890625,-0.022660160097479818,0.09854220729470252,-0.05136736354054883
1783169406441193200,2.287193115234375,0.034629414832592006,0.08179682419896125,-0.01726385401189327
1783169406451141400,2.297141357421875,0.06234861188530921,0.09100304396152496,0.02068781884489581
1783169406461090300,2.30709033203125,0.05904021798968315,0.08334756077229977,0.0547463201880455
1783169406471039200,2.317039306640625,0.07280220136046409,0.09592997896969317,0.06515110208541154
1783169406481018400,2.327018310546875,0.08752046254277229,0.1283405487090349,0.05996666691852733
1783169406490967300,2.33696728515625,0.08004910374879837,0.1271907941520214,0.07120894081965089
1783169406500916500,2.34691650390625,0.02369184123277664,0.11692191359400748,0.07143237431198358
1783169406510895400,2.356895263671875,-0.0032177930027246474,0.12233283272683619,0.08180909915864468
1783169406520844500,2.366844482421875,-0.024271686947345734,0.1445616156697273,0.060179889544099564
1783169406530792400,2.37679248046875,-0.006046878948807716,0.13875322165191173,-0.005709180560195818
1783169406540741400,2.386741455078125,-0.024031448450684546,0.0991401731878519,-0.04497984532737173
1783169406550720500,2.396720458984375,-0.07310965987443924,0.09201309778690338,-0.060792322354018685
1783169406560669400,2.40666943359375,-0.020105214917659757,0.09010054216384887,-0.08817907258197664
1783169406570618400,2.416618408203125,0.04908697925209999,0.07439911516308784,-0.09679638654068112
1783169406580566500,2.42656640625,0.0378846172362566,0.03884089504778385,-0.07569763967418111
1783169406590546400,2.43654638671875,0.008307225096225739,-0.0018435820400714872,-0.04963292269706726
1783169406600494300,2.446494384765625,0.043052959784865376,-0.004748071309924125,-0.05920885255485773
1783169406610443300,2.456443359375,0.1161024139046669,0.032357378247380254,-0.045077159088850016
1783169406620422400,2.46642236328125,0.13987082750499247,0.043646834024786946,-0.01011661260575056
1783169406630371300,2.476371337890625,0.11623159324228763,0.013421207109093666,0.00610459135225974
1783169406640320300,2.4863203125,0.0894412014722824,0.009435352343320847,-0.014441197806596756
1783169406650269200,2.496269287109375,0.09772329212725162,0.014534136787056923,-0.05109920499050058
1783169406660248300,2.506248291015625,0.11326865178346633,0.03364157283902168,-0.07215265141054987
1783169406670197200,2.516197265625,0.0836024123162031,0.05178454777300358,-0.07019801021143794
1783169406680145200,2.526145263671875,0.0764443572551012,0.05853519107699394,-0.05885244033262133
1783169406690094600,2.536094482421875,0.09204933814406395,0.08045417741835117,-0.052432051896303886
1783169406700073500,2.546073486328125,0.062469023394584655,0.0846048673570156,-0.03768105748817324
1783169406710022400,2.5560224609375,0.0774812990874052,0.07266834584772586,-0.019045622862130403
1783169406719971300,2.565971435546875,0.11852175000607967,0.07422142050862311,0.0020182079546153544
1783169406729950500,2.575950439453125,0.12282090850472449,0.0811497584670782,0.0479415994761046
1783169406739899400,2.5858994140625,0.10149696544706821,0.06074468382000923,0.05989128186106681
1783169406749847300,2.595847412109375,0.1390384683340788,0.05354921935796737,0.04100523347482085
1783169406759796500,2.60579638671875,0.16200900955498218,0.09842062674164771,0.02655350514105521
1783169406769775400,2.615775390625,0.11396306378841399,0.1261187810063362,0.021553660160303113
1783169406779724300,2.625724365234375,0.08686521350443363,0.11025310335457324,0.007112014829134568
1783169406789673200,2.635673095703125,0.08814005574584007,0.11120236690342426,-0.01749342498406768
1783169406799622400,2.645622314453125,0.03933656961023807,0.1181587619125843,-0.015817454595863818
1783169406809601300,2.655601318359375,0.018974165061116217,0.1268552785873413,0.0003663490943610668
1783169406819550200,2.66555029296875,0.024858546924591062,0.11569792475700377,0.03422302598878741
1783169406829498400,2.675498291015625,0.018136545193195342,0.105902506929636,0.03895442929170094
1783169406839478300,2.685478271484375,-0.027442133677005768,0.08353577682077884,0.03820843322998844
1783169406849426200,2.69542626953125,-0.02097439896762371,0.06668517978489398,0.043614977581799025
1783169406859375400,2.705375244140625,-0.03207388513088226,0.07734510548710823,0.04743891978412866
1783169406869324500,2.715324462890625,-0.09995207409262656,0.0906482391744852,0.03164996063038707
1783169406879303400,2.725303466796875,-0.10468202522397041,0.06048924775421619,-0.0018330606460571289
1783169406889252400,2.73525244140625,-0.09660802436172962,0.06330605874061584,-0.027525583309913053
1783169406899201300,2.745201171875,-0.10415127934813499,0.11119009194374084,-0.022972148656100033
1783169406909149400,2.7551494140625,-0.09614449850320815,0.11961772854924202,-0.031037527820467946
1783169406919128300,2.76512841796875,-0.058335284590721126,0.08333587033450603,-0.03688961484953761
1783169406929077500,2.775077392578125,-0.017494155636429785,0.08159925580024718,-0.065352616006881
1783169406939026400,2.7850263671875,0.047343934977054594,0.11494506056308745,-0.07368833654522895
1783169406948975400,2.794975341796875,0.09092237994074821,0.10641454810500145,-0.04540288391187787
1783169406958954200,2.804954345703125,0.12625380556285382,0.08219488360583782,0.00022240144587121902
1783169406968903400,2.8149033203125,0.13110183011591434,0.07795300825238227,0.004785919102281331
1783169406978851300,2.824851318359375,0.12335165438055991,0.10758008475303649,0.0013683657437562943
1783169406988831200,2.834831298828125,0.12682839058041573,0.11271160242259502,0.006745081212883815
1783169406998779400,2.844779296875,0.15185878694057464,0.09206395119130611,0.006603489918261766
1783169407008728300,2.854728271484375,0.15892682563066482,0.08344634497165679,0.026793898901343344
1783169407018677500,2.864677490234375,0.1330208154797554,0.10063362661600113,0.0331637261942029
1783169407028656400,2.874656494140625,0.08818506393134594,0.10180383943915366,0.02163067091926932
1783169407038605600,2.88460546875,0.06235153449475765,0.10281681587398052,0.004082154747098684
1783169407048554500,2.894554443359375,0.037432781815528865,0.12749240744709966,-0.01596461711474694
1783169407058502400,2.90450244140625,0.018240590089559555,0.12562602905333042,-0.003592909925431013
1783169407068482300,2.914482421875,0.031928923702239986,0.10491524945795536,0.012700345488637684
1783169407078430500,2.924430419921875,0.02014379336237907,0.10365911191701889,0.009136369396746159
1783169407088379400,2.93437939453125,-0.03968903630971908,0.07758826659321784,-0.025222557931393382
1783169407098358300,2.944358154296875,-0.03987842140197754,0.07748071456551552,-0.01267594169974327
1783169407108319700,2.95431982421875,-0.04874094229340553,0.09607786300778388,-0.009708177935332058
1783169407118268700,2.9642685546875,-0.04908990186154842,0.09993395391404628,-0.018227593610668554
1783169407128216800,2.974216796875,-0.04325578888058662,0.07786240735948086,-0.0434399132758379
1783169407138196700,2.98419677734375,-0.041129298245906824,0.07702244940400123,-0.047150750492513174
1783169407148144600,2.99414453125,-0.0026338556349277493,0.0878729292422533,-0.02946837880760431
1783169407158093600,3.004093505859375,0.020609657308459282,0.11978899346292018,-0.03170140768983401
1783169407168042800,3.014042724609375,0.030831191593408584,0.09941840560734272,-0.04231529316008091
1783169407178021600,3.024021728515625,0.04860124156177044,0.062434536603093144,-0.030255300534749403
1783169407187970600,3.033970458984375,0.0798082807302475,0.06778875711262226,-0.028435537761682644
1783169407197919700,3.043919677734375,0.08649696471393108,0.070950436013937,-0.03066884977170266
1783169407207899000,3.05389892578125,0.09122574680149555,0.09763386027812958,-0.06196209678575396
1783169407217847800,3.063847900390625,0.0925613793194294,0.129478028306365,-0.08900720310234464
1783169407227795700,3.073795654296875,0.06451017383337021,0.12563187427222727,-0.0956821508216206
1783169407237745000,3.083744873046875,0.03531272092163563,0.13222235857844353,-0.08805763815939426
1783169407247723800,3.093723876953125,0.05899988597929477,0.15425766477584837,-0.08195683706626296
1783169407257672700,3.103672607421875,0.09658756609559059,0.14256021271944044,-0.06173968620672821
1783169407267621600,3.11362158203125,0.11928455107212066,0.12416764693856239,-0.03145341514497995
1783169407277569800,3.12356982421875,0.11172025329768658,0.10089373885691165,-0.0013901483173016458
1783169407287549700,3.1335498046875,0.1267021338522434,0.0852542711764574,0.013121484377002344
1783169407297497900,3.143497802734375,0.16989654793441294,0.0931885713070631,0.030091470008855682
1783169407307446800,3.15344677734375,0.16016367394924164,0.11450374653637409,0.02086976954936981
1783169407317425700,3.16342578125,0.1030921256840229,0.11941314588785171,0.001552197878062725
1783169407327374600,3.17337451171875,0.05531739807426929,0.12832593566179273,-0.01398439394980669
1783169407337323800,3.18332373046875,0.05726502501070499,0.14960545505583286,-0.02171178246461786
1783169407347272700,3.193272705078125,0.07081541145741939,0.1726642590820789,-0.017896891218423843
1783169407357251600,3.20325146484375,0.06332417891919613,0.1725567070543766,-0.007076806518435477
1783169407367200800,3.21320068359375,0.03014730098247528,0.12869652253985403,0.03170329825282096
1783169407377148700,3.223148681640625,0.014565116447210312,0.08215338255167007,0.038192368011176585
1783169407387097900,3.233097900390625,0.06677110450267791,0.10763327624499797,0.02382964226827025
1783169407397076700,3.24307666015625,0.08107260157763957,0.12582827362716198,0.01226224633231759
1783169407407026000,3.25302587890625,0.06998655941784382,0.0987479589998722,0.024849779096245764
1783169407416974800,3.262974853515625,0.06064063892364502,0.0721264940559864,0.019346067113429306
1783169407426953700,3.27295361328125,0.052661915129423136,0.06058218673467636,0.014458002810925245
1783169407436902700,3.282902587890625,0.07253916651010513,0.05675941357612609,-0.013578297366946934
1783169407446850800,3.292850830078125,0.09417816686630248,0.07151683772504329,-0.044277679274231194
1783169407456799700,3.3027998046875,0.09059037150740623,0.06825695914626122,-0.06068637776151299
1783169407466779000,3.31277880859375,0.06159399412572383,0.030868016472458838,-0.06733560651764273
1783169407476727800,3.322727783203125,0.046912557822465895,0.007886369335651398,-0.08544979374855756
1783169407486676700,3.3326767578125,0.05468143825829029,0.008161094623804092,-0.09989479094743728
1783169407496625700,3.342625732421875,0.014393267011642456,-0.003033668607473373,-0.11906754732057452
1783169407506604500,3.3526044921875,-0.03132745067775249,-0.024537059885263442,-0.10830533028766512
1783169407516553700,3.3625537109375,-0.0634562808662653,-0.034433015477657314,-0.09396934642121195
1783169407526501600,3.372501708984375,-0.06602525457143783,0.015083002841472624,-0.10984612998887897
1783169407536481800,3.382481689453125,-0.08381050210893154,0.05778174236118793,-0.11944266424328089
1783169407546429700,3.3924296875,-0.07346329561769963,0.07149287232756614,-0.10384338244274258
1783169407556379000,3.40237890625,-0.06317161870598792,0.08411036183834075,-0.054204468396306035
1783169407566327800,3.412327880859375,-0.055251347100734705,0.08771393928825855,0.009647826050221919
1783169407576307000,3.422306884765625,-0.03292085734903812,0.07969546800553798,0.047032823201268906
1783169407586256000,3.432255859375,-0.0006838906109333038,0.09365385073125362,0.04696690922505222
1783169407596203800,3.442203857421875,0.01271861179769039,0.11620061358213424,0.021687077281624077
1783169407606152700,3.452152587890625,0.03420329837501049,0.12354922277927398,0.03899579334855079
1783169407616131800,3.4621318359375,0.11801555404961109,0.13898469232022762,0.04698312970749102
1783169407626080800,3.472080810546875,0.19224808047413824,0.15538403845727441,0.01064297456741333
1783169407636029700,3.48202978515625,0.21178455559313297,0.13320260178744792,0.007757628389447927
1783169407646008800,3.4920087890625,0.20850012709498406,0.051962242427468296,0.03156973500102758
1783169407655957800,3.501957763671875,0.20592180103957652,0.06236848562955856,0.011398021585261448
1783169407665906700,3.51190673828125,0.1965150902688503,0.1305155546605587,0.029175825601816176
1783169407675854600,3.5218544921875,0.2182312475144863,0.13856675916910172,0.013045067273080349
1783169407685834800,3.531834716796875,0.2486865915328264,0.1348597213447094,0.018281652752310036
1783169407695782700,3.54178271484375,0.24380817184150216,0.14503215579092502,0.017929761441564187
1783169407705731600,3.551731689453125,0.14690964010059832,0.1423228968322277,0.02976721562370658
1783169407715680800,3.5616806640625,0.01603577352166176,0.10217325727343558,0.010938304252177476
1783169407725660000,3.571659912109375,0.03118891898989677,0.14007657921016214,-0.05528846424072981
1783169407735608800,3.58160888671875,0.05702244842648506,0.22161095308065412,-0.10858809275180101
1783169407745556700,3.591556640625,0.02238309672176838,0.23292612782120703,-0.1067956563770771
1783169407755537000,3.601536865234375,-0.04563830010294914,0.1577127736657858,-0.048599926387518644
1783169407765484800,3.61148486328125,-0.0640004707455635,0.062037646239995956,0.027342911086231467
1783169407775433700,3.621433837890625,-0.059201546031236646,0.02728080563545227,0.07028992627859115
1783169407785382700,3.631382568359375,-0.02022328833937645,0.015665771165490148,0.06536825196743011
1783169407795361800,3.64136181640625,-0.05318506222069263,0.0012403554499149322,0.042002573949098586
1783169407805310700,3.651310791015625,-0.09766834706962108,-0.007467267140746116,0.023254911120235918
1783169407815259600,3.661259765625,-0.1089700778067112,0.004246551528573036,0.0010465864434838295
1783169407825207800,3.671207763671875,-0.06981997067928314,0.005732406172156333,-0.008838126235688104
1783169407835187700,3.681187744140625,-0.06745908676683902,-0.004818213936686516,0.002690261997282505
1783169407845135600,3.691135498046875,-0.10160334843099117,-0.04322948539555072,0.012998013260960579
1783169407855084500,3.70108447265625,-0.1143506018012762,-0.04412263484299182,-0.06126943834647536
1783169407865063700,3.711063720703125,-0.14686930809020995,-0.023482582396268843,-0.16776391981989144
1783169407875012600,3.7210126953125,-0.13926818543672562,-0.025817747345566747,-0.15249065510332582
1783169407884961800,3.7309619140625,-0.14672493118345736,-0.0364203899025917,-0.08825403751432895
1783169407894910700,3.74091064453125,-0.11310206304490565,-0.04928279408514499,-0.012970102340728044
1783169407904889900,3.750889892578125,-0.014394436055421829,-0.017163900768756866,0.019083032263070343
1783169407914838800,3.7608388671875,0.04417465729117393,0.022564298507571218,0.006895312471687794
1783169407924786700,3.77078662109375,0.10513444516658782,0.0047474867880344385,-0.08857187129184603
1783169407934736000,3.78073583984375,0.1917097358137369,0.0013490765213966369,-0.15169336724579333
1783169407944714800,3.79071484375,0.2025590466082096,0.013547463837265968,-0.16964841839224098
1783169407954663700,3.80066357421875,0.193112003827095,0.04115384816527366,-0.11911387068033218
1783169407964612600,3.810612548828125,0.16712825226485728,0.1007090299397707,-0.08118746926211752
1783169407974591700,3.820591796875,0.1779763940155506,0.17916297345161436,-0.10341711985468864
1783169407984540700,3.830540771484375,0.15568565175235272,0.17578852858245372,-0.13673559821918607
1783169407994488800,3.84048876953125,0.1905471217751503,0.1406406428337097,-0.126523854675889
1783169408004437800,3.850437744140625,0.16869886258244512,0.16689035185575485,-0.074112553306669
1783169408014416600,3.860416748046875,0.07596388026177883,0.1550146206229925,-0.02719108152538538
1783169408024365600,3.870365478515625,0.14842413631677626,0.1670832440793514,0.016513181775063276
1783169408034314800,3.880314697265625,0.14644552972018718,0.24832360343933105,0.008379998071491718
1783169408044264000,3.890263916015625,0.06853402252197265,0.2593547005414963,0.009794687175005673
1783169408054242800,3.900242919921875,0.1112526357859373,0.250503870087862,-0.006253954961383715
1783169408064191700,3.910191650390625,0.058175125592947005,0.23414836309254167,0.03790741358995437
1783169408074140000,3.920139892578125,-0.01388414844572544,0.17231413047015665,0.10540741688907146
1783169408084119800,3.930119873046875,0.06179390061199665,0.12197861246168613,0.08382073124200105
1783169408094067700,3.940067626953125,0.051427404898405076,0.11522153941690921,0.012600830636918544
1783169408104017000,3.950016845703125,0.047716275420784944,0.1094704285442829,-0.004567600176483393
1783169408113994200,3.959994140625,0.06721417209506035,0.10485913535654544,0.03583250701203942
1783169408123973400,3.969973388671875,0.050119244909286494,0.08140168740153313,0.023651070830971
1783169408133922300,3.97992236328125,0.057305941542983053,0.056931847533583636,0.00674201247296296
1783169408143870500,3.989870361328125,0.0943476782143116,0.07755319527983665,0.015516864214092492
1783169408153819400,3.9998193359375,0.06289630889594555,0.08133914355933666,0.03096066319197416
1783169408163798300,4.00979833984375,0.037189620709419245,0.024983634608983993,0.05572948600649833
1783169408173747200,4.019747314453125,0.10831541329026222,-0.003171615773439407,0.02485182492285967
1783169408183696400,4.0296962890625,0.08829436952471732,0.04293137923181057,-0.016242557273292914
1783169408193645600,4.0396455078125,0.055932315102219576,0.03138064216971397,-0.04638619586080312
1783169408203624200,4.049624267578125,0.06012216800749302,0.019934534525871277,-0.04768120410740375
1783169408213573400,4.059573486328125,0.009425999993085861,0.020687983241677282,-0.06898249694183468
1783169408223521500,4.069521484375,-0.003605331015586853,0.008706453546881675,-0.08957052694037557
1783169408233501400,4.07950146484375,-0.015555881050229071,0.010624854388833045,-0.07610768177979625
1783169408243449300,4.089449462890625,-0.04754617955088615,0.0443634578615427,-0.06383826592117547
1783169408253398500,4.0993984375,-0.0423591323018074,0.05119067353308201,-0.047343359588319436
1783169408263347500,4.109347412109375,-0.031686347118020056,0.03842646902799606,0.0001749181754887104
1783169408273326300,4.119326416015625,0.0022089082211256025,0.05750526350736618,0.006091741003841161
1783169408283275300,4.129275146484375,0.01958674400150776,0.09881927067041396,-0.032004034765064714
1783169408293223400,4.139223388671875,0.05092354702949524,0.09045768503844738,-0.04865151044428348
1783169408303172400,4.14917236328125,0.08678630304932594,0.07004325804114342,-0.03111570762321353
1783169408313151200,4.159151123046875,0.07456979555487632,0.06174246268570423,-0.021782792741060257
1783169408323100400,4.169100341796875,0.104983053997159,0.08378829027712345,-0.02229498918005265
1783169408333049300,4.17904931640625,0.06936930430233477,0.11735504431426524,-0.027655493299895896
1783169408343028200,4.1890283203125,0.0023199673801660536,0.08525310213267803,-0.0257328546742443
1783169408352977200,4.19897705078125,0.04061491898298263,0.06056991177499294,-0.03396919735819101
1783169408362926600,4.208926513671875,0.05018529588282108,0.09399170438349247,-0.04995236390978098
1783169408372874200,4.218874267578125,0.04871113167703151,0.09343816215395927,-0.04801379706263542
1783169408382854400,4.2288544921875,0.10107844777405262,0.06611234833300113,-0.06439619206488133
1783169408392802600,4.238802490234375,0.11867898639440536,0.07217559389472007,-0.06296002178192138
1783169408402751500,4.24875146484375,0.12021335635483264,0.06963818437159061,-0.046835556196654214
1783169408412700400,4.258700439453125,0.16967793674767018,0.06275368555486202,-0.02339168924242258
1783169408422679600,4.268679443359375,0.17170155152976513,0.04367196846604347,-0.013002397175133228
1783169408432628500,4.27862841796875,0.17279051581025123,0.02300736609995365,-0.013599632415920495
1783169408442576400,4.288576416015625,0.16999182500243187,-0.0034019173979759213,-0.015937573844194412
1783169408452556300,4.298556396484375,0.16497312005758286,-0.017787001103162763,-0.01961158618181944
1783169408462504400,4.30850439453125,0.19381518366038797,-0.013506547304987907,-0.0569781708933413
1783169408472453400,4.318453369140625,0.134006319385767,0.011592238116264343,-0.07581058939620852
1783169408482402300,4.32840234375,0.047233460339903825,0.043052375262975694,-0.04946283596032299
1783169408492381400,4.33838134765625,-0.014427169281244278,0.04971417123973369,-0.048943917519599194
1783169408502330400,4.348330322265625,-0.033118425747752187,0.07239946577847003,-0.07283742793747223
1783169408512279300,4.358279296875,-0.09210545224547385,0.10457914937138557,-0.05886515368372201
1783169408522227200,4.368227294921875,-0.1445616156697273,0.1060550671428442,-0.015106392850214614
1783169408532207400,4.378207275390625,-0.134065940618515,0.09000000439882277,0.011502660136669873
1783169408542155300,4.3881552734375,-0.08225333579480648,0.09437865787446498,0.019076301128184422
1783169408552104400,4.3981044921875,-0.04512625892758369,0.11391396394968033,0.05843859883472323
1783169408562083600,4.40808349609375,-0.03788695532381534,0.1029611927807331,0.09601298107802868
1783169408572032500,4.418032470703125,-0.020177111110091208,0.06933131037950516,0.0860933523491025
1783169408581981400,4.4279814453125,0.019622399836778638,0.07021627652049064,0.047990416187047955
1783169408591929300,4.437929443359375,0.06051321315169334,0.09526479305922984,0.027645401164144275
1783169408601909500,4.447909423828125,0.07092880870401859,0.10044774865508078,0.03264627819135785
1783169408611857400,4.457857421875,0.09462532611191272,0.09973930812478064,0.0068485507205128665
1783169408621806300,4.467806396484375,0.13341010705828665,0.0984475147485733,-0.009376023371517658
1783169408631755300,4.47775537109375,0.15477847377955914,0.1192827975064516,-0.0036491701573133466
1783169408641734400,4.487734375,0.17943945230543612,0.12690963912308215,-0.0049868485018610955
1783169408651683300,4.497683349609375,0.1584264748930931,0.1018067620486021,-0.021462182484567164
1783169408661632300,4.50763232421875,0.13073182775974274,0.08572656486332415,-0.02836964205177501
1783169408671611400,4.517611328125,0.1992816323727369,0.09857903217375277,-0.038807869561016554
1783169408681560300,4.527560302734375,0.1886947719067335,0.12319441799223423,-0.041474330557603384
1783169408691508200,4.53750830078125,0.15093933400809764,0.10795651684999465,-0.01740649561928585
1783169408701457200,4.54745703125,0.16134323912262916,0.09354746774733066,-0.0015882921047508717
1783169408711436300,4.557436279296875,0.19159458500146864,0.0799170018017292,-0.008487988490611314
1783169408721385500,4.567385498046875,0.1811222908258438,0.0871978064596653,-0.019701748683303592
1783169408731334400,4.57733447265625,0.1575543682336807,0.06705284405350685,-0.032604046484827995
1783169408741283300,4.587283447265625,0.16776655016839503,0.05651625247001647,-0.05315072155967354
1783169408751262500,4.597262451171875,0.1229647008895874,0.06101999363005161,-0.06509236676865257
1783169408761210400,4.60721044921875,0.08656652281880378,0.07033902611732483,-0.07790668489262462
1783169408771159300,4.6171591796875,0.07153261981606483,0.07463117035329342,-0.09452464221641421
1783169408781138400,4.627138427734375,0.037864158970117565,0.07143909631371498,-0.08303381864801049
1783169408791087400,4.63708740234375,0.0010305120915174483,0.07524550285935401,-0.05760273253247142
1783169408801036300,4.647036376953125,-0.02351414657831192,0.05436813452541828,-0.007326689626276492
1783169408810985200,4.656985107421875,-0.060872109591960905,0.019701894813776016,0.008771335476636886
1783169408820964400,4.66696435546875,-0.03482230705618858,0.0005377601385116576,-0.012765081287920475
1783169408830913300,4.676913330078125,-0.003041267392039299,0.019501988327503203,-0.016396131266653537
1783169408840861400,4.686861328125,-0.047286651831865305,0.03799041569828987,-0.005807078843563795
1783169408850810400,4.696810302734375,-0.0602969400525093,0.012734393888711929,-0.0018690087422728538
1783169408860789200,4.706789306640625,-0.03420797455012798,0.009605448213219642,-0.005269327838206664
1783169408870738200,4.71673828125,-0.03455459603071213,0.0465899017393589,0.021134265704452992
1783169408880687400,4.726687255859375,-0.047885202246904374,0.04060848924219608,0.04786472571445629
1783169408890666500,4.73666650390625,-0.06554536210000515,0.013214286360144614,0.06385826752958819
1783169408900615400,4.746615478515625,-0.05435176791250705,0.008585457515716552,0.06320376740992069
1783169408910564400,4.756564453125,-0.030410335832834243,0.021252046865224836,0.09619871290847659
1783169408920512500,4.766512451171875,-0.013278583768010138,0.03301671893894672,0.09626313818050548
1783169408930492400,4.776492431640625,0.027333412605524063,0.054012160694599146,0.04396905171647668
1783169408940440300,4.7864404296875,0.015379939961433409,0.06441957294046878,0.007917348995804787
1783169408950389500,4.796389404296875,0.0281073195874691,0.0391916081815958,0.026415713238716124
1783169408960338400,4.80633837890625,0.0784311471581459,0.051796822732686994,0.0818875712223351
1783169408970317300,4.8163173828125,0.08265724042057991,0.06201426536440849,0.07844210694357752
1783169408980266200,4.826266357421875,0.07422492763996123,0.0483370376676321,0.06164426300823688
1783169408990214400,4.83621435546875,0.04625730878412723,0.021825462839007378,0.03929565307796001
1783169409000194300,4.8461943359375,0.07790157032608985,0.020677461847662924,0.034062720860540865
1783169409010142200,4.85614208984375,0.09707622639536857,0.018750293177366255,0.022439795345067976
1783169409020091400,4.86609130859375,0.08388006021380424,0.0013087445110082625,0.0023079846814274786
1783169409030040300,4.876040283203125,0.06729717420339584,-0.013019056048989295,-0.014400427404791116
1783169409040019200,4.886019287109375,0.01412029528915882,-0.014051321706175804,-0.04112754468023777
1783169409049968400,4.895968505859375,0.006305822145938873,0.015721885266900062,-0.0735907213896513
1783169409059917600,4.90591748046875,0.04392272835671902,0.06428396386206149,-0.10811536067351699
1783169409069865500,4.915865478515625,0.0772720402508974,0.07792728928923606,-0.13777093261629342
1783169409079845400,4.925845458984375,0.0521276621222496,0.0834375771433115,-0.1261097300502006
1783169409089793500,4.93579345703125,0.08148761211931704,0.07010872449278831,-0.08034399504214525
1783169409099742500,4.945742431640625,0.14319967966675756,0.1013140100955963,-0.04531725145503878
1783169409109744600,4.95574462890625,0.16113807193934918,0.12690788555741309,-0.016585662489384412
1783169409119693600,4.965693603515625,0.12261340323388575,0.11799041960835456,0.009222586375474929
1783169409129642500,4.975642578125,0.11120996568799019,0.1032359180688858,0.009092676385492085
1783169409139590400,4.98559033203125,0.14438567458093166,0.10270224958360194,0.011836559132998808
1783169409149570600,4.995570556640625,0.16220248630046843,0.11226093604564666,0.01656432744041085
1783169409159518500,5.0055185546875,0.14283143087625502,0.11560790838599204,0.014594927063584328
1783169409169467400,5.01546728515625,0.10797054537534713,0.08503390642404555,0.0014496142864227294
1783169409179416300,5.025416259765625,0.12468787142038344,0.062417585468292236,-0.04241349283754825
1783169409189395500,5.0353955078125,0.11443828008472919,0.07761281651258468,-0.06919964682385325
1783169409199344600,5.0453447265625,0.07267652915418148,0.07735387331545353,-0.08635902668111957
1783169409209293600,5.05529345703125,0.07580781291723251,0.08144318845570087,-0.09042334437742829
1783169409219272700,5.065272705078125,0.08962707943320274,0.05413374124765396,-0.07573898546472191
1783169409229221600,5.0752216796875,0.06430033047497272,0.027573066580295562,-0.036452547739678993
1783169409239169500,5.08516943359375,0.06581716477870941,0.0454699577987194,-0.01233326574191451
1783169409249118500,5.095118408203125,0.08079436915814876,0.05910685348510742,-0.002778232541680336
1783169409259097600,5.10509765625,0.052881110838055606,0.049125557696819304,-0.01923223604199011
1783169409269046500,5.115046630859375,0.04343815971016884,0.08583353236913681,0.0017670096725225448
1783169409278995500,5.124995361328125,0.037435119903087614,0.1267991644859314,0.013451017725467682
1783169409288943600,5.134943603515625,-0.04909691612422466,0.1542383755534887,0.013787990028294735
1783169409298923500,5.144923583984375,-0.1513724647283554,0.1571884575307369,0.01706497043892741
1783169409308871400,5.154871337890625,-0.17494038732051848,0.16407587895691395,-0.012391722497460431
1783169409318820400,5.1648203125,-0.12599895401895045,0.20747604474425316,-0.010285101040452719
1783169409328799500,5.174799560546875,-0.14968611907660961,0.24074527713954447,0.04310541605788749
1783169409338748400,5.18474853515625,-0.18808628461956978,0.2078214971810579,0.07909019558876752
1783169409348697300,5.194697265625,-0.15029811349511146,0.1677063444137573,0.10814575581178068
1783169409358646500,5.204646484375,-0.09777414553165435,0.16881518243849278,0.12973740989491342
1783169409368625700,5.214625732421875,-0.050745852375030515,0.18696341806948183,0.13589564026370643
1783169409378574600,5.22457470703125,0.027167408388853072,0.1641296549707651,0.1137592117793858
1783169409388522800,5.234522705078125,0.10269289723336696,0.12771218767762182,0.08727584013193845
1783169409398471700,5.2444716796875,0.12160744106173514,0.09862754749059677,0.07175240004658699
1783169409408450600,5.254450439453125,0.1440700327605009,0.08738134633302688,0.05157441215366125
1783169409418399500,5.2643994140625,0.17828735966086387,0.07974632140994072,0.016583178271353242
1783169409428348400,5.274348388671875,0.15941899306178092,0.05785246950984001,-0.030071459267288443
1783169409438327600,5.28432763671875,0.13422142344117163,0.028238252490758894,-0.06826601923555135
1783169409448276500,5.2942763671875,0.13619886099398135,0.006783376529812812,-0.09577771101742982
1783169409458224600,5.304224609375,0.1709217993289232,0.0191840084195137,-0.12310294031649827
1783169409468173600,5.314173583984375,0.17544249162375927,0.007663081973791122,-0.1326442372523248
1783169409478152400,5.32415234375,0.1731967585235834,-0.022483049964904783,-0.15792787772119043
1783169409488101400,5.334101318359375,0.20900047783255576,-0.033227146819233895,-0.15073139034584163
1783169409498050600,5.344050537109375,0.2032429372191429,-0.04487608355879783,-0.13137421731650828
1783169409507999500,5.35399951171875,0.1827747342079878,-0.049017421147227284,-0.12261807940900325
1783169409517978400,5.363978271484375,0.1432160462796688,-0.024895956325531005,-0.13229571607559917
1783169409527927600,5.373927490234375,0.14389292262792586,0.008667290580272675,-0.1359608144544065
1783169409537875500,5.38387548828125,0.10594868415892124,0.03172375651896,-0.1172717499449849
1783169409547824600,5.39382470703125,0.04120236348211765,0.03161561996936798,-0.09673384269848466
1783169409557803500,5.403803466796875,0.014935703325271606,0.03361000865697861,-0.07623363711386918
1783169409567752700,5.413752685546875,0.04883329675197601,0.03218143715858459,-0.0705623134791851
1783169409577701600,5.42370166015625,0.01887771894931793,0.0659919368237257,-0.05145443903580307
1783169409587680500,5.433680419921875,-0.0507943676918745,0.07980418907701968,-0.022891196940955705
1783169409597629400,5.44362939453125,-0.005708440774679184,0.1245113458096981,0.01680368915423751
1783169409607577600,5.45357763671875,-0.013773089286684989,0.1548585532784462,0.03249985545799136
1783169409617526500,5.463526611328125,-0.05608195270597934,0.15017770198583602,0.04073196492481511
1783169409627505700,5.473505615234375,-0.01964636523425579,0.14828911176025866,0.02738908831551671
1783169409637454600,5.48345458984375,0.03897591960430145,0.18136545193195341,0.015924568232148884
1783169409647403500,5.493403564453125,0.05262509025037288,0.19565876570045948,0.04448123445573728
1783169409657352400,5.5033525390625,0.06174830790460109,0.15964578755497932,0.06524243363067507
1783169409667331600,5.51333154296875,0.0976893898576498,0.13545534915030003,0.07117240363496821
1783169409677280500,5.523280517578125,0.1173398467451334,0.14225859942436217,0.07010082888070028
1783169409687228400,5.533228515625,0.13849427845478057,0.12654372842013836,0.07081160749855916
1783169409697208600,5.54320849609375,0.1805430296331644,0.10577800376713276,0.0581572931087343
1783169409707156500,5.553156494140625,0.19250819271504876,0.10152093084454536,0.0388632484434871
1783169409717105700,5.563105712890625,0.1589975527793169,0.08410100948810577,0.030819939547032115
1783169409727054600,5.5730546875,0.16039865174889564,0.07076046639978885,-0.007202478724718094
1783169409737033700,5.58303369140625,0.1511421631038189,0.07685644518733024,-0.01634586238414049
1783169409746982700,5.592982666015625,0.073542790594697,0.07987959240078926,-0.046306554753333326
1783169409756931600,5.602931640625,0.03709492816329002,0.05197451738715172,-0.0479798947930336
1783169409766879500,5.61287939453125,0.03763151925802231,0.05941840365231037,-0.0398396968267858
1783169409776858600,5.622858642578125,0.023375030368566512,0.0723573802024126,-0.03680690500214696
1783169409786807600,5.6328076171875,0.027115970462560653,0.06327215647101402,-0.02469999992859084
1783169409796756500,5.642756591796875,0.017851883032917976,0.048741526815295214,-0.017339111205190418
1783169409806735600,5.652735595703125,-0.0367559054672718,0.05516191525161266,-0.024466478867083787
1783169409816684500,5.6626845703125,-0.05033493348658084,0.03496726848483085,-0.04103724061485845
1783169409826633500,5.672633544921875,-0.017167407900094984,0.03152852620780468,-0.0514636498221429
1783169409836581400,5.682581298828125,-0.0011515081226825714,0.05318330865502357,-0.05077756268754601
1783169409846561500,5.6925615234375,-0.010028057539463042,0.06397358273863792,-0.053651364558190105
1783169409856509400,5.702509521484375,-0.044243046352267265,0.06562602612078189,-0.07495894556951244
1783169409866458400,5.712458251953125,-0.034162381842732424,0.06861410202085971,-0.10513415290564299
1783169409876407600,5.722407470703125,-0.005315057542920112,0.06518880374729633,-0.10704013265743852
1783169409886386700,5.73238671875,0.05062134921252727,0.05021452197730541,-0.06614215894937515
1783169409896335600,5.742335693359375,0.11792846028804778,0.049424248382449146,-0.01964198132008314
1783169409906284500,5.752284423828125,0.13855039255619048,0.06501870787739754,0.0022914719380438325
1783169409916263700,5.762263671875,0.10894903501868247,0.044189854860305786,0.007762889086455106
1783169409926212600,5.772212646484375,0.08113046924471855,0.034085809475183484,0.00837225315645337
1783169409936160500,5.782160400390625,0.11851765835285186,0.05323474658131599,0.002057955443114042
1783169409946109400,5.792109375,0.1322410632789135,0.10460895998775958,-0.013122808684408663
1783169409956088600,5.802088623046875,0.11861351994276045,0.125143798494339,-0.026492431736737487
1783169409966037500,5.81203759765625,0.11000935772657394,0.08974047667980194,-0.0037038229539990424
1783169409975986400,5.821986328125,0.1161456685245037,0.07347089440226555,0.02813420759439468
1783169409985934600,5.8319345703125,0.11515548844337463,0.08573708625733852,0.0350708749897778
1783169409995914500,5.84191455078125,0.13091887476444244,0.11238894633948802,0.04715805701613426
1783169410005862400,5.8518623046875,0.08002455382943154,0.11462298900187015,0.04589154421165585
1783169410015811300,5.861811279296875,0.012599369332194327,0.09288052827119826,0.007511398543417453
1783169410025790500,5.87179052734375,0.027094927674531935,0.10471651201546192,-0.00808686491039116
1783169410035739400,5.881739501953125,0.030644144588708875,0.12288520591259001,-0.0016952596105635166
1783169410045688600,5.8916884765625,-0.0013356325179338453,0.1145253738462925,0.019048399341106415
1783169410055637500,5.901637451171875,-0.027290157985687253,0.082796941152215,0.013654723604023455
1783169410065616600,5.91161669921875,0.008220715856552124,0.08761807769834995,0.009525222583860158
1783169410075565600,5.921565673828125,0.015043255352973937,0.09134849639832973,0.024449527732282875
1783169410085513500,5.931513427734375,0.02455810267329216,0.08557634273767471,0.029128625459223983
1783169410095462700,5.941462646484375,0.06174012459814548,0.058503626894950866,0.02869783282652497
1783169410105441500,5.951441650390625,0.06617080052196979,0.03666062839925289,0.014441631631436757
1783169410115417900,5.96141796875,0.08962591038942337,0.036596915513277053,0.007819879970699549
1783169410125367000,5.971366943359375,0.12190028652846813,0.05094458981752396,0.0016771394319832324
1783169410135346000,5.981345947265625,0.10781272446513175,0.05307926375865936,-0.022007395277172326
1783169410145294800,5.991294921875,0.11407996816635131,0.04973755211532116,-0.030249153921753168
1783169410155243000,6.001242919921875,0.06894786401987076,0.04905892220139503,-0.02055953912299592
1783169410165192000,6.01119189453125,0.025501521003246305,0.05694412249326706,-0.05295753707513213
1783169410175170800,6.0211708984375,0.08882920705378056,0.08430383858382702,-0.05858589835092425
1783169410185120000,6.0311201171875,0.07646072386801242,0.10778408289253712,-0.052325084390491244
1783169410195069200,6.041069091796875,0.04044949928820133,0.08289864796102046,-0.04125701627880335
1783169410205018000,6.05101806640625,0.034441783306002616,0.050879707887768744,-0.03816299578621983
1783169410214997000,6.0609970703125,0.04413607884645462,0.0513040707796812,-0.025491584131121636
1783169410224946000,6.07094580078125,0.0657820934653282,0.06675590693354606,-0.016557020916789768
1783169410234894000,6.08089404296875,0.08322714926302432,0.06355681863129138,-0.03836685236182529
1783169410244874000,6.0908740234375,0.08354805178046226,0.05712883141040802,-0.03771335688915569
1783169410254822000,6.10082177734375,0.0796072052001953,0.06093114630281925,-0.01325023445636034
1783169410264771000,6.11077099609375,0.06228256091177463,0.06511515398919582,-0.0023188029029639436
1783169410274720000,6.120719970703125,0.03645663025975227,0.05873042138814926,0.01604834074229002
1783169410284699000,6.130698974609375,0.010377017107605933,0.062111295998096464,0.009261895472556353
1783169410294647800,6.140647705078125,0.02321779398024082,0.08636895442008971,0.011500322049111127
1783169410304596000,6.150595947265625,0.034781975045800204,0.09119242905378341,0.012307542212191037
1783169410314545000,6.160544921875,0.03712532330155372,0.10685469308793544,0.017195903342217204
1783169410324524000,6.17052392578125,0.019756839871406553,0.1069219131052494,0.002908580923080444
1783169410334473000,6.180472900390625,0.05508300479650497,0.10536883844435214,-0.010254705902189016
1783169410344422100,6.190422119140625,0.05505085609257221,0.09687398182153702,0.019269933137297628
1783169410354400800,6.20040087890625,0.040893151402473446,0.0877905116558075,0.03317950828522444
1783169410364350200,6.21035009765625,0.052041737404465674,0.08837269545793533,0.023172201272845267
1783169410374299100,6.220299072265625,0.05904957033991813,0.10610592054724692,0.02029547679275274
1783169410384247000,6.2302470703125,0.04281739746332169,0.10575170028209685,0.01045841178074479
1783169410394227000,6.24022705078125,0.014165887996554374,0.08942658842504024,-0.019395751474052668
1783169410404175000,6.250175048828125,0.01547404798567295,0.08443184887766837,-0.023497487704455852
1783169410414124000,6.2601240234375,0.024466332736611366,0.07754384292960166,-0.03326090295836329
1783169410424073000,6.270072998046875,0.020351298633217812,0.06671732848882675,-0.04550254489406943
1783169410434052000,6.280052001953125,0.044023850643634795,0.07058218722343444,-0.06882891381531954
1783169410444001000,6.2900009765625,0.049592590686678886,0.0717518155246973,-0.052718906013667584
1783169410453949000,6.299948974609375,0.04907879594564438,0.05993804361224174,-0.046750352998077865
1783169410463928800,6.3099287109375,0.03525251516699791,0.03703589145243168,-0.05484276629984378
1783169410473877000,6.319876953125,0.05321136570572853,0.029213819524645804,-0.06063304013907909
1783169410483826000,6.329825927734375,0.07428805600404739,0.041949382457137106,-0.07734715131372213
1783169410493774800,6.33977490234375,0.07673428011238574,0.04968845227658748,-0.07715411295965313
1783169410503754000,6.34975390625,0.08115794177353382,0.0449210917443037,-0.06415463839396834
1783169410513703200,6.359703125,0.08621990133821963,0.045101709008216855,-0.06432648782953619
1783169410523652000,6.369652099609375,0.09512684589326381,0.0423982952684164,-0.06210968856289983
1783169410533600000,6.37960009765625,0.08875088112056255,0.05324117632210254,-0.06455781236737966
1783169410543580200,6.389580078125,0.06577917085587978,0.07399404149353504,-0.05361702389717102
1783169410553528000,6.399528076171875,0.06421265219151974,0.0834369926214218,-0.05235679470300674
1783169410563477000,6.40947705078125,0.0924041429311037,0.10251754066646099,-0.04233940468803048
1783169410573456100,6.4194560546875,0.06578560059666633,0.12413900536596774,-0.023827011919766664
1783169410583405000,6.429405029296875,0.04258008157610893,0.12341770535409449,-0.01194178220629692
1783169410593354000,6.43935400390625,0.0495657026797533,0.1040507415831089,0.016497838075459
1783169410603303000,6.449302978515625,0.0691769966006279,0.1200362462222576,0.03366305401846766
1783169410613282000,6.459281982421875,0.04119359565377235,0.1346194828480482,0.05158771002665162
1783169410623230000,6.46922998046875,0.04638005838096142,0.10746727202832698,0.030023674602806565
1783169410633179000,6.479178955078125,0.09424480236172676,0.12469430116117,0.029672669208049774
1783169410643127800,6.4891279296875,0.11503098528087138,0.1536772345393896,0.03960720324516296
1783169410653107000,6.49910693359375,0.11552607532143593,0.14294891977608204,0.049430093601346016
1783169410663056000,6.509055908203125,0.10393033007383345,0.13167524608969688,0.027135844206809995
1783169410673005000,6.519005126953125,0.15147884771227835,0.13411971663236616,0.015877660350501536
1783169410682984000,6.52898388671875,0.14367606500685215,0.13101356731057165,0.017130290760099885
1783169410692933000,6.53893310546875,0.14579963303208351,0.12723638685941696,0.030530308950692413
1783169410702881000,6.548881103515625,0.14480360773205755,0.12187632113099098,0.039305736080557103
1783169410712830000,6.558829833984375,0.10707622688412666,0.12245441327989101,0.023977380175888536
1783169410722809000,6.56880908203125,0.0867442174732685,0.11267594658732413,0.02478358199223876
1783169410732758000,6.578758056640625,0.07228431496620177,0.11274608921408652,0.03417071127966046
1783169410742707000,6.58870703125,0.05864683475792408,0.11197452031970023,0.03786839675381779
1783169410752656000,6.59865576171875,-0.00011222820281982422,0.09206804284453392,0.018208002994209528
1783169410762635000,6.608635009765625,-0.002501169165968895,0.08115209655463695,0.004922258833050728
1783169410772584000,6.618583984375,0.005663432589173316,0.09953355641961097,0.007983838360756635
1783169410782532000,6.628531982421875,-0.020384616380929945,0.10830196928679943,0.005648820683575468
1783169410792511000,6.638510986328125,-0.02020925981402397,0.0882476077735424,-0.013241905019432305
1783169410802460000,6.6484599609375,0.02285539040863514,0.07783785744011401,-0.009702039313846035
1783169410812408800,6.658408935546875,-0.0018570260435342787,0.1051356142103672,0.0007383972771465778
1783169410822358000,6.66835791015625,-0.015552958440780638,0.12466215245723723,0.011192717404663563
1783169410832337000,6.6783369140625,0.034520693761110305,0.13228256433308125,0.012462737340480088
1783169410842285800,6.688285888671875,0.04616378528177738,0.14184826505780218,0.003449994323402643
1783169410852234000,6.69823388671875,0.05396539894342422,0.15665537356734274,0.02262304295748472
1783169410862183200,6.70818310546875,0.07899170365035534,0.16288754595518112,0.029904432137310505
1783169410872162000,6.718162109375,0.12378478510081767,0.1718722319215536,0.03937091027125716
1783169410882111000,6.728111083984375,0.12012392450571059,0.16323066030442715,0.0432630954042077
1783169410892060200,6.73806005859375,0.11097031171321868,0.14662030176520346,0.02515387660935521
1783169410902039000,6.7480390625,0.15916004986464977,0.1495072553783655,0.0033709388794668483
1783169410911988000,6.757988037109375,0.1700339105784893,0.15647650986909867,-0.007272475221008062
1783169410921937000,6.76793701171875,0.13935469467639922,0.13244330785274505,-0.041234658316522836
1783169410931885000,6.777885009765625,0.13691197769939897,0.10045885457098483,-0.04259849401563406
1783169410941865000,6.787864990234375,0.12855273015499113,0.09578151040971279,-0.09109218354970217
1783169410951812900,6.797812744140625,0.12507891656458378,0.07036942125558852,-0.10570435400903225
1783169410961762000,6.807761962890625,0.0811065038472414,-0.0013625205248594284,-0.06864653841916006
1783169410971711000,6.8177109375,0.04400105428993702,-0.061191843065619464,-0.07127572244554757
1783169410981689900,6.82768994140625,0.02891512883901596,-0.06382394513487816,-0.08590089851692319
1783169410991638800,6.837638671875,-0.020119827964901922,-0.06818214034438133,-0.11635858062282203
1783169411001587000,6.8475869140625,-0.05921323646903038,-0.07914777099490165,-0.14420403440371155
1783169411011566800,6.85756689453125,-0.09168868813812732,-0.0644318479001522,-0.13214812429845332
1783169411021515000,6.867514892578125,-0.1454074188441038,-0.04813771570324898,-0.12257379274270497
1783169411031464200,6.877464111328125,-0.1671796901911497,-0.0667372022330761,-0.12712152830809353
1783169411041413000,6.8874130859375,-0.16599077266752718,-0.05854688151478767,-0.10835676821395754
1783169411051392000,6.89739208984375,-0.16313421419262886,-0.03326981691718101,-0.051676265092939135
1783169411061341000,6.9073408203125,-0.1414332545161247,-0.02596270877420902,-0.016865794605016707
1783169411071290000,6.9172900390625,-0.12092998019158839,-0.000017535656690597534,-0.0007116554006934165
1783169411081238000,6.927238037109375,-0.12415946363210677,0.027026538613438605,0.006262129134684801
1783169411091218000,6.937218017578125,-0.1196142214179039,0.03237783651351928,0.014448796591162681
1783169411101166000,6.947166015625,-0.09243103093802929,0.0486725532323122,0.033593788174539806
1783169411111115000,6.957114990234375,-0.07604805141389369,0.0846136351853609,0.037518414272367955
1783169411121131800,6.9671318359375,-0.03383095793128013,0.11016834768056868,0.017623188843578098
1783169411131081000,6.9770810546875,0.020891396859288213,0.13038345271348953,0.004952516973996535
1783169411141030000,6.98702978515625,0.05706161139309406,0.15461597669422625,0.032660608110809695
1783169411150977800,6.996977783203125,0.10367840113937854,0.14644260711073875,0.05721432686992921
1783169411160957700,7.006957763671875,0.14811492423713207,0.14580664729475973,0.062009296928346155
1783169411170905900,7.01690576171875,0.18565701164603232,0.15134557672142981,0.06712357120215892
1783169411180854800,7.026854736328125,0.20790157667994497,0.1597632764548063,0.06473784510940313
1783169411190803700,7.0368037109375,0.2049649387061596,0.1645183620274067,0.04290362357520498
1783169411200782800,7.046782958984375,0.21413082645833492,0.18696224902570246,0.01577317706272006
1783169411210732000,7.05673193359375,0.2089560541689396,0.20256606087088583,0.025190847618877885
1783169411220681000,7.066680908203125,0.16238134999871254,0.18952596203386782,0.019011866723001
1783169411230628900,7.07662890625,0.15561375555992127,0.1689706652611494,0.011702712753415107
1783169411240609000,7.086609130859375,0.15462942069768904,0.1520738909959793,0.009141337832808493
1783169411250557000,7.096556884765625,0.14290391159057617,0.14888357052206994,0.0011732815630733967
1783169411260505900,7.106505859375,0.13865326840877532,0.13677519957721232,-0.007518997327983379
1783169411270485000,7.116485107421875,0.12777063986659049,0.11497896283268928,-0.031430764921754596
1783169411280434000,7.126433837890625,0.1205377660036087,0.11068974120616912,-0.04684299971759319
1783169411290382800,7.1363828125,0.08272562948167324,0.10299801765978336,-0.05322612488344312
1783169411300330800,7.146330810546875,0.10997545545697211,0.07990764945149421,-0.07510901699811219
1783169411310311000,7.156310791015625,0.09220599001049995,0.08021043179035187,-0.07457008781582117
1783169411320258800,7.1662587890625,0.04487023833990097,0.06204407598078251,-0.07790565284616313
1783169411330207700,7.176207763671875,0.04890168581306934,0.04631576097309589,-0.05925605269744992
1783169411340156700,7.18615673828125,0.03910568346381187,0.062218263503909105,-0.0639255058132112
1783169411350135800,7.1961357421875,-0.011444938600063324,0.07317045015096664,-0.08593772339597344
1783169411360084700,7.206084716796875,-0.04826923312842846,0.060190557068586344,-0.10663870311654172
1783169411370034000,7.216033935546875,-0.019057167169451713,0.04400865307450294,-0.09296221520528197
1783169411380012800,7.2260126953125,-0.016098901885747908,0.07476736395359039,-0.08779577235281467
1783169411389962000,7.2359619140625,-0.005659340935945511,0.09870587342381477,-0.08714709918573499
1783169411399910000,7.245909912109375,0.008905190989375113,0.08373977496027946,-0.08089651435837149
1783169411409858800,7.25585888671875,0.02923310874700546,0.07327741765677928,-0.0849183080872055
1783169411419838000,7.265837890625,0.05011281516849994,0.08842530242800713,-0.08726049643233418
1783169411429787000,7.275786865234375,0.0877905116558075,0.08964753769934176,-0.07326017426103353
1783169411439735800,7.28573583984375,0.14181202470064164,0.07924304806292057,-0.048544981329888104
1783169411449684700,7.295684814453125,0.18565584260225296,0.05121463893055916,-0.01570142700076103
1783169411459664000,7.305663818359375,0.20025661488473415,0.03721826228201389,0.010017536145448685
1783169411469611800,7.31561181640625,0.18543255524039268,0.06213233878612518,0.03987871366292238
1783169411479561000,7.32556103515625,0.17208675145506858,0.08299977024793624,0.05960530452653765
1783169411489539800,7.335539794921875,0.1527975290954113,0.07047580423951148,0.053984980426728724
1783169411499488800,7.34548876953125,0.13894436030983925,0.09209843798279761,0.03955225818753242
1783169411509437700,7.355437744140625,0.08235387355983256,0.12555062572956086,0.029637159503251312
1783169411519387000,7.365386962890625,0.05641103852987289,0.13052899866402148,0.04381093854531645
1783169411529365800,7.37536572265625,0.025419687938690184,0.12664718879461287,0.040770840197056527
1783169411539314700,7.385314697265625,-0.004795417582988739,0.10646130985617637,0.03545271391421556
1783169411549262800,7.395262939453125,-0.016043372306227682,0.10017594597637652,0.0492117838087026
1783169411559212000,7.4052119140625,-0.008663198927044868,0.10652852987349033,0.05944909105151892
1783169411569191000,7.41519091796875,-0.020691490373015403,0.11274024399518966,0.0680995766274631
1783169411579139800,7.425139892578125,-0.03539104685485363,0.11003624573349952,0.049674569881707424
1783169411589089000,7.435089111328125,-0.03917524156868458,0.0932142902702093,0.04508022782877087
1783169411599068000,7.44506787109375,-0.02099310366809368,0.08441548226475715,0.03630378691875376
1783169411609016800,7.455016845703125,-0.010352467188239097,0.07760930938124656,0.02089491312378086
1783169411618965800,7.4649658203125,0.007166238367557525,0.06068623163104057,-0.0030735622264444827
1783169411628914000,7.474913818359375,0.005111643925309181,0.05515490098893642,-0.02412687164917588
1783169411638892800,7.484892822265625,0.02319032145142555,0.053508887347579,-0.04590045817047357
1783169411648842000,7.494842041015625,0.03558569264411926,0.06909867066740989,-0.066766282197088
1783169411658791000,7.504791015625,0.03347381505668163,0.07745850273370743,-0.07950871326178312
1783169411668739800,7.51473974609375,0.052528644138574596,0.06277122121155261,-0.10174436433687806
1783169411678718700,7.52471875,0.10948621063530445,0.06747019268274307,-0.09898162162527441
1783169411688667600,7.534667724609375,0.11773439902067184,0.07223930678069591,-0.10510434228926896
1783169411698615800,7.54461572265625,0.11146131010055542,0.06503624353408813,-0.09922697468847036
1783169411708595700,7.554595703125,0.12740706725120543,0.04492752148509025,-0.09268164469823241
1783169411718544000,7.5645439453125,0.11622574802339077,0.04733692071437835,-0.085880732511729
1783169411728493000,7.5744931640625,0.14562252289950847,0.062467269828915595,-0.08318769403547048
1783169411738442000,7.58444189453125,0.13756196604073045,0.08362637771368026,-0.07008066744208336
1783169411748420900,7.5944208984375,0.102704003149271,0.07120411851406097,-0.06563361577219329
1783169411758370000,7.6043701171875,0.12616086658239364,0.07788520371317863,-0.05201411874517798
1783169411768319000,7.614319091796875,0.14658172332048416,0.09175181650221348,-0.044886020430922505
1783169411778267000,7.624266845703125,0.11387187837362289,0.09644552727639674,-0.03466214805841446
1783169411788246800,7.634246826171875,0.0935632498383522,0.08083002499341964,-0.03454626659378409
1783169411798195000,7.64419482421875,0.07864215956032276,0.08773965825140476,0.003193982868874445
1783169411808144000,7.654143798828125,0.05183014048039913,0.11185995402932167,0.01786782038756646
1783169411818122800,7.664122802734375,0.03832183960974216,0.12295885567069052,0.032318361411243675
1783169411828072000,7.674072021484375,0.041618543067574496,0.1293868428915739,0.05123085941299796
1783169411838020900,7.684020751953125,0.019693711507320404,0.12508417726159096,0.08123875192478298
1783169411847968800,7.69396875,0.01277004972398281,0.11791092463135719,0.09660290979519486
1783169411857948700,7.70394873046875,0.00530862780213356,0.09977321039438247,0.08347045649960637
1783169411867896800,7.713896728515625,0.01881108345389366,0.0898901142835617,0.08528744279369711
1783169411877845800,7.723845703125,-0.0035240824729204177,0.10293196668624878,0.06687646457329392
1783169411887795000,7.733794921875,-0.04728022209107875,0.10886661743223666,0.04443418501019478
1783169411897774000,7.743774169921875,-0.029379823741316792,0.08608253869414328,0.018596271659433842
1783169411907723000,7.753722900390625,-0.01588847400546074,0.09777882170677185,0.009405687857419251
1783169411917672000,7.763671875,-0.048210196417570114,0.11412906800508499,0.0142268244035542
1783169411927650800,7.77365087890625,-0.020879706421494483,0.08957797959446906,0.022145926965028047
1783169411937600000,7.78360009765625,0.02977788314819336,0.0663835664898157,0.02057591030248441
1783169411947548000,7.7935478515625,0.02374678629040718,0.07289455581903458,0.0005516516665462404
1783169411957496800,7.803496826171875,0.022783494216203688,0.06530979977846145,-0.02384089431464672
1783169411967476000,7.81347607421875,0.06982932302951812,0.06701251204311848,-0.041849283083528276
1783169411977425000,7.8234248046875,0.09747428580224514,0.06748012955486773,-0.06378199655613861
1783169411987373800,7.833373779296875,0.08494389005303382,0.052289574685692786,-0.0648525483970996
1783169411997321700,7.84332177734375,0.09400514838695526,0.0407470209300518,-0.06925590705573559
1783169412007302000,7.853302001953125,0.11610942816734313,0.050593876683712,-0.07752762244716287
1783169412017249800,7.863249755859375,0.11753332349061965,0.05149930109083652,-0.07909092624112964
1783169412027198700,7.87319873046875,0.13220833005309104,0.04068739969730377,-0.08076192819327116
1783169412037177900,7.883177734375,0.1591845997840166,0.03616436931490898,-0.07869052874669433
1783169412047126800,7.893126708984375,0.14220716149806975,0.04619534946382046,-0.08255845622122288
1783169412057076000,7.903075927734375,0.12765607357621192,0.05722586204409599,-0.07044336327463388
1783169412067025000,7.91302490234375,0.12256021174192427,0.0550818357527256,-0.059726008296757935
1783169412077004000,7.923004150390625,0.08279109593331814,0.045130350580811496,-0.0740282360240817
1783169412086953000,7.932952880859375,0.06314823783040047,0.07156944469511509,-0.06299129370301962
1783169412096900900,7.94290087890625,0.0782920309484005,0.08839432276785374,-0.05542305040583014
1783169412106849800,7.952849853515625,0.09864917480051517,0.08135609469413757,-0.029456971497600896
1783169412116849000,7.962848876953125,0.10347264943420886,0.06804068604707718,-0.0051880610292311755
1783169412126797800,7.9727978515625,0.0754769735276699,0.07458733121156692,0.03584185936227441
1783169412136747000,7.9827470703125,0.07284662502408028,0.062333414316177366,0.06601736352592706
1783169412146726000,7.992725830078125,0.08144494202136993,0.05742226139903068,0.0899009279385209
1783169412156674800,8.0026748046875,0.0553694205224514,0.061485857576131814,0.10216551235839724
1783169412166623000,8.012623046875,0.008825111490488051,0.05334931287169456,0.09360212054401636
1783169412176572000,8.022572021484375,-0.012976385951042174,0.06592179419696331,0.07132730650231242
1783169412186550800,8.03255078125,-0.030407413223385808,0.09291793767213821,0.05645356249734759
1783169412196499700,8.042499755859374,-0.04056055844724178,0.09992927773892879,0.06256298985492903
1783169412206449000,8.052448974609375,-0.0528115527331829,0.09266834682524204,0.060210576943308114
1783169412216398000,8.062398193359375,-0.05111936186254024,0.08652326819896697,0.05721826325953006
1783169412226377000,8.072376953125,-0.020168927803635595,0.0920253727465868,0.04865779862117488
1783169412236326000,8.082325927734376,-0.011634323692321777,0.09341010510325432,0.032050358124822376
1783169412246274000,8.092274169921875,0.013974164816737173,0.08972411006689071,0.03875365515574813
1783169412256254000,8.10225390625,0.018089783442020415,0.06422200454175472,0.036830870399624106
1783169412266201900,8.112201904296874,0.043076925182342525,0.044452889710664745,0.008499678928405046
1783169412276151000,8.122151123046875,0.08456395082473754,0.046427989175915715,-0.0007946529424516484
1783169412286100000,8.132099853515625,0.08097732450962067,0.05271276853382587,-0.0015514672257006168
1783169412296078800,8.142078857421875,0.09228022429049014,0.058607671791315076,-0.0182800453171134
1783169412306027800,8.15202783203125,0.11594751560389994,0.060192310634255404,-0.03143602561876178
1783169412315976000,8.161975830078125,0.11525018098950385,0.056847091859579084,-0.04301992973152082
1783169412325924900,8.1719248046875,0.09571253682672977,0.04452537042498588,-0.06794978832665365
1783169412335904000,8.181904052734374,0.1252262160807848,0.04975099611878395,-0.06459843663871288
1783169412345853000,8.19185302734375,0.14282441661357878,0.06968026994764805,-0.04844444356486201
1783169412355801900,8.2018017578125,0.1459089386254549,0.06102642337083816,-0.04767857375890016
1783169412365780700,8.21178076171875,0.11917115382552146,0.047237551993131635,-0.04349982676953077
1783169412375730000,8.22172998046875,0.09935001654624938,0.05122340675890445,-0.04013181164115667
1783169412385679000,8.23167919921875,0.0889922886610031,0.06575052928328513,-0.055839522252231835
1783169412395627000,8.241626953125,0.055692076605558395,0.0748059423983097,-0.06937675695642828
1783169412405607000,8.25160693359375,0.03759469437897205,0.07937748809754848,-0.08172551252841949
1783169412415555000,8.26155517578125,0.0515612604111433,0.09346621920466422,-0.07957286453917622
1783169412425504000,8.27150390625,0.05179916082024574,0.10271452454328536,-0.06806392079219221
1783169412435453000,8.281452880859375,0.044130233627557754,0.07447159587740898,-0.052650955343991515
1783169412445432000,8.29143212890625,0.08000526460707187,0.06050152271389961,-0.04698065462261438
1783169412455381000,8.301381103515626,0.0951882206916809,0.07673252654671668,-0.030963731931895017
1783169412465330000,8.311329833984376,0.09230945038497447,0.07682721909284591,-0.017624207190307786
1783169412475308800,8.321308837890625,0.08314414715468883,0.07218085459172725,-0.023417554336041212
1783169412485257000,8.331257080078124,0.09274608823657035,0.06034194823801517,-0.012201163794845342
1783169412495206000,8.341205810546874,0.09312836555242537,0.06280921513438224,-0.01950695676356554
1783169412505154800,8.35115478515625,0.08696049057245255,0.06540683041214942,-0.0033211072467267512
1783169412515134000,8.361134033203125,0.08718962315320967,0.065512044352293,0.009046499156206846
1783169412525083000,8.371082763671875,0.060407999211549754,0.0516787493109703,0.0007845745064318179
1783169412535031800,8.38103173828125,0.03472527642250061,0.07164601706266403,-0.009869652107357978
1783169412544979700,8.390979736328125,0.03822363993227482,0.09947393518686294,-0.0007259761869907379
1783169412554960100,8.400960205078125,0.048207858330011365,0.10344342333972453,0.01555661170259118
1783169412564907800,8.41090771484375,-0.03583352992534637,0.08835749788880348,0.02235401675775647
1783169412574857000,8.42085693359375,-0.005275894576311111,0.07944412359297275,0.019652941105514764
1783169412584836000,8.430836181640625,0.016753566402196884,0.09849018484652042,0.03954071388021111
1783169412594785000,8.440784912109375,-0.026049218013882637,0.0917944866001606,0.01584142455991823
1783169412604734000,8.45073388671875,-0.0019359364986419676,0.05806055930256843,-0.019985387930274007
1783169412614683000,8.460682861328126,0.03685995036363601,0.04589841234385967,-0.028591742103546855
1783169412624662000,8.470662109375,0.04676292021870613,0.03880290112495422,0.006040010816603898
1783169412634611000,8.48061083984375,0.028089199408888814,0.014845102432370185,0.06587780892476439
1783169412644558800,8.490558837890624,0.03866144682765007,0.036163200271129604,0.01899740208951989
1783169412654507800,8.5005078125,0.06817980225682259,0.06025953065156936,-0.05739800374060869
1783169412664487000,8.51048681640625,0.018432313269376752,0.04152969574034214,-0.016410890444368123
1783169412674435800,8.520435791015625,0.0073012629240751265,0.028861352825164794,0.051514060268551105
1783169412684384800,8.530384765625,0.028453356546163558,0.03676350425183773,0.028604017063230274
1783169412694364000,8.540364013671875,0.06422142001986503,0.04664952297210693,-0.01673822270259261
1783169412704312800,8.550312744140625,0.06416413687467575,0.06506722319424152,-0.04708060786575079
1783169412714260700,8.5602607421875,0.06347381652295589,0.08488602238595486,-0.028350919084995985
1783169412724210000,8.5702099609375,0.07106032612919808,0.06985445747077465,-0.013679127392917871
1783169412734188800,8.580188720703125,0.09463409394025803,0.06074409929811954,-0.03104658790975809
1783169412744138000,8.590137939453125,0.08165595442354678,0.0808276869058609,-0.04764525601118803
1783169412754087000,8.6000869140625,0.09594342297315597,0.06868599821329116,-0.07482873875200748
1783169412764035800,8.610035888671876,0.14253858540952205,0.062253334817290305,-0.07279591775014996
1783169412774015000,8.620014892578125,0.1472726281940937,0.0706716190725565,-0.05878697388097644
1783169412783964000,8.6299638671875,0.17764204749464987,0.08115385012030601,-0.06162658122107386
1783169412793911800,8.639911865234374,0.1845166094392538,0.076526774841547,-0.05293956302702427
1783169412803892000,8.64989208984375,0.16699030509889126,0.07072422604262829,-0.06438800875842571
1783169412813840000,8.65983984375,0.14379238486289977,0.060413844430446624,-0.06912541254386305
1783169412823788800,8.669788818359375,0.14170096554160116,0.062064534246921536,-0.05871639286279678
1783169412833737700,8.67973779296875,0.11412965252697467,0.0885702638566494,-0.05624357300847768
1783169412843716900,8.689716796875,0.056662382942438125,0.09361819489598273,-0.0707594434864819
1783169412853665800,8.699665771484375,0.038896424627304076,0.1027215388059616,-0.0816398800715804
1783169412863614000,8.709614013671874,0.03558744620978832,0.12454349451363086,-0.05219371309578418
1783169412873563000,8.71956298828125,-0.0112847796022892,0.13467851955890656,-0.02552402509599924
1783169412883541800,8.729541748046875,-0.04438450064957142,0.11992109540998935,-0.022522359061986207
1783169412893490700,8.73949072265625,-0.03073240739405155,0.11902034717798232,-0.002313537782085041
1783169412903440000,8.74943994140625,-0.019058336213231084,0.12629413757324218,0.0166200031504035
1783169412913419000,8.7594189453125,-0.048346390017867086,0.1124947448015213,0.015631430504471064
1783169412923368000,8.769367919921875,-0.02710603359043598,0.0816682293832302,0.013127484859526157
1783169412933316900,8.77931689453125,0.027498832300305365,0.0754465783894062,0.02109013430178165
1783169412943265000,8.78926513671875,0.04114508033692837,0.08128302945792674,0.034613486611098046
1783169412953245000,8.799244873046876,0.08415127837061881,0.06747369981408119,0.030866116776317357
1783169412963192800,8.80919287109375,0.0885176568865776,0.06953238590955733,0.018930472049862146
1783169412973142000,8.81914208984375,0.07346154205203057,0.06071896485686302,0.02521773562580347
1783169412983091000,8.829091064453126,0.12000059038698672,0.0486509259223938,0.019675883589684962
1783169412993069800,8.83906982421875,0.12957096728682518,0.05709434461891651,0.01588511300459504
1783169413003018800,8.849018798828125,0.11151157898306846,0.05412497341930866,0.01644523110538721
1783169413012967000,8.858966796875,0.12426409305036067,0.05815817445814609,0.027120646637678145
1783169413022946800,8.86894677734375,0.11910218024253845,0.07244388944208621,0.018537234948575496
1783169413032895000,8.87889501953125,0.08291793718338013,0.09279460355341435,0.0023640987828373906
1783169413042844000,8.888843994140625,0.055281157717108724,0.09570902969539165,-0.007093758224058546
1783169413052793000,8.89879296875,0.03129764006137848,0.08370587269067764,-0.0006432663396000862
1783169413062771700,8.908771728515624,0.03119944038391113,0.10332418087422847,0.005930850782882771
1783169413072721000,8.918720947265625,0.03771861301958561,0.09824351660907268,-0.016529986779391763
1783169413082670000,8.928670166015625,0.05302198061347008,0.10725158345103263,-0.006960632792860269
1783169413092618000,8.938617919921874,0.08336451190710067,0.09907587577998637,0.01433159995228052
1783169413102598000,8.948597900390626,0.10570318496525287,0.08877718460559844,0.007755582562834024
1783169413112546000,8.958546142578125,0.06506897675991058,0.07559680051505566,-0.005385492430627346
1783169413122519000,8.96851904296875,0.06013327392339706,0.06970598891079426,-0.0031334757201373574
1783169413132468000,8.978468017578125,0.08833645510077476,0.07183189502358436,-0.0018991116195917128
1783169413142447000,8.988447021484374,0.035766309908032416,0.06747369981408119,-0.012425475211656885
1783169413152396000,8.99839599609375,0.012421674677729606,0.03196165692806244,-0.0193899062551558
1783169413162344000,9.008343994140626,0.04036532813608646,0.032872342032194135,-0.018091683138161896
1783169413172323800,9.01832373046875,0.053366848528385157,0.055342532515525816,-0.02016834328174591
1783169413182272000,9.02827197265625,0.05036065244972705,0.05750701707303524,-0.02466024787351489
1783169413192221000,9.038220947265625,0.0485159013658762,0.04441664935350418,-0.0283240310780704
1783169413202170000,9.048170166015625,0.038434067812561985,0.042912674531340594,-0.03335734907016158
1783169413212149200,9.058149169921874,0.06850012025237083,0.047865913024544716,-0.02375482346639037
1783169413222098200,9.06809814453125,0.050478141349554057,0.0572995118021965,-0.004707008647173643
1783169413232047000,9.078047119140624,0.030501521247625347,0.06046177522540092,-0.007786416092514991
1783169413241995000,9.0879951171875,0.043380292043089866,0.06692191115021705,-0.023481997874379157
1783169413251975200,9.09797509765625,0.05208206941485405,0.07799801643788815,-0.029761078143864868
1783169413261923000,9.107923095703125,0.04574351404309272,0.08875380373001097,-0.01799406798258424
1783169413271872000,9.1178720703125,0.05020400058329105,0.08669979380965233,-0.006523410419374704
1783169413281851100,9.12785107421875,0.0587678307890892,0.09451777408421039,0.009695318453758954
1783169413291800000,9.137800048828124,0.02390928337574005,0.09978723891973496,0.00914104557186365
1783169413301749000,9.1477490234375,0.0364028542459011,0.09047580521702765,-0.004994449569715652
1783169413311697000,9.15769677734375,0.08511807757616043,0.11226970387399196,0.007656649949715938
1783169413321677000,9.167677001953125,0.061519175323843954,0.10909224288165568,0.024396482370793816
1783169413331625000,9.177625,0.06209376034140587,0.0895201119273901,0.040447891853004694
1783169413341574000,9.187573974609375,0.10084989971518515,0.08941022181212901,0.03245280144587159
1783169413351522800,9.197522705078125,0.11217091967463493,0.10010989500284194,0.01163023203909397
1783169413361502000,9.207501953125,0.10208499446809291,0.10000643462836742,0.014914368276298046
1783169413371451100,9.217451171875,0.08051438317298888,0.08956862724423408,0.026467881817370652
1783169413381400000,9.227400146484374,0.06562251898944378,0.08406360008716583,0.0384206238090992
1783169413391379200,9.237379150390625,0.04275076196789741,0.08088497005105018,0.01805909604281187
1783169413401328000,9.247328125,0.05154430927634239,0.07625321859717368,-0.002945259671658277
1783169413411276000,9.257276123046875,0.050502106747031206,0.07159983983337878,0.005388412756787147
1783169413421225000,9.267224853515625,0.07775368628799915,0.07660100912153721,0.001889462441834621
1783169413431204000,9.2772041015625,0.10810790801942348,0.08187456561028957,-0.02294599586811382
1783169413441153000,9.287153076171874,0.0922124197512865,0.08283844220638274,-0.035099664976133496
1783169413451102000,9.29710205078125,0.08384908055365085,0.06990706444084643,-0.035439562171697615
1783169413461051000,9.30705078125,0.08155249404907226,0.045913025391101835,-0.05349047490805387
1783169413471030000,9.317030029296875,0.08812836530804634,0.06483166087269783,-0.07299173258319497
1783169413480979000,9.32697900390625,0.0724316144824028,0.07616963196694851,-0.08532485219463705
1783169413490927000,9.336927001953125,0.09804302560091017,0.05356792405843734,-0.07786459931656718
1783169413500906000,9.346906005859376,0.12776713273525236,0.026958149552345274,-0.04717544654235244
1783169413510855000,9.35685498046875,0.11306757625341415,0.013548048359155655,-0.030540245822817086
1783169413520803800,9.366803955078124,0.10888941378593445,0.01822889965176582,-0.015256898103654383
1783169413530753000,9.3767529296875,0.11820377009809016,0.024265841728448867,0.003006926731020212
1783169413540732200,9.386732177734375,0.10317337422668933,0.03321428733766079,-0.0020358897417783735
1783169413550681000,9.39668115234375,0.09053367288410663,0.03767126674652099,-0.007587386389076709
1783169413560629200,9.406629150390625,0.06743044519424438,0.05945522853136062,-0.017771219012141227
1783169413570578200,9.416578125,0.04944587569236755,0.06925766062140465,-0.014772621718049049
1783169413580557000,9.42655712890625,0.017785247537493706,0.07736731731891631,-0.012227613410353659
1783169413590506000,9.436506103515624,-0.004776128360629081,0.08214636828899383,0.0037818566262722013
1783169413600455200,9.446455078125,-0.0324076471298933,0.0784790779531002,0.01170651214569807
1783169413610434000,9.45643408203125,-0.02729424963891506,0.0708715255588293,0.016226473788172005
1783169413620383000,9.466383056640625,-0.0309872589379549,0.07868541418015956,0.0110363577991724
1783169413630332000,9.476331787109375,-0.029610709887742996,0.08935936840772628,0.01010682186409831
1783169413640280000,9.486280029296875,-0.008089782953262329,0.08854454489350318,0.0091596041418612
1783169413650260000,9.496260009765624,0.0009527706801891326,0.08936930527985096,-0.005445990446209907
1783169413660207900,9.506207763671876,0.014741057536005972,0.07824293110966682,0.002452069327235222
1783169413670157000,9.516156982421874,0.023694179320335386,0.07073825456798076,0.011730039151757955
1783169413680106000,9.52610595703125,0.033547464814782144,0.0715595078229904,0.01658215535804629
1783169413690084900,9.5360849609375,0.052125324034690855,0.08731880249083042,0.014969605594873427
1783169413700034000,9.546033935546875,0.06492284628748893,0.0894236658155918,0.0016761165186762808
1783169413709982000,9.55598193359375,0.07837327949106693,0.07622457702457905,0.000805617294460535
1783169413719962000,9.565962158203124,0.10460194572508334,0.0851233382731676,0.008667582841217518
1783169413729910000,9.575909912109376,0.1146907935410738,0.09688801034688949,0.01156271976083517
1783169413739859200,9.585859130859374,0.09416530738472938,0.07039630926251411,0.0015123042590916157
1783169413749808000,9.59580810546875,0.1084685580253601,0.06297112769782542,-0.00477247509881854
1783169413759787000,9.605787109375,0.10481821882426738,0.0618786562860012,0.0058301674582064145
1783169413769736000,9.61573583984375,0.07449088509976863,0.06998772846162318,-0.0076154434397816655
1783169413779685000,9.62568505859375,0.02796703433394432,0.06418985583782195,-0.020873715072125196
1783169413789633000,9.635633056640625,-0.001664133819937706,0.056363107734918594,-0.02474441902562976
1783169413799613000,9.645613037109374,0.02424655250608921,0.07176818213760852,-0.020418957041949033
1783169413809561000,9.65556103515625,0.049072950726747507,0.08138999696373939,-0.013474690861999988
1783169413819510000,9.665510009765624,0.031686931639909745,0.07683014170229434,0.0028643033899366853
1783169413829489000,9.675489013671875,0.021013561934232712,0.0692249273955822,0.017004180162400007
1783169413839438000,9.68543798828125,0.05799158571958542,0.06051847384870052,0.014290245028585195
1783169413849387000,9.695386962890625,0.07267828271985054,0.07515081031322479,0.02022065799087286
1783169413859335000,9.7053349609375,0.0665104077398777,0.07416179927587509,0.018580489568412302
1783169413869315000,9.715315185546874,0.046998482540249825,0.059094578525424,0.01818885533574503
1783169413879263000,9.725262939453126,0.057791679233312604,0.05101882409751415,0.007287672790139913
1783169413889212200,9.735212158203124,0.07463876913785934,0.0696603962033987,0.0011135141998529433
1783169413899161000,9.7451611328125,0.051173722398281093,0.07368950558900833,-0.008696078283339738
1783169413909140200,9.75514013671875,0.05389993249177932,0.07406769125163555,-0.021636370007693768
1783169413919089200,9.765089111328125,0.08514905723631382,0.08187865726351737,-0.012808774299174546
1783169413929038000,9.7750380859375,0.07867781539559364,0.09729542210400104,-0.008343027061969042
1783169413939017000,9.785016845703124,0.059499067673087117,0.12163082193732261,-0.01238280853864271
1783169413948966100,9.794966064453124,0.057977557194232934,0.1134486845254898,-0.004426876531541347
1783169413958914000,9.8049140625,0.05141688350439071,0.10882044020295142,-0.013034984270483255
1783169413968863000,9.814863037109374,0.0701917266011238,0.13148936812877654,-0.011924100419133901
1783169413978842000,9.824842041015625,0.07564590035378932,0.12582652006149292,-0.030874743040767497
1783169413988791000,9.834791015625,0.08739420581459999,0.12673194446861744,-0.025630261949449777
1783169413998740000,9.844739990234375,0.08948270252645016,0.11491817255616188,-0.020981997752189636
1783169414008687900,9.85468798828125,0.07473813785910606,0.09624795887768268,-0.018934271442145108
1783169414018668000,9.86466796875,0.10755319674611091,0.1015109939724207,-0.010669424182921647
1783169414028616000,9.874615966796876,0.10177402882277965,0.12097206576764583,-0.01618950277864933
1783169414038564900,9.88456494140625,0.09496201072037219,0.11497604022324084,-0.006010054069757461
1783169414048544000,9.8945439453125,0.09238017753362655,0.0969920552432537,0.011923808158189058
1783169414058493200,9.9044931640625,0.09565817629098891,0.09977087230682373,0.008037322113662957
1783169414068442000,9.914442138671875,0.10535130278766154,0.10149053570628165,0.0033332315093604846
1783169414078391000,9.92439111328125,0.07736614827513694,0.08680617679357529,-0.017221183913946152
1783169414088370200,9.9343701171875,0.053992286950349806,0.056848260903358455,-0.030772885534912347
1783169414098319000,9.944319091796874,0.059848611763119695,0.05696808789074421,-0.015352910390612668
1783169414108267000,9.95426708984375,0.07190554478168487,0.0854851573228836,-0.032639848450571295
1783169414118234600,9.964234619140624,0.1192997486412525,0.09864859027862548,-0.035448476130515334
1783169414128213800,9.9742138671875,0.08627484639585017,0.09688801034688949,-0.013926964674144983
1783169414138162700,9.98416259765625,0.002269113975763321,0.06441548128724098,0.032226737605035305
1783169414148111600,9.994111572265625,-0.003952537018060684,0.033579613518714906,0.04919365449696779
1783169414158090500,10.004090576171874,0.038922728112339974,0.07610591908097267,0.0009160919316112995
1783169414168039700,10.014039794921874,0.018543372428417203,0.14666589447259903,-0.048241468338668346
1783169414177987600,10.023987548828124,-0.026368951487541196,0.1572849036425352,-0.0491714426651597
1783169414187936500,10.0339365234375,-0.023237667724490166,0.11889350592792033,-0.02607961315214634
1783169414197915600,10.04391552734375,0.0152671272367239,0.1052051723152399,-0.01556464887857437
1783169414207864600,10.053864501953125,0.01817278555035591,0.0930272432655096,0.009527999062836169
1783169414217813800,10.063813720703125,0.013409516671299934,0.06718319243490696,0.03566387244686484
1783169414227762700,10.0737626953125,0.02851590038836002,0.056581718921661375,0.06628580520376563
1783169414237741800,10.083741943359374,0.03571779459118843,0.062435705646872515,0.09334975321814418
1783169414247690800,10.093690673828124,0.06891396175026893,0.09671031569242478,0.0667372022330761
1783169414257638700,10.103638671875,0.08889175089597702,0.1370288820773363,-0.015361385958013124
1783169414267618600,10.11361865234375,0.08859656734168529,0.1261766486734152,-0.0815169843442738
1783169414277566700,10.123566650390625,0.10823942544460297,0.09950725293457507,-0.0829907101586461
1783169414287515600,10.133515625,0.12098258716166019,0.08564882345199584,-0.05723930604755878
1783169414297464600,10.143464599609375,0.14748656320571898,0.059089317828416824,-0.05265738508477807
1783169414307443700,10.153443603515624,0.20990181058645246,0.044811201629042625,-0.032784225357323886
1783169414317392600,10.163392578125,0.17775661378502844,0.07682663457095623,0.0031917817786335945
1783169414327340500,10.173340576171874,0.09476035066843032,0.06432195778489112,0.020489976451545953
1783169414337289500,10.18328955078125,0.053196168136596673,0.025645313388109204,0.0035102000780403613
1783169414347268600,10.1932685546875,0.09176935215890407,0.010997779354453086,-0.049397652636468406
1783169414357217500,10.203217529296875,0.023792378997802732,0.0010182371318340302,-0.045255292134732006
1783169414367166500,10.21316650390625,-0.09900339506566525,0.018261048355698584,0.02046936977164587
1783169414377145600,10.2231455078125,-0.049748073509335515,0.053716977140307424,-0.00914061174702365
1783169414387094500,10.233094482421874,-0.07370762576758862,0.06270575475990772,-0.08929302517324686
1783169414397043700,10.243043701171874,-0.11104980669021605,0.023373276802897452,-0.08916355357468128
1783169414406991600,10.25299169921875,-0.0742921476572752,0.027664251995086667,-0.029132424851506945
1783169414416971800,10.2629716796875,-0.012189619487524032,0.06624737288951874,0.017858751165121794
1783169414426919700,10.272919677734375,0.036522681233286856,0.091415131893754,0.012614708465221338
1783169414436868600,10.28286865234375,0.05302548774480819,0.09837737212181091,-0.006726677906513214
1783169414446817500,10.292817626953125,0.07447101135551928,0.09058511081039905,-0.011684887119068298
1783169414456796700,10.302796630859374,0.07584814492762089,0.1019376949518919,-0.030863340297341346
1783169414466745600,10.31274560546875,0.08806231433451175,0.12043956632614135,-0.05557561061903834
1783169414476694500,10.322694580078124,0.10970482182204723,0.13103987079560755,-0.039515725569427014
1783169414486673700,10.332673583984375,0.09457681079506873,0.12824293355345726,-0.034864392632246013
1783169414496622600,10.34262255859375,0.08653262054920197,0.11203647964000701,-0.03642389703392982
1783169414506570500,10.352570556640625,0.09854279181659222,0.11443243486583232,-0.03356149334013462
1783169414516519400,10.36251953125,0.10434767870306969,0.10348200178444385,-0.02856543861851096
1783169414526498600,10.37249853515625,0.14861761306226254,0.11092764161527156,-0.010033025975525378
1783169414536447500,10.382447509765624,0.12848843274712562,0.13244681498408317,-0.0009355318510206416
1783169414546396700,10.392396728515624,0.06002396833002567,0.10953764856159687,-0.04462313171103596
1783169414556344600,10.402344482421874,0.09764788880348205,0.10230945087373255,-0.039461072772741315
1783169414566324700,10.41232470703125,0.10704057104885578,0.1301192488193512,-0.001880406919121742
1783169414576272600,10.422272705078125,0.07979600577056407,0.13459610197246075,0.038349745963397436
1783169414586221600,10.4322216796875,0.09036766866743565,0.1051227547287941,0.03508811838552356
1783169414596200700,10.44220068359375,0.07544950099885463,0.08346563419401645,0.011143466868880203
1783169414606149600,10.452149658203124,0.0645189416617155,0.06702069534957408,0.00948649344209116
1783169414616098600,10.4620986328125,0.06824293062090873,0.0629419016033411,-0.0007265607088804244
1783169414626047500,10.472047607421874,0.05689502265453338,0.07438391759395599,-0.04308408557549119
1783169414636026600,10.482026611328125,0.055879708132147786,0.05372516044676304,-0.048235043164459056
1783169414645975600,10.4919755859375,0.04492693696320057,0.046537294769287106,-0.05368482843637466
1783169414655923700,10.501923828125,0.02636544435620308,0.040485739645361896,-0.05327537085264921
1783169414665872600,10.51187255859375,0.02391103694140911,0.028469138637185094,-0.03792012694105506
1783169414675851500,10.5218515625,0.06439853015244007,0.05089724354445934,-0.012945990812778472
1783169414685800400,10.531800537109374,0.06316226635575294,0.06920563817322253,-0.0014063596665859221
1783169414695749600,10.54174951171875,0.03868482770323753,0.05822013377845287,-0.014837211386859415
1783169414705728500,10.551728515625,0.05070201323330402,0.04236322395503521,-0.02171192402851302
1783169414715677400,10.561677490234375,0.05921031385958194,0.03382628175616264,-0.019996932237595317
1783169414725625600,10.57162548828125,0.04636719889938831,0.04514204101860523,-0.01612710963350255
1783169414735574800,10.58157470703125,0.048480245530605315,0.04112462207078933,-0.03333426045551896
1783169414745553700,10.5915537109375,0.09123334558606147,0.03698386900424957,-0.04164280072599649
1783169414755502600,10.601502685546874,0.09174012606441974,0.038650925433635706,-0.030388562392443415
1783169414765451800,10.61145166015625,0.06437573379874229,0.03605097206830978,-0.018402356522530316
1783169414775400700,10.621400634765624,0.08494622814059256,0.05065408243834972,-0.02849602664411068
1783169414785379600,10.631379638671875,0.06426818177103996,0.07114040562808513,-0.04250263242572546
1783169414795328500,10.64132861328125,0.055686231386661525,0.0911971052289009,-0.040299861684441565
1783169414805276700,10.651276611328125,0.07465805836021899,0.1165332065373659,-0.007472527837753295
1783169414815256600,10.661256591796874,0.04126432280242443,0.12076806762814521,0.00659136108905077
1783169414825204700,10.671204833984374,0.03687514793276787,0.1104208611369133,0.00818944393545389
1783169414835153700,10.681153564453124,0.052120063337683674,0.08718670054376125,-0.009530921672284602
1783169414845102600,10.6911025390625,0.046366029855608934,0.09938684142529963,0.008607664780947379
1783169414855081500,10.70108154296875,0.05240472549796104,0.08508008365333079,0.034048546204715965
1783169414865030400,10.711030517578125,0.07136310846805573,0.0749105718165636,0.03473433651179075
1783169414874978600,10.720978515625,0.06430676021575928,0.08514379653930663,0.009524638061970472
1783169414884927500,10.730927490234375,0.05462883128821849,0.07654723310768603,-0.002031213566660881
1783169414894906600,10.74090673828125,0.06043371817469596,0.05820493620932102,0.0020941958002746106
1783169414904855800,10.750855712890624,0.0700789138764143,0.06534954726696014,0.010645166524499655
1783169414914804700,10.7608046875,0.012074468675255775,0.08002338478565216,0.009561609071493149
1783169414924783600,10.77078369140625,0.011737784066796302,0.05991115560531616,0.005583791481703519
1783169414934732800,10.78073291015625,0.01758767913877964,0.049556934851408004,0.026628186945617197
1783169414944681700,10.790681640625,-0.008279752567410469,0.056799161064624785,0.018922142612934113
1783169414954629600,10.800629638671875,-0.0226087221711874,0.06274316416084766,0.004604571186006069
1783169414964609500,10.810609619140624,-0.008932078996300696,0.06024608664810657,-0.013334551738947629
1783169414974557700,10.8205576171875,-0.002453238371014595,0.05780687680244445,-0.008783902697265148
1783169414984506600,10.830506591796874,-0.004249474138021469,0.0511427427381277,-0.004118107409891672
1783169414994455600,10.84045556640625,-0.008124854266643524,0.04614449605941772,-0.011933306638896465
1783169415004434700,10.8504345703125,-0.0017687632381916045,0.045702597510814666,-0.04204173691570758
1783169415014383600,10.860383544921875,0.04582768519520759,0.05724105961322784,-0.043151305592805146
1783169415024331500,10.87033154296875,0.06492050819993019,0.08592647134959697,-0.023768413600325583
1783169415034311400,10.8803115234375,0.07421908242106437,0.09394026645720005,-0.020345307283848525
1783169415044259600,10.890259521484374,0.08608429225981235,0.08366554068028927,-0.005408142653852701
1783169415054208500,10.90020849609375,0.09230594325363635,0.08255202648043632,-0.017756167573481797
1783169415064157700,10.91015771484375,0.09972235698997974,0.0861824919372797,-0.04030264272999484
1783169415074136800,10.92013671875,0.10732114155590533,0.09134323570132255,-0.04411795866787433
1783169415084085800,10.930085693359375,0.14236790501773355,0.08925649255514144,-0.028117694851011035
1783169415094034700,10.94003466796875,0.16439268982112407,0.11590835263729095,-0.024661709178239104
1783169415103982600,10.949982666015625,0.10617898578345775,0.14256956506967544,-0.020649258666485548
1783169415113962800,10.959962646484374,0.07239771221280097,0.13327742058932782,-0.026488778474926946
1783169415123933700,10.96993359375,0.10096095887422561,0.16490180838704108,-0.07071107430011034
1783169415133883000,10.9798828125,0.06686404348313808,0.197103119289875,-0.11935513209030031
1783169415143861800,10.98986181640625,0.06674597006142138,0.17118717226684094,-0.10611819550693034
1783169415153810700,10.999810791015625,0.11841945867538452,0.0961859995573759,-0.0570635156558128
1783169415163759600,11.009759521484375,0.14754852252602577,0.059928691262006756,-0.0003558277003467083
1783169415173707800,11.019707763671875,0.16757950316369533,0.041052141356468196,0.00777325978341978
1783169415183687700,11.029687744140626,0.13844634765982627,0.01952010850608349,-0.0036449323736131188
1783169415193635600,11.039635498046875,0.08901391597092151,0.0259200386762619,-0.01950257284939289
1783169415203584800,11.049584716796875,0.03640051615834236,0.050012861925363535,-0.02572115510329604
1783169415213533700,11.05953369140625,0.0005342530071735382,0.07869125939905643,-0.010368692237255162
1783169415223512600,11.0695126953125,-0.021418051081895827,0.09759411278963089,0.02126490634679794
1783169415233461800,11.079461669921875,-0.023035423150658606,0.10672025305330753,0.060749209298077034
1783169415243411000,11.089410888671875,-0.0566460163295269,0.09073182580471038,0.08512143857702613
1783169415253389800,11.099389892578126,-0.057490065938234323,0.06158931795060634,0.06599032938852906
1783169415263338800,11.1093388671875,-0.03019698534309864,0.03383329601883888,0.043782443103194235
1783169415273287000,11.119286865234375,-0.0588853196889162,0.009743979901075362,0.05698181958857458
1783169415283235800,11.12923583984375,-0.04754617955088615,-0.018081600135564802,0.016674071425199506
1783169415293214700,11.139214599609375,0.01896364366710186,-0.010386953979730605,-0.006635492491722106
1783169415303163600,11.14916357421875,0.038650340911746024,0.02655307588279247,-0.012904640455660409
1783169415313112800,11.15911279296875,0.05578676915168762,0.046239188605546946,-0.0020668694019317624
1783169415323061800,11.169061767578125,0.10154606528580189,0.03923427827954292,-0.008009123499062843
1783169415333040600,11.17904052734375,0.0980026935905218,0.02787467987537384,-0.017731476090219803
1783169415342988800,11.18898876953125,0.08670680807232856,0.030286417192220687,-0.01111716795042157
1783169415352937700,11.198937744140625,0.08829846117794513,0.054794835504889484,-0.01717632642548997
1783169415362916600,11.20891650390625,0.07431552853286266,0.10523790554106235,-0.025467184908804483
1783169415372865800,11.21886572265625,0.07730243538916111,0.13475743001401425,-0.04638503138360101
1783169415382814700,11.228814697265625,0.06169920806586742,0.1496995630800724,-0.07338204707503318
1783169415392764000,11.238763916015625,0.030360066950321195,0.13219663961529732,-0.06082520171031355
1783169415402742500,11.248742431640625,0.02985094838440418,0.11442191347181796,-0.05705036847987212
1783169415412691700,11.258691650390626,0.0676823741286993,0.1317833826392889,-0.05738207551911473
1783169415422639900,11.268639892578125,0.12187690565288066,0.15744447811841963,-0.0546666790805757
1783169415432588800,11.2785888671875,0.07798106530308722,0.11847966443002224,-0.034381285290420054
1783169415442568000,11.28856787109375,0.1052922660768032,0.0661444970369339,-0.015615502282977103
1783169415452516900,11.298516845703125,0.20380174014568328,0.09337386474609374,-0.004304126934707164
1783169415462465800,11.3084658203125,0.2248673245280981,0.12271920169591903,0.01895297614261508
1783169415472444700,11.318444580078125,0.15074118108749388,0.09791209269762038,-0.001348355002189055
1783169415482393900,11.328393798828126,0.14925941809713839,0.07328209383189678,-0.033700618683034554
1783169415492342800,11.3383427734375,0.16709084286391734,0.09426526062786579,-0.035795682132989164
1783169415502290700,11.348290771484375,0.16266776572465896,0.10296762252151966,-0.0047279053047299385
1783169415512270600,11.3582705078125,0.13423720553219318,0.0736643711477518,0.03924202319458127
1783169415522218800,11.36821875,0.09187105896770953,0.03180500506162643,0.03374108769074082
1783169415532167700,11.378167724609375,0.06837970874309539,0.003331190249323845,0.01731251545920968
1783169415542116600,11.38811669921875,0.0510907202899456,0.01376782858967781,0.012757920894771813
1783169415552095700,11.398095703125,0.05056231250166893,0.02794306893646717,-0.007107932309061289
1783169415562045000,11.408044921875,0.05959259117543697,0.016076105532050133,-0.022989099790900944
1783169415571992600,11.41799267578125,0.055178281864523886,0.013157587736845016,-0.01024886068329215
1783169415581941800,11.427941650390625,-0.0009714753806591034,-0.00549684385061264,0.02617766669914126
1783169415591921000,11.4379208984375,-0.040842297998070716,-0.03409749991297722,0.040228403883427376
1783169415601869800,11.447869873046875,-0.017042320215702057,-0.023176292926073074,0.030569764178246257
1783169415611818800,11.45781884765625,0.010333762487769127,-0.01478606572151184,0.0072314125582575795
1783169415621798000,11.4677978515625,-0.018974165061116217,-0.026062077495455742,0.015285978067666291
1783169415631746800,11.477746826171876,-0.0018237082958221435,-0.021429156997799872,0.017917641745507716
1783169415641695700,11.48769580078125,0.059526540201902386,0.00689502021074295,0.014155512733012438
1783169415651643600,11.4976435546875,0.018372107514739035,0.0225128605812788,0.004508700462942943
1783169415661623800,11.507623779296875,0.0005126256972551345,0.01790390548110008,0.0058478401122149075
1783169415671571700,11.51757177734375,0.031900866651535034,0.03548457035720348,0.013184758871560915
1783169415681520600,11.527520751953125,-0.013018471527099609,0.05186754988133907,0.026106062767654654
1783169415691469600,11.537469482421875,0.003945522755384445,0.05000000244379043,0.029008798471838234
1783169415701448700,11.54744873046875,0.05640110165774822,0.05735913303494453,0.03163432466983795
1783169415711397600,11.557397705078126,0.06094751291573047,0.07487783859074115,0.03772707945383154
1783169415721345500,11.567345458984375,0.057225277522206304,0.08047697377204895,0.044464278754359106
1783169415731325700,11.57732568359375,0.08740764981806277,0.11086977394819258,0.04573533073663711
1783169415741273600,11.587273681640625,0.11060673909783363,0.12992811016142367,0.03648454117998481
1783169415751222800,11.597222900390625,0.10009469743371009,0.12583470336794852,0.022508768928050992
1783169415761171700,11.607171630859375,0.11858487837016582,0.10913725106716156,0.027445348547399044
1783169415771150800,11.61715087890625,0.13489128552675247,0.09977321039438247,0.04271042995750904
1783169415781099800,11.627099853515626,0.14296937804222107,0.11608429372608661,0.04632116780057549
1783169415791048700,11.637048583984376,0.15642448742091655,0.11221300525069236,0.013972118990123272
1783169415800996900,11.646996826171875,0.14329203412532807,0.1028828668475151,-0.001972176855802536
1783169415810976800,11.656976806640625,0.11338380259573459,0.10052724363207817,-0.006351414853334426
1783169415820924700,11.666924560546875,0.05681202054619789,0.08939093258976936,-0.029255905100703236
1783169415830873600,11.67687353515625,0.07125672548413277,0.10044541056752204,-0.05172010423466563
1783169415840852700,11.686852783203125,0.07212415596842765,0.10322130502164363,-0.05183627796024084
1783169415850801700,11.6968017578125,0.030520810469985008,0.0782832631200552,-0.032411446522176264
1783169415860750600,11.70675048828125,0.053018473482131956,0.030962124496698377,-0.027615736678242683
1783169415870698800,11.71669873046875,0.024945640686154364,0.03555646654963493,-0.043427346055209634
1783169415880678700,11.7266787109375,-0.011259645161032675,0.04306231213510036,-0.061914028993481765
1783169415890626600,11.73662646484375,-0.04988777424097061,0.01884206311404705,-0.06653641896396875
1783169415900575700,11.74657568359375,-0.11182955889105796,0.008731587988138199,-0.0836024123162031
1783169415910525000,11.75652490234375,-0.14242226555347443,-0.013382628664374351,-0.16159955197125672
1783169415920503800,11.76650390625,-0.01963233670890331,0.008070493730902671,-0.275391515242774
1783169415930452700,11.77645263671875,0.10359189189970493,0.08961480447351931,-0.1963343451407738
1783169415940402000,11.78640185546875,0.31140812838375564,0.11636544875502586,0.013968757989257573
1783169415950380800,11.796380859375,0.7571446477144956,0.08312894958555699,0.32527517956420776
1783169415960329700,11.806329833984375,-0.14090952290296554,-0.03369944050610065,0.2245804704107344
1783169415970278000,11.81627783203125,-0.02821487161517143,0.02133154184222221,-0.07267448332756757
1783169415980226800,11.826226806640625,0.15957564492821694,0.11473054102957247,-0.11607245715782046
1783169415990205700,11.836205810546875,-0.002947159367799759,0.1511322262316942,-0.0021903496511280537
1783169416000154600,11.846154541015625,-0.03237316033840179,0.1164893673956394,0.012894552886486053
1783169416010103800,11.856103759765626,0.02034603793621063,0.04431494254469871,-0.08400704759433865
1783169416020051700,11.8660517578125,0.12536240968108175,0.10845277593433857,0.07698474774211644
