time,seconds_elapsed,z,y,x
1783169404290409200,0.1364091796875,0.023787129670381546,-0.018981847912073135,-0.041034456342458725
1783169404300358100,0.146358154296875,0.02363959327340126,0.0027860328555107117,-0.047158125787973404
1783169404310307000,0.15630712890625,0.034637920558452606,0.027306850999593735,-0.04678962752223015
1783169404320286000,0.166285888671875,0.04436592012643814,0.05760510265827179,-0.05089062824845314
1783169404330235000,0.17623486328125,0.03936130553483963,0.07624403387308121,-0.047193627804517746
1783169404340184000,0.18618408203125,0.026571476832032204,0.0671386867761612,-0.034061580896377563
1783169404350163000,0.196162841796875,0.01081363670527935,0.05064591392874718,-0.02261892706155777
1783169404360111900,0.20611181640625,0.0027474556118249893,0.04740351811051369,0.012237588874995708
1783169404370060000,0.21606005859375,0.000304538756608963,0.03244680166244507,0.036549896001815796
1783169404380009000,0.226009033203125,-0.0038923360407352448,0.0074303969740867615,0.06415622681379318
1783169404389987800,0.23598779296875,-0.01022728718817234,-0.001806172076612711,0.08076171576976776
1783169404399937000,0.24593701171875,-0.010984157212078571,0.006629390642046928,0.08744651824235916
1783169404409886000,0.255885986328125,-0.008067375048995018,0.017214849591255188,0.08320900797843933
1783169404419833900,0.265833740234375,-0.002270737662911415,0.02233690768480301,0.06178335100412369
1783169404429814000,0.27581396484375,0.012080853804945946,0.022390995174646378,0.022960834205150604
1783169404439762000,0.285761962890625,0.03537898510694504,0.021224530413746834,-0.0122347017750144
1783169404449711000,0.295711181640625,0.050354473292827606,0.018570957705378532,-0.03983570262789726
1783169404459690000,0.30568994140625,0.04755735397338867,0.01482575386762619,-0.04615192487835884
1783169404469639200,0.31563916015625,0.030360525473952293,0.012545445933938026,-0.0394134595990181
1783169404479588000,0.325588134765625,0.011036628857254982,0.021489406004548073,-0.014007436111569405
1783169404489537000,0.335537109375,-0.0035689398646354675,0.019764073193073273,0.022348221391439438
1783169404499516000,0.345515869140625,-0.010277176275849342,0.002290806733071804,0.04973563551902771
1783169404509465000,0.355465087890625,-0.018976924940943718,-0.011670548468828201,0.06919162720441818
1783169404519413000,0.3654130859375,-0.02458234503865242,-0.009636159986257553,0.0757797583937645
1783169404529362000,0.37536181640625,-0.024704324081540108,0.009865369647741318,0.06810815632343292
1783169404539341000,0.385341064453125,-0.011491850018501282,0.03381837159395218,0.05130680650472641
1783169404549290000,0.3952900390625,0.00269196555018425,0.057081229984760284,0.036339692771434784
1783169404559239000,0.405239013671875,0.00792747363448143,0.059734269976615906,0.0222313329577446
1783169404569218000,0.415218017578125,0.00842389278113842,0.0416136234998703,0.005590396001935005
1783169404579167000,0.4251669921875,0.008804192766547203,0.016806013882160187,-0.007066276855766773
1783169404589115000,0.435114990234375,0.008641025051474571,0.011761732399463654,-0.014089491218328476
1783169404599063800,0.445063720703125,-0.005810350179672241,0.013738863170146942,-0.012045247480273247
1783169404609043000,0.45504296875,-0.019115498289465904,0.00793133769184351,-0.015363100916147232
1783169404618992000,0.4649921875,-0.02462131716310978,-0.0025636472273617983,-0.020623909309506416
1783169404628941000,0.474941162109375,-0.02631305530667305,-0.006428874563425779,-0.03043503314256668
1783169404638890000,0.484889892578125,-0.021395526826381683,0.006373739335685968,-0.04425949975848198
1783169404648869000,0.494869140625,-0.018296048045158386,0.03966180980205536,-0.05841301381587982
1783169404658818000,0.504818115234375,-0.014644854702055454,0.0920826718211174,-0.0663396418094635
1783169404668766000,0.514765869140625,-0.015342352911829948,0.12145595997571945,-0.07344488054513931
1783169404678746000,0.52474609375,-0.028181985020637512,0.09714023023843765,-0.08122237771749496
1783169404688694000,0.534694091796875,-0.04294048994779587,0.051069438457489014,-0.09132619947195053
1783169404698643000,0.544642822265625,-0.06543674319982529,0.013085303828120232,-0.09582694619894028
1783169404708591900,0.554591796875,-0.08792129158973694,-0.011475993320345879,-0.10883400589227676
1783169404718571000,0.564571044921875,-0.10144002735614777,-0.021970979869365692,-0.1205628365278244
1783169404728520000,0.57452001953125,-0.09609488397836685,-0.0002463865093886852,-0.1347072720527649
1783169404738467800,0.5844677734375,-0.07506443560123444,0.030358394607901573,-0.1525467336177826
1783169404748417000,0.5944169921875,-0.048574499785900116,0.059379782527685165,-0.17318208515644073
1783169404758396000,0.60439599609375,-0.02091410756111145,0.074752077460289,-0.18955306708812714
1783169404768344800,0.6143447265625,0.00409332662820816,0.06739408522844315,-0.19325266778469086
1783169404778294000,0.6242939453125,0.016690878197550774,0.039005059748888016,-0.18520325422286987
1783169404788273200,0.634273193359375,0.020043177530169487,-0.0009844889864325523,-0.16831275820732117
1783169404798222000,0.64422216796875,0.01092078723013401,-0.04740738123655319,-0.14757339656352997
1783169404808171000,0.6541708984375,0.0014336295425891876,-0.07134690135717392,-0.12560850381851196
1783169404818119200,0.664119140625,-0.005254101008176804,-0.06841476261615753,-0.1042637974023819
1783169404828099000,0.67409912109375,-0.003536360338330269,-0.058612849563360214,-0.08974774926900864
1783169404838047000,0.684046875,0.005556205287575722,-0.031965795904397964,-0.07893557846546173
1783169404847996000,0.693995849609375,0.01435031183063984,-0.0008536609821021557,-0.06643844395875931
1783169404857945000,0.703945068359375,0.022161098197102547,0.01408667303621769,-0.056259579956531525
1783169404867924000,0.713924072265625,0.025785397738218307,0.014101616106927395,-0.04720439016819
1783169404877873000,0.723872802734375,0.022357642650604248,0.024709783494472504,-0.03862341493368149
1783169404887821000,0.733821044921875,0.014071736484766006,0.02340118959546089,-0.0291895754635334
1783169404897801000,0.743801025390625,-0.0010654032230377197,-0.0015622160863131285,-0.01865411177277565
1783169404907748900,0.753748779296875,-0.019720397889614105,-0.03207714110612869,-0.00694119930267334
1783169404917697800,0.76369775390625,-0.04151730611920357,-0.05743842571973801,0.0011622672900557518
1783169404927647000,0.77364697265625,-0.06198635697364807,-0.06410747766494751,0.004529125988483429
1783169404937625900,0.7836259765625,-0.0741729810833931,-0.038263630121946335,0.008282318711280823
1783169404947575000,0.793574951171875,-0.07747417688369751,-0.0014508881140500307,0.008866354823112488
1783169404957524000,0.80352392578125,-0.06974595040082932,0.033001892268657684,0.0007778024300932884
1783169404967472000,0.81347216796875,-0.057023294270038605,0.04831942915916443,-0.009900769218802452
1783169404977452000,0.8234521484375,-0.04376900941133499,0.05518745630979538,-0.0176516342908144
1783169404987400000,0.83339990234375,-0.03208616375923157,0.0607077032327652,-0.021893352270126343
1783169404997349000,0.84334912109375,-0.019594872370362282,0.0596027597784996,-0.02120412513613701
1783169405007328000,0.853327880859375,-0.0111652547493577,0.04413643851876259,-0.01683581806719303
1783169405017277000,0.86327685546875,-0.011362329125404358,0.022330209612846375,-0.011294044554233551
1783169405027225900,0.873225830078125,-0.019354602321982384,0.002110329456627369,-0.009241118095815182
1783169405037175000,0.883175048828125,-0.023568255826830864,-0.005742001347243786,-0.004402155056595802
1783169405047154000,0.89315380859375,-0.015475228428840637,-0.008647401817142963,-0.003954298794269562
1783169405057102000,0.90310205078125,-0.0005684513598680496,-0.022813821211457253,-0.008960241451859474
1783169405067051000,0.913051025390625,0.01783692091703415,-0.017995867878198624,-0.019828515127301216
1783169405077000000,0.923,0.028334040194749832,0.019598113372921944,-0.02195478416979313
1783169405086978800,0.932978759765625,0.02879546396434307,0.05492018163204193,-0.0170166976749897
1783169405096928000,0.942927978515625,0.023627599701285362,0.0700160413980484,-0.010318049229681492
1783169405106914800,0.952914794921875,0.020785566419363022,0.05276467278599739,-0.010153566487133503
1783169405116862700,0.96286279296875,0.01825236901640892,0.023853395134210587,-0.01404630858451128
1783169405126842600,0.972842529296875,0.01357249729335308,0.005313354544341564,-0.01935363933444023
1783169405136790800,0.982790771484375,0.002791754901409149,0.0022765519097447395,-0.02717640995979309
1783169405146739700,0.99273974609375,-0.013865966349840164,0.014944598078727722,-0.03420863300561905
1783169405156718800,1.00271875,-0.026077624410390854,0.032420262694358826,-0.039797812700271606
1783169405166667800,1.012667724609375,-0.032635390758514404,0.032430630177259445,-0.050865285098552704
1783169405176616700,1.02261669921875,-0.02465789206326008,0.028457991778850555,-0.06234697252511978
1783169405186566000,1.03256591796875,-0.008327491581439972,0.02919231913983822,-0.06808514893054962
1783169405196544800,1.042544677734375,0.0028207674622535706,0.033924490213394165,-0.06424859911203384
1783169405206494000,1.052493896484375,0.005105860531330109,0.029636723920702934,-0.058199718594551086
1783169405216441900,1.06244189453125,0.0014762375503778458,0.008333034813404083,-0.0511934757232666
1783169405226390800,1.072390869140625,0.0022970251739025116,-0.02045120857656002,-0.0528840497136116
1783169405236370000,1.082369873046875,0.0068997666239738464,-0.035207249224185944,-0.05911904573440552
1783169405246318800,1.09231884765625,0.009314989671111107,-0.03315130993723869,-0.06916679441928864
1783169405256267800,1.102267822265625,0.009473444893956184,-0.01385537814348936,-0.07476741820573807
1783169405266247000,1.112246826171875,0.003851870074868202,0.009885831736028194,-0.06973446160554886
1783169405276195800,1.12219580078125,0.0004155915230512619,0.034653495997190475,-0.05844984948635101
1783169405286143700,1.132143798828125,0.0028594881296157837,0.04591701924800873,-0.03289778158068657
1783169405296092700,1.1420927734375,0.005897087976336479,0.03957390412688255,-0.005188655108213425
1783169405306071800,1.15207177734375,0.007911590859293938,0.02824658527970314,0.02971760183572769
1783169405316020700,1.162020751953125,0.002235064283013344,0.008326408453285694,0.05701473727822304
1783169405325969700,1.1719697265625,-0.013459926471114159,-0.020488275215029716,0.06743970513343811
1783169405335918600,1.181918701171875,-0.018742572516202927,-0.03574179485440254,0.07117718458175659
1783169405345897700,1.191897705078125,-0.02086431160569191,-0.027731668204069138,0.07051970064640045
1783169405355847000,1.201846923828125,-0.016846932470798492,-0.009084747172892094,0.06493877619504929
1783169405365794800,1.211794921875,-0.008708307519555092,0.011220652610063553,0.05190478265285492
1783169405375775000,1.22177490234375,0.0017483271658420563,-0.0020988816395401955,0.03794395923614502
1783169405385723000,1.231722900390625,0.005221175029873848,-0.01562769152224064,0.019712386652827263
1783169405395671800,1.241671875,0.0018418896943330765,-0.01683756522834301,0.005646102596074343
1783169405405620700,1.251620849609375,-0.007569203153252602,-0.0015567683149129152,-0.012087767012417316
1783169405415599900,1.261599853515625,-0.012484867125749588,0.012400059029459953,-0.02579186111688614
1783169405425548800,1.271548828125,-0.009735312312841415,0.034104619175195694,-0.027887681499123573
1783169405435496700,1.28149658203125,-0.005094487220048904,0.0395158976316452,-0.021387703716754913
1783169405445446000,1.29144580078125,0.007374867796897888,0.035196702927351,-0.011432087048888206
1783169405455424800,1.3014248046875,0.015526536852121353,0.022228173911571503,-0.004845824092626572
1783169405465373700,1.311373779296875,0.016862740740180016,0.008342400193214417,-0.002242283895611763
1783169405475322600,1.321322509765625,0.013112479820847511,-0.008476261049509048,-0.008659702725708485
1783169405485301800,1.3313017578125,0.013613952323794365,-0.01574883423745632,-0.021094977855682373
1783169405495250700,1.341250732421875,0.016326649114489555,-0.013766110874712467,-0.030569706112146378
1783169405505199600,1.35119970703125,0.021814260631799698,-0.007459147833287716,-0.04258254915475845
1783169405515147800,1.361147705078125,0.02472669631242752,-0.002408995758742094,-0.04310666024684906
1783169405525128000,1.3711279296875,0.023060806095600128,-0.004149249289184809,-0.04044831916689873
1783169405535075600,1.38107568359375,0.021700195968151093,-0.00883667916059494,-0.026591625064611435
1783169405545024800,1.391024658203125,0.02177494391798973,-0.014827503822743893,-0.014878671616315842
1783169405554974000,1.400973876953125,0.023909468203783035,-0.018175363540649414,-0.0008781673386693001
1783169405564952800,1.410952880859375,0.027400413528084755,-0.0174979567527771,0.01116599515080452
1783169405574901800,1.42090185546875,0.024141235277056694,-0.014561820775270462,0.02097494900226593
1783169405584850000,1.430849853515625,0.018174437806010246,-0.00972205400466919,0.02609133906662464
1783169405594829800,1.440829833984375,0.008422208949923515,-0.007840264588594437,0.0287233404815197
1783169405604777700,1.45077783203125,-0.005968004465103149,-0.005742805544286966,0.03072401136159897
1783169405614726700,1.4607265625,-0.0145420515909791,-0.002751276595517993,0.03396587818861008
1783169405624675800,1.47067578125,-0.012253779917955399,-0.0034427326172590256,0.038561102002859116
1783169405634654700,1.48065478515625,-0.004009697586297989,-0.007038000039756298,0.041191503405570984
1783169405644603600,1.490603759765625,0.005234392359852791,-0.015231101773679256,0.043461889028549194
1783169405654552600,1.500552490234375,0.022696208208799362,-0.023329241201281548,0.043470144271850586
1783169405664500700,1.510500732421875,0.04334193468093872,-0.020126977935433388,0.04883010312914848
1783169405674480600,1.520480712890625,0.05434398353099823,-0.008298015221953392,0.05745954439043999
1783169405684428800,1.5304287109375,0.05431181192398071,-0.00148364482447505,0.07453085482120514
1783169405694378000,1.5403779296875,0.038503289222717285,-0.003751326585188508,0.09326300024986267
1783169405704356600,1.550356689453125,0.013412706553936005,-0.0055436803959310055,0.10878085345029831
1783169405714305800,1.560305908203125,-0.00712958537042141,-0.00644516060128808,0.11846357583999634
1783169405724254700,1.570254638671875,-0.018293824046850204,0.005720019340515137,0.12829308211803436
1783169405734203000,1.580202880859375,-0.019359886646270752,0.02715899795293808,0.12861478328704834
1783169405744182800,1.590182861328125,-0.017211779952049255,0.03491918370127678,0.12144023180007935
1783169405754131000,1.600130859375,-0.0073365140706300735,0.02427559345960617,0.11495383083820343
1783169405764079900,1.610079833984375,0.007504455745220184,0.0008710464462637901,0.09602198004722595
1783169405774028800,1.62002880859375,0.02488051727414131,-0.01088867336511612,0.08090667426586151
1783169405784007700,1.630007568359375,0.03088943101465702,-0.011324623599648476,0.06790221482515335
1783169405793956900,1.639956787109375,0.023490900173783302,0.000700613483786583,0.052032966166734695
1783169405803905800,1.64990576171875,0.013834105804562569,0.011685135774314404,0.032756906002759933
1783169405813884700,1.659884765625,0.010675331577658653,0.019165154546499252,0.009819898754358292
1783169405823833600,1.66983349609375,0.013599218800663948,0.017749298363924026,-0.010918445885181427
1783169405833781800,1.67978173828125,0.01974313147366047,0.01566777192056179,-0.024275798350572586
1783169405843730700,1.689730712890625,0.03373599797487259,0.018650293350219727,-0.024203462526202202
1783169405853709800,1.699709716796875,0.0444624125957489,0.025646153837442398,-0.014013942331075668
1783169405863658800,1.70965869140625,0.061998337507247925,0.022580193355679512,-0.0014752261340618134
1783169405873608000,1.71960791015625,0.07573598623275757,0.0018954211845993996,0.011384646408259869
1783169405883556900,1.729556884765625,0.08405722677707672,-0.02163228951394558,0.02087537571787834
1783169405893535700,1.73953564453125,0.08021854609251022,-0.03204311802983284,0.016636420041322708
1783169405903484000,1.74948388671875,0.0734630599617958,-0.04549660533666611,0.0016252011992037296
1783169405913432800,1.759432861328125,0.05999118834733963,-0.03371051698923111,-0.008945416659116745
1783169405923412000,1.769411865234375,0.04195147007703781,-0.013725889846682549,-0.013772662729024887
1783169405933361000,1.77936083984375,0.024406298995018005,-0.001165623776614666,-0.012925777584314346
1783169405943309800,1.789309814453125,0.01439717411994934,0.006444311700761318,-0.011561312712728977
1783169405953258800,1.7992587890625,0.01933920383453369,0.006401168182492256,-0.00026764627546072006
1783169405963238000,1.80923779296875,0.03029288537800312,-0.006196827627718449,0.0055916570127010345
1783169405973186800,1.819186767578125,0.046685174107551575,-0.013912538066506386,0.019334368407726288
1783169405983134700,1.829134765625,0.05495515465736389,-0.022789886221289635,0.037958089262247086
1783169405993083600,1.839083740234375,0.05231889337301254,-0.03719598799943924,0.04158025234937668
1783169406003062800,1.849062744140625,0.03537454828619957,-0.04224652051925659,0.04089543968439102
1783169406013011700,1.85901171875,0.011593852192163467,-0.024928249418735504,0.03293072059750557
1783169406022961000,1.8689609375,-0.013639329001307487,-0.02032046765089035,0.015242626890540123
1783169406032909800,1.878909912109375,-0.029928553849458694,-0.021725818514823914,-0.00424079317599535
1783169406042889000,1.888888916015625,-0.038474906235933304,-0.03368658572435379,-0.02730039693415165
1783169406052838000,1.898837890625,-0.040105558931827545,-0.022699449211359024,-0.04307562857866287
1783169406062785800,1.908785888671875,-0.029390597715973854,0.01149900071322918,-0.048903688788414
1783169406072765000,1.918764892578125,-0.004557952284812927,0.03456836938858032,-0.046820834279060364
1783169406082713900,1.9287138671875,0.014952365309000015,0.03471404314041138,-0.035212382674217224
1783169406092662800,1.938662841796875,0.03241604566574097,0.0207124724984169,-0.021969811990857124
1783169406102611700,1.94861181640625,0.03869827091693878,0.002506069839000702,-0.0004919655621051788
1783169406112610300,1.9586103515625,0.030540471896529198,-0.015120594762265682,0.018318738788366318
1783169406122559200,1.968559326171875,0.012244809418916702,-0.02702709659934044,0.03385703265666962
1783169406132507400,1.97850732421875,0.001122117042541504,-0.018811509013175964,0.05267892777919769
1783169406142456300,1.988456298828125,-0.002603011205792427,-0.011980414390563965,0.06169487163424492
1783169406152435200,1.998435302734375,0.004405897110700607,-0.01153433509171009,0.0654725655913353
1783169406162384400,2.00838427734375,0.019222304224967957,-0.019318392500281334,0.05748447775840759
1783169406172333600,2.01833349609375,0.037446580827236176,-0.022880371659994125,0.0366005003452301
1783169406182312200,2.028312255859375,0.051074594259262085,-0.020897889509797096,0.022833269089460373
1783169406192261400,2.038261474609375,0.05811145901679993,0.009982528164982796,0.0034646322019398212
1783169406202210300,2.048210205078125,0.05910028517246246,0.03518759831786156,-0.019654229283332825
1783169406212158500,2.058158447265625,0.06810150295495987,0.02810518816113472,-0.04431323707103729
1783169406222138400,2.068138427734375,0.08830390125513077,-0.005608735140413046,-0.07613448053598404
1783169406232086500,2.07808642578125,0.1134910136461258,-0.04944649338722229,-0.0948205515742302
1783169406242035500,2.088035400390625,0.12124577909708023,-0.06819330155849457,-0.104684978723526
1783169406251984400,2.097984375,0.11085998266935349,-0.07643178850412369,-0.09355056285858154
1783169406261963300,2.10796337890625,0.0846930742263794,-0.06218290701508522,-0.07602725178003311
1783169406271912400,2.117912353515625,0.05518285185098648,-0.034823186695575714,-0.05698937922716141
1783169406281860400,2.1278603515625,0.03592520207166672,-0.028511175885796547,-0.047776319086551666
1783169406291840300,2.13784033203125,0.02035077102482319,-0.04270928353071213,-0.0513385608792305
1783169406301788400,2.147788330078125,0.01062571071088314,-0.05593189224600792,-0.06733182072639465
1783169406311737300,2.1577373046875,-0.004352174699306488,-0.05732286348938942,-0.08299121260643005
1783169406321686300,2.167686279296875,-0.01171155460178852,-0.05379536375403404,-0.1021052896976471
1783169406331665200,2.1776650390625,-0.008844662457704544,-0.052743151783943176,-0.11702165007591248
1783169406341614600,2.187614501953125,0.01184968650341034,-0.04057187959551811,-0.11770755797624588
1783169406351563500,2.1975634765625,0.02929658442735672,-0.008777197450399399,-0.09647977352142334
1783169406361511400,2.207511474609375,0.028372913599014282,0.025667008012533188,-0.06564958393573761
1783169406371491300,2.2174912109375,0.012419510632753372,0.0576784722507,-0.03971145674586296
1783169406381439500,2.227439453125,-0.006152484565973282,0.03140164911746979,-0.023786388337612152
1783169406391388400,2.237388427734375,-0.018764950335025787,-0.005471414886415005,-0.010500677861273289
1783169406401367600,2.247367431640625,-0.03383416682481766,-0.012068425305187702,-0.005674091167747974
1783169406411316500,2.25731640625,-0.04539734870195389,-0.008699792437255383,-0.0034857718273997307
1783169406421265400,2.267265380859375,-0.04110381007194519,0.004389471374452114,-0.009454322047531605
1783169406431213300,2.27721337890625,-0.02714644931256771,0.020561516284942627,-0.024716366082429886
1783169406441193200,2.287193115234375,-0.012627504765987396,0.023646119982004166,-0.04836419224739075
1783169406451141400,2.297141357421875,0.008033297955989838,0.01674719899892807,-0.0646025538444519
1783169406461090300,2.30709033203125,0.031644172966480255,0.02114650048315525,-0.06672191619873047
1783169406471039200,2.317039306640625,0.05908671021461487,0.020077507942914963,-0.050619907677173615
1783169406481018400,2.327018310546875,0.07892032712697983,0.006594672799110413,-0.029182184487581253
1783169406490967300,2.33696728515625,0.08571484684944153,-0.02458401955664158,-0.00177665613591671
1783169406500916500,2.34691650390625,0.07818689942359924,-0.05695229768753052,0.0308174267411232
1783169406510895400,2.356895263671875,0.0585322380065918,-0.08690407127141953,0.06914111226797104
1783169406520844500,2.366844482421875,0.027707912027835846,-0.09277324378490448,0.10395972430706024
1783169406530792400,2.37679248046875,-0.009317483752965927,-0.09232529997825623,0.12380719929933548
1783169406540741400,2.386741455078125,-0.04479103535413742,-0.07523172348737717,0.11880162358283997
1783169406550720500,2.396720458984375,-0.0619998499751091,-0.03281049802899361,0.10550232976675034
1783169406560669400,2.40666943359375,-0.06058048456907272,0.015784231945872307,0.0791950523853302
1783169406570618400,2.416618408203125,-0.04197857528924942,0.03855852037668228,0.04147883504629135
1783169406580566500,2.42656640625,-0.0107829999178648,0.044636745005846024,0.004249526187777519
1783169406590546400,2.43654638671875,0.023294275626540184,0.03846193850040436,-0.010471628978848457
1783169406600494300,2.446494384765625,0.04437124356627464,0.026775425300002098,-0.0036240946501493454
1783169406610443300,2.456443359375,0.04674145206809044,-0.0027880591806024313,0.015455590561032295
1783169406620422400,2.46642236328125,0.03576664626598358,-0.044564008712768555,0.031450867652893066
1783169406630371300,2.476371337890625,0.02083829790353775,-0.07345984131097794,0.04791107028722763
1783169406640320300,2.4863203125,0.00043458491563796997,-0.07427322864532471,0.05616086721420288
1783169406650269200,2.496269287109375,-0.019887730479240417,-0.04721791297197342,0.054982684552669525
1783169406660248300,2.506248291015625,-0.041788943111896515,-0.025105901062488556,0.04867355525493622
1783169406670197200,2.516197265625,-0.05018828809261322,-0.007606004364788532,0.03446239233016968
1783169406680145200,2.526145263671875,-0.044021300971508026,0.006759950891137123,0.019171463325619698
1783169406690094600,2.536094482421875,-0.022912023589015007,0.01011659950017929,0.002499009482562542
1783169406700073500,2.546073486328125,0.007569102570414543,0.011343350633978844,-0.010163724422454834
1783169406710022400,2.5560224609375,0.02867092750966549,0.0082849757745862,-0.01633000746369362
1783169406719971300,2.565971435546875,0.0306821521371603,-0.005757452920079231,-0.021639328449964523
1783169406729950500,2.575950439453125,0.017384188249707222,-0.026795625686645508,-0.024824470281600952
1783169406739899400,2.5858994140625,-0.004674240946769714,-0.023315265774726868,-0.020791953429579735
1783169406749847300,2.595847412109375,-0.02690844051539898,-0.018122900277376175,-0.013471722602844238
1783169406759796500,2.60579638671875,-0.04125392064452171,-0.010201671160757542,-0.013358619064092636
1783169406769775400,2.615775390625,-0.03371477872133255,-0.004093711264431477,-0.01548195630311966
1783169406779724300,2.625724365234375,-0.017766430974006653,0.002000038046389818,-0.023658255115151405
1783169406789673200,2.635673095703125,0.0018773097544908524,0.006005432456731796,-0.036588169634342194
1783169406799622400,2.645622314453125,0.018717942759394646,0.021970363333821297,-0.04770918935537338
1783169406809601300,2.655601318359375,0.030622007325291634,0.03594503551721573,-0.051391541957855225
1783169406819550200,2.66555029296875,0.036098308861255646,0.03587392717599869,-0.05293796584010124
1783169406829498400,2.675498291015625,0.03409720957279205,0.013755042105913162,-0.043215297162532806
1783169406839478300,2.685478271484375,0.028790052980184555,0.0022184625267982483,-0.02937423437833786
1783169406849426200,2.69542626953125,0.016041766852140427,-0.017641793936491013,-0.007905694656074047
1783169406859375400,2.705375244140625,0.007435368373990059,-0.0327608548104763,0.014961479231715202
1783169406869324500,2.715324462890625,0.0015652291476726532,-0.031092382967472076,0.025340616703033447
1783169406879303400,2.725303466796875,-0.0074440427124500275,-0.01307341642677784,0.03333466127514839
1783169406889252400,2.73525244140625,-0.013492880389094353,0.0071575534529984,0.031172441318631172
1783169406899201300,2.745201171875,-0.010603249073028564,0.019379816949367523,0.02359614148736
1783169406909149400,2.7551494140625,0.0032254811376333237,0.03085111826658249,0.015577362850308418
1783169406919128300,2.76512841796875,0.018732106313109398,0.029305506497621536,0.017029400914907455
1783169406929077500,2.775077392578125,0.026913335546851158,0.02336772158741951,0.026010911911725998
1783169406939026400,2.7850263671875,0.024683160707354546,0.008549096062779427,0.04265984892845154
1783169406948975400,2.794975341796875,0.015389258041977882,-0.007599779404699802,0.059722721576690674
1783169406958954200,2.804954345703125,0.006138956174254417,-0.01828879304230213,0.06433139741420746
1783169406968903400,2.8149033203125,-0.0015567801892757416,-0.02177780121564865,0.06065809354186058
1783169406978851300,2.824851318359375,-0.006562644615769386,-0.018852965906262398,0.042723238468170166
1783169406988831200,2.834831298828125,-0.00526009313762188,-0.008079947903752327,0.015384554862976074
1783169406998779400,2.844779296875,-0.0010219234973192215,-0.0006966949440538883,-0.01405485812574625
1783169407008728300,2.854728271484375,0.0027690865099430084,-0.002927358727902174,-0.04132456332445145
1783169407018677500,2.864677490234375,0.013122770935297012,-0.0008310726843774319,-0.06291472166776657
1783169407028656400,2.874656494140625,0.02724071964621544,0.005625228397548199,-0.07159236073493958
1783169407038605600,2.88460546875,0.03993484377861023,0.00623879861086607,-0.06545421481132507
1783169407048554500,2.894554443359375,0.0438385084271431,0.007395942695438862,-0.05161110311746597
1783169407058502400,2.90450244140625,0.04058261960744858,0.0002273768186569214,-0.026775319129228592
1783169407068482300,2.914482421875,0.038818538188934326,0.0009213965386152267,-0.003410075791180134
1783169407078430500,2.924430419921875,0.03310491889715195,-0.003666558302938938,0.017745791003108025
1783169407088379400,2.93437939453125,0.02355349250137806,-0.007487928494811058,0.03733839839696884
1783169407098358300,2.944358154296875,0.01652875915169716,-0.006620252504944801,0.04841364547610283
1783169407108319700,2.95431982421875,0.016983363777399063,0.005504853557795286,0.049348413944244385
1783169407118268700,2.9642685546875,0.025068018585443497,0.01203673891723156,0.04716474935412407
1783169407128216800,2.974216796875,0.03658485785126686,0.01902860216796398,0.03516827151179314
1783169407138196700,2.98419677734375,0.03844612091779709,0.03083726018667221,0.026932522654533386
1783169407148144600,2.99414453125,0.04129917174577713,0.03193448483943939,0.019399236887693405
1783169407158093600,3.004093505859375,0.04175787419080734,0.028590308502316475,0.01430314127355814
1783169407168042800,3.014042724609375,0.03902307152748108,0.010516233742237091,0.013967050239443779
1783169407178021600,3.024021728515625,0.029469577595591545,-0.002784667769446969,0.017645379528403282
1783169407187970600,3.033970458984375,0.012363029643893242,-0.019631026312708855,0.020902957767248154
1783169407197919700,3.043919677734375,0.004006203263998032,-0.019181543961167336,0.027291184291243553
1783169407207899000,3.05389892578125,0.004183303564786911,-0.0040361471474170685,0.029752209782600403
1783169407217847800,3.063847900390625,0.006566604599356651,0.012975969351828098,0.033192332834005356
1783169407227795700,3.073795654296875,0.008282748982310295,0.023865636438131332,0.030957141891121864
1783169407237745000,3.083744873046875,0.008703777566552162,0.041113026440143585,0.029285553842782974
1783169407247723800,3.093723876953125,0.008143184706568718,0.048626601696014404,0.024606112390756607
1783169407257672700,3.103672607421875,0.010407298803329468,0.044646818190813065,0.020773429423570633
1783169407267621600,3.11362158203125,0.015109110623598099,0.02300756797194481,0.010714136995375156
1783169407277569800,3.12356982421875,0.021498583257198334,-0.0020383340306580067,0.002975715324282646
1783169407287549700,3.1335498046875,0.02112600952386856,-0.010729294270277023,-0.006939233280718327
1783169407297497900,3.143497802734375,0.021487006917595863,-0.019997121766209602,-0.015111200511455536
1783169407307446800,3.15344677734375,0.02315281517803669,-0.015181327238678932,-0.021013032644987106
1783169407317425700,3.16342578125,0.025872910395264626,-0.0024224682711064816,-0.021331552416086197
1783169407327374600,3.17337451171875,0.022308269515633583,0.01520100049674511,-0.012707437388598919
1783169407337323800,3.18332373046875,0.020308852195739746,0.03092845529317856,-0.0018865447491407394
1783169407347272700,3.193272705078125,0.02213551476597786,0.030611537396907806,0.00936504453420639
1783169407357251600,3.20325146484375,0.019968591630458832,0.01006770133972168,0.012082433328032494
1783169407367200800,3.21320068359375,0.0157456174492836,-0.0018329005688428879,0.00981022510677576
1783169407377148700,3.223148681640625,0.0052300188690423965,0.0020236694253981113,0.005484054796397686
1783169407387097900,3.233097900390625,-0.006376836448907852,0.0034689665772020817,0.003405457828193903
1783169407397076700,3.24307666015625,-0.008885001763701439,0.0003440137952566147,0.001018999144434929
1783169407407026000,3.25302587890625,-0.007396293804049492,-0.01606132462620735,-0.00553450733423233
1783169407416974800,3.262974853515625,0.0009695179760456085,-0.029946718364953995,-0.013955228962004185
1783169407426953700,3.27295361328125,0.009058069437742233,-0.029294509440660477,-0.019171830266714096
1783169407436902700,3.282902587890625,0.01666424050927162,-0.02285914309322834,-0.024373184889554977
1783169407446850800,3.292850830078125,0.019321277737617493,-0.018083296716213226,-0.030607379972934723
1783169407456799700,3.3027998046875,0.02261098101735115,-0.013674380257725716,-0.044416263699531555
1783169407466779000,3.31277880859375,0.024515140801668167,-0.006411407142877579,-0.050490666180849075
1783169407476727800,3.322727783203125,0.0166185200214386,-0.0010759229771792889,-0.053215015679597855
1783169407486676700,3.3326767578125,0.0016811136156320572,-0.0015984349884092808,-0.04824289306998253
1783169407496625700,3.342625732421875,-0.017293013632297516,-0.012293748557567596,-0.04036194458603859
1783169407506604500,3.3526044921875,-0.033536430448293686,-0.005296026356518269,-0.02719181403517723
1783169407516553700,3.3625537109375,-0.046449340879917145,0.007013251539319754,-0.00894421897828579
1783169407526501600,3.372501708984375,-0.04460803046822548,0.025377079844474792,0.008210532367229462
1783169407536481800,3.382481689453125,-0.0375308133661747,0.0382901169359684,0.028661230579018593
1783169407546429700,3.3924296875,-0.02441820688545704,0.0369739830493927,0.030285758897662163
1783169407556379000,3.40237890625,-0.012546648271381855,0.025092512369155884,0.030314598232507706
1783169407566327800,3.412327880859375,0.0006565041840076447,0.021205363795161247,0.018703747540712357
1783169407576307000,3.422306884765625,0.01743376813828945,0.024242306128144264,0.006028604228049517
1783169407586256000,3.432255859375,0.03332911431789398,0.029766499996185303,-0.011804720386862755
1783169407596203800,3.442203857421875,0.04150913655757904,0.031142838299274445,-0.02884143963456154
1783169407606152700,3.452152587890625,0.04193151742219925,0.05433950573205948,-0.04267735779285431
1783169407616131800,3.4621318359375,0.03838219493627548,0.06633809208869934,-0.05871950089931488
1783169407626080800,3.472080810546875,0.026827001944184303,0.052717890590429306,-0.0760103389620781
1783169407636029700,3.48202978515625,0.008446864783763885,0.035956237465143204,-0.10236708074808121
1783169407646008800,3.4920087890625,-0.009674081578850746,0.036913108080625534,-0.12617893517017365
1783169407655957800,3.501957763671875,-0.02251877263188362,0.028016019612550735,-0.1450362503528595
1783169407665906700,3.51190673828125,-0.019220981746912003,0.014187557622790337,-0.15312054753303528
1783169407675854600,3.5218544921875,0.0017882436513900757,0.0006894804537296295,-0.15349583327770233
1783169407685834800,3.531834716796875,0.03314856439828873,-0.011574110016226768,-0.15579627454280853
1783169407695782700,3.54178271484375,0.06106030195951462,-0.03757455572485924,-0.15970171988010406
1783169407705731600,3.551731689453125,0.08201777935028076,-0.03167325630784035,-0.1548217386007309
1783169407715680800,3.5616806640625,0.0799156203866005,0.027705537155270576,-0.12246794998645782
1783169407725660000,3.571659912109375,0.059143759310245514,0.09411119669675827,-0.07295259088277817
1783169407735608800,3.58160888671875,0.030530162155628204,0.11527497321367264,-0.01932559534907341
1783169407745556700,3.591556640625,0.013084858655929565,0.08301051706075668,0.030360467731952667
1783169407755537000,3.601536865234375,0.00646430067718029,0.027404865249991417,0.059606246650218964
1783169407765484800,3.61148486328125,0.01086197979748249,-0.025506818667054176,0.07601451873779297
1783169407775433700,3.621433837890625,0.013181891292333603,-0.05954898148775101,0.07420238852500916
1783169407785382700,3.631382568359375,0.015948381274938583,-0.06913263350725174,0.059750746935606
1783169407795361800,3.64136181640625,0.02009642869234085,-0.059895507991313934,0.03581222519278526
1783169407805310700,3.651310791015625,0.01786762848496437,-0.036365680396556854,0.011294897645711899
1783169407815259600,3.661259765625,0.009626474231481552,0.005158429965376854,-0.01059331838041544
1783169407825207800,3.671207763671875,-0.0003611799329519272,0.026337485760450363,-0.023600731045007706
1783169407835187700,3.681187744140625,-0.011572209186851978,0.05162328854203224,-0.03206910938024521
1783169407845135600,3.691135498046875,-0.01360233686864376,0.09555266052484512,-0.03665214776992798
1783169407855084500,3.70108447265625,-0.005478896200656891,0.12571482360363007,-0.02394806779921055
1783169407865063700,3.711063720703125,-0.0001997128129005432,0.1257917881011963,0.006749389693140984
1783169407875012600,3.7210126953125,-0.0002033468335866928,0.08963704109191895,0.043034058064222336
1783169407884961800,3.7309619140625,-0.006379485130310059,0.02660028263926506,0.08847504109144211
1783169407894910700,3.74091064453125,-0.011365815065801144,-0.02183499187231064,0.1173878014087677
1783169407904889900,3.750889892578125,-0.015006888657808304,-0.05483688414096832,0.11815532296895981
1783169407914838800,3.7608388671875,-0.0014407280832529068,-0.058762550354003906,0.08690353482961655
1783169407924786700,3.77078662109375,0.016453053802251816,-0.04784199222922325,0.03721720725297928
1783169407934736000,3.78073583984375,0.02892838418483734,-0.03423713147640228,-0.012173434719443321
1783169407944714800,3.79071484375,0.01798146218061447,-0.009904096834361553,-0.047466978430747986
1783169407954663700,3.80066357421875,-0.005183486267924309,0.02437060885131359,-0.06492216885089874
1783169407964612600,3.810612548828125,-0.030242234468460083,0.05488164722919464,-0.05802804231643677
1783169407974591700,3.820591796875,-0.044865623116493225,0.06125276908278465,-0.039991796016693115
1783169407984540700,3.830540771484375,-0.050692085176706314,0.06457240134477615,-0.024292729794979095
1783169407994488800,3.84048876953125,-0.05279509350657463,0.02830209955573082,-0.01610765978693962
1783169408004437800,3.850437744140625,-0.04546287655830383,-0.029028035700321198,-0.00043815188109874725
1783169408014416600,3.860416748046875,-0.031092189252376556,-0.03963710740208626,0.025358520448207855
1783169408024365600,3.870365478515625,-0.02166672982275486,-0.03285882994532585,0.04760710150003433
1783169408034314800,3.880314697265625,-0.011865531094372272,-0.016721107065677643,0.06686212867498398
1783169408044264000,3.890263916015625,-0.004273124039173126,0.009661765769124031,0.07585402578115463
1783169408054242800,3.900242919921875,-0.002952262759208679,0.009066564962267876,0.06937671452760696
1783169408064191700,3.910191650390625,-0.006218895316123962,-0.018683040514588356,0.04975854232907295
1783169408074140000,3.920139892578125,-0.010387808084487915,-0.021275095641613007,0.018408074975013733
1783169408084119800,3.930119873046875,-0.006758451461791992,-0.012996392324566841,-0.014160786755383015
1783169408094067700,3.940067626953125,-0.0020058564841747284,0.004295888356864452,-0.042493563145399094
1783169408104017000,3.950016845703125,0.0027859676629304886,0.025565490126609802,-0.0597258135676384
1783169408113994200,3.959994140625,0.012082539498806,0.03087971732020378,-0.06990711390972137
1783169408123973400,3.969973388671875,0.02579648792743683,0.034632910043001175,-0.07565954327583313
1783169408133922300,3.97992236328125,0.03381418064236641,0.02309444174170494,-0.06726731359958649
1783169408143870500,3.989870361328125,0.03957619518041611,-0.013731483370065689,-0.05742054432630539
1783169408153819400,3.9998193359375,0.038106516003608704,-0.03630395978689194,-0.04390054568648338
1783169408163798300,4.00979833984375,0.026281284168362617,-0.030039405450224876,-0.03300528600811958
1783169408173747200,4.019747314453125,0.0070023685693740845,-0.03143855184316635,-0.025472242385149002
1783169408183696400,4.0296962890625,-0.012053079903125763,-0.021780598908662796,-0.021267376840114594
1783169408193645600,4.0396455078125,-0.02414066530764103,-0.002998164389282465,-0.02801421657204628
1783169408203624200,4.049624267578125,-0.024161173030734062,0.006277625914663076,-0.030822519212961197
1783169408213573400,4.059573486328125,-0.012318959459662437,0.025101931765675545,-0.027916977182030678
1783169408223521500,4.069521484375,-0.0068538859486579895,0.039779677987098694,-0.02517552115023136
1783169408233501400,4.07950146484375,-0.0005354918539524078,0.0290240366011858,-0.017553556710481644
1783169408243449300,4.089449462890625,0.005202556028962135,0.0067541515454649925,-0.002522142603993416
1783169408253398500,4.0993984375,0.009314475581049919,-0.02181197889149189,0.018163427710533142
1783169408263347500,4.109347412109375,0.012888969853520393,-0.042716458439826965,0.0323420986533165
1783169408273326300,4.119326416015625,0.01231653243303299,-0.053034570068120956,0.035916659981012344
1783169408283275300,4.129275146484375,0.01664257049560547,-0.04121572524309158,0.032918740063905716
1783169408293223400,4.139223388671875,0.018018800765275955,-0.017597535625100136,0.02489553391933441
1783169408303172400,4.14917236328125,0.012509785592556,0.00008452171459794044,0.014009064994752407
1783169408313151200,4.159151123046875,0.002352152019739151,0.031555451452732086,-0.0012547159567475319
1783169408323100400,4.169100341796875,-0.005153967067599297,0.0279825571924448,-0.013358516618609428
1783169408333049300,4.17904931640625,-0.009587543085217476,0.01614747755229473,-0.021169127896428108
1783169408343028200,4.1890283203125,-0.004532862454652786,0.020802682265639305,-0.017188234254717827
1783169408352977200,4.19897705078125,-0.005361311137676239,0.020486272871494293,-0.01574324071407318
1783169408362926600,4.208926513671875,-0.00020063668489456177,0.010843764990568161,-0.004076463170349598
1783169408372874200,4.218874267578125,0.007779983803629875,0.013441795483231544,0.010850357823073864
1783169408382854400,4.2288544921875,0.01912558265030384,0.011152541264891624,0.028319096192717552
1783169408392802600,4.238802490234375,0.02266172505915165,0.006501864176243544,0.03902740031480789
1783169408402751500,4.24875146484375,0.01905953325331211,0.003513264935463667,0.04564029723405838
1783169408412700400,4.258700439453125,0.014056064188480377,-0.011014395393431187,0.03607015684247017
1783169408422679600,4.268679443359375,0.008552372455596924,-0.0320429801940918,0.011878801509737968
1783169408432628500,4.27862841796875,0.0010041147470474243,-0.04558326303958893,-0.021936118602752686
1783169408442576400,4.288576416015625,-0.00786660797894001,-0.05191066861152649,-0.05404531955718994
1783169408452556300,4.298556396484375,-0.017339807003736496,-0.03696819394826889,-0.0829794704914093
1783169408462504400,4.30850439453125,-0.034551285207271576,-0.016918053850531578,-0.1005328968167305
1783169408472453400,4.318453369140625,-0.05001676082611084,0.0011234302073717117,-0.11036472022533417
1783169408482402300,4.32840234375,-0.05382188409566879,0.018161002546548843,-0.09669950604438782
1783169408492381400,4.33838134765625,-0.04778578132390976,0.0469934418797493,-0.07187201827764511
1783169408502330400,4.348330322265625,-0.03724232688546181,0.054017793387174606,-0.03277388587594032
1783169408512279300,4.358279296875,-0.024687141180038452,0.041883938014507294,0.009158197790384293
1783169408522227200,4.368227294921875,-0.021649539470672607,0.02794814668595791,0.05138128623366356
1783169408532207400,4.378207275390625,-0.02415013313293457,0.022259652614593506,0.08482987433671951
1783169408542155300,4.3881552734375,-0.02907857857644558,0.0066482024267315865,0.10561078786849976
1783169408552104400,4.3981044921875,-0.03155034780502319,-0.018520090728998184,0.10744425654411316
1783169408562083600,4.40808349609375,-0.025673285126686096,-0.032733116298913956,0.08948417007923126
1783169408572032500,4.418032470703125,-0.01562599465250969,-0.024134164676070213,0.060141175985336304
1783169408581981400,4.4279814453125,-0.007093226537108421,-0.007568503729999065,0.03021496720612049
1783169408591929300,4.437929443359375,-0.001772552728652954,0.010442711412906647,0.0021003340370953083
1783169408601909500,4.447909423828125,-0.0008689407259225845,0.02693806402385235,-0.017739949747920036
1783169408611857400,4.457857421875,0.000027162954211235046,0.04445354640483856,-0.02504148706793785
1783169408621806300,4.467806396484375,-0.0027979183942079544,0.04126308113336563,-0.01890023797750473
1783169408631755300,4.47775537109375,-0.0025413837283849716,0.034354619681835175,-0.008075365796685219
1783169408641734400,4.487734375,-0.0003895498812198639,0.007259087637066841,0.0001316973939538002
1783169408651683300,4.497683349609375,0.001738026738166809,-0.004545292817056179,0.012037919834256172
1783169408661632300,4.50763232421875,-0.00047799013555049896,-0.003700271714478731,0.030878186225891113
1783169408671611400,4.517611328125,-0.008836943656206131,-0.008067844435572624,0.047999609261751175
1783169408681560300,4.527560302734375,-0.018542036414146423,-0.014823485165834427,0.048720259219408035
1783169408691508200,4.53750830078125,-0.025181762874126434,-0.015174958854913712,0.034456171095371246
1783169408701457200,4.54745703125,-0.024226753041148186,-0.017969146370887756,0.016499273478984833
1783169408711436300,4.557436279296875,-0.011311140842735767,-0.026177875697612762,-0.015472093597054482
1783169408721385500,4.567385498046875,-0.004489187151193619,-0.03531411290168762,-0.046487800776958466
1783169408731334400,4.57733447265625,-0.0026326365768909454,-0.029849868267774582,-0.0703340470790863
1783169408741283300,4.587283447265625,-0.011938519775867462,-0.01641768217086792,-0.09101482480764389
1783169408751262500,4.597262451171875,-0.024514976888895035,-0.0036617217119783163,-0.0996730625629425
1783169408761210400,4.60721044921875,-0.03232229873538017,0.020685164257884026,-0.09206201881170273
1783169408771159300,4.6171591796875,-0.03391462564468384,0.03322478383779526,-0.07762105762958527
1783169408781138400,4.627138427734375,-0.02477119490504265,0.02120674028992653,-0.06228842958807945
1783169408791087400,4.63708740234375,-0.012260103598237038,-0.002993351314216852,-0.04809814691543579
1783169408801036300,4.647036376953125,0.0022440049797296524,-0.0426318421959877,-0.03904739022254944
1783169408810985200,4.656985107421875,0.006702525541186333,-0.050182491540908813,-0.029347699135541916
1783169408820964400,4.66696435546875,-0.007045779377222061,-0.04120311141014099,-0.02744593843817711
1783169408830913300,4.676913330078125,-0.027939997613430023,-0.0361098013818264,-0.02462233044207096
1783169408840861400,4.686861328125,-0.04232506453990936,-0.023001721128821373,-0.0225107092410326
1783169408850810400,4.696810302734375,-0.0437348373234272,0.002260219305753708,-0.01869964972138405
1783169408860789200,4.706789306640625,-0.036895573139190674,0.014561093412339687,-0.01569400727748871
1783169408870738200,4.71673828125,-0.022570200264453888,0.01166732981801033,-0.015174051746726036
1783169408880687400,4.726687255859375,-0.006764605641365051,0.00038857758045196533,-0.01934962160885334
1783169408890666500,4.73666650390625,0.001790374517440796,-0.00995836965739727,-0.02648196741938591
1783169408900615400,4.746615478515625,-0.006262226030230522,-0.012495031580328941,-0.03183785080909729
1783169408910564400,4.756564453125,-0.013040994293987751,-0.008711416274309158,-0.025479290634393692
1783169408920512500,4.766512451171875,-0.008224135264754295,0.0008919429965317249,-0.013790677301585674
1783169408930492400,4.776492431640625,0.0023972056806087494,0.002877946477383375,-0.0035309651866555214
1783169408940440300,4.7864404296875,0.01401018537580967,-0.0003727078437805176,0.008532355539500713
1783169408950389500,4.796389404296875,0.018897252157330513,-0.013700667768716812,0.021825876086950302
1783169408960338400,4.80633837890625,0.020966792479157448,-0.034958552569150925,0.029259823262691498
1783169408970317300,4.8163173828125,0.023660598322749138,-0.0524180606007576,0.025266116484999657
1783169408980266200,4.826266357421875,0.02716824598610401,-0.06679513305425644,0.018454816192388535
1783169408990214400,4.83621435546875,0.02423698641359806,-0.055038195103406906,0.005741083528846502
1783169409000194300,4.8461943359375,0.0124418456107378,-0.03761819377541542,-0.010781433433294296
1783169409010142200,4.85614208984375,0.004015883430838585,-0.03410796821117401,-0.03122549131512642
1783169409020091400,4.86609130859375,-0.0035839788615703583,-0.0390595868229866,-0.055986229330301285
1783169409030040300,4.876040283203125,-0.009198734536767006,-0.04241587966680527,-0.07743290066719055
1783169409040019200,4.886019287109375,-0.0125593775883317,-0.041191089898347855,-0.08734198659658432
1783169409049968400,4.895968505859375,-0.013886150903999805,-0.022351445630192757,-0.08421067893505096
1783169409059917600,4.90591748046875,-0.0128022450953722,0.0011781160719692707,-0.07865798473358154
1783169409069865500,4.915865478515625,-0.015107303857803345,0.006322749890387058,-0.06661560386419296
1783169409079845400,4.925845458984375,-0.021908218041062355,0.011432025581598282,-0.04199548065662384
1783169409089793500,4.93579345703125,-0.031461749225854874,0.015662038698792458,-0.013384884223341942
1783169409099742500,4.945742431640625,-0.043804436922073364,-0.00010733725503087044,0.009950798936188221
1783169409109744600,4.95574462890625,-0.048391833901405334,-0.034111641347408295,0.01925729215145111
1783169409119693600,4.965693603515625,-0.04836041107773781,-0.06767119467258453,0.012407375499606133
1783169409129642500,4.975642578125,-0.04390961676836014,-0.08768172562122345,0.0026188516058027744
1783169409139590400,4.98559033203125,-0.042931973934173584,-0.09725765138864517,-0.014228837564587593
1783169409149570600,4.995570556640625,-0.039815567433834076,-0.10096815973520279,-0.034747667610645294
1783169409159518500,5.0055185546875,-0.03501148894429207,-0.09513583779335022,-0.05878856033086777
1783169409169467400,5.01546728515625,-0.02812093310058117,-0.0773242637515068,-0.08041307330131531
1783169409179416300,5.025416259765625,-0.020756494253873825,-0.05284528806805611,-0.09734705090522766
1783169409189395500,5.0353955078125,-0.01597064547240734,-0.03855092078447342,-0.10697717219591141
1783169409199344600,5.0453447265625,-0.009485049173235893,-0.024444689974188805,-0.11320976912975311
1783169409209293600,5.05529345703125,-0.0059382133185863495,-0.01852208562195301,-0.1147392988204956
1783169409219272700,5.065272705078125,-0.007238103076815605,-0.031793683767318726,-0.11716543138027191
1783169409229221600,5.0752216796875,-0.012194355018436909,-0.05416633561253548,-0.10980299115180969
1783169409239169500,5.08516943359375,-0.018865041434764862,-0.07541516423225403,-0.09613458067178726
1783169409249118500,5.095118408203125,-0.03137580305337906,-0.09200267493724823,-0.07921701669692993
1783169409259097600,5.10509765625,-0.05143766105175018,-0.09305275976657867,-0.05829043313860893
1783169409269046500,5.115046630859375,-0.06338989734649658,-0.09118933230638504,-0.03972936421632767
1783169409278995500,5.124995361328125,-0.0733349397778511,-0.08661162108182907,-0.029163803905248642
1783169409288943600,5.134943603515625,-0.06712844222784042,-0.07478319108486176,-0.02446412295103073
1783169409298923500,5.144923583984375,-0.05549655482172966,-0.03370580077171326,-0.011296657845377922
1783169409308871400,5.154871337890625,-0.043806590139865875,0.018670495599508286,0.006307072006165981
1783169409318820400,5.1648203125,-0.039729028940200806,0.055987775325775146,0.021757934242486954
1783169409328799500,5.174799560546875,-0.025205248966813087,0.06693834066390991,0.0316883884370327
1783169409338748400,5.18474853515625,-0.007599623873829842,0.06229778006672859,0.04164275527000427
1783169409348697300,5.194697265625,0.0072489045560359955,0.047906726598739624,0.052179478108882904
1783169409358646500,5.204646484375,0.02087629958987236,0.0206330306828022,0.06277486681938171
1783169409368625700,5.214625732421875,0.03067065216600895,-0.0018103944603353739,0.07151690125465393
1783169409378574600,5.22457470703125,0.03314925730228424,-0.009659795090556145,0.07258722186088562
1783169409388522800,5.234522705078125,0.02910594828426838,-0.017144134268164635,0.06466388702392578
1783169409398471700,5.2444716796875,0.019851194694638252,-0.012582939118146896,0.04926788806915283
1783169409408450600,5.254450439453125,0.017365245148539543,-0.0024283367674797773,0.030591538175940514
1783169409418399500,5.2643994140625,0.022297417744994164,0.009316470474004745,0.004214792046695948
1783169409428348400,5.274348388671875,0.030119068920612335,0.011079473420977592,-0.018771125003695488
1783169409438327600,5.28432763671875,0.04157571867108345,0.012861659750342369,-0.029461851343512535
1783169409448276500,5.2942763671875,0.04494575783610344,0.02342842146754265,-0.0343480259180069
1783169409458224600,5.304224609375,0.04325997456908226,0.022931743413209915,-0.03317703306674957
1783169409468173600,5.314173583984375,0.03704667091369629,0.009593822062015533,-0.027731791138648987
1783169409478152400,5.32415234375,0.023777475580573082,-0.006002981215715408,-0.01939583197236061
1783169409488101400,5.334101318359375,0.0013920590281486511,-0.02130422368645668,-0.013280726969242096
1783169409498050600,5.344050537109375,-0.024335941299796104,-0.03308791294693947,-0.00950622744858265
1783169409507999500,5.35399951171875,-0.04462454468011856,-0.032141074538230896,-0.007038461975753307
1783169409517978400,5.363978271484375,-0.05220789462327957,-0.01633681170642376,-0.004324700683355331
1783169409527927600,5.373927490234375,-0.048697471618652344,-0.007716243155300617,-0.007426299154758453
1783169409537875500,5.38387548828125,-0.038127120584249496,-0.012885704636573792,-0.018153779208660126
1783169409547824600,5.39382470703125,-0.024508781731128693,-0.017600299790501595,-0.023032424971461296
1783169409557803500,5.403803466796875,-0.015514487400650978,-0.002642655046656728,-0.028308944776654243
1783169409567752700,5.413752685546875,-0.020061131566762924,-0.0014621438458561897,-0.029832974076271057
1783169409577701600,5.42370166015625,-0.031063448637723923,-0.007522699423134327,-0.03086361661553383
1783169409587680500,5.433680419921875,-0.04262164235115051,0.0032214592210948467,-0.023528989404439926
1783169409597629400,5.44362939453125,-0.04957488924264908,0.008338456973433495,-0.01867244765162468
1783169409607577600,5.45357763671875,-0.042874351143836975,-0.00006259884685277939,-0.011406517587602139
1783169409617526500,5.463526611328125,-0.030282391235232353,0.005674648564308882,-0.0015490930527448654
1783169409627505700,5.473505615234375,-0.015870582312345505,0.0198354534804821,0.008728982880711555
1783169409637454600,5.48345458984375,-0.007935959845781326,0.015038302168250084,0.01711554452776909
1783169409647403500,5.493403564453125,0.0018426887691020966,0.002410617657005787,0.02134353667497635
1783169409657352400,5.5033525390625,0.007621750235557556,-0.006455312017351389,0.02001888118684292
1783169409667331600,5.51333154296875,0.012810919433832169,-0.014539603143930435,0.016257964074611664
1783169409677280500,5.523280517578125,0.014965683221817017,-0.019362587481737137,0.0133439339697361
1783169409687228400,5.533228515625,0.018006328493356705,-0.018080560490489006,0.009315242059528828
1783169409697208600,5.54320849609375,0.020902249962091446,-0.026255398988723755,0.0011569145135581493
1783169409707156500,5.553156494140625,0.020932363346219063,-0.03636005520820618,-0.013953359797596931
1783169409717105700,5.563105712890625,0.024909527972340584,-0.02795298770070076,-0.024144476279616356
1783169409727054600,5.5730546875,0.025801433250308037,-0.015124693512916565,-0.03350786864757538
1783169409737033700,5.58303369140625,0.02383948303759098,-0.011924105696380138,-0.03919238597154617
1783169409746982700,5.592982666015625,0.02088027074933052,-0.0017009612638503313,-0.03821217268705368
1783169409756931600,5.602931640625,0.012887060642242432,0.00012676604092121124,-0.028484979644417763
1783169409766879500,5.61287939453125,0.00516483373939991,0.0011909650638699532,-0.01125340722501278
1783169409776858600,5.622858642578125,-0.0007870644330978394,-0.0031787496991455555,0.010323258116841316
1783169409786807600,5.6328076171875,-0.00527198426425457,-0.012320442125201225,0.02245355024933815
1783169409796756500,5.642756591796875,-0.005302876234054565,-0.0296256635338068,0.016159437596797943
1783169409806735600,5.652735595703125,0.004781339317560196,-0.03502722829580307,0.004426220431923866
1783169409816684500,5.6626845703125,0.01226402074098587,-0.020252808928489685,-0.011947959661483765
1783169409826633500,5.672633544921875,0.013806996867060661,0.0015213973820209503,-0.034081198275089264
1783169409836581400,5.682581298828125,0.011826934292912483,0.014164486899971962,-0.04391172528266907
1783169409846561500,5.6925615234375,0.010663123801350594,0.021122729405760765,-0.046055253595113754
1783169409856509400,5.702509521484375,0.01961667276918888,0.036287304013967514,-0.033543989062309265
1783169409866458400,5.712458251953125,0.0211144108325243,0.03644893318414688,-0.004456129856407642
1783169409876407600,5.722407470703125,0.01202930323779583,0.028770236298441887,0.029796382412314415
1783169409886386700,5.73238671875,-0.0009903814643621445,0.011214494705200195,0.0632835328578949
1783169409896335600,5.742335693359375,-0.015062791295349598,-0.022464372217655182,0.07958953827619553
1783169409906284500,5.752284423828125,-0.019191887229681015,-0.06271656602621078,0.07530861347913742
1783169409916263700,5.762263671875,-0.019318919628858566,-0.06614804267883301,0.05513489991426468
1783169409926212600,5.772212646484375,-0.01818743534386158,-0.03242156654596329,0.02349664457142353
1783169409936160500,5.782160400390625,-0.017093142494559288,0.011099012568593025,-0.011258406564593315
1783169409946109400,5.792109375,-0.009386777877807617,0.03892149776220322,-0.04038616269826889
1783169409956088600,5.802088623046875,0.004127698019146919,0.04474157094955444,-0.06267549097537994
1783169409966037500,5.81203759765625,0.014239491894841194,0.03646579757332802,-0.07087090611457825
1783169409975986400,5.821986328125,0.016938606277108192,0.017122460529208183,-0.061466481536626816
1783169409985934600,5.8319345703125,0.015855029225349426,-0.005590867716819048,-0.04093674197793007
1783169409995914500,5.84191455078125,0.012368682771921158,-0.021785816177725792,-0.018472447991371155
1783169410005862400,5.8518623046875,0.008083250373601913,-0.0271471980959177,0.00416164705529809
1783169410015811300,5.861811279296875,-0.00174621120095253,-0.013386379927396774,0.027053646743297577
1783169410025790500,5.87179052734375,-0.012163098901510239,-0.0031616822816431522,0.040980830788612366
1783169410035739400,5.881739501953125,-0.015590853989124298,-0.0017020038794726133,0.045238956809043884
1783169410045688600,5.8916884765625,-0.0051311589777469635,-0.0013690062332898378,0.04373549669981003
1783169410055637500,5.901637451171875,0.0071707796305418015,0.006548571866005659,0.038649387657642365
1783169410065616600,5.91161669921875,0.018078915774822235,0.012413984164595604,0.02585786208510399
1783169410075565600,5.921565673828125,0.023931745439767838,0.00817103497684002,0.015261409804224968
1783169410085513500,5.931513427734375,0.02160634472966194,0.00903460755944252,0.000247979536652565
1783169410095462700,5.941462646484375,0.017120514065027237,0.004219078924506903,-0.015799429267644882
1783169410105441500,5.951441650390625,0.011387744918465614,0.010878322646021843,-0.02596168965101242
1783169410115417900,5.96141796875,0.008008463308215141,0.028587544336915016,-0.03280787542462349
1783169410125367000,5.971366943359375,0.007783306762576103,0.03798745200037956,-0.03377394378185272
1783169410135346000,5.981345947265625,0.010438213124871254,0.0356726348400116,-0.028725655749440193
1783169410145294800,5.991294921875,0.012866677716374397,0.021540164947509766,-0.021233849227428436
1783169410155243000,6.001242919921875,0.017969558015465736,0.00995221920311451,-0.003274821676313877
1783169410165192000,6.01119189453125,0.01787147857248783,0.019087517634034157,0.0265145692974329
1783169410175170800,6.0211708984375,0.021724006161093712,0.01525522768497467,0.050072893500328064
1783169410185120000,6.0311201171875,0.020782390609383583,-0.0011789961718022823,0.061341188848018646
1783169410195069200,6.041069091796875,0.019414326176047325,-0.0225500650703907,0.052725862711668015
1783169410205018000,6.05101806640625,0.006780620664358139,-0.029903151094913483,0.03959821164608002
1783169410214997000,6.0609970703125,-0.002612616866827011,-0.013778243213891983,0.017688388004899025
1783169410224946000,6.07094580078125,-0.007448963820934296,0.016291527077555656,-0.00853965524584055
1783169410234894000,6.08089404296875,-0.00910012237727642,0.04164215922355652,-0.02992430329322815
1783169410244874000,6.0908740234375,-0.0013232212513685226,0.049259889870882034,-0.039747338742017746
1783169410254822000,6.10082177734375,0.00771421380341053,0.048297956585884094,-0.03928900882601738
1783169410264771000,6.11077099609375,0.018249742686748505,0.026649095118045807,-0.03101300448179245
1783169410274720000,6.120719970703125,0.02423519641160965,0.005447934381663799,-0.011275519616901875
1783169410284699000,6.130698974609375,0.024047276005148888,-0.0033616437576711178,0.012867279350757599
1783169410294647800,6.140647705078125,0.013694239780306816,-0.008497815579175949,0.036847714334726334
1783169410304596000,6.150595947265625,0.004173509776592255,-0.014958600513637066,0.05227293074131012
1783169410314545000,6.160544921875,-0.0010633300989866257,-0.014783098362386227,0.05327880382537842
1783169410324524000,6.17052392578125,-0.0023396331816911697,-0.008685242384672165,0.044804222881793976
1783169410334473000,6.180472900390625,-0.001369711011648178,-0.009139045141637325,0.0239519365131855
1783169410344422100,6.190422119140625,0.0050657447427511215,-0.007847551256418228,0.0014576157554984093
1783169410354400800,6.20040087890625,0.01396016962826252,-0.002829090692102909,-0.01878400519490242
1783169410364350200,6.21035009765625,0.022361868992447853,0.000295278150588274,-0.0346633642911911
1783169410374299100,6.220299072265625,0.031204627826809883,0.0014721290208399296,-0.04181421920657158
1783169410384247000,6.2302470703125,0.032397136092185974,-0.004015323705971241,-0.04694497585296631
1783169410394227000,6.24022705078125,0.027815166860818863,-0.006447322200983763,-0.045224837958812714
1783169410404175000,6.250175048828125,0.023549070581793785,-0.006776836700737476,-0.03138681501150131
1783169410414124000,6.2601240234375,0.023422570899128914,-0.006235948763787746,-0.007871633395552635
1783169410424073000,6.270072998046875,0.025956634432077408,-0.0017499024979770184,0.017943914979696274
1783169410434052000,6.280052001953125,0.02976415678858757,-0.010938607156276703,0.04570657014846802
1783169410444001000,6.2900009765625,0.03763622045516968,-0.030430704355239868,0.058726467192173004
1783169410453949000,6.299948974609375,0.042624324560165405,-0.05041266605257988,0.066665880382061
1783169410463928800,6.3099287109375,0.044071346521377563,-0.05182298272848129,0.059832364320755005
1783169410473877000,6.319876953125,0.04143720865249634,-0.04066220670938492,0.0532333180308342
1783169410483826000,6.329825927734375,0.026145875453948975,-0.024237653240561485,0.03808334469795227
1783169410493774800,6.33977490234375,0.011215660721063614,-0.010913858190178871,0.020364001393318176
1783169410503754000,6.34975390625,0.0029880907386541367,-0.004125502891838551,0.0008699800819158554
1783169410513703200,6.359703125,0.0042546894401311874,-0.005648032296448946,-0.012267926707863808
1783169410523652000,6.369652099609375,0.00511959008872509,-0.009272130206227303,-0.021453335881233215
1783169410533600000,6.37960009765625,0.004372306168079376,-0.019697340205311775,-0.019890062510967255
1783169410543580200,6.389580078125,0.005142932757735252,-0.013079648837447166,-0.009759079664945602
1783169410553528000,6.399528076171875,-0.0011519808322191238,-0.0043921517208218575,0.006418557837605476
1783169410563477000,6.40947705078125,-0.010573631152510643,-0.0019163277465850115,0.02660205587744713
1783169410573456100,6.4194560546875,-0.015759870409965515,-0.014620671048760414,0.0374605655670166
1783169410583405000,6.429405029296875,-0.014576839283108711,-0.022884227335453033,0.04167257994413376
1783169410593354000,6.43935400390625,-0.01131606474518776,-0.026917316019535065,0.03796519339084625
1783169410603303000,6.449302978515625,-0.0019167233258485794,-0.0311636533588171,0.02118144929409027
1783169410613282000,6.459281982421875,0.012921078130602837,-0.022703856229782104,0.008332762867212296
1783169410623230000,6.46922998046875,0.017646407708525658,-0.008252082392573357,-0.003954630345106125
1783169410633179000,6.479178955078125,0.012391990050673485,0.0026282616890966892,-0.011097760871052742
1783169410643127800,6.4891279296875,0.004139324650168419,-0.003164051566272974,-0.016487393528223038
1783169410653107000,6.49910693359375,0.0015861522406339645,-0.0005703987553715706,-0.01601361855864525
1783169410663056000,6.509055908203125,0.007370101287961006,0.0067786527797579765,-0.010962765663862228
1783169410673005000,6.519005126953125,0.012134762480854988,0.008075079880654812,-0.0013197250664234161
1783169410682984000,6.52898388671875,0.013971218839287758,0.007860992103815079,0.006909213028848171
1783169410692933000,6.53893310546875,0.01086038164794445,0.0015879161655902863,0.014380977489054203
1783169410702881000,6.548881103515625,0.009243005886673927,-0.018390409648418427,0.009321564808487892
1783169410712830000,6.558829833984375,0.007386514917016029,-0.027148213237524033,-0.0004969770088791847
1783169410722809000,6.56880908203125,0.005675969645380974,-0.023849889636039734,-0.01280823815613985
1783169410732758000,6.578758056640625,0.006785707548260689,-0.01501405332237482,-0.026391956955194473
1783169410742707000,6.58870703125,0.01209239661693573,-0.003960462287068367,-0.04271853715181351
1783169410752656000,6.59865576171875,0.014795772731304169,0.004913190379738808,-0.04957430809736252
1783169410762635000,6.608635009765625,0.014320438727736473,0.01167318969964981,-0.0504516139626503
1783169410772584000,6.618583984375,0.01580009050667286,0.01990661770105362,-0.04811974987387657
1783169410782532000,6.628531982421875,0.019826557487249374,0.019998006522655487,-0.04123043268918991
1783169410792511000,6.638510986328125,0.02046278491616249,0.02892438694834709,-0.02467995136976242
1783169410802460000,6.6484599609375,0.022220905870199203,0.017827199772000313,-0.012855153530836105
1783169410812408800,6.658408935546875,0.021793469786643982,0.01317891851067543,-0.007091539911925793
1783169410822358000,6.66835791015625,0.02436620555818081,0.014617543667554855,0.0017042243853211403
1783169410832337000,6.6783369140625,0.027392355725169182,0.020876772701740265,-0.003249255008995533
1783169410842285800,6.688285888671875,0.03482728824019432,0.028080567717552185,-0.006813023239374161
1783169410852234000,6.69823388671875,0.039316315203905106,0.03519227355718613,-0.015381744131445885
1783169410862183200,6.70818310546875,0.04333379119634628,0.04271061718463898,-0.0207931250333786
1783169410872162000,6.718162109375,0.047794319689273834,0.029410790652036667,-0.029402855783700943
1783169410882111000,6.728111083984375,0.05611087381839752,0.01166995894163847,-0.03705551475286484
1783169410892060200,6.73806005859375,0.06574459373950958,0.007707175798714161,-0.03591674566268921
1783169410902039000,6.7480390625,0.07410644739866257,-0.003325158264487982,-0.03291698917746544
1783169410911988000,6.757988037109375,0.08595245331525803,-0.014779148623347282,-0.02630515769124031
1783169410921937000,6.76793701171875,0.09857886284589767,-0.01474403589963913,-0.021920638158917427
1783169410931885000,6.777885009765625,0.10792789608240128,-0.023945791646838188,-0.014974314719438553
1783169410941865000,6.787864990234375,0.11793984472751617,-0.035165801644325256,-0.012896054424345493
1783169410951812900,6.797812744140625,0.11865890026092529,-0.04869173467159271,-0.017491336911916733
1783169410961762000,6.807761962890625,0.11227130889892578,-0.06792588531970978,-0.019686315208673477
1783169410971711000,6.8177109375,0.09447740018367767,-0.07158133387565613,-0.027261942625045776
1783169410981689900,6.82768994140625,0.06858661025762558,-0.06848315894603729,-0.03491659834980965
1783169410991638800,6.837638671875,0.047261349856853485,-0.04734991490840912,-0.04162962734699249
1783169411001587000,6.8475869140625,0.0281496811658144,-0.02193421870470047,-0.040848758071660995
1783169411011566800,6.85756689453125,0.01870504952967167,-0.0046753366477787495,-0.037474002689123154
1783169411021515000,6.867514892578125,0.021036505699157715,0.010964221321046352,-0.029935020953416824
1783169411031464200,6.877464111328125,0.022261295467615128,0.010736788623034954,-0.011675856076180935
1783169411041413000,6.8874130859375,0.02032940462231636,0.0015267892740666866,0.013350739143788815
1783169411051392000,6.89739208984375,0.010516457259654999,-0.011247329413890839,0.04083029925823212
1783169411061341000,6.9073408203125,-0.003877248615026474,-0.014497259631752968,0.061221443116664886
1783169411071290000,6.9172900390625,-0.011098941788077354,-0.02534724399447441,0.07267729938030243
1783169411081238000,6.927238037109375,-0.012388216331601143,-0.02631029486656189,0.07778072357177734
1783169411091218000,6.937218017578125,-0.011935745365917683,-0.019786614924669266,0.07563821226358414
1783169411101166000,6.947166015625,-0.006309833377599716,-0.002359063597396016,0.06831081956624985
1783169411111115000,6.957114990234375,0.0029318667948246002,0.019138505682349205,0.05906885117292404
1783169411121131800,6.9671318359375,0.015241360291838646,0.0318804569542408,0.05526096746325493
1783169411131081000,6.9770810546875,0.02237037755548954,0.03454601392149925,0.053493693470954895
1783169411141030000,6.98702978515625,0.025830652564764023,0.020530372858047485,0.05414562299847603
1783169411150977800,6.996977783203125,0.022876139730215073,0.008684896863996983,0.0482989177107811
1783169411160957700,7.006957763671875,0.022349294275045395,-0.006943735759705305,0.04496018588542938
1783169411170905900,7.01690576171875,0.0225604847073555,-0.013800043612718582,0.03928658366203308
1783169411180854800,7.026854736328125,0.02412504144012928,-0.009055482223629951,0.032822612673044205
1783169411190803700,7.0368037109375,0.02959304489195347,0.007621765602380037,0.024024326354265213
1783169411200782800,7.046782958984375,0.03555319458246231,0.01615746319293976,0.01588677242398262
1783169411210732000,7.05673193359375,0.04554218053817749,0.012630106881260872,0.007752945180982351
1783169411220681000,7.066680908203125,0.054073840379714966,0.00420472351834178,0.007790809031575918
1783169411230628900,7.07662890625,0.05602061003446579,-0.010860245674848557,0.006347109563648701
1783169411240609000,7.086609130859375,0.051592253148555756,-0.015712477266788483,0.006551147438585758
1783169411250557000,7.096556884765625,0.04186159372329712,-0.023011136800050735,0.0033500278368592262
1783169411260505900,7.106505859375,0.037222858518362045,-0.01868121325969696,-0.001215105876326561
1783169411270485000,7.116485107421875,0.035114165395498276,-0.011012640781700611,-0.00830603763461113
1783169411280434000,7.126433837890625,0.033671021461486816,-0.01077223476022482,-0.012334628961980343
1783169411290382800,7.1363828125,0.03165927529335022,0.00025937706232070923,-0.019346997141838074
1783169411300330800,7.146330810546875,0.02502342127263546,0.0016377121210098267,-0.02172674611210823
1783169411310311000,7.156310791015625,0.021705390885472298,-0.007011968642473221,-0.03009093552827835
1783169411320258800,7.1662587890625,0.014914380386471748,-0.006557782180607319,-0.03214854747056961
1783169411330207700,7.176207763671875,0.011869056150317192,-0.0048477668315172195,-0.02767789736390114
1783169411340156700,7.18615673828125,0.012195101007819176,-0.006607177667319775,-0.0246835108846426
1783169411350135800,7.1961357421875,0.014341609552502632,-0.008488168939948082,-0.01233816146850586
1783169411360084700,7.206084716796875,0.01112600788474083,0.0024413825012743473,0.008810630068182945
1783169411370034000,7.216033935546875,-0.0037370938807725906,0.0073668984696269035,0.02465697191655636
1783169411380012800,7.2260126953125,-0.019721677526831627,0.0015149405226111412,0.03754429891705513
1783169411389962000,7.2359619140625,-0.03179485350847244,-0.006965629756450653,0.03790995106101036
1783169411399910000,7.245909912109375,-0.03556825965642929,-0.0077784983441233635,0.03174790367484093
1783169411409858800,7.25585888671875,-0.03478395938873291,-0.0008526812307536602,0.01931254006922245
1783169411419838000,7.265837890625,-0.031080130487680435,0.014841796830296516,0.0049896240234375
1783169411429787000,7.275786865234375,-0.021649079397320747,0.03038853406906128,-0.0044539449736475945
1783169411439735800,7.28573583984375,-0.014374316670000553,0.03607717901468277,-0.006940077990293503
1783169411449684700,7.295684814453125,-0.016476882621645927,0.021057749167084694,-0.01122670155018568
1783169411459664000,7.305663818359375,-0.02593512460589409,-0.007026907987892628,-0.009978460147976875
1783169411469611800,7.31561181640625,-0.03423113748431206,-0.035622600466012955,-0.014791591092944145
1783169411479561000,7.32556103515625,-0.04149268567562103,-0.04547277092933655,-0.01752942055463791
1783169411489539800,7.335539794921875,-0.03625398129224777,-0.03516899794340134,-0.020505502820014954
1783169411499488800,7.34548876953125,-0.02535543031990528,-0.018036825582385063,-0.03144107386469841
1783169411509437700,7.355437744140625,-0.006068019196391106,0.004090846050530672,-0.034117285162210464
1783169411519387000,7.365386962890625,0.011117696762084961,0.01066185999661684,-0.03474988788366318
1783169411529365800,7.37536572265625,0.023424163460731506,0.00500397477298975,-0.025650132447481155
1783169411539314700,7.385314697265625,0.02557399682700634,-0.006198575720191002,-0.008494927547872066
1783169411549262800,7.395262939453125,0.019345132634043694,-0.009717676788568497,0.008104288950562477
1783169411559212000,7.4052119140625,0.013389131054282188,-0.006393428426235914,0.0254154521971941
1783169411569191000,7.41519091796875,0.013192592188715935,-0.005589153617620468,0.03421533480286598
1783169411579139800,7.425139892578125,0.01713404431939125,-0.0064747822470963,0.03312104195356369
1783169411589089000,7.435089111328125,0.020100273191928864,-0.0024590014945715666,0.026711877435445786
1783169411599068000,7.44506787109375,0.022350141778588295,0.004815662745386362,0.012365709990262985
1783169411609016800,7.455016845703125,0.019045690074563026,0.017034512013196945,-0.0017636911943554878
1783169411618965800,7.4649658203125,0.011182876303792,0.01893141120672226,-0.008166099898517132
1783169411628914000,7.474913818359375,0.0033081769943237305,0.025628995150327682,-0.009531236253678799
1783169411638892800,7.484892822265625,-0.004184745252132416,0.03130118176341057,-0.003882288932800293
1783169411648842000,7.494842041015625,-0.008972043171525002,0.03251584991812706,0.008981045335531235
1783169411658791000,7.504791015625,-0.0061859264969825745,0.03007017821073532,0.01922360062599182
1783169411668739800,7.51473974609375,-0.006065284833312035,0.029913850128650665,0.028766239061951637
1783169411678718700,7.52471875,-0.009690811857581139,0.02256789244711399,0.0344882495701313
1783169411688667600,7.534667724609375,-0.013138539157807827,0.016174176707863808,0.03594420105218887
1783169411698615800,7.54461572265625,-0.018857382237911224,0.01162010245025158,0.03284745290875435
1783169411708595700,7.554595703125,-0.026676954701542854,0.011276820674538612,0.023664873093366623
1783169411718544000,7.5645439453125,-0.035963427275419235,0.016157398000359535,0.015194179490208626
1783169411728493000,7.5744931640625,-0.039397306740283966,0.018158763647079468,-0.0017528459429740906
1783169411738442000,7.58444189453125,-0.03759584575891495,0.009922470897436142,-0.019782274961471558
1783169411748420900,7.5944208984375,-0.029931003227829933,0.01430203951895237,-0.03273748978972435
1783169411758370000,7.6043701171875,-0.025552257895469666,0.011578942649066448,-0.042771197855472565
1783169411768319000,7.614319091796875,-0.02388858236372471,0.011664961464703083,-0.04508441686630249
1783169411778267000,7.624266845703125,-0.026146262884140015,0.00122378533706069,-0.037892960011959076
1783169411788246800,7.634246826171875,-0.02750101312994957,0.002291446551680565,-0.02622884511947632
1783169411798195000,7.64419482421875,-0.029320023953914642,0.0011280393227934837,-0.004897654056549072
1783169411808144000,7.654143798828125,-0.024563351646065712,0.005361400544643402,0.010645085945725441
1783169411818122800,7.664122802734375,-0.014551501721143723,0.008488432504236698,0.02059786021709442
1783169411828072000,7.674072021484375,-0.00346209853887558,-0.0006227740086615086,0.020032472908496857
1783169411838020900,7.684020751953125,0.007785459980368614,-0.01882343739271164,0.009029416367411613
1783169411847968800,7.69396875,0.012950660660862923,-0.03136106953024864,-0.0064470116049051285
1783169411857948700,7.70394873046875,0.015509117394685745,-0.026663916185498238,-0.021778006106615067
1783169411867896800,7.713896728515625,0.010840330272912979,-0.012201620265841484,-0.03426343947649002
1783169411877845800,7.723845703125,0.009466933086514473,0.004286023322492838,-0.04002276062965393
1783169411887795000,7.733794921875,0.00819421000778675,0.028201475739479065,-0.03105510026216507
1783169411897774000,7.743774169921875,0.007719261571764946,0.04965252801775932,-0.015114929527044296
1783169411907723000,7.753722900390625,0.007374649867415428,0.04818059876561165,0.004178074188530445
1783169411917672000,7.763671875,0.008491052314639091,0.03127816319465637,0.026781398802995682
1783169411927650800,7.77365087890625,0.009884418919682503,0.0170651376247406,0.04212280735373497
1783169411937600000,7.78360009765625,0.013285946100950241,-0.0030302826780825853,0.043161023408174515
1783169411947548000,7.7935478515625,0.01364760473370552,-0.013993451371788979,0.040524762123823166
1783169411957496800,7.803496826171875,0.01399780809879303,-0.000306667760014534,0.035280197858810425
1783169411967476000,7.81347607421875,0.007429920136928558,0.014743121340870857,0.027876077219843864
1783169411977425000,7.8234248046875,0.0019512269645929337,0.021628260612487793,0.010232420638203621
1783169411987373800,7.833373779296875,0.00048728659749031067,0.021397365257143974,0.000352359376847744
1783169411997321700,7.84332177734375,0.0005245599895715714,0.017213957384228706,-0.007168157957494259
1783169412007302000,7.853302001953125,0.0031706765294075012,0.006738147232681513,-0.0094281155616045
1783169412017249800,7.863249755859375,0.0016973987221717834,-0.0015374436043202877,-0.009885340929031372
1783169412027198700,7.87319873046875,-0.0022318288683891296,-0.002852778881788254,-0.0065539926290512085
1783169412037177900,7.883177734375,-0.0066668931394815445,-0.008432966656982899,0.0010275891982018948
1783169412047126800,7.893126708984375,-0.013742378912866116,-0.007784486748278141,-0.0024499669671058655
1783169412057076000,7.903075927734375,-0.01520978007465601,-0.005015864502638578,-0.003301112912595272
1783169412067025000,7.91302490234375,-0.017122728750109673,-0.007944010198116302,-0.010085515677928925
1783169412077004000,7.923004150390625,-0.01805417239665985,-0.009248161688446999,-0.011066210456192493
1783169412086953000,7.932952880859375,-0.021094171330332756,0.0018644104711711407,-0.010704820044338703
1783169412096900900,7.94290087890625,-0.02046283707022667,0.017025455832481384,-0.0018047038465738297
1783169412106849800,7.952849853515625,-0.02280375361442566,0.027022162452340126,0.005933642853051424
1783169412116849000,7.962848876953125,-0.029528910294175148,0.011407243087887764,0.008617986924946308
1783169412126797800,7.9727978515625,-0.0364624485373497,-0.0015021644067019224,0.0032442607916891575
1783169412136747000,7.9827470703125,-0.04140050336718559,-0.012826930731534958,-0.0038626566529273987
1783169412146726000,7.992725830078125,-0.0439949557185173,-0.01698226109147072,-0.01615101471543312
1783169412156674800,8.0026748046875,-0.03867190703749657,-0.012681644409894943,-0.03688628226518631
1783169412166623000,8.012623046875,-0.02882327139377594,0.006482196971774101,-0.051666297018527985
1783169412176572000,8.022572021484375,-0.014822260476648808,0.027643481269478798,-0.055693767964839935
1783169412186550800,8.03255078125,-0.0004129614681005478,0.04221257194876671,-0.04802732542157173
1783169412196499700,8.042499755859374,0.007306516170501709,0.04203566163778305,-0.02967367321252823
1783169412206449000,8.052448974609375,0.012697555124759674,0.03498467430472374,0.00044215191155672073
1783169412216398000,8.062398193359375,0.012782476842403412,0.027461033314466476,0.034488823264837265
1783169412226377000,8.072376953125,0.007194630801677704,0.008298787288367748,0.0640760064125061
1783169412236326000,8.082325927734376,0.001334046944975853,-0.0011357292532920837,0.07483549416065216
1783169412246274000,8.092274169921875,-0.003061499446630478,-0.008459421806037426,0.07487384229898453
1783169412256254000,8.10225390625,0.00209147110581398,-0.0009741620160639286,0.058058615773916245
1783169412266201900,8.112201904296874,0.00972808338701725,0.017674090340733528,0.033448077738285065
1783169412276151000,8.122151123046875,0.01702651008963585,0.026827149093151093,0.00541003979742527
1783169412286100000,8.132099853515625,0.021826855838298798,0.03615913167595863,-0.013269905000925064
1783169412296078800,8.142078857421875,0.023629285395145416,0.043040208518505096,-0.023857567459344864
1783169412306027800,8.15202783203125,0.022225264459848404,0.03601239249110222,-0.021823445335030556
1783169412315976000,8.161975830078125,0.01648040860891342,0.026870889589190483,-0.010343745350837708
1783169412325924900,8.1719248046875,0.00576038658618927,0.018826546147465706,0.00838520098477602
1783169412335904000,8.181904052734374,-0.004302630200982094,0.019607041031122208,0.02959301322698593
1783169412345853000,8.19185302734375,-0.007402282208204269,0.008660649880766869,0.0437152273952961
1783169412355801900,8.2018017578125,-0.00441037118434906,-0.004585940856486559,0.04646081477403641
1783169412365780700,8.21178076171875,-0.0033834557980298996,-0.02004026435315609,0.03887506574392319
1783169412375730000,8.22172998046875,0.00132780522108078,-0.014538072049617767,0.02340705320239067
1783169412385679000,8.23167919921875,0.006532685831189156,-0.0005809767171740532,0.0017622113227844238
1783169412395627000,8.241626953125,0.012632336467504501,0.017980065196752548,-0.01023341529071331
1783169412405607000,8.25160693359375,0.012071475386619568,0.04391499236226082,-0.015973594039678574
1783169412415555000,8.26155517578125,0.004360558465123177,0.04502783343195915,-0.014144808985292912
1783169412425504000,8.27150390625,-0.0030994880944490433,0.03585644066333771,-0.0027962811291217804
1783169412435453000,8.281452880859375,-0.006357332691550255,0.018991533666849136,0.011078796349465847
1783169412445432000,8.29143212890625,-0.010792028158903122,-0.0019217377994209528,0.02339698188006878
1783169412455381000,8.301381103515626,-0.011901750229299068,-0.009749216958880424,0.027194077149033546
1783169412465330000,8.311329833984376,-0.010696935467422009,-0.008534282445907593,0.02763509564101696
1783169412475308800,8.321308837890625,-0.01145970169454813,-0.004141496494412422,0.02273121289908886
1783169412485257000,8.331257080078124,-0.009601879864931107,0.004278087522834539,0.012765130959451199
1783169412495206000,8.341205810546874,-0.013707558624446392,0.006671815644949675,-0.0003228243440389633
1783169412505154800,8.35115478515625,-0.012122444808483124,0.010341119021177292,-0.012390405870974064
1783169412515134000,8.361134033203125,-0.006919989362359047,0.013826195150613785,-0.01686982251703739
1783169412525083000,8.371082763671875,-0.000949714332818985,0.016643285751342773,-0.011236703023314476
1783169412535031800,8.38103173828125,0.004003217443823814,0.019416166469454765,0.010171408765017986
1783169412544979700,8.390979736328125,0.0057417284697294235,0.022260157391428947,0.037696778774261475
1783169412554960100,8.400960205078125,0.018551643937826157,-0.006713096983730793,0.06161104142665863
1783169412564907800,8.41090771484375,0.023170631378889084,-0.01912928745150566,0.09034308791160583
1783169412574857000,8.42085693359375,0.022936811670660973,-0.029662178829312325,0.10180772840976715
1783169412584836000,8.430836181640625,0.020566599443554878,-0.03692728281021118,0.10412281006574631
1783169412594785000,8.440784912109375,0.017059076577425003,-0.02091701328754425,0.0939035639166832
1783169412604734000,8.45073388671875,0.013193763792514801,0.006219267845153809,0.0746971145272255
1783169412614683000,8.460682861328126,0.0006670542061328888,0.021052274852991104,0.05500250682234764
1783169412624662000,8.470662109375,-0.010678545571863651,0.03847414255142212,0.030699029564857483
1783169412634611000,8.48061083984375,-0.005428805947303772,0.04788382351398468,0.01418815553188324
1783169412644558800,8.490558837890624,0.006959687918424606,0.05318059027194977,0.004014880862087011
1783169412654507800,8.5005078125,0.011418592184782028,0.03618064150214195,-0.001917816698551178
1783169412664487000,8.51048681640625,0.003031766042113304,0.016413062810897827,-0.006284601986408234
1783169412674435800,8.520435791015625,-0.0038212742656469345,0.012515924870967865,0.0012328973971307278
1783169412684384800,8.530384765625,-0.007417075335979462,0.024670327082276344,0.014013407751917839
1783169412694364000,8.540364013671875,-0.009753724560141563,0.036875925958156586,0.02269047126173973
1783169412704312800,8.550312744140625,-0.015370064415037632,0.03575819730758667,0.026516634970903397
1783169412714260700,8.5602607421875,-0.01306573674082756,0.031106052920222282,0.02731413021683693
1783169412724210000,8.5702099609375,-0.008465392515063286,0.028539830818772316,0.028987925499677658
1783169412734188800,8.580188720703125,-0.002912001684308052,0.017131755128502846,0.023113079369068146
1783169412744138000,8.590137939453125,0.00047394074499607086,0.014461137354373932,0.019503431394696236
1783169412754087000,8.6000869140625,-0.007099747657775879,0.01565544307231903,0.02014891244471073
1783169412764035800,8.610035888671876,-0.019043492153286934,0.011606105603277683,0.022812606766819954
1783169412774015000,8.620014892578125,-0.033794742077589035,0.016559317708015442,0.022526849061250687
1783169412783964000,8.6299638671875,-0.042748287320137024,0.010331783443689346,0.01844821870326996
1783169412793911800,8.639911865234374,-0.04636254161596298,-0.009917613118886948,0.0043617719784379005
1783169412803892000,8.64989208984375,-0.04230707883834839,-0.023008113726973534,-0.019230373203754425
1783169412813840000,8.65983984375,-0.03437398374080658,-0.018971432000398636,-0.03564031422138214
1783169412823788800,8.669788818359375,-0.027505958452820778,-0.005711286794394255,-0.0531868152320385
1783169412833737700,8.67973779296875,-0.01921224035322666,0.004916304722428322,-0.06333222985267639
1783169412843716900,8.689716796875,-0.006856771185994148,0.015604102984070778,-0.05572570860385895
1783169412853665800,8.699665771484375,-0.0032241065055131912,0.020582856610417366,-0.038952454924583435
1783169412863614000,8.709614013671874,0.000037999823689460754,0.005255565512925386,-0.009158870205283165
1783169412873563000,8.71956298828125,0.003606189042329788,-0.007859479635953903,0.020106516778469086
1783169412883541800,8.729541748046875,0.011093400418758392,-0.01903250627219677,0.048918455839157104
1783169412893490700,8.73949072265625,0.013187292963266373,-0.02616386115550995,0.06479901075363159
1783169412903440000,8.74943994140625,0.008727028965950012,-0.03589877858757973,0.06113689765334129
1783169412913419000,8.7594189453125,-0.00039474666118621826,-0.033140990883111954,0.05487895384430885
1783169412923368000,8.769367919921875,-0.011577093973755836,-0.015821654349565506,0.036778245121240616
1783169412933316900,8.77931689453125,-0.019661225378513336,0.0007002796046435833,0.016794279217720032
1783169412943265000,8.78926513671875,-0.01696903631091118,0.015277357771992683,0.0008464725688099861
1783169412953245000,8.799244873046876,-0.010400178842246532,0.016994228586554527,-0.01606237143278122
1783169412963192800,8.80919287109375,-0.005169464275240898,0.012079630047082901,-0.02804659679532051
1783169412973142000,8.81914208984375,-0.0013328474014997482,0.012656871229410172,-0.03069651685655117
1783169412983091000,8.829091064453126,-0.005183512344956398,0.002020473126322031,-0.021812213584780693
1783169412993069800,8.83906982421875,-0.01269088126718998,-0.00686564389616251,-0.010922621004283428
1783169413003018800,8.849018798828125,-0.026814956218004227,-0.008474726229906082,0.0011183288879692554
1783169413012967000,8.858966796875,-0.0335676483809948,-0.004080323036760092,0.01026359386742115
1783169413022946800,8.86894677734375,-0.03389574959874153,-0.006985032930970192,0.016810709610581398
1783169413032895000,8.87889501953125,-0.0227532759308815,-0.0027781594544649124,0.011433718726038933
1783169413042844000,8.888843994140625,-0.013284672982990742,-0.004365403205156326,0.0046961866319179535
1783169413052793000,8.89879296875,-0.004034906625747681,0.005506009794771671,-0.0059277648106217384
1783169413062771700,8.908771728515624,0.0007904749363660812,0.014843318611383438,-0.010814132168889046
1783169413072721000,8.918720947265625,-0.005622370168566704,0.018240123987197876,-0.010613641701638699
1783169413082670000,8.928670166015625,-0.015999112278223038,0.01128075085580349,-0.003909400664269924
1783169413092618000,8.938617919921874,-0.0222784336656332,-0.0006476305425167084,0.002815462648868561
1783169413102598000,8.948597900390626,-0.020116213709115982,-0.011995892971754074,0.0030676638707518578
1783169413112546000,8.958546142578125,-0.01279428880661726,-0.00845516100525856,0.0027650310657918453
1783169413122519000,8.96851904296875,-0.004791222512722015,0.0035876529291272163,0.004329638089984655
1783169413132468000,8.978468017578125,-0.0025789402425289154,-0.0005537383258342743,-0.0053011467680335045
1783169413142447000,8.988447021484374,-0.005965149030089378,-0.0034672364126890898,-0.012326566502451897
1783169413152396000,8.99839599609375,-0.010336456820368767,0.003494975157082081,-0.011829091235995293
1783169413162344000,9.008343994140626,-0.014318947680294514,0.008480945602059364,-0.009678322821855545
1783169413172323800,9.01832373046875,-0.010215219110250473,0.011629551649093628,-0.005270328372716904
1783169413182272000,9.02827197265625,-0.0046180542558431625,0.011853789910674095,-0.0013544168323278427
1783169413192221000,9.038220947265625,-0.003986656665802002,0.004362925421446562,0.005949888378381729
1783169413202170000,9.048170166015625,-0.010805414989590645,-0.0029197554104030132,0.00986899621784687
1783169413212149200,9.058149169921874,-0.022008242085576057,-0.007279155310243368,0.00931769609451294
1783169413222098200,9.06809814453125,-0.02888558991253376,-0.008126040920615196,0.009688674472272396
1783169413232047000,9.078047119140624,-0.03204095736145973,-0.0018877156544476748,0.006240460556000471
1783169413241995000,9.0879951171875,-0.02673194743692875,0.007015497889369726,0.007884429767727852
1783169413251975200,9.09797509765625,-0.02376912534236908,0.005101880058646202,0.006767186801880598
1783169413261923000,9.107923095703125,-0.018019359558820724,0.006457429379224777,0.010013580322265625
1783169413271872000,9.1178720703125,-0.015856798738241196,0.001299288123846054,0.009489132091403008
1783169413281851100,9.12785107421875,-0.010724088177084923,-0.0007249806076288223,0.013762973248958588
1783169413291800000,9.137800048828124,-0.006624354049563408,0.008585995063185692,0.017814090475440025
1783169413301749000,9.1477490234375,-0.01072908379137516,0.012115215882658958,0.021908434107899666
1783169413311697000,9.15769677734375,-0.021930892020463943,0.002248823642730713,0.020668495446443558
1783169413321677000,9.167677001953125,-0.029199723154306412,-0.004264469724148512,0.011632123962044716
1783169413331625000,9.177625,-0.024875519797205925,0.0015462725423276424,0.00911991111934185
1783169413341574000,9.187573974609375,-0.013358945958316326,0.009541880339384079,0.005419448483735323
1783169413351522800,9.197522705078125,-0.00504806824028492,0.010871680453419685,0.0002588573843240738
1783169413361502000,9.207501953125,0.003174707293510437,0.008461253717541695,-0.005486913025379181
1783169413371451100,9.217451171875,0.00581820122897625,0.008196376264095306,-0.006350900046527386
1783169413381400000,9.227400146484374,-0.0002756435424089432,0.0008881287649273872,-0.009214863181114197
1783169413391379200,9.237379150390625,-0.0037429258227348328,0.0011091921478509903,-0.005763012915849686
1783169413401328000,9.247328125,-0.005512597039341927,0.003360095899552107,-0.0005173850804567337
1783169413411276000,9.257276123046875,-0.008093813434243202,0.003151251468807459,0.0011652745306491852
1783169413421225000,9.267224853515625,-0.005401358008384705,0.0022963769733905792,0.005044435150921345
1783169413431204000,9.2772041015625,-0.0013892501592636108,-0.0038063933607190847,-0.0030883727595210075
1783169413441153000,9.287153076171874,0.0042734295129776,-0.015774372965097427,-0.011414213106036186
1783169413451102000,9.29710205078125,0.006774211302399635,-0.015546537935733795,-0.015599709935486317
1783169413461051000,9.30705078125,0.008654935285449028,-0.0015835838858038187,-0.015145107172429562
1783169413471030000,9.317030029296875,0.002623504027724266,0.010927217081189156,-0.004703483544290066
1783169413480979000,9.32697900390625,-0.002262597903609276,0.02117532677948475,0.009272519499063492
1783169413490927000,9.336927001953125,-0.008738560602068901,0.012700190767645836,0.021063877269625664
1783169413500906000,9.346906005859376,-0.015243330970406532,-0.004320869687944651,0.020953357219696045
1783169413510855000,9.35685498046875,-0.022234246134757996,-0.0292951799929142,0.014661232009530067
1783169413520803800,9.366803955078124,-0.03250152990221977,-0.03647932410240173,-0.00304585974663496
1783169413530753000,9.3767529296875,-0.03473658114671707,-0.026393922045826912,-0.024085775017738342
1783169413540732200,9.386732177734375,-0.027608362957835197,-0.009847968816757202,-0.04308157041668892
1783169413550681000,9.39668115234375,-0.019109293818473816,0.012938028201460838,-0.05921752005815506
1783169413560629200,9.406629150390625,-0.008499791845679283,0.02341010980308056,-0.062492676079273224
1783169413570578200,9.416578125,-0.00007117725908756256,0.023857593536376953,-0.04861784726381302
1783169413580557000,9.42655712890625,-0.0010195299983024597,0.009421663358807564,-0.029505141079425812
1783169413590506000,9.436506103515624,-0.006104597821831703,-0.008383365347981453,0.0007643736898899078
1783169413600455200,9.446455078125,-0.012336928397417068,-0.0213638786226511,0.027747787535190582
1783169413610434000,9.45643408203125,-0.01762031950056553,-0.028529787436127663,0.050143592059612274
1783169413620383000,9.466383056640625,-0.02327927015721798,-0.025914829224348068,0.05861883610486984
1783169413630332000,9.476331787109375,-0.022356348112225533,-0.013072369620203972,0.05231257900595665
1783169413640280000,9.486280029296875,-0.017133887857198715,0.000750501174479723,0.03389868512749672
1783169413650260000,9.496260009765624,-0.009428827092051506,0.014879215508699417,0.012591279111802578
1783169413660207900,9.506207763671876,-0.0012465305626392365,0.025886325165629387,-0.006181609816849232
1783169413670157000,9.516156982421874,0.00012097321450710297,0.02305758185684681,-0.015814507380127907
1783169413680106000,9.52610595703125,-0.0013626739382743835,0.02485494874417782,-0.01800895296037197
1783169413690084900,9.5360849609375,-0.003812752664089203,0.013604892417788506,-0.008175251074135303
1783169413700034000,9.546033935546875,-0.004715563729405403,0.0046737161464989185,0.006704361643642187
1783169413709982000,9.55598193359375,-0.007967887446284294,0.0045473468489944935,0.02220696024596691
1783169413719962000,9.565962158203124,-0.010620130226016045,-0.007451524958014488,0.03220713138580322
1783169413729910000,9.575909912109376,-0.006068019196391106,-0.014729181304574013,0.03262525796890259
1783169413739859200,9.585859130859374,0.00020825304090976715,-0.014697754755616188,0.02801612764596939
1783169413749808000,9.59580810546875,0.004225021228194237,-0.011972690001130104,0.01915878802537918
1783169413759787000,9.605787109375,0.005682038143277168,-0.008951600641012192,0.005999043583869934
1783169413769736000,9.61573583984375,0.00658024288713932,-0.007038268726319075,-0.014424938708543777
1783169413779685000,9.62568505859375,0.002355402335524559,0.004284160677343607,-0.022489257156848907
1783169413789633000,9.635633056640625,-0.003054717555642128,0.01830277219414711,-0.02335243672132492
1783169413799613000,9.645613037109374,-0.011681494303047657,0.02944490686058998,-0.014265998266637325
1783169413809561000,9.65556103515625,-0.01453979592770338,0.0229682307690382,-0.007665426470339298
1783169413819510000,9.665510009765624,-0.006879746913909912,0.006580735091120005,0.004377921111881733
1783169413829489000,9.675489013671875,0.002948746085166931,-0.0041362871415913105,0.02075599879026413
1783169413839438000,9.68543798828125,0.013961715623736382,-0.008102000690996647,0.031205441802740097
1783169413849387000,9.695386962890625,0.012807914987206459,-0.012316270731389523,0.03849303349852562
1783169413859335000,9.7053349609375,0.009778568521142006,-0.015318452380597591,0.03518378734588623
1783169413869315000,9.715315185546874,-0.0004703402519226074,-0.007324707694351673,0.02923641726374626
1783169413879263000,9.725262939453126,-0.006229959428310394,0.0038760146126151085,0.020472485572099686
1783169413889212200,9.735212158203124,-0.01420680433511734,0.008229035884141922,0.004877433180809021
1783169413899161000,9.7451611328125,-0.012049111537635326,0.014027535915374756,-0.00556615274399519
1783169413909140200,9.75514013671875,-0.00909256562590599,0.015951866284012794,-0.0077439891174435616
1783169413919089200,9.765089111328125,-0.004322046414017677,0.011423960328102112,-0.004437408410012722
1783169413929038000,9.7750380859375,-0.0026995260268449783,0.0031359344720840454,-0.0037919804453849792
1783169413939017000,9.785016845703124,0.00004672631621360779,-0.007559053599834442,-0.0012984629720449448
1783169413948966100,9.794966064453124,0.00282437726855278,-0.00622287392616272,0.0036909948103129864
1783169413958914000,9.8049140625,0.0041967034339904785,0.00416957912966609,0.007297980133444071
1783169413968863000,9.814863037109374,0.003801543265581131,0.014320602640509605,0.00281476229429245
1783169413978842000,9.824842041015625,0.0009927060455083847,0.020565714687108994,-0.0045592645183205605
1783169413988791000,9.834791015625,-0.0005179140716791153,0.019055558368563652,-0.014321276918053627
1783169413998740000,9.844739990234375,-0.0025493744760751724,0.008408507332205772,-0.016365254297852516
1783169414008687900,9.85468798828125,-0.0054741594940423965,0.003342128824442625,-0.018077032640576363
1783169414018668000,9.86466796875,-0.00928540900349617,0.0005942797288298607,-0.010015377774834633
1783169414028616000,9.874615966796876,-0.006834913045167923,-0.010627055540680885,-0.000049427151679992676
1783169414038564900,9.88456494140625,-0.000715767964720726,-0.01125449687242508,0.006542428862303495
1783169414048544000,9.8945439453125,0.0072268228977918625,-0.009379011578857899,0.010432004928588867
1783169414058493200,9.9044931640625,0.01576225645840168,-0.0026393497828394175,0.005795442033559084
1783169414068442000,9.914442138671875,0.015235861763358116,-0.013311460614204407,-0.0045167142525315285
1783169414078391000,9.92439111328125,0.011633669957518578,-0.009996358305215836,-0.022197440266609192
1783169414088370200,9.9343701171875,0.00006137415766716003,-0.0005237809382379055,-0.03160523623228073
1783169414098319000,9.944319091796874,-0.007315583527088165,0.014432798139750957,-0.03440554812550545
1783169414108267000,9.95426708984375,-0.00790679082274437,0.03293217718601227,-0.032546691596508026
1783169414118234600,9.964234619140624,-0.0038673076778650284,0.0162727739661932,-0.0326223261654377
1783169414128213800,9.9742138671875,0.003985852003097534,-0.03350096940994263,-0.032831668853759766
1783169414138162700,9.98416259765625,0.009840279817581177,-0.05410957708954811,-0.03471052646636963
1783169414148111600,9.994111572265625,0.012100165709853172,-0.029244037345051765,-0.02624426782131195
1783169414158090500,10.004090576171874,0.007413534447550774,0.009205084294080734,-0.011245344765484333
1783169414168039700,10.014039794921874,0.0008069854229688644,0.03749377280473709,0.008217881433665752
1783169414177987600,10.023987548828124,-0.004388308152556419,0.05264369398355484,0.027825936675071716
1783169414187936500,10.0339365234375,-0.006908625364303589,0.05008898302912712,0.04601682722568512
1783169414197915600,10.04391552734375,-0.006520070135593414,0.014723271131515503,0.052132245153188705
1783169414207864600,10.053864501953125,0.004066880792379379,-0.024623991921544075,0.04914488270878792
1783169414217813800,10.063813720703125,0.013608455657958984,-0.05665595829486847,0.03537527471780777
1783169414227762700,10.0737626953125,0.023089364171028137,-0.0690605565905571,0.023656785488128662
1783169414237741800,10.083741943359374,0.01950661465525627,-0.038966305553913116,0.01564519852399826
1783169414247690800,10.093690673828124,0.01414141058921814,0.008359396830201149,-0.0012520262971520424
1783169414257638700,10.103638671875,0.007968999445438385,0.03869892656803131,-0.01426582969725132
1783169414267618600,10.11361865234375,0.0020111724734306335,0.037165869027376175,-0.02474662847816944
1783169414277566700,10.123566650390625,0.0016284752637147903,0.021896902471780777,-0.03153315931558609
1783169414287515600,10.133515625,0.011653495952486992,0.0073122289031744,-0.02793239988386631
1783169414297464600,10.143464599609375,0.02379324845969677,0.005042150616645813,-0.01565576158463955
1783169414307443700,10.153443603515624,0.029619408771395683,-0.01217670738697052,-0.01423011813312769
1783169414317392600,10.163392578125,0.026685936376452446,-0.046204451471567154,-0.022478193044662476
1783169414327340500,10.173340576171874,0.019047297537326813,-0.06092289462685585,-0.04138170927762985
1783169414337289500,10.18328955078125,0.01565522700548172,-0.037297725677490234,-0.05723976343870163
1783169414347268600,10.1932685546875,0.013459546491503716,-0.009579192847013474,-0.07796162366867065
1783169414357217500,10.203217529296875,-0.004105333238840103,0.01589527353644371,-0.09780536592006683
1783169414367166500,10.21316650390625,-0.018554244190454483,0.06010761111974716,-0.10624898970127106
1783169414377145600,10.2231455078125,-0.013158680871129036,0.07520986348390579,-0.09416729211807251
1783169414387094500,10.233094482421874,0.005202135071158409,0.05810253322124481,-0.06607142090797424
1783169414397043700,10.243043701171874,0.014578325673937798,0.021792463958263397,-0.017223721370100975
1783169414406991600,10.25299169921875,0.01171799935400486,-0.015238052234053612,0.037064384669065475
1783169414416971800,10.2629716796875,0.003838770091533661,-0.03937721252441406,0.07819211483001709
1783169414426919700,10.272919677734375,-0.0035248957574367523,-0.06074601039290428,0.10228785872459412
1783169414436868600,10.28286865234375,-0.004147009924054146,-0.060885027050971985,0.10133444517850876
1783169414446817500,10.292817626953125,-0.006325537338852882,-0.049758460372686386,0.07929207384586334
1783169414456796700,10.302796630859374,-0.0056879762560129166,-0.01633179374039173,0.04936373606324196
1783169414466745600,10.31274560546875,-0.003977594897150993,0.019306965172290802,0.015546556562185287
1783169414476694500,10.322694580078124,-0.004113415256142616,0.03734908252954483,-0.013774845749139786
1783169414486673700,10.332673583984375,-0.0033006854355335236,0.03818998485803604,-0.03926867991685867
1783169414496622600,10.34262255859375,-0.0029416922479867935,0.027574356645345688,-0.051371149718761444
1783169414506570500,10.352570556640625,-0.0037960000336170197,0.01266796700656414,-0.04525096341967583
1783169414516519400,10.36251953125,-0.006792588159441948,0.014043223112821579,-0.03249788284301758
1783169414526498600,10.37249853515625,-0.010788151063024998,0.009148681536316872,-0.012875951826572418
1783169414536447500,10.382447509765624,-0.006724167615175247,0.0023560230620205402,0.001990079414099455
1783169414546396700,10.392396728515624,0.0003326013684272766,0.0070526329800486565,0.024394523352384567
1783169414556344600,10.402344482421874,0.0005672257393598557,-0.00012911297380924225,0.04150400310754776
1783169414566324700,10.41232470703125,-0.003739345818758011,-0.007499929517507553,0.04347818344831467
1783169414576272600,10.422272705078125,0.0005597937852144241,-0.010620888322591782,0.033418092876672745
1783169414586221600,10.4322216796875,0.00715973787009716,-0.014424344524741173,0.017051808536052704
1783169414596200700,10.44220068359375,0.011504417285323143,-0.013674132525920868,-0.011898350901901722
1783169414606149600,10.452149658203124,0.011366240680217743,-0.0005389628931879997,-0.04013590142130852
1783169414616098600,10.4620986328125,0.010367553681135178,0.012835964560508728,-0.056425392627716064
1783169414626047500,10.472047607421874,0.009188041090965271,0.031807791441679,-0.0648665502667427
1783169414636026600,10.482026611328125,0.004511529579758644,0.03794238343834877,-0.05271267890930176
1783169414645975600,10.4919755859375,0.0017430074512958527,0.02594144642353058,-0.031862884759902954
1783169414655923700,10.501923828125,-0.007075518369674683,0.008296674117445946,0.0034426404163241386
1783169414665872600,10.51187255859375,-0.012038673274219036,0.0010058614425361156,0.035633161664009094
1783169414675851500,10.5218515625,-0.012901270762085915,-0.007522379048168659,0.054905928671360016
1783169414685800400,10.531800537109374,-0.003254218026995659,-0.01891699619591236,0.058239880949258804
1783169414695749600,10.54174951171875,0.007419463247060776,-0.02287711575627327,0.04658375680446625
1783169414705728500,10.551728515625,0.008871123194694519,-0.012569792568683624,0.01985127106308937
1783169414715677400,10.561677490234375,0.005511544644832611,0.004348736256361008,-0.01114792563021183
1783169414725625600,10.57162548828125,-0.00017894059419631958,0.019034145399928093,-0.03814958781003952
1783169414735574800,10.58157470703125,-0.0087247584015131,0.038606248795986176,-0.061648525297641754
1783169414745553700,10.5915537109375,-0.01732364296913147,0.03701380267739296,-0.06721898168325424
1783169414755502600,10.601502685546874,-0.02358819730579853,0.023514239117503166,-0.06509830802679062
1783169414765451800,10.61145166015625,-0.019855229184031487,0.011205645278096199,-0.046916671097278595
1783169414775400700,10.621400634765624,-0.01663173921406269,-0.00009814230725169182,-0.02161397598683834
1783169414785379600,10.631379638671875,-0.012560083530843258,0.00019555911421775818,0.008144752122461796
1783169414795328500,10.64132861328125,-0.00821300595998764,-0.003029795363545418,0.03895778954029083
1783169414805276700,10.651276611328125,-0.006176814436912537,-0.011567910201847553,0.05566628649830818
1783169414815256600,10.661256591796874,-0.002178078517317772,-0.012080568820238113,0.05668387934565544
1783169414825204700,10.671204833984374,0.002609679475426674,-0.0038336962461471558,0.04855651408433914
1783169414835153700,10.681153564453124,0.0019803736358880997,-0.00498870899900794,0.0345245860517025
1783169414845102600,10.6911025390625,-0.0001824740320444107,-0.004404743667691946,0.013703559525310993
1783169414855081500,10.70108154296875,-0.004386540502309799,0.0039040525443851948,-0.011766379699110985
1783169414865030400,10.711030517578125,-0.0027656275779008865,0.011403322219848633,-0.033194564282894135
1783169414874978600,10.720978515625,0.002471745014190674,0.012314654886722565,-0.039321430027484894
1783169414884927500,10.730927490234375,0.001347096636891365,0.01772717386484146,-0.0330938994884491
1783169414894906600,10.74090673828125,-0.00017729587852954865,0.01651783287525177,-0.021061206236481667
1783169414904855800,10.750855712890624,-0.0035596080124378204,0.005076834000647068,-0.007345561869442463
1783169414914804700,10.7608046875,-0.0007124226540327072,-0.0064360108226537704,0.011043565347790718
1783169414924783600,10.77078369140625,0.005125906318426132,-0.019923310726881027,0.02858593314886093
1783169414934732800,10.78073291015625,0.006389308720827103,-0.024250682443380356,0.03361717611551285
1783169414944681700,10.790681640625,0.0070597026497125626,-0.013448499143123627,0.030291084200143814
1783169414954629600,10.800629638671875,0.005860747769474983,0.007037600968033075,0.022636359557509422
1783169414964609500,10.810609619140624,-0.0016261972486972809,0.018435398116707802,0.011900357902050018
1783169414974557700,10.8205576171875,-0.005829731002449989,0.022174475714564323,-0.0002982513979077339
1783169414984506600,10.830506591796874,-0.0067758820950984955,0.025886788964271545,-0.006229715421795845
1783169414994455600,10.84045556640625,-0.0011864397674798965,0.022715497761964798,-0.007117879576981068
1783169415004434700,10.8504345703125,0.003959387540817261,0.022172080352902412,0.006994934286922216
1783169415014383600,10.860383544921875,0.001957755535840988,0.013804161921143532,0.021761629730463028
1783169415024331500,10.87033154296875,-0.0015064291656017303,0.00019660405814647675,0.03675118461251259
1783169415034311400,10.8803115234375,-0.0021690241992473602,-0.006902052089571953,0.041300397366285324
1783169415044259600,10.890259521484374,0.003990545868873596,-0.011332083493471146,0.036663614213466644
1783169415054208500,10.90020849609375,0.009953096508979797,-0.016325777396559715,0.026727892458438873
1783169415064157700,10.91015771484375,0.013632353395223618,-0.016266321763396263,0.011692122556269169
1783169415074136800,10.92013671875,0.01424754410982132,-0.002597381826490164,-0.00560031458735466
1783169415084085800,10.930085693359375,0.014522507786750793,-0.003689543576911092,-0.01709517277777195
1783169415094034700,10.94003466796875,0.01070726290345192,-0.01823386549949646,-0.019574575126171112
1783169415103982600,10.949982666015625,0.004884036257863045,-0.012996826320886612,-0.01023625023663044
1783169415113962800,10.959962646484374,-0.002403438091278076,0.019780561327934265,0.005970948375761509
1783169415123933700,10.96993359375,-0.009303001686930656,0.038055095821619034,0.02340652048587799
1783169415133883000,10.9798828125,-0.011842058971524239,0.03160518780350685,0.03731674328446388
1783169415143861800,10.98986181640625,-0.011270499788224697,0.012528106570243835,0.04415329545736313
1783169415153810700,10.999810791015625,-0.007339939475059509,-0.00997826736420393,0.03693293407559395
1783169415163759600,11.009759521484375,-0.0030999258160591125,-0.033635225147008896,0.019208788871765137
1783169415173707800,11.019707763671875,-0.003470905125141144,-0.046207211911678314,-0.0064587583765387535
1783169415183687700,11.029687744140626,-0.0025241076946258545,-0.04002838954329491,-0.0319678857922554
1783169415193635600,11.039635498046875,-0.002382960170507431,-0.02270425856113434,-0.04913675785064697
1783169415203584800,11.049584716796875,0.001377122476696968,0.009857997298240662,-0.04761207848787308
1783169415213533700,11.05953369140625,0.012133099138736725,0.03479636833071709,-0.025590933859348297
1783169415223512600,11.0695126953125,0.02382989414036274,0.039582759141922,0.010272367857396603
1783169415233461800,11.079461669921875,0.0370628759264946,0.02251003310084343,0.0356949046254158
1783169415243411000,11.089410888671875,0.0494314581155777,0.011241268366575241,0.052733469754457474
1783169415253389800,11.099389892578126,0.05173482745885849,0.004250203724950552,0.054663993418216705
1783169415263338800,11.1093388671875,0.04282116889953613,-0.003955941181629896,0.04486919566988945
1783169415273287000,11.119286865234375,0.03244469314813614,0.0004515904001891613,0.0351630374789238
1783169415283235800,11.12923583984375,0.02347748354077339,0.020839828997850418,0.026245014742016792
1783169415293214700,11.139214599609375,0.011898059397935867,0.02993079647421837,0.022755742073059082
1783169415303163600,11.14916357421875,0.002299804240465164,0.0327938050031662,0.018054138869047165
1783169415313112800,11.15911279296875,-0.00004510954022407532,0.027369745075702667,0.010503810830414295
1783169415323061800,11.169061767578125,0.00635996088385582,0.015325360000133514,-0.0013878978788852692
1783169415333040600,11.17904052734375,0.0105762779712677,0.007031743880361319,-0.007484406232833862
1783169415342988800,11.18898876953125,0.013492735102772713,0.018785007297992706,-0.010910584591329098
1783169415352937700,11.198937744140625,0.01563524641096592,0.04143252968788147,-0.008172056637704372
1783169415362916600,11.20891650390625,0.021092591807246208,0.06469406932592392,-0.0003745993599295616
1783169415372865800,11.21886572265625,0.026254596188664436,0.08299370855093002,0.0059370920062065125
1783169415382814700,11.228814697265625,0.029031850397586823,0.09069439768791199,0.013438303023576736
1783169415392764000,11.238763916015625,0.028573788702487946,0.09213224053382874,0.024450208991765976
1783169415402742500,11.248742431640625,0.02298676036298275,0.09131565690040588,0.03923901170492172
1783169415412691700,11.258691650390626,0.018309982493519783,0.09460759162902832,0.04986795783042908
1783169415422639900,11.268639892578125,0.013408798724412918,0.06304972618818283,0.043044835329055786
1783169415432588800,11.2785888671875,0.007842790335416794,0.045089103281497955,0.03356025367975235
1783169415442568000,11.28856787109375,0.0028484854847192764,0.04044821858406067,0.0248403400182724
1783169415452516900,11.298516845703125,0.00047321245074272156,0.03289416432380676,0.011584190651774406
1783169415462465800,11.3084658203125,0.011633725836873055,0.021892830729484558,-0.006713061593472958
1783169415472444700,11.318444580078125,0.027174336835741997,0.027753915637731552,-0.01572280004620552
1783169415482393900,11.328393798828126,0.04031252861022949,0.04021086543798447,-0.010012469254434109
1783169415492342800,11.3383427734375,0.03868800401687622,0.04001219570636749,-0.0004338780418038368
1783169415502290700,11.348290771484375,0.027668064460158348,0.012905804440379143,0.015535015612840652
1783169415512270600,11.3582705078125,0.015133632346987724,-0.020650824531912804,0.02263020910322666
1783169415522218800,11.36821875,0.0017729010432958603,-0.04045449569821358,0.02013499289751053
1783169415532167700,11.378167724609375,-0.010647548362612724,-0.037543393671512604,0.009433879517018795
1783169415542116600,11.38811669921875,-0.011327787302434444,-0.010647455230355263,0.00019118748605251312
1783169415552095700,11.398095703125,-0.005240334197878838,0.02744799666106701,-0.01078396663069725
1783169415562045000,11.408044921875,0.001958901062607765,0.0441216379404068,-0.021828267723321915
1783169415571992600,11.41799267578125,0.008359542116522789,0.03172915056347847,-0.032356273382902145
1783169415581941800,11.427941650390625,0.012765228748321533,0.012508304789662361,-0.03652258217334747
1783169415591921000,11.4379208984375,0.015257947146892548,0.0027006822638213634,-0.031835682690143585
1783169415601869800,11.447869873046875,0.012194395065307617,0.012913592159748077,-0.022659607231616974
1783169415611818800,11.45781884765625,0.007741857320070267,0.009341760538518429,-0.015423266217112541
1783169415621798000,11.4677978515625,0.0016725137829780579,0.01864018663764,-0.0018193060532212257
1783169415631746800,11.477746826171876,-0.0016508456319570541,0.03134080022573471,0.0071084084920585155
1783169415641695700,11.48769580078125,0.00264623761177063,0.021975670009851456,0.014489555731415749
1783169415651643600,11.4976435546875,0.012479692697525024,0.029063936322927475,0.024076135829091072
1783169415661623800,11.507623779296875,0.017673755064606667,0.026036519557237625,0.033123597502708435
1783169415671571700,11.51757177734375,0.019186964258551598,0.011654917150735855,0.033773139119148254
1783169415681520600,11.527520751953125,0.01395689882338047,0.011435722932219505,0.031898945569992065
1783169415691469600,11.537469482421875,0.01172756589949131,0.014066925272345543,0.03084753267467022
1783169415701448700,11.54744873046875,0.009622996672987938,0.012188686057925224,0.029949400573968887
1783169415711397600,11.557397705078126,0.007096985355019569,0.021453557536005974,0.01966453716158867
1783169415721345500,11.567345458984375,0.011284183710813522,0.028709519654512405,0.013713503256440163
1783169415731325700,11.57732568359375,0.017177492380142212,0.031611569225788116,0.00673149386420846
1783169415741273600,11.587273681640625,0.02401064708828926,0.025645237416028976,-0.0010270867496728897
1783169415751222800,11.597222900390625,0.0206979438662529,0.016607802361249924,-0.0025179237127304077
1783169415761171700,11.607171630859375,0.014079263433814049,0.006249305326491594,-0.004962245002388954
1783169415771150800,11.61715087890625,0.0042391493916511536,0.0006859619170427322,-0.0002481834962964058
1783169415781099800,11.627099853515626,-0.00030536949634552,0.0005788393318653107,0.0007958724163472652
1783169415791048700,11.637048583984376,0.00006188079714775085,0.0002603251487016678,0.001431835349649191
1783169415800996900,11.646996826171875,0.005215935409069061,-0.004133963957428932,-0.0029781460762023926
1783169415810976800,11.656976806640625,0.010216020047664642,-0.006052239332348108,-0.0025259414687752724
1783169415820924700,11.666924560546875,0.017663482576608658,0.002645517233759165,0.0011687367223203182
1783169415830873600,11.67687353515625,0.018414758145809174,0.0022444450296461582,0.0010377089492976665
1783169415840852700,11.686852783203125,0.017798155546188354,-0.010301131755113602,0.002645981963723898
1783169415850801700,11.6968017578125,0.013484098017215729,-0.017128145322203636,0.002333060372620821
1783169415860750600,11.70675048828125,0.01125526987016201,-0.01899753510951996,-0.0005267756059765816
1783169415870698800,11.71669873046875,0.011743960902094841,-0.016856353729963303,0.00019547343254089355
1783169415880678700,11.7266787109375,0.00894429162144661,-0.006567193660885096,0.0018656491301953793
1783169415890626600,11.73662646484375,0.004288818687200546,0.030757807195186615,0.0003164885565638542
1783169415900575700,11.74657568359375,0.005753142759203911,0.09716790914535522,-0.005734311416745186
1783169415910525000,11.75652490234375,0.012630758807063103,0.1645333617925644,0.0021164207719266415
1783169415920503800,11.76650390625,0.005470830947160721,0.1585293710231781,0.027672678232192993
1783169415930452700,11.77645263671875,-0.02114240452647209,0.10317955911159515,0.09698411077260971
1783169415940402000,11.78640185546875,-0.07310045510530472,0.029864482581615448,0.20653170347213745
1783169415950380800,11.796380859375,-0.09288720786571503,-0.17012985050678253,0.21706050634384155
1783169415960329700,11.806329833984375,-0.06579630076885223,-0.18768814206123352,0.2036670297384262
1783169415970278000,11.81627783203125,-0.026131179183721542,-0.1703467071056366,0.21000055968761444
1783169415980226800,11.826226806640625,-0.016384612768888474,-0.14254076778888702,0.19903665781021118
1783169415990205700,11.836205810546875,-0.003142310306429863,-0.10759931057691574,0.18090613186359406
1783169416000154600,11.846154541015625,0.02236432582139969,-0.06604775786399841,0.1521429419517517
1783169416010103800,11.856103759765626,0.017548799514770508,-0.09015095978975296,0.1341053545475006
1783169416020051700,11.8660517578125,-0.024038467556238174,-0.19575218856334686,0.15131381154060364
