time,seconds_elapsed,z,y,x
1783169382702371600,0.09837158203125,-0.8421783447265625,-0.4813995361328125,0.1193084716796875
1783169382712350700,0.108350830078125,-0.845489501953125,-0.480987548828125,0.116302490234375
1783169382722299600,0.118299560546875,-0.8529205322265625,-0.4842987060546875,0.11407470703125
1783169382732248600,0.12824853515625,-0.85760498046875,-0.4856414794921875,0.1089935302734375
1783169382742227500,0.1382275390625,-0.8619842529296875,-0.4817657470703125,0.1031646728515625
1783169382752176600,0.1481767578125,-0.866729736328125,-0.4775238037109375,0.1009368896484375
1783169382762124500,0.15812451171875,-0.8695831298828125,-0.47747802734375,0.101593017578125
1783169382772073500,0.168073486328125,-0.878204345703125,-0.478790283203125,0.1026611328125
1783169382782052600,0.178052490234375,-0.8863067626953125,-0.4806060791015625,0.101165771484375
1783169382792001500,0.18800146484375,-0.8892059326171875,-0.4779510498046875,0.1006927490234375
1783169382801950500,0.197950439453125,-0.8911590576171875,-0.4741363525390625,0.0992584228515625
1783169382811898400,0.2078984375,-0.8918609619140625,-0.474365234375,0.0982666015625
1783169382821878500,0.21787841796875,-0.8937835693359375,-0.4751434326171875,0.0940399169921875
1783169382831826400,0.227826416015625,-0.8912353515625,-0.473785400390625,0.089080810546875
1783169382841775600,0.237775634765625,-0.8838653564453125,-0.47113037109375,0.088348388671875
1783169382851754500,0.24775439453125,-0.8796234130859375,-0.46820068359375,0.0872802734375
1783169382861703700,0.25770361328125,-0.8792877197265625,-0.4687957763671875,0.0887298583984375
1783169382871652600,0.267652587890625,-0.878692626953125,-0.470703125,0.088897705078125
1783169382881601500,0.2776015625,-0.87603759765625,-0.4697723388671875,0.087738037109375
1783169382891580700,0.28758056640625,-0.8696441650390625,-0.465423583984375,0.0875091552734375
1783169382901529600,0.297529541015625,-0.8653717041015625,-0.4644927978515625,0.0910491943359375
1783169382911477500,0.3074775390625,-0.865509033203125,-0.4678497314453125,0.09210205078125
1783169382921426400,0.317426513671875,-0.8575439453125,-0.467437744140625,0.08843994140625
1783169382931405600,0.327405517578125,-0.8546600341796875,-0.4653167724609375,0.0856475830078125
1783169382941354500,0.3373544921875,-0.8567047119140625,-0.465667724609375,0.085784912109375
1783169382951303400,0.347303466796875,-0.8592987060546875,-0.471710205078125,0.086883544921875
1783169382961282600,0.357282470703125,-0.858367919921875,-0.473724365234375,0.0878448486328125
1783169382971231500,0.3672314453125,-0.8585205078125,-0.4735870361328125,0.0880889892578125
1783169382981179400,0.377179443359375,-0.858367919921875,-0.4717864990234375,0.0872039794921875
1783169382991128300,0.38712841796875,-0.857818603515625,-0.4707794189453125,0.0881500244140625
1783169383001107500,0.397107421875,-0.86016845703125,-0.47308349609375,0.0898590087890625
1783169383011056600,0.407056640625,-0.86517333984375,-0.474609375,0.0908966064453125
1783169383021005600,0.417005615234375,-0.86138916015625,-0.473052978515625,0.0918731689453125
1783169383030954500,0.42695458984375,-0.860687255859375,-0.4705352783203125,0.0909576416015625
1783169383040933600,0.43693359375,-0.863861083984375,-0.4719085693359375,0.0910797119140625
1783169383050882600,0.446882568359375,-0.861572265625,-0.4738006591796875,0.09149169921875
1783169383060830700,0.456830810546875,-0.8597564697265625,-0.4730224609375,0.0914764404296875
1783169383070810600,0.466810546875,-0.8597869873046875,-0.4721221923828125,0.091461181640625
1783169383080758500,0.476758544921875,-0.8608856201171875,-0.471893310546875,0.0906524658203125
1783169383090711600,0.486711669921875,-0.8625030517578125,-0.4709320068359375,0.0887451171875
1783169383100660500,0.496660400390625,-0.866241455078125,-0.4716796875,0.0880889892578125
1783169383110639600,0.5066396484375,-0.8698577880859375,-0.472442626953125,0.0891265869140625
1783169383120588800,0.5165888671875,-0.86505126953125,-0.4723663330078125,0.0884857177734375
1783169383130536400,0.526536376953125,-0.8628387451171875,-0.469085693359375,0.0895233154296875
1783169383140486000,0.53648583984375,-0.8639984130859375,-0.4701385498046875,0.0910797119140625
1783169383150464800,0.54646484375,-0.8639068603515625,-0.4736480712890625,0.0915679931640625
1783169383160413700,0.55641357421875,-0.8648681640625,-0.4731597900390625,0.0911712646484375
1783169383170362600,0.566362548828125,-0.86688232421875,-0.4715728759765625,0.092041015625
1783169383180341800,0.576341796875,-0.8680877685546875,-0.4720001220703125,0.090667724609375
1783169383190290700,0.586290771484375,-0.870941162109375,-0.4738006591796875,0.088165283203125
1783169383200239600,0.596239501953125,-0.8751068115234375,-0.473724365234375,0.08575439453125
1783169383210187800,0.606187744140625,-0.8745269775390625,-0.4718170166015625,0.08697509765625
1783169383220167700,0.616167724609375,-0.8739166259765625,-0.4712066650390625,0.086669921875
1783169383230115600,0.626115478515625,-0.8740234375,-0.4706573486328125,0.0880126953125
1783169383240064500,0.636064453125,-0.876678466796875,-0.4712982177734375,0.0900115966796875
1783169383250013700,0.646013671875,-0.88446044921875,-0.4725799560546875,0.0902862548828125
1783169383259992600,0.65599267578125,-0.885986328125,-0.4741363525390625,0.08477783203125
1783169383269941500,0.66594140625,-0.8776702880859375,-0.475341796875,0.0784759521484375
1783169383279889700,0.6758896484375,-0.8803253173828125,-0.4725189208984375,0.08026123046875
1783169383289869800,0.685869873046875,-0.8856964111328125,-0.4725494384765625,0.0826873779296875
1783169383299817500,0.6958173828125,-0.8785858154296875,-0.4737396240234375,0.0807342529296875
1783169383309766700,0.7057666015625,-0.8750457763671875,-0.4716949462890625,0.0811767578125
1783169383319715800,0.7157158203125,-0.872589111328125,-0.471405029296875,0.0832366943359375
1783169383329694700,0.72569482421875,-0.86572265625,-0.4731292724609375,0.0843048095703125
1783169383339643600,0.7356435546875,-0.8609619140625,-0.4752960205078125,0.0860137939453125
1783169383349592600,0.745592529296875,-0.8576812744140625,-0.4730072021484375,0.0873565673828125
1783169383359540700,0.755540771484375,-0.85400390625,-0.473052978515625,0.0858612060546875
1783169383369520600,0.765520751953125,-0.851287841796875,-0.473968505859375,0.083404541015625
1783169383379468800,0.77546875,-0.8534393310546875,-0.4731597900390625,0.0810394287109375
1783169383389417700,0.785417724609375,-0.853759765625,-0.4685516357421875,0.0827178955078125
1783169383399396600,0.795396728515625,-0.851104736328125,-0.4668121337890625,0.0826873779296875
1783169383409345500,0.805345458984375,-0.8488006591796875,-0.4673004150390625,0.08251953125
1783169383419294700,0.815294677734375,-0.84466552734375,-0.471466064453125,0.080810546875
1783169383429243600,0.82524365234375,-0.84674072265625,-0.4771575927734375,0.0795745849609375
1783169383439222500,0.835222412109375,-0.843475341796875,-0.4821319580078125,0.080078125
1783169383449170700,0.845170654296875,-0.8384246826171875,-0.48388671875,0.0791015625
1783169383459119600,0.85511962890625,-0.84149169921875,-0.483978271484375,0.0771331787109375
1783169383469068800,0.86506884765625,-0.8447723388671875,-0.4838409423828125,0.0769195556640625
1783169383479047700,0.875047607421875,-0.84686279296875,-0.4849395751953125,0.07550048828125
1783169383488996900,0.884996826171875,-0.8539581298828125,-0.4854888916015625,0.0757598876953125
1783169383498945800,0.89494580078125,-0.8594512939453125,-0.485321044921875,0.0785980224609375
1783169383508924700,0.904924560546875,-0.86053466796875,-0.4841766357421875,0.079254150390625
1783169383518873600,0.91487353515625,-0.86639404296875,-0.4843292236328125,0.0809173583984375
1783169383528821800,0.92482177734375,-0.871551513671875,-0.4852447509765625,0.0830078125
1783169383538770700,0.934770751953125,-0.87115478515625,-0.4855499267578125,0.0865325927734375
1783169383548749600,0.94474951171875,-0.87359619140625,-0.4847412109375,0.087066650390625
1783169383558698800,0.95469873046875,-0.8759918212890625,-0.48291015625,0.08856201171875
1783169383568647700,0.964647705078125,-0.8770294189453125,-0.48004150390625,0.0876922607421875
1783169383578596600,0.9745966796875,-0.8768157958984375,-0.47735595703125,0.0854339599609375
1783169383588575500,0.984575439453125,-0.8770751953125,-0.474853515625,0.08935546875
1783169383598524700,0.994524658203125,-0.8773345947265625,-0.4759521484375,0.093658447265625
1783169383608472600,1.00447265625,-0.877899169921875,-0.478271484375,0.0953521728515625
1783169383618451700,1.01445166015625,-0.8753509521484375,-0.4769134521484375,0.09375
1783169383628400600,1.024400634765625,-0.869659423828125,-0.4722137451171875,0.0915374755859375
1783169383638349800,1.034349853515625,-0.8685760498046875,-0.4682769775390625,0.091827392578125
1783169383648298800,1.044298828125,-0.8640289306640625,-0.468475341796875,0.0919342041015625
1783169383658277600,1.054277587890625,-0.8599853515625,-0.46856689453125,0.0910491943359375
1783169383668226800,1.064226806640625,-0.8588409423828125,-0.4671630859375,0.088409423828125
1783169383678174700,1.0741748046875,-0.8603973388671875,-0.46710205078125,0.0858001708984375
1783169383688123600,1.08412353515625,-0.863922119140625,-0.4690093994140625,0.0843658447265625
1783169383698102800,1.094102783203125,-0.8658599853515625,-0.4711456298828125,0.08258056640625
1783169383708051700,1.1040517578125,-0.856842041015625,-0.4675140380859375,0.0771942138671875
1783169383718000600,1.114000732421875,-0.8510589599609375,-0.4644622802734375,0.07379150390625
1783169383727979800,1.123979736328125,-0.8497314453125,-0.466827392578125,0.0727691650390625
1783169383737928700,1.1339287109375,-0.8522186279296875,-0.47161865234375,0.0746307373046875
1783169383747877600,1.143877685546875,-0.8565216064453125,-0.473785400390625,0.0729522705078125
1783169383757825500,1.153825439453125,-0.8590240478515625,-0.473114013671875,0.070068359375
1783169383767805700,1.1638056640625,-0.8588714599609375,-0.475128173828125,0.0658416748046875
1783169383777753600,1.173753662109375,-0.8599853515625,-0.475494384765625,0.0606231689453125
1783169383787702500,1.18370263671875,-0.8612213134765625,-0.4774627685546875,0.057281494140625
1783169383797651700,1.193651611328125,-0.8511962890625,-0.4773406982421875,0.0553436279296875
1783169383807630800,1.203630859375,-0.855926513671875,-0.478729248046875,0.0499267578125
1783169383817579800,1.213579833984375,-0.8587493896484375,-0.4855194091796875,0.0485687255859375
1783169383827527700,1.223527587890625,-0.84912109375,-0.4874114990234375,0.0477294921875
1783169383837507800,1.2335078125,-0.846923828125,-0.4845733642578125,0.0477752685546875
1783169383847455700,1.243455810546875,-0.8466949462890625,-0.4813232421875,0.049041748046875
1783169383857404700,1.25340478515625,-0.84649658203125,-0.48193359375,0.0535125732421875
1783169383867353600,1.263353515625,-0.85028076171875,-0.4834747314453125,0.057708740234375
1783169383877332700,1.273332763671875,-0.851104736328125,-0.4821929931640625,0.0596771240234375
1783169383887281700,1.28328173828125,-0.8476409912109375,-0.486236572265625,0.06756591796875
1783169383897230600,1.293230712890625,-0.8401947021484375,-0.486907958984375,0.0806121826171875
1783169383907178800,1.3031787109375,-0.849822998046875,-0.4841766357421875,0.081207275390625
1783169383917158700,1.31315869140625,-0.86138916015625,-0.484344482421875,0.0765380859375
1783169383927106600,1.3231064453125,-0.8664398193359375,-0.4845123291015625,0.075408935546875
1783169383937055500,1.333055419921875,-0.8727264404296875,-0.481658935546875,0.0767669677734375
1783169383947034600,1.34303466796875,-0.8807373046875,-0.4775848388671875,0.077239990234375
1783169383956983600,1.352983642578125,-0.8887481689453125,-0.476409912109375,0.07666015625
1783169383966932700,1.3629326171875,-0.89605712890625,-0.47662353515625,0.074462890625
1783169383976881000,1.372880859375,-0.8994903564453125,-0.47515869140625,0.0730133056640625
1783169383986860800,1.38286083984375,-0.904052734375,-0.4692840576171875,0.07318115234375
1783169383996808700,1.39280859375,-0.90771484375,-0.4642333984375,0.073394775390625
1783169384006757600,1.402757568359375,-0.9094085693359375,-0.462554931640625,0.071380615234375
1783169384016706800,1.412706787109375,-0.9092559814453125,-0.462646484375,0.0681304931640625
1783169384026685700,1.422685791015625,-0.8989410400390625,-0.4616241455078125,0.0679931640625
1783169384036634600,1.432634521484375,-0.892059326171875,-0.46136474609375,0.072021484375
1783169384046583600,1.44258349609375,-0.8833770751953125,-0.4650115966796875,0.0772552490234375
1783169384056562700,1.452562744140625,-0.87506103515625,-0.4713134765625,0.080322265625
1783169384066511600,1.46251171875,-0.8679656982421875,-0.474822998046875,0.0818634033203125
1783169384076459500,1.47245947265625,-0.860260009765625,-0.4729156494140625,0.08453369140625
1783169384086434600,1.4824345703125,-0.8553924560546875,-0.470794677734375,0.0840911865234375
1783169384096413700,1.49241357421875,-0.856201171875,-0.4713287353515625,0.08392333984375
1783169384106362600,1.502362548828125,-0.859771728515625,-0.470703125,0.0871429443359375
1783169384116311600,1.5123115234375,-0.8589019775390625,-0.4692230224609375,0.088165283203125
1783169384126259500,1.522259521484375,-0.8585357666015625,-0.466094970703125,0.0893096923828125
1783169384136239600,1.532239501953125,-0.860748291015625,-0.4657135009765625,0.0911712646484375
1783169384146187500,1.5421875,-0.8651580810546875,-0.4665679931640625,0.0919036865234375
1783169384156136400,1.552136474609375,-0.868804931640625,-0.464569091796875,0.0882415771484375
1783169384166115600,1.562115478515625,-0.8698577880859375,-0.4598541259765625,0.08636474609375
1783169384176064800,1.572064697265625,-0.86846923828125,-0.455535888671875,0.0841827392578125
1783169384186013700,1.582013671875,-0.8720703125,-0.4542999267578125,0.0836639404296875
1783169384195962600,1.591962646484375,-0.8739471435546875,-0.4569854736328125,0.0847015380859375
1783169384205941800,1.601941650390625,-0.874542236328125,-0.4568328857421875,0.085906982421875
1783169384215890700,1.611890625,-0.8792877197265625,-0.45574951171875,0.0861053466796875
1783169384225838600,1.621838623046875,-0.880096435546875,-0.45391845703125,0.0846405029296875
1783169384235787500,1.63178759765625,-0.8835296630859375,-0.45257568359375,0.081573486328125
1783169384245766700,1.6417666015625,-0.886627197265625,-0.4509429931640625,0.077728271484375
1783169384255715600,1.651715576171875,-0.8844146728515625,-0.4499053955078125,0.0725555419921875
1783169384265664500,1.66166455078125,-0.8768768310546875,-0.4505767822265625,0.0695037841796875
1783169384275643600,1.6716435546875,-0.867431640625,-0.4528350830078125,0.0711822509765625
1783169384285592600,1.681592529296875,-0.859893798828125,-0.4571380615234375,0.07403564453125
1783169384295540500,1.69154052734375,-0.855560302734375,-0.4589691162109375,0.0757904052734375
1783169384305489700,1.70148974609375,-0.8556060791015625,-0.46051025390625,0.0748748779296875
1783169384315468500,1.711468505859375,-0.8536529541015625,-0.4631195068359375,0.0726165771484375
1783169384325417500,1.72141748046875,-0.84912109375,-0.46453857421875,0.069061279296875
1783169384335366700,1.73136669921875,-0.8480224609375,-0.4653472900390625,0.0687713623046875
1783169384345315600,1.741315673828125,-0.8538665771484375,-0.46771240234375,0.065826416015625
1783169384355294700,1.751294677734375,-0.8637542724609375,-0.470733642578125,0.062835693359375
1783169384365243600,1.76124365234375,-0.8685150146484375,-0.47186279296875,0.0616455078125
1783169384375191800,1.77119189453125,-0.8673553466796875,-0.46881103515625,0.057586669921875
1783169384385171700,1.781171630859375,-0.8677978515625,-0.464111328125,0.058197021484375
1783169384395119600,1.79111962890625,-0.872467041015625,-0.4623260498046875,0.0625
1783169384405068500,1.801068603515625,-0.877410888671875,-0.465911865234375,0.064544677734375
1783169384415017700,1.811017822265625,-0.87567138671875,-0.468353271484375,0.066619873046875
1783169384424996600,1.82099658203125,-0.8727264404296875,-0.4689178466796875,0.071197509765625
1783169384434945500,1.830945556640625,-0.8727569580078125,-0.4703216552734375,0.0740509033203125
1783169384444894500,1.84089453125,-0.87237548828125,-0.471923828125,0.07476806640625
1783169384454842600,1.850842529296875,-0.8724822998046875,-0.473114013671875,0.0763092041015625
1783169384464821500,1.860821533203125,-0.8725738525390625,-0.4756011962890625,0.0779571533203125
1783169384474770400,1.8707705078125,-0.8774566650390625,-0.4786529541015625,0.0792236328125
1783169384484719600,1.8807197265625,-0.87994384765625,-0.480224609375,0.07537841796875
1783169384494698500,1.890698486328125,-0.8805084228515625,-0.4774169921875,0.0712890625
1783169384504647700,1.900647705078125,-0.885223388671875,-0.474029541015625,0.0669403076171875
1783169384514596600,1.9105966796875,-0.8858642578125,-0.469207763671875,0.0646514892578125
1783169384524544800,1.920544677734375,-0.8852691650390625,-0.4665374755859375,0.065338134765625
1783169384534524700,1.930524658203125,-0.8875579833984375,-0.4666290283203125,0.0690460205078125
1783169384544472600,1.94047265625,-0.889373779296875,-0.466888427734375,0.0741424560546875
1783169384554421800,1.950421875,-0.89080810546875,-0.4644927978515625,0.0736083984375
1783169384564370700,1.96037060546875,-0.8878936767578125,-0.4584197998046875,0.0728759765625
1783169384574349600,1.970349609375,-0.8877410888671875,-0.45440673828125,0.0739288330078125
1783169384584298500,1.980298583984375,-0.8871002197265625,-0.4544830322265625,0.0748748779296875
1783169384594247700,1.99024755859375,-0.8839569091796875,-0.4541473388671875,0.07598876953125
1783169384604226600,2.0002265625,-0.878143310546875,-0.453094482421875,0.0773468017578125
1783169384614175500,2.010175537109375,-0.8734893798828125,-0.4539337158203125,0.078582763671875
1783169384624123600,2.02012353515625,-0.8718109130859375,-0.456573486328125,0.079345703125
1783169384634072600,2.030072509765625,-0.868865966796875,-0.45782470703125,0.081787109375
1783169384644051500,2.040051513671875,-0.865966796875,-0.4552001953125,0.0849609375
1783169384654000600,2.050000732421875,-0.86346435546875,-0.4545135498046875,0.0885009765625
1783169384663949800,2.05994970703125,-0.860107421875,-0.454681396484375,0.0913848876953125
1783169384673897700,2.069897705078125,-0.86468505859375,-0.454833984375,0.09454345703125
1783169384683877600,2.079877685546875,-0.872406005859375,-0.4592437744140625,0.099365234375
1783169384693825800,2.08982568359375,-0.8744659423828125,-0.463409423828125,0.09918212890625
1783169384703774700,2.099774658203125,-0.8738861083984375,-0.463623046875,0.0963134765625
1783169384713753600,2.109753662109375,-0.8723907470703125,-0.4610748291015625,0.0953521728515625
1783169384723702800,2.119702880859375,-0.870147705078125,-0.4639892578125,0.0933685302734375
1783169384733651700,2.129651611328125,-0.87103271484375,-0.4684600830078125,0.0920562744140625
1783169384743600600,2.1396005859375,-0.8684844970703125,-0.46990966796875,0.0901336669921875
1783169384753579500,2.14957958984375,-0.8636474609375,-0.469940185546875,0.088134765625
1783169384763528700,2.15952880859375,-0.8676910400390625,-0.4685821533203125,0.0865478515625
1783169384773476600,2.1694765625,-0.8759613037109375,-0.468017578125,0.0869598388671875
1783169384783425500,2.179425537109375,-0.877685546875,-0.468963623046875,0.0813446044921875
1783169384793404700,2.18940478515625,-0.8794097900390625,-0.4676055908203125,0.07598876953125
1783169384803353600,2.199353515625,-0.8830718994140625,-0.467315673828125,0.072296142578125
1783169384813302500,2.209302490234375,-0.881744384765625,-0.469696044921875,0.065673828125
1783169384823281400,2.219281494140625,-0.878997802734375,-0.4711151123046875,0.062286376953125
1783169384833230800,2.22923095703125,-0.878143310546875,-0.4715576171875,0.06121826171875
1783169384843178500,2.239178466796875,-0.8723602294921875,-0.474090576171875,0.0592803955078125
1783169384853127700,2.249127685546875,-0.8675079345703125,-0.4751434326171875,0.0577239990234375
1783169384863106800,2.25910693359375,-0.865509033203125,-0.4761962890625,0.05560302734375
1783169384873055700,2.2690556640625,-0.861785888671875,-0.477783203125,0.055694580078125
1783169384883004700,2.279004638671875,-0.86138916015625,-0.4778289794921875,0.0579833984375
1783169384892953600,2.28895361328125,-0.859588623046875,-0.478790283203125,0.057342529296875
1783169384902932700,2.2989326171875,-0.86602783203125,-0.478668212890625,0.0554046630859375
1783169384912881700,2.308881591796875,-0.8708343505859375,-0.4785308837890625,0.0524749755859375
1783169384922829600,2.31882958984375,-0.8677825927734375,-0.474639892578125,0.0488433837890625
1783169384932809500,2.3288095703125,-0.867889404296875,-0.471527099609375,0.0477447509765625
1783169384942757600,2.338757568359375,-0.86932373046875,-0.4721527099609375,0.0507354736328125
1783169384952706600,2.34870654296875,-0.871002197265625,-0.475555419921875,0.0540313720703125
1783169384962655500,2.358655517578125,-0.86834716796875,-0.4748992919921875,0.0560302734375
1783169384972634600,2.368634521484375,-0.8682861328125,-0.472991943359375,0.0587310791015625
1783169384982583600,2.37858349609375,-0.868316650390625,-0.4755859375,0.0618133544921875
1783169384992531500,2.388531494140625,-0.8664398193359375,-0.4774017333984375,0.0646514892578125
1783169385002480600,2.398480712890625,-0.87017822265625,-0.4753875732421875,0.06622314453125
1783169385012459500,2.40845947265625,-0.86993408203125,-0.473175048828125,0.06646728515625
1783169385022408700,2.41840869140625,-0.862762451171875,-0.4716949462890625,0.0692901611328125
1783169385032357600,2.428357666015625,-0.86163330078125,-0.466278076171875,0.0722808837890625
1783169385042336800,2.438336669921875,-0.8596649169921875,-0.463470458984375,0.0748748779296875
1783169385052285700,2.44828564453125,-0.857879638671875,-0.4650421142578125,0.0778656005859375
1783169385062234600,2.458234619140625,-0.86138916015625,-0.466094970703125,0.0816802978515625
1783169385072182500,2.4681826171875,-0.859466552734375,-0.4656829833984375,0.0813140869140625
1783169385082162700,2.47816259765625,-0.8551788330078125,-0.464569091796875,0.08148193359375
1783169385092155000,2.48815478515625,-0.854766845703125,-0.4639434814453125,0.0810546875
1783169385102104000,2.49810400390625,-0.8551483154296875,-0.467926025390625,0.0812225341796875
1783169385112053000,2.508052978515625,-0.853607177734375,-0.47283935546875,0.079681396484375
1783169385122031900,2.518031982421875,-0.84820556640625,-0.47509765625,0.0812530517578125
1783169385131980800,2.527980712890625,-0.84722900390625,-0.4787750244140625,0.08428955078125
1783169385141929000,2.537928955078125,-0.84906005859375,-0.4806365966796875,0.0836944580078125
1783169385151909000,2.5479091796875,-0.85137939453125,-0.4820556640625,0.0869140625
1783169385161856800,2.557856689453125,-0.856536865234375,-0.484527587890625,0.091705322265625
1783169385171806200,2.56780615234375,-0.860198974609375,-0.48553466796875,0.091400146484375
1783169385181755100,2.577755126953125,-0.8660430908203125,-0.482421875,0.0867767333984375
1783169385191734000,2.587734130859375,-0.8741302490234375,-0.4805755615234375,0.082763671875
1783169385201683000,2.597682861328125,-0.8786773681640625,-0.4786529541015625,0.078369140625
1783169385211632000,2.607632080078125,-0.880523681640625,-0.475555419921875,0.075958251953125
1783169385221580000,2.617580078125,-0.881683349609375,-0.4740447998046875,0.07672119140625
1783169385231560000,2.627559814453125,-0.88739013671875,-0.4769744873046875,0.07763671875
1783169385241508000,2.637508056640625,-0.8877410888671875,-0.47930908203125,0.0788421630859375
1783169385251457000,2.64745703125,-0.886932373046875,-0.4765167236328125,0.0833282470703125
1783169385261436000,2.657435791015625,-0.8887176513671875,-0.4744720458984375,0.0816802978515625
1783169385271384800,2.667384765625,-0.8867340087890625,-0.4747314453125,0.0802154541015625
1783169385281334000,2.677333984375,-0.8826446533203125,-0.4749908447265625,0.079833984375
1783169385291282000,2.687281982421875,-0.8797760009765625,-0.4735260009765625,0.0783843994140625
1783169385301261800,2.69726171875,-0.878143310546875,-0.4741973876953125,0.0770111083984375
1783169385311210000,2.7072099609375,-0.8707122802734375,-0.4768829345703125,0.0771484375
1783169385321159000,2.717158935546875,-0.8614501953125,-0.4758758544921875,0.078369140625
1783169385331108000,2.727108154296875,-0.858856201171875,-0.474761962890625,0.080108642578125
1783169385341087000,2.7370869140625,-0.85821533203125,-0.4781951904296875,0.0827484130859375
1783169385351036200,2.7470361328125,-0.853912353515625,-0.47802734375,0.0840301513671875
1783169385360985000,2.756985107421875,-0.855316162109375,-0.477142333984375,0.084442138671875
1783169385370964000,2.7669638671875,-0.855804443359375,-0.47705078125,0.0853118896484375
1783169385380913000,2.776912841796875,-0.8547210693359375,-0.4778289794921875,0.082733154296875
1783169385390861000,2.786861083984375,-0.856048583984375,-0.478607177734375,0.0765228271484375
1783169385400810000,2.79681005859375,-0.8560791015625,-0.477325439453125,0.0707855224609375
1783169385410789000,2.8067890625,-0.8531341552734375,-0.47784423828125,0.0684051513671875
1783169385420738000,2.816738037109375,-0.85101318359375,-0.47772216796875,0.0697784423828125
1783169385430687000,2.82668701171875,-0.8519744873046875,-0.4810333251953125,0.070220947265625
1783169385440636000,2.836635986328125,-0.8554229736328125,-0.4863433837890625,0.0678253173828125
1783169385450615000,2.846614990234375,-0.862091064453125,-0.4880828857421875,0.0666046142578125
1783169385460564000,2.85656396484375,-0.86505126953125,-0.4883575439453125,0.0667572021484375
1783169385470511900,2.866511962890625,-0.8656463623046875,-0.48870849609375,0.065948486328125
1783169385480491000,2.876490966796875,-0.864501953125,-0.4875640869140625,0.0650177001953125
1783169385490440000,2.88643994140625,-0.867340087890625,-0.4876861572265625,0.065673828125
1783169385500389000,2.89638916015625,-0.865966796875,-0.487030029296875,0.06793212890625
1783169385510338000,2.906338134765625,-0.8628387451171875,-0.4849700927734375,0.0696563720703125
1783169385520317200,2.916317138671875,-0.8638763427734375,-0.482513427734375,0.068756103515625
1783169385530266000,2.92626611328125,-0.865753173828125,-0.4815521240234375,0.0678253173828125
1783169385540214000,2.936214111328125,-0.8628387451171875,-0.48028564453125,0.070281982421875
1783169385550163000,2.946162841796875,-0.861846923828125,-0.479949951171875,0.07464599609375
1783169385560142000,2.95614208984375,-0.8592681884765625,-0.4835205078125,0.076568603515625
1783169385570091000,2.966091064453125,-0.856475830078125,-0.485870361328125,0.07757568359375
1783169385580040000,2.9760400390625,-0.855010986328125,-0.4858551025390625,0.07879638671875
1783169385590019000,2.98601904296875,-0.8549346923828125,-0.4835968017578125,0.0796356201171875
1783169385599968000,2.995968017578125,-0.857574462890625,-0.48370361328125,0.07928466796875
1783169385609917000,3.0059169921875,-0.8583526611328125,-0.484130859375,0.0782318115234375
1783169385619864800,3.01586474609375,-0.857452392578125,-0.486053466796875,0.0774688720703125
1783169385629845000,3.025844970703125,-0.8572540283203125,-0.4873046875,0.0773468017578125
1783169385639793000,3.03579296875,-0.859100341796875,-0.487579345703125,0.076934814453125
1783169385649741800,3.045741943359375,-0.8543701171875,-0.4873046875,0.0772857666015625
1783169385659691000,3.05569091796875,-0.852447509765625,-0.484161376953125,0.07861328125
1783169385669670100,3.065670166015625,-0.8549346923828125,-0.482330322265625,0.080108642578125
1783169385679619000,3.075619140625,-0.8573150634765625,-0.48541259765625,0.081268310546875
1783169385689567000,3.08556689453125,-0.855499267578125,-0.4884033203125,0.081268310546875
1783169385699547100,3.095547119140625,-0.8527069091796875,-0.4848480224609375,0.079559326171875
1783169385709495000,3.1054951171875,-0.854278564453125,-0.4820404052734375,0.0789337158203125
1783169385719444000,3.11544384765625,-0.8522796630859375,-0.483367919921875,0.0772552490234375
1783169385729393000,3.125392822265625,-0.85400390625,-0.482574462890625,0.0767974853515625
1783169385739372000,3.1353720703125,-0.85186767578125,-0.4799652099609375,0.0759124755859375
1783169385749321000,3.145321044921875,-0.8533477783203125,-0.47930908203125,0.07611083984375
1783169385759270000,3.155269775390625,-0.8608245849609375,-0.4802093505859375,0.0771484375
1783169385769218000,3.165218017578125,-0.8627471923828125,-0.4801788330078125,0.0778656005859375
1783169385779198000,3.175197998046875,-0.8627777099609375,-0.4792938232421875,0.0762481689453125
1783169385789145900,3.185145751953125,-0.8611297607421875,-0.4796600341796875,0.0744781494140625
1783169385799095000,3.195094970703125,-0.85894775390625,-0.483306884765625,0.075592041015625
1783169385809074000,3.205073974609375,-0.858154296875,-0.4875030517578125,0.0763092041015625
1783169385819022800,3.21502294921875,-0.856048583984375,-0.489410400390625,0.0762176513671875
1783169385828972000,3.224971923828125,-0.85302734375,-0.4913787841796875,0.0771636962890625
1783169385838920200,3.234920166015625,-0.8539581298828125,-0.4918975830078125,0.0752105712890625
1783169385848900000,3.244900146484375,-0.856597900390625,-0.4901580810546875,0.0704345703125
1783169385858848000,3.254847900390625,-0.8566436767578125,-0.4908599853515625,0.0696563720703125
1783169385868797200,3.264797119140625,-0.8531494140625,-0.4916839599609375,0.073333740234375
1783169385878746000,3.27474609375,-0.857666015625,-0.494781494140625,0.0745391845703125
1783169385888725000,3.28472509765625,-0.8641510009765625,-0.4954986572265625,0.0719757080078125
1783169385898674000,3.294673828125,-0.866180419921875,-0.4933929443359375,0.0685272216796875
1783169385908623000,3.304623046875,-0.865509033203125,-0.4905242919921875,0.0645751953125
1783169385918602000,3.31460205078125,-0.8659820556640625,-0.49053955078125,0.06353759765625
1783169385928551000,3.324551025390625,-0.8665771484375,-0.49200439453125,0.0621490478515625
1783169385938499000,3.3344990234375,-0.86749267578125,-0.49554443359375,0.0583953857421875
1783169385948448000,3.344447998046875,-0.864105224609375,-0.498931884765625,0.055633544921875
1783169385958427000,3.354427001953125,-0.8586883544921875,-0.499298095703125,0.0578155517578125
1783169385968375800,3.364375732421875,-0.8597412109375,-0.502838134765625,0.0610809326171875
1783169385978325000,3.374324951171875,-0.856903076171875,-0.5060577392578125,0.0585174560546875
1783169385988273000,3.38427294921875,-0.8534393310546875,-0.50677490234375,0.05926513671875
1783169385998253000,3.394253173828125,-0.8542938232421875,-0.5049591064453125,0.0654754638671875
1783169386008201200,3.404201171875,-0.849578857421875,-0.5041046142578125,0.0692901611328125
1783169386018150100,3.414150146484375,-0.849517822265625,-0.501312255859375,0.0714263916015625
1783169386028129000,3.42412890625,-0.854248046875,-0.4991607666015625,0.07269287109375
1783169386038078000,3.434077880859375,-0.8568267822265625,-0.4965667724609375,0.0757293701171875
1783169386048027100,3.444027099609375,-0.8611602783203125,-0.49468994140625,0.077789306640625
1783169386057976000,3.45397607421875,-0.865081787109375,-0.49224853515625,0.079193115234375
1783169386067955000,3.463954833984375,-0.86505126953125,-0.489349365234375,0.0788421630859375
1783169386077904000,3.47390380859375,-0.8658447265625,-0.4871368408203125,0.0798492431640625
1783169386087852000,3.48385205078125,-0.8646087646484375,-0.4867095947265625,0.0773468017578125
1783169386097813500,3.4938134765625,-0.8614349365234375,-0.4862823486328125,0.07745361328125
1783169386107792600,3.503792724609375,-0.8560333251953125,-0.487457275390625,0.0818328857421875
1783169386117741600,3.513741455078125,-0.8480224609375,-0.4883880615234375,0.0836944580078125
1783169386127690500,3.5236904296875,-0.8487701416015625,-0.4856109619140625,0.0843048095703125
1783169386137669600,3.533669677734375,-0.8514251708984375,-0.485443115234375,0.0847625732421875
1783169386147618600,3.54361865234375,-0.8535614013671875,-0.485992431640625,0.0829010009765625
1783169386157566500,3.55356640625,-0.8527679443359375,-0.484466552734375,0.0795440673828125
1783169386167515400,3.563515380859375,-0.853607177734375,-0.48309326171875,0.0786590576171875
1783169386177494500,3.57349462890625,-0.8530120849609375,-0.48394775390625,0.079833984375
1783169386187443700,3.583443603515625,-0.8522491455078125,-0.4872589111328125,0.081024169921875
1783169386197392600,3.593392578125,-0.85125732421875,-0.490386962890625,0.081634521484375
1783169386207341600,3.603341552734375,-0.8499908447265625,-0.4922332763671875,0.080078125
1783169386217320700,3.61332080078125,-0.852264404296875,-0.4946746826171875,0.075592041015625
1783169386227269600,3.62326953125,-0.857208251953125,-0.4974517822265625,0.07147216796875
1783169386237217800,3.6332177734375,-0.859954833984375,-0.499053955078125,0.0677490234375
1783169386247197700,3.64319775390625,-0.86346435546875,-0.500946044921875,0.0624847412109375
1783169386257145600,3.6531455078125,-0.865386962890625,-0.5019378662109375,0.057464599609375
1783169386267094500,3.663094482421875,-0.8650054931640625,-0.501495361328125,0.0550994873046875
1783169386277043500,3.67304345703125,-0.8648223876953125,-0.5032958984375,0.0513916015625
1783169386287022600,3.683022705078125,-0.8626708984375,-0.503997802734375,0.048309326171875
1783169386296971500,3.692971435546875,-0.858795166015625,-0.50341796875,0.046356201171875
1783169386306919700,3.702919677734375,-0.855499267578125,-0.501983642578125,0.0469512939453125
1783169386316868600,3.71286865234375,-0.8534698486328125,-0.5021209716796875,0.04901123046875
1783169386326847500,3.722847412109375,-0.8516082763671875,-0.5050811767578125,0.0540313720703125
1783169386336796400,3.73279638671875,-0.8534393310546875,-0.505889892578125,0.058258056640625
1783169386346745900,3.742745849609375,-0.8529510498046875,-0.5040435791015625,0.0623016357421875
1783169386356724700,3.752724853515625,-0.850372314453125,-0.5012054443359375,0.0634918212890625
1783169386366673700,3.762673583984375,-0.8529052734375,-0.4991455078125,0.062591552734375
1783169386376622600,3.77262255859375,-0.857635498046875,-0.4970855712890625,0.061859130859375
1783169386386570800,3.78257080078125,-0.857574462890625,-0.494476318359375,0.05828857421875
1783169386396550700,3.792550537109375,-0.8550262451171875,-0.4918975830078125,0.0539398193359375
1783169386406498600,3.80249853515625,-0.8541717529296875,-0.4902801513671875,0.0527191162109375
1783169386416447700,3.81244775390625,-0.85693359375,-0.491851806640625,0.0531768798828125
1783169386426396700,3.822396728515625,-0.8592071533203125,-0.494140625,0.052703857421875
1783169386436375600,3.83237548828125,-0.8548736572265625,-0.492828369140625,0.052032470703125
1783169386446324500,3.842324462890625,-0.84771728515625,-0.4890594482421875,0.0519866943359375
1783169386456273700,3.852273681640625,-0.850372314453125,-0.4868621826171875,0.053436279296875
1783169386466252500,3.86225244140625,-0.8507080078125,-0.4896087646484375,0.0565185546875
1783169386476201500,3.872201416015625,-0.84979248046875,-0.49224853515625,0.06024169921875
1783169386486149600,3.882149658203125,-0.8497314453125,-0.4911346435546875,0.0615234375
1783169386496098600,3.8920986328125,-0.848846435546875,-0.491058349609375,0.0639495849609375
1783169386506077400,3.902077392578125,-0.8488006591796875,-0.492950439453125,0.0673065185546875
1783169386516026600,3.912026611328125,-0.8492584228515625,-0.4934234619140625,0.0683746337890625
1783169386525975800,3.921975830078125,-0.8503875732421875,-0.4936065673828125,0.0673065185546875
1783169386535923700,3.931923828125,-0.8478546142578125,-0.4954071044921875,0.0657501220703125
1783169386545903600,3.941903564453125,-0.8468170166015625,-0.4980621337890625,0.0674896240234375
1783169386555851800,3.951851806640625,-0.850738525390625,-0.500701904296875,0.0700225830078125
1783169386565800700,3.96180078125,-0.8524169921875,-0.5033416748046875,0.070556640625
1783169386575749600,3.97174951171875,-0.8479461669921875,-0.50494384765625,0.0672607421875
1783169386585728800,3.981728759765625,-0.8479461669921875,-0.5035247802734375,0.0638885498046875
1783169386595677700,3.991677734375,-0.855682373046875,-0.503082275390625,0.0630950927734375
1783169386605626600,4.001626708984375,-0.85931396484375,-0.50665283203125,0.0647125244140625
1783169386615605500,4.01160546875,-0.8582916259765625,-0.5079345703125,0.067291259765625
1783169386625554700,4.0215546875,-0.863006591796875,-0.5054473876953125,0.0684814453125
1783169386635502600,4.031502685546875,-0.86395263671875,-0.5036468505859375,0.069732666015625
1783169386645451500,4.041451416015625,-0.869903564453125,-0.5042266845703125,0.070709228515625
1783169386655430700,4.0514306640625,-0.87432861328125,-0.5043792724609375,0.0709075927734375
1783169386665379600,4.061379638671875,-0.8704071044921875,-0.500823974609375,0.069000244140625
1783169386675328800,4.071328857421875,-0.8710784912109375,-0.4957733154296875,0.068084716796875
1783169386685276700,4.081276611328125,-0.8677978515625,-0.4931488037109375,0.0689544677734375
1783169386695256800,4.0912568359375,-0.8585968017578125,-0.49310302734375,0.0703125
1783169386705204700,4.101204833984375,-0.8523406982421875,-0.492218017578125,0.0731658935546875
1783169386715153700,4.111153564453125,-0.8494873046875,-0.490997314453125,0.077728271484375
1783169386725132800,4.1211328125,-0.8490753173828125,-0.492034912109375,0.08123779296875
1783169386735081700,4.131081787109375,-0.8497772216796875,-0.4925537109375,0.07958984375
1783169386745030700,4.14103076171875,-0.8524627685546875,-0.4896087646484375,0.0742340087890625
1783169386754979600,4.1509794921875,-0.8499755859375,-0.4871978759765625,0.0688629150390625
1783169386764958700,4.160958740234375,-0.849884033203125,-0.488525390625,0.0644378662109375
1783169386774907600,4.17090771484375,-0.8444976806640625,-0.49127197265625,0.06097412109375
1783169386784855600,4.18085546875,-0.83831787109375,-0.4929962158203125,0.0603790283203125
1783169386794804500,4.190804443359375,-0.83538818359375,-0.496551513671875,0.0610504150390625
1783169386804783600,4.20078369140625,-0.834869384765625,-0.50091552734375,0.061431884765625
1783169386814732500,4.210732666015625,-0.8374786376953125,-0.501708984375,0.059417724609375
1783169386824681500,4.220681396484375,-0.8407745361328125,-0.5015869140625,0.0564727783203125
1783169386834660600,4.23066064453125,-0.83795166015625,-0.5023040771484375,0.05535888671875
1783169386844609800,4.24060986328125,-0.837127685546875,-0.499847412109375,0.057769775390625
1783169386854557400,4.250557373046875,-0.83831787109375,-0.497650146484375,0.0608978271484375
1783169386864506600,4.260506591796875,-0.836822509765625,-0.4966888427734375,0.06390380859375
1783169386874485800,4.27048583984375,-0.837646484375,-0.496063232421875,0.067352294921875
1783169386884434700,4.2804345703125,-0.8410797119140625,-0.49542236328125,0.067474365234375
1783169386894383600,4.290383544921875,-0.8389739990234375,-0.49359130859375,0.066436767578125
1783169386904332500,4.30033251953125,-0.83404541015625,-0.4924468994140625,0.068023681640625
1783169386914311700,4.310311767578125,-0.83343505859375,-0.4960174560546875,0.0710906982421875
1783169386924260600,4.320260498046875,-0.831298828125,-0.4996490478515625,0.0751800537109375
1783169386934208500,4.33020849609375,-0.8325958251953125,-0.5000457763671875,0.0776824951171875
1783169386944188700,4.340188720703125,-0.835296630859375,-0.50030517578125,0.078125
1783169386954136600,4.350136474609375,-0.839935302734375,-0.4994049072265625,0.0806884765625
1783169386964085500,4.36008544921875,-0.85052490234375,-0.498016357421875,0.07989501953125
1783169386974034400,4.370034423828125,-0.8527984619140625,-0.4980621337890625,0.0763092041015625
1783169386984013600,4.380013671875,-0.85113525390625,-0.4958038330078125,0.075347900390625
1783169386993962500,4.38996240234375,-0.854583740234375,-0.493988037109375,0.0746307373046875
1783169387003910700,4.39991064453125,-0.8555145263671875,-0.494598388671875,0.0738983154296875
1783169387013859600,4.409859619140625,-0.8590087890625,-0.4944610595703125,0.07147216796875
1783169387023838500,4.41983837890625,-0.8601837158203125,-0.49188232421875,0.0682830810546875
1783169387033787600,4.42978759765625,-0.8669891357421875,-0.489715576171875,0.0648345947265625
1783169387043736600,4.439736572265625,-0.87286376953125,-0.4920654296875,0.0592193603515625
1783169387053715700,4.4497158203125,-0.865509033203125,-0.4930267333984375,0.056976318359375
1783169387063664600,4.45966455078125,-0.859771728515625,-0.492950439453125,0.0594482421875
1783169387073613600,4.469613525390625,-0.855926513671875,-0.4965057373046875,0.065704345703125
1783169387083561700,4.479561767578125,-0.8463897705078125,-0.4995880126953125,0.0715179443359375
1783169387093572000,4.489572021484375,-0.8412628173828125,-0.4958953857421875,0.0776824951171875
1783169387103520300,4.499520263671875,-0.8499755859375,-0.495208740234375,0.081634521484375
1783169387113469400,4.509469482421875,-0.8584747314453125,-0.5009765625,0.0840301513671875
1783169387123418400,4.51941845703125,-0.8638763427734375,-0.4978179931640625,0.0797882080078125
1783169387133397200,4.529397216796875,-0.8665924072265625,-0.48992919921875,0.0689239501953125
1783169387143346400,4.539346435546875,-0.861480712890625,-0.4817657470703125,0.0631561279296875
1783169387153294300,4.54929443359375,-0.855865478515625,-0.47412109375,0.063995361328125
1783169387163274200,4.559274169921875,-0.855255126953125,-0.4753875732421875,0.0727996826171875
1783169387173222400,4.569222412109375,-0.8502044677734375,-0.4821319580078125,0.08026123046875
1783169387183171300,4.57917138671875,-0.8515167236328125,-0.4824066162109375,0.0808563232421875
1783169387193120300,4.589120361328125,-0.8456268310546875,-0.4798583984375,0.080352783203125
1783169387203099100,4.59909912109375,-0.846099853515625,-0.4756011962890625,0.0787353515625
1783169387213048300,4.60904833984375,-0.8625335693359375,-0.47589111328125,0.0799560546875
1783169387222997200,4.618997314453125,-0.8662261962890625,-0.4718475341796875,0.073516845703125
1783169387232945200,4.628945068359375,-0.8686981201171875,-0.4664306640625,0.0610198974609375
1783169387242925000,4.638925048828125,-0.8806610107421875,-0.4654083251953125,0.051300048828125
1783169387252873200,4.648873291015625,-0.8852386474609375,-0.4660186767578125,0.0541229248046875
1783169387262822100,4.658822265625,-0.8861846923828125,-0.4670562744140625,0.060455322265625
1783169387272801300,4.66880126953125,-0.88916015625,-0.4721527099609375,0.0628814697265625
1783169387282750500,4.67875048828125,-0.890045166015625,-0.4777374267578125,0.062286376953125
1783169387292699400,4.688699462890625,-0.892486572265625,-0.4833984375,0.0621795654296875
1783169387302648300,4.6986484375,-0.892608642578125,-0.485443115234375,0.0604248046875
1783169387312627200,4.708627197265625,-0.884735107421875,-0.4823455810546875,0.054840087890625
1783169387322575400,4.718575439453125,-0.8799285888671875,-0.477569580078125,0.0519561767578125
1783169387332524300,4.728524169921875,-0.8804473876953125,-0.474578857421875,0.0542755126953125
1783169387342473200,4.73847314453125,-0.8836212158203125,-0.4746551513671875,0.0594940185546875
1783169387352452400,4.748452392578125,-0.876861572265625,-0.4732513427734375,0.063720703125
1783169387362401300,4.7584013671875,-0.869537353515625,-0.4695281982421875,0.0662078857421875
1783169387372350200,4.76835009765625,-0.8709259033203125,-0.46759033203125,0.06927490234375
1783169387382329300,4.778329345703125,-0.8685455322265625,-0.4676055908203125,0.0704498291015625
1783169387392278300,4.7882783203125,-0.858612060546875,-0.467071533203125,0.0714569091796875
1783169387402226200,4.79822607421875,-0.8532867431640625,-0.467071533203125,0.0725860595703125
1783169387412175000,4.808175048828125,-0.851287841796875,-0.467559814453125,0.073944091796875
1783169387422154200,4.818154296875,-0.849700927734375,-0.4697418212890625,0.0779266357421875
1783169387432103200,4.828103271484375,-0.8494720458984375,-0.468536376953125,0.08526611328125
1783169387442052400,4.83805224609375,-0.85369873046875,-0.466217041015625,0.0888519287109375
1783169387452001300,4.848001220703125,-0.854949951171875,-0.46343994140625,0.087158203125
1783169387461980400,4.85798046875,-0.86151123046875,-0.461151123046875,0.0866851806640625
1783169387471929300,4.867929443359375,-0.8684844970703125,-0.4607086181640625,0.086700439453125
1783169387481877200,4.877877197265625,-0.8687286376953125,-0.459381103515625,0.0841827392578125
1783169387491857400,4.887857421875,-0.87969970703125,-0.4554901123046875,0.084075927734375
1783169387501805300,4.897805419921875,-0.8900604248046875,-0.457550048828125,0.0813751220703125
1783169387511754200,4.907754150390625,-0.8918609619140625,-0.461090087890625,0.0777587890625
1783169387521703200,4.917703125,-0.8944854736328125,-0.4599761962890625,0.0740814208984375
1783169387531682300,4.927682373046875,-0.891754150390625,-0.4580078125,0.069122314453125
1783169387541631200,4.93763134765625,-0.8936004638671875,-0.458282470703125,0.0610809326171875
1783169387551579100,4.9475791015625,-0.899383544921875,-0.4607696533203125,0.052459716796875
1783169387561528300,4.9575283203125,-0.8986663818359375,-0.4597930908203125,0.04534912109375
1783169387571507200,4.967507080078125,-0.8973541259765625,-0.4550628662109375,0.0375518798828125
1783169387581456100,4.9774560546875,-0.894805908203125,-0.450408935546875,0.032806396484375
1783169387591405000,4.987405029296875,-0.88433837890625,-0.4468536376953125,0.0306243896484375
1783169387601384200,4.99738427734375,-0.8796234130859375,-0.4453125,0.031219482421875
1783169387611333400,5.00733349609375,-0.8802490234375,-0.4483795166015625,0.0345611572265625
1783169387621282300,5.0172822265625,-0.8714447021484375,-0.44927978515625,0.04022216796875
1783169387631230500,5.02723046875,-0.8595428466796875,-0.446746826171875,0.046966552734375
1783169387641210400,5.03721044921875,-0.8545684814453125,-0.4477691650390625,0.051788330078125
1783169387651158300,5.047158203125,-0.8520050048828125,-0.4514312744140625,0.0564422607421875
1783169387661107200,5.057107177734375,-0.8511962890625,-0.453094482421875,0.0616302490234375
1783169387671056400,5.067056396484375,-0.8550872802734375,-0.4534454345703125,0.0623626708984375
1783169387681035300,5.07703515625,-0.86090087890625,-0.454315185546875,0.0600433349609375
1783169387690984200,5.086984130859375,-0.85791015625,-0.4558868408203125,0.0623626708984375
1783169387700932400,5.096932373046875,-0.8589630126953125,-0.461883544921875,0.0767822265625
1783169387710912300,5.106912353515625,-0.8639068603515625,-0.4793701171875,0.0999755859375
1783169387720860200,5.116860107421875,-0.8746337890625,-0.4915924072265625,0.11553955078125
1783169387730809000,5.12680908203125,-0.8934478759765625,-0.4903106689453125,0.118255615234375
1783169387740758300,5.13675830078125,-0.906158447265625,-0.481658935546875,0.115447998046875
1783169387750737200,5.146737060546875,-0.9178009033203125,-0.471099853515625,0.110931396484375
1783169387760686000,5.15668603515625,-0.92645263671875,-0.4595947265625,0.10601806640625
1783169387770635300,5.16663525390625,-0.931793212890625,-0.451019287109375,0.1031341552734375
1783169387780583200,5.176583251953125,-0.93743896484375,-0.4473114013671875,0.10028076171875
1783169387790563300,5.186563232421875,-0.9416961669921875,-0.4434356689453125,0.098876953125
1783169387800511500,5.196511474609375,-0.943756103515625,-0.4395751953125,0.0980224609375
1783169387810460400,5.20646044921875,-0.9448089599609375,-0.4360198974609375,0.0907135009765625
1783169387820439300,5.216439208984375,-0.9432525634765625,-0.4338531494140625,0.079254150390625
1783169387830388200,5.22638818359375,-0.93939208984375,-0.4321746826171875,0.07086181640625
1783169387840337200,5.236337158203125,-0.9318389892578125,-0.43170166015625,0.061767578125
1783169387850285300,5.246285400390625,-0.9210968017578125,-0.4322357177734375,0.05181884765625
1783169387860265200,5.25626513671875,-0.9062957763671875,-0.43280029296875,0.0441436767578125
1783169387870213400,5.26621337890625,-0.8883056640625,-0.436920166015625,0.041748046875
1783169387880162300,5.276162353515625,-0.8707427978515625,-0.44219970703125,0.042938232421875
1783169387890111200,5.286111328125,-0.8497772216796875,-0.4465179443359375,0.0438995361328125
1783169387900090000,5.296090087890625,-0.8300628662109375,-0.4489593505859375,0.0452880859375
1783169387910039300,5.306039306640625,-0.819732666015625,-0.4544677734375,0.0474853515625
1783169387919988200,5.31598828125,-0.8152008056640625,-0.45941162109375,0.0496063232421875
1783169387929967000,5.325967041015625,-0.8100433349609375,-0.4619140625,0.0519256591796875
1783169387939916300,5.335916259765625,-0.809112548828125,-0.461639404296875,0.0535125732421875
1783169387949864200,5.3458642578125,-0.817047119140625,-0.4589080810546875,0.0549774169921875
1783169387959813400,5.3558134765625,-0.82568359375,-0.457611083984375,0.05419921875
1783169387969792300,5.365792236328125,-0.8392333984375,-0.4562530517578125,0.0511627197265625
1783169387979741400,5.375741455078125,-0.8531036376953125,-0.4521331787109375,0.0432891845703125
1783169387989690400,5.3856904296875,-0.8605499267578125,-0.4463043212890625,0.039154052734375
1783169387999638300,5.39563818359375,-0.8686676025390625,-0.444366455078125,0.0407867431640625
1783169388009618200,5.4056181640625,-0.874542236328125,-0.445953369140625,0.04376220703125
1783169388019566300,5.41556640625,-0.8784332275390625,-0.4485321044921875,0.047119140625
1783169388029515300,5.425515380859375,-0.884246826171875,-0.4514617919921875,0.050994873046875
1783169388039494400,5.435494384765625,-0.890350341796875,-0.4550323486328125,0.055389404296875
1783169388049443300,5.445443359375,-0.893890380859375,-0.4576873779296875,0.0579071044921875
1783169388059392300,5.455392333984375,-0.89825439453125,-0.458709716796875,0.059783935546875
1783169388069341200,5.465341064453125,-0.8999481201171875,-0.4633331298828125,0.06195068359375
1783169388079320300,5.4753203125,-0.8988494873046875,-0.466094970703125,0.0632171630859375
1783169388089269200,5.485269287109375,-0.8979034423828125,-0.465118408203125,0.066375732421875
1783169388099236600,5.495236572265625,-0.8939208984375,-0.4646148681640625,0.0701446533203125
1783169388109185500,5.505185546875,-0.8876190185546875,-0.4658050537109375,0.071502685546875
1783169388119164400,5.515164306640625,-0.8838348388671875,-0.465545654296875,0.0729827880859375
1783169388129113300,5.52511328125,-0.8844757080078125,-0.4652252197265625,0.07464599609375
1783169388139062500,5.5350625,-0.88299560546875,-0.4677276611328125,0.0736236572265625
1783169388149041400,5.54504150390625,-0.88116455078125,-0.4707794189453125,0.0730133056640625
1783169388158990300,5.554990234375,-0.8812408447265625,-0.4713287353515625,0.07196044921875
1783169388168938500,5.5649384765625,-0.8815155029296875,-0.4732666015625,0.069549560546875
1783169388178887400,5.574887451171875,-0.885833740234375,-0.47515869140625,0.0643463134765625
1783169388188866300,5.5848662109375,-0.8842010498046875,-0.4741973876953125,0.058074951171875
1783169388198815200,5.594815185546875,-0.88287353515625,-0.4696807861328125,0.0527801513671875
1783169388208764400,5.604764404296875,-0.8819427490234375,-0.466705322265625,0.047760009765625
1783169388218713300,5.61471337890625,-0.8768463134765625,-0.4646453857421875,0.0433197021484375
1783169388228692200,5.624692138671875,-0.8736114501953125,-0.4651947021484375,0.0436859130859375
1783169388238641200,5.63464111328125,-0.869140625,-0.4658355712890625,0.0468597412109375
1783169388248589300,5.64458935546875,-0.8649444580078125,-0.469268798828125,0.046600341796875
1783169388258569500,5.654569580078125,-0.8570404052734375,-0.472564697265625,0.04669189453125
1783169388268517400,5.664517333984375,-0.8426666259765625,-0.4739837646484375,0.0460662841796875
1783169388278466600,5.674466552734375,-0.8404541015625,-0.4755706787109375,0.04815673828125
1783169388288415500,5.68441552734375,-0.8397369384765625,-0.481048583984375,0.0506591796875
1783169388298394400,5.694394287109375,-0.832794189453125,-0.4870147705078125,0.05279541015625
1783169388308343300,5.70434326171875,-0.83038330078125,-0.4866485595703125,0.055999755859375
1783169388318292500,5.71429248046875,-0.83258056640625,-0.48529052734375,0.0648345947265625
1783169388328240400,5.724240478515625,-0.835113525390625,-0.4848175048828125,0.0708770751953125
1783169388338219500,5.734219482421875,-0.83990478515625,-0.4838409423828125,0.06884765625
1783169388348168400,5.74416845703125,-0.8462982177734375,-0.4803619384765625,0.0643768310546875
1783169388358117400,5.754117431640625,-0.8496551513671875,-0.4733428955078125,0.065826416015625
1783169388368096300,5.76409619140625,-0.863616943359375,-0.470794677734375,0.071441650390625
1783169388378045400,5.77404541015625,-0.8792877197265625,-0.474945068359375,0.0726776123046875
1783169388387994400,5.783994384765625,-0.882415771484375,-0.4735107421875,0.073272705078125
1783169388397942300,5.7939423828125,-0.8843994140625,-0.464569091796875,0.0726318359375
1783169388407922200,5.803922119140625,-0.882415771484375,-0.4572906494140625,0.0767059326171875
1783169388417870300,5.813870361328125,-0.88848876953125,-0.4544830322265625,0.081878662109375
1783169388427819500,5.823819580078125,-0.898193359375,-0.45947265625,0.085479736328125
1783169388437768400,5.8337685546875,-0.8952178955078125,-0.46441650390625,0.0876922607421875
1783169388447747600,5.84374755859375,-0.888275146484375,-0.4615478515625,0.0880126953125
1783169388457696500,5.853696533203125,-0.8926544189453125,-0.4561309814453125,0.0861053466796875
1783169388467645400,5.8636455078125,-0.903228759765625,-0.4615631103515625,0.0787200927734375
1783169388477624300,5.873624267578125,-0.8932647705078125,-0.462860107421875,0.07867431640625
1783169388487573500,5.883573486328125,-0.8827362060546875,-0.4554443359375,0.081451416015625
1783169388497521400,5.893521484375,-0.877593994140625,-0.4507293701171875,0.083099365234375
1783169388507470300,5.90347021484375,-0.8719329833984375,-0.4517822265625,0.0843963623046875
1783169388517449500,5.913449462890625,-0.8661041259765625,-0.4542236328125,0.08331298828125
1783169388527398400,5.9233984375,-0.86627197265625,-0.4534912109375,0.0808563232421875
1783169388537347300,5.933347412109375,-0.8678741455078125,-0.4563446044921875,0.07611083984375
1783169388547295200,5.943295166015625,-0.8645477294921875,-0.45526123046875,0.0700225830078125
1783169388557275400,5.953275390625,-0.8678131103515625,-0.4528961181640625,0.063751220703125
1783169388567223300,5.963223388671875,-0.867095947265625,-0.4551544189453125,0.05926513671875
1783169388577172200,5.973172119140625,-0.863189697265625,-0.4584197998046875,0.0541839599609375
1783169388587151400,5.9831513671875,-0.8646697998046875,-0.4627227783203125,0.0494537353515625
1783169388597100500,5.9931005859375,-0.8570098876953125,-0.46697998046875,0.0480194091796875
1783169388607049500,6.003049560546875,-0.852569580078125,-0.468292236328125,0.0486297607421875
1783169388616998400,6.012998291015625,-0.8548736572265625,-0.4707489013671875,0.048004150390625
1783169388626977500,6.0229775390625,-0.8563232421875,-0.4728240966796875,0.04815673828125
1783169388636926500,6.032926513671875,-0.8579254150390625,-0.473785400390625,0.04730224609375
1783169388646874400,6.042874267578125,-0.8569488525390625,-0.4716033935546875,0.04583740234375
1783169388656823300,6.0528232421875,-0.8564910888671875,-0.4692535400390625,0.0460205078125
1783169388666802400,6.062802490234375,-0.8576812744140625,-0.4708404541015625,0.049713134765625
1783169388676751400,6.07275146484375,-0.8592071533203125,-0.47564697265625,0.0540008544921875
1783169388686700300,6.0827001953125,-0.85888671875,-0.4775390625,0.0573577880859375
1783169388696679400,6.092679443359375,-0.8586578369140625,-0.475799560546875,0.0618133544921875
1783169388706628400,6.10262841796875,-0.858673095703125,-0.4759063720703125,0.0674896240234375
1783169388716576300,6.112576171875,-0.859375,-0.4768829345703125,0.070343017578125
1783169388726525200,6.122525146484375,-0.86444091796875,-0.477874755859375,0.07110595703125
1783169388736504300,6.13250439453125,-0.8669891357421875,-0.478363037109375,0.0732421875
1783169388746453200,6.142453369140625,-0.866607666015625,-0.47540283203125,0.0742340087890625
1783169388756402400,6.15240234375,-0.868377685546875,-0.4703826904296875,0.075469970703125
1783169388766351400,6.162351318359375,-0.8756103515625,-0.468414306640625,0.0797882080078125
1783169388776330500,6.17233056640625,-0.87652587890625,-0.4713897705078125,0.0804595947265625
1783169388786279400,6.182279541015625,-0.875701904296875,-0.4693145751953125,0.0775909423828125
1783169388796227300,6.192227294921875,-0.878021240234375,-0.465606689453125,0.07830810546875
1783169388806207500,6.20220751953125,-0.8752899169921875,-0.46685791015625,0.0829620361328125
1783169388816155400,6.2121552734375,-0.8758087158203125,-0.468017578125,0.08306884765625
1783169388826104300,6.222104248046875,-0.8798828125,-0.46673583984375,0.084075927734375
1783169388836053200,6.23205322265625,-0.8807220458984375,-0.4661102294921875,0.085784912109375
1783169388846032400,6.242032470703125,-0.880126953125,-0.4673614501953125,0.0860748291015625
1783169388855981300,6.251981201171875,-0.878448486328125,-0.4673919677734375,0.0851898193359375
1783169388865929500,6.261929443359375,-0.8801422119140625,-0.4661865234375,0.084747314453125
1783169388875878400,6.27187841796875,-0.876861572265625,-0.468109130859375,0.08270263671875
1783169388885857300,6.281857177734375,-0.8750762939453125,-0.4696197509765625,0.0811004638671875
1783169388895806200,6.29180615234375,-0.8754119873046875,-0.4699859619140625,0.080047607421875
1783169388905755400,6.30175537109375,-0.8734130859375,-0.4698333740234375,0.0803070068359375
1783169388915734300,6.311734375,-0.8726043701171875,-0.4685516357421875,0.0786895751953125
1783169388925683200,6.32168310546875,-0.8773651123046875,-0.468353271484375,0.0778350830078125
1783169388935632400,6.33163232421875,-0.8753509521484375,-0.4703521728515625,0.076904296875
1783169388945580500,6.34158056640625,-0.8744354248046875,-0.4706268310546875,0.07537841796875
1783169388955560400,6.351560546875,-0.8759765625,-0.47064208984375,0.074676513671875
1783169388965508400,6.36150830078125,-0.87060546875,-0.4724273681640625,0.0747833251953125
1783169388975457500,6.37145751953125,-0.871246337890625,-0.4717864990234375,0.07537841796875
1783169388985406500,6.381406494140625,-0.87188720703125,-0.47174072265625,0.076019287109375
1783169388995385300,6.39138525390625,-0.8678741455078125,-0.472442626953125,0.0762481689453125
1783169389005334300,6.401334228515625,-0.8688507080078125,-0.471954345703125,0.075408935546875
1783169389015282400,6.411282470703125,-0.8686981201171875,-0.47119140625,0.0750274658203125
1783169389025231400,6.4212314453125,-0.8647308349609375,-0.46966552734375,0.0733489990234375
1783169389035210500,6.43121044921875,-0.867767333984375,-0.469696044921875,0.073516845703125
1783169389045159400,6.441159423828125,-0.86883544921875,-0.4713897705078125,0.0744171142578125
1783169389055108400,6.4511083984375,-0.8653411865234375,-0.471221923828125,0.075958251953125
1783169389065087200,6.461087158203125,-0.865234375,-0.469390869140625,0.07666015625
1783169389075036200,6.4710361328125,-0.8643646240234375,-0.471649169921875,0.07769775390625
1783169389084985600,6.480985595703125,-0.86187744140625,-0.4722137451171875,0.0796966552734375
1783169389094941200,6.490941162109375,-0.85968017578125,-0.4705047607421875,0.0797882080078125
1783169389104921300,6.50092138671875,-0.859222412109375,-0.4708709716796875,0.0803985595703125
1783169389114869200,6.510869140625,-0.8596343994140625,-0.4715423583984375,0.0810699462890625
1783169389124818400,6.520818359375,-0.861968994140625,-0.4707794189453125,0.0817108154296875
1783169389134767400,6.530767333984375,-0.866973876953125,-0.4694061279296875,0.081329345703125
1783169389144746200,6.540746337890625,-0.8694000244140625,-0.4694976806640625,0.080841064453125
1783169389154695200,6.550695068359375,-0.8689422607421875,-0.467071533203125,0.0816650390625
1783169389164644400,6.560644287109375,-0.8704986572265625,-0.4661102294921875,0.0804901123046875
1783169389174623200,6.570623291015625,-0.87066650390625,-0.466552734375,0.078887939453125
1783169389184571400,6.5805712890625,-0.869842529296875,-0.46783447265625,0.0807952880859375
1783169389194520300,6.590520263671875,-0.8697357177734375,-0.47021484375,0.080657958984375
1783169389204469200,6.60046923828125,-0.8685760498046875,-0.469390869140625,0.080535888671875
1783169389214448000,6.6104482421875,-0.86285400390625,-0.4689788818359375,0.0795440673828125
1783169389224397000,6.62039697265625,-0.8579864501953125,-0.469024658203125,0.0778961181640625
1783169389234346200,6.63034619140625,-0.8585357666015625,-0.47222900390625,0.0780029296875
1783169389244294100,6.640294189453125,-0.85491943359375,-0.4747467041015625,0.079864501953125
1783169389254274300,6.6502744140625,-0.85369873046875,-0.47625732421875,0.079864501953125
1783169389264222200,6.66022216796875,-0.8536224365234375,-0.47613525390625,0.0771026611328125
1783169389274171400,6.67017138671875,-0.8520965576171875,-0.4756622314453125,0.07537841796875
1783169389284150300,6.680150390625,-0.852935791015625,-0.476470947265625,0.0759735107421875
1783169389294099500,6.690099365234375,-0.858062744140625,-0.47857666015625,0.0755157470703125
1783169389304048400,6.70004833984375,-0.8594818115234375,-0.479705810546875,0.075714111328125
1783169389313997300,6.709997314453125,-0.861175537109375,-0.4795989990234375,0.0769195556640625
1783169389323976200,6.71997607421875,-0.8684234619140625,-0.478515625,0.074188232421875
1783169389333925000,6.729925048828125,-0.873870849609375,-0.4788360595703125,0.07147216796875
1783169389343873300,6.739873291015625,-0.8779296875,-0.477294921875,0.0709228515625
1783169389353822200,6.749822265625,-0.8804168701171875,-0.4757232666015625,0.0702056884765625
1783169389363801300,6.75980126953125,-0.88128662109375,-0.475921630859375,0.0702972412109375
1783169389373750300,6.769750244140625,-0.8856964111328125,-0.4765777587890625,0.0718994140625
1783169389383699200,6.77969921875,-0.8884124755859375,-0.4763336181640625,0.071563720703125
1783169389393678000,6.789677978515625,-0.8883819580078125,-0.475250244140625,0.0721282958984375
1783169389403627300,6.799627197265625,-0.89044189453125,-0.473358154296875,0.0736541748046875
1783169389413575200,6.8095751953125,-0.892120361328125,-0.472412109375,0.0757293701171875
1783169389423524000,6.819524169921875,-0.89288330078125,-0.47113037109375,0.07470703125
1783169389433503200,6.829503173828125,-0.8917236328125,-0.470001220703125,0.0751495361328125
1783169389443452400,6.839452392578125,-0.88372802734375,-0.4682464599609375,0.0758514404296875
1783169389453401300,6.8494013671875,-0.879669189453125,-0.46600341796875,0.0748748779296875
1783169389463350300,6.859350341796875,-0.8808135986328125,-0.4657745361328125,0.0736083984375
1783169389473329400,6.869329345703125,-0.876068115234375,-0.46978759765625,0.075439453125
1783169389483278300,6.8792783203125,-0.8716888427734375,-0.470245361328125,0.076263427734375
1783169389493226200,6.889226318359375,-0.8724822998046875,-0.469696044921875,0.0749664306640625
1783169389503206100,6.8992060546875,-0.86871337890625,-0.4688720703125,0.0756072998046875
1783169389513154300,6.909154296875,-0.87164306640625,-0.4697113037109375,0.0748748779296875
1783169389523103200,6.919103271484375,-0.8738861083984375,-0.471832275390625,0.0716552734375
1783169389533052200,6.92905224609375,-0.87261962890625,-0.4737701416015625,0.069976806640625
1783169389543031300,6.93903125,-0.8746185302734375,-0.47479248046875,0.068756103515625
1783169389552980200,6.948980224609375,-0.8743896484375,-0.47576904296875,0.066864013671875
1783169389562928000,6.95892822265625,-0.870391845703125,-0.47772216796875,0.064727783203125
1783169389572877000,6.968876953125,-0.8674774169921875,-0.4796142578125,0.0655517578125
1783169389582856200,6.978856201171875,-0.8665924072265625,-0.4806060791015625,0.0659332275390625
1783169389592805000,6.98880517578125,-0.85833740234375,-0.482635498046875,0.0648345947265625
1783169389602754300,6.99875439453125,-0.84979248046875,-0.484710693359375,0.069244384765625
1783169389612733400,7.0087333984375,-0.848480224609375,-0.48748779296875,0.0752716064453125
1783169389622682400,7.018682373046875,-0.848236083984375,-0.4895172119140625,0.0795745849609375
1783169389632631300,7.02863134765625,-0.848358154296875,-0.4873809814453125,0.0803375244140625
1783169389642579200,7.0385791015625,-0.8490753173828125,-0.4844207763671875,0.0793914794921875
1783169389652559400,7.048559326171875,-0.8513336181640625,-0.48114013671875,0.077667236328125
1783169389662507300,7.05850732421875,-0.85296630859375,-0.4772186279296875,0.0789337158203125
1783169389672456200,7.068456298828125,-0.8535308837890625,-0.4742431640625,0.079437255859375
1783169389682405000,7.078405029296875,-0.852783203125,-0.47259521484375,0.0789642333984375
1783169389692384300,7.08838427734375,-0.85308837890625,-0.4716033935546875,0.0779571533203125
1783169389702333200,7.098333251953125,-0.8562774658203125,-0.469879150390625,0.0783843994140625
1783169389712281300,7.10828125,-0.850738525390625,-0.470855712890625,0.078460693359375
1783169389722261200,7.11826123046875,-0.8486175537109375,-0.470550537109375,0.0786895751953125
1783169389732209200,7.128209228515625,-0.8529815673828125,-0.471466064453125,0.0755767822265625
1783169389742158000,7.138157958984375,-0.8541107177734375,-0.4755096435546875,0.07257080078125
1783169389752107300,7.148107177734375,-0.85302734375,-0.4789886474609375,0.074066162109375
1783169389762086100,7.158086181640625,-0.8549346923828125,-0.4799041748046875,0.07659912109375
1783169389772035300,7.168035400390625,-0.8554534912109375,-0.48260498046875,0.0771484375
1783169389781984300,7.177984375,-0.8578338623046875,-0.4873199462890625,0.0779266357421875
1783169389791932400,7.187932373046875,-0.861968994140625,-0.49285888671875,0.0760498046875
1783169389801912300,7.197912353515625,-0.8605499267578125,-0.4946136474609375,0.072784423828125
1783169389811860200,7.207860107421875,-0.8601531982421875,-0.4938201904296875,0.069976806640625
1783169389821809400,7.217809326171875,-0.8638458251953125,-0.49200439453125,0.0677947998046875
1783169389831788300,7.227788330078125,-0.8654937744140625,-0.493011474609375,0.0677642822265625
1783169389841737200,7.2377373046875,-0.863861083984375,-0.49658203125,0.0674896240234375
1783169389851686100,7.24768603515625,-0.8614044189453125,-0.4965972900390625,0.068267822265625
1783169389861634300,7.25763427734375,-0.862518310546875,-0.496429443359375,0.0714569091796875
1783169389871614200,7.2676142578125,-0.8639068603515625,-0.4971771240234375,0.0742340087890625
1783169389881562000,7.27756201171875,-0.8655853271484375,-0.4996490478515625,0.0739593505859375
1783169389891511300,7.28751123046875,-0.86651611328125,-0.4990997314453125,0.070709228515625
1783169389901460200,7.297460205078125,-0.867462158203125,-0.4965057373046875,0.069732666015625
1783169389911439000,7.307439208984375,-0.8637237548828125,-0.4954833984375,0.0685272216796875
1783169389921388000,7.317387939453125,-0.86492919921875,-0.4942779541015625,0.06689453125
1783169389931337500,7.32733740234375,-0.867828369140625,-0.4945220947265625,0.066131591796875
1783169389941316400,7.33731640625,-0.8665313720703125,-0.49395751953125,0.0652923583984375
1783169389951265300,7.347265380859375,-0.8639068603515625,-0.4941253662109375,0.0626983642578125
1783169389961213400,7.35721337890625,-0.862396240234375,-0.4912567138671875,0.06561279296875
1783169389971162400,7.367162353515625,-0.8597564697265625,-0.4907989501953125,0.0685882568359375
1783169389981141200,7.377141357421875,-0.8564605712890625,-0.4925994873046875,0.06927490234375
1783169389991090200,7.387090087890625,-0.8568267822265625,-0.4947357177734375,0.0687713623046875
1783169390001039400,7.397039306640625,-0.8519439697265625,-0.4921875,0.0666046142578125
1783169390010988300,7.40698828125,-0.846435546875,-0.4880523681640625,0.0657958984375
1783169390020967200,7.41696728515625,-0.8477935791015625,-0.4864349365234375,0.065399169921875
1783169390030915300,7.426915283203125,-0.845184326171875,-0.485015869140625,0.0625457763671875
1783169390040864300,7.4368642578125,-0.8376922607421875,-0.48101806640625,0.0631103515625
1783169390050843100,7.446843017578125,-0.834686279296875,-0.4766845703125,0.065460205078125
1783169390060792300,7.456792236328125,-0.8358001708984375,-0.47784423828125,0.068023681640625
1783169390070741200,7.4667412109375,-0.835784912109375,-0.4800262451171875,0.07025146484375
1783169390080690200,7.476690185546875,-0.8345794677734375,-0.4799652099609375,0.069183349609375
1783169390090669000,7.4866689453125,-0.8350372314453125,-0.479888916015625,0.070037841796875
1783169390100651000,7.496651123046875,-0.8362274169921875,-0.4821319580078125,0.0711212158203125
1783169390110599200,7.50659912109375,-0.8399505615234375,-0.48516845703125,0.065521240234375
1783169390120548000,7.516548095703125,-0.8417205810546875,-0.4871826171875,0.0634307861328125
1783169390130527000,7.52652685546875,-0.8443450927734375,-0.486846923828125,0.064483642578125
1783169390140476000,7.536475830078125,-0.8482818603515625,-0.48870849609375,0.0650787353515625
1783169390150424800,7.5464248046875,-0.849334716796875,-0.49102783203125,0.063751220703125
1783169390160404000,7.556404052734375,-0.8546295166015625,-0.4919281005859375,0.0632171630859375
1783169390170353000,7.566352783203125,-0.8625946044921875,-0.4944305419921875,0.0634613037109375
1783169390180301800,7.5763017578125,-0.861785888671875,-0.497467041015625,0.063140869140625
1783169390190250000,7.58625,-0.8579864501953125,-0.4978179931640625,0.061981201171875
1783169390200228900,7.596228759765625,-0.8616943359375,-0.497589111328125,0.0611572265625
1783169390210177800,7.606177734375,-0.86639404296875,-0.500885009765625,0.0622711181640625
1783169390220127200,7.616127197265625,-0.866546630859375,-0.502960205078125,0.0628814697265625
1783169390230076200,7.626076171875,-0.8674774169921875,-0.500732421875,0.0628509521484375
1783169390240055000,7.636054931640625,-0.8718109130859375,-0.4992218017578125,0.0633697509765625
1783169390250004000,7.64600390625,-0.872344970703125,-0.5011138916015625,0.0633544921875
1783169390259952000,7.6559521484375,-0.872222900390625,-0.5029754638671875,0.06146240234375
1783169390269932000,7.66593212890625,-0.8719635009765625,-0.5030059814453125,0.061798095703125
1783169390279880000,7.6758798828125,-0.8705596923828125,-0.5029144287109375,0.0599517822265625
1783169390289829000,7.6858291015625,-0.8690338134765625,-0.50030517578125,0.05804443359375
1783169390299778000,7.695778076171875,-0.8667755126953125,-0.495452880859375,0.0594635009765625
1783169390309757000,7.7057568359375,-0.86834716796875,-0.495330810546875,0.060882568359375
1783169390319705900,7.715705810546875,-0.8692626953125,-0.4965362548828125,0.0603790283203125
1783169390329655000,7.725655029296875,-0.8661651611328125,-0.49530029296875,0.061065673828125
1783169390339603000,7.73560302734375,-0.8586273193359375,-0.4936065673828125,0.0614471435546875
1783169390349582800,7.745582763671875,-0.8530120849609375,-0.49346923828125,0.062164306640625
1783169390359531000,7.755531005859375,-0.8518218994140625,-0.4942626953125,0.0642852783203125
1783169390369480000,7.76547998046875,-0.849578857421875,-0.495147705078125,0.0665283203125
1783169390379458800,7.775458740234375,-0.8476409912109375,-0.4946441650390625,0.0671234130859375
1783169390389408000,7.785407958984375,-0.849090576171875,-0.492523193359375,0.0657501220703125
1783169390399357200,7.795357177734375,-0.8494415283203125,-0.492889404296875,0.0625
1783169390409305000,7.80530517578125,-0.8508758544921875,-0.49176025390625,0.06170654296875
1783169390419285000,7.815284912109375,-0.852142333984375,-0.4910430908203125,0.0605926513671875
1783169390429233200,7.825233154296875,-0.8541717529296875,-0.4891510009765625,0.060272216796875
1783169390439182000,7.83518212890625,-0.8554229736328125,-0.4868621826171875,0.0610504150390625
1783169390449131000,7.845131103515625,-0.858428955078125,-0.4882965087890625,0.0598297119140625
1783169390459110100,7.855110107421875,-0.8571929931640625,-0.4898681640625,0.058013916015625
1783169390469059000,7.86505908203125,-0.8524322509765625,-0.4884185791015625,0.058258056640625
1783169390479008000,7.875008056640625,-0.84747314453125,-0.4880523681640625,0.0588836669921875
1783169390488987000,7.88498681640625,-0.844512939453125,-0.4896392822265625,0.0580596923828125
1783169390498936000,7.89493603515625,-0.844024658203125,-0.4900360107421875,0.0576019287109375
1783169390508884000,7.904884033203125,-0.839141845703125,-0.493621826171875,0.06036376953125
1783169390518833000,7.9148330078125,-0.8338623046875,-0.49810791015625,0.065826416015625
1783169390528812000,7.92481201171875,-0.83306884765625,-0.501678466796875,0.072174072265625
1783169390538761000,7.934760986328125,-0.8337554931640625,-0.50213623046875,0.07611083984375
1783169390548710100,7.944710205078125,-0.8437347412109375,-0.5006866455078125,0.0786895751953125
1783169390558658000,7.954657958984375,-0.858123779296875,-0.49847412109375,0.0767364501953125
1783169390568638200,7.96463818359375,-0.8688812255859375,-0.497955322265625,0.07073974609375
1783169390578586000,7.974586181640625,-0.8783111572265625,-0.4923248291015625,0.06817626953125
1783169390588535000,7.98453515625,-0.882965087890625,-0.4877471923828125,0.0639190673828125
1783169390598514200,7.99451416015625,-0.8885650634765625,-0.4859771728515625,0.0619659423828125
1783169390608463000,8.004463134765626,-0.8910064697265625,-0.48699951171875,0.0603485107421875
1783169390618412000,8.014412109375,-0.8868255615234375,-0.4891357421875,0.06121826171875
1783169390628361000,8.02436083984375,-0.8809814453125,-0.4914398193359375,0.0631103515625
1783169390638340000,8.034340087890625,-0.8755950927734375,-0.492919921875,0.0640869140625
1783169390648289000,8.0442890625,-0.8679351806640625,-0.4942779541015625,0.0639190673828125
1783169390658237000,8.05423681640625,-0.857574462890625,-0.4948272705078125,0.0655670166015625
1783169390668185900,8.064185791015625,-0.850616455078125,-0.4957733154296875,0.06671142578125
1783169390678165000,8.0741650390625,-0.8447113037109375,-0.4970550537109375,0.0685272216796875
1783169390688114000,8.084114013671876,-0.8379058837890625,-0.4978179931640625,0.071258544921875
1783169390698062800,8.094062744140626,-0.8352813720703125,-0.498565673828125,0.0730743408203125
1783169390708042000,8.1040419921875,-0.834075927734375,-0.4994964599609375,0.07257080078125
1783169390717991200,8.1139912109375,-0.83331298828125,-0.4983062744140625,0.071319580078125
1783169390727938800,8.123938720703125,-0.8334503173828125,-0.4969329833984375,0.0714569091796875
1783169390737888000,8.133887939453125,-0.8383636474609375,-0.49505615234375,0.071441650390625
1783169390747867100,8.1438671875,-0.8436737060546875,-0.4956207275390625,0.0696258544921875
1783169390757816000,8.153816162109376,-0.8453826904296875,-0.4953765869140625,0.0688018798828125
1783169390767765000,8.163764892578126,-0.851043701171875,-0.4920196533203125,0.0691986083984375
1783169390777714000,8.1737138671875,-0.8551788330078125,-0.4918670654296875,0.06890869140625
1783169390787693000,8.183693115234375,-0.858673095703125,-0.4921112060546875,0.0688323974609375
1783169390797642000,8.19364208984375,-0.86480712890625,-0.4923553466796875,0.0703582763671875
1783169390807590000,8.20358984375,-0.8688201904296875,-0.494659423828125,0.070953369140625
1783169390817570000,8.213570068359376,-0.8681640625,-0.49609375,0.07135009765625
1783169390827518000,8.22351806640625,-0.867584228515625,-0.4963531494140625,0.07012939453125
1783169390837467000,8.233466796875,-0.8662567138671875,-0.498016357421875,0.0704498291015625
1783169390847415800,8.243415771484376,-0.861541748046875,-0.502532958984375,0.0702972412109375
1783169390857395000,8.25339501953125,-0.85552978515625,-0.5072479248046875,0.0704803466796875
1783169390867344000,8.26334375,-0.8513031005859375,-0.5082244873046875,0.07086181640625
1783169390877292000,8.2732919921875,-0.848968505859375,-0.510955810546875,0.07159423828125
1783169390887241000,8.283240966796875,-0.8446197509765625,-0.513702392578125,0.0738983154296875
1783169390897219800,8.2932197265625,-0.840545654296875,-0.515960693359375,0.075592041015625
1783169390907169000,8.3031689453125,-0.8446044921875,-0.5169830322265625,0.075103759765625
1783169390917118000,8.313117919921876,-0.848846435546875,-0.5160980224609375,0.0771636962890625
1783169390927097000,8.32309716796875,-0.8531646728515625,-0.51531982421875,0.077301025390625
1783169390937046000,8.3330458984375,-0.8555755615234375,-0.5148468017578125,0.0741729736328125
1783169390946995000,8.342994873046875,-0.858489990234375,-0.5116729736328125,0.0724029541015625
1783169390956943000,8.352943115234375,-0.8635711669921875,-0.5091094970703125,0.0707244873046875
1783169390966923000,8.362923095703126,-0.867218017578125,-0.5073089599609375,0.069915771484375
1783169390976871000,8.372870849609376,-0.864898681640625,-0.50567626953125,0.0708465576171875
1783169390986820000,8.382820068359376,-0.86297607421875,-0.5043182373046875,0.0700531005859375
1783169390996769000,8.39276904296875,-0.86199951171875,-0.5037994384765625,0.0686798095703125
1783169391006748000,8.402747802734375,-0.8578338623046875,-0.5019378662109375,0.069549560546875
1783169391016696800,8.41269677734375,-0.85284423828125,-0.5034027099609375,0.0730133056640625
1783169391026646000,8.42264599609375,-0.84747314453125,-0.505645751953125,0.0735321044921875
1783169391036625000,8.432625,-0.8448638916015625,-0.506134033203125,0.073822021484375
1783169391046572800,8.44257275390625,-0.8449859619140625,-0.50225830078125,0.0770416259765625
1783169391056522000,8.45252197265625,-0.8441162109375,-0.499481201171875,0.0790252685546875
1783169391066471200,8.46247119140625,-0.8407745361328125,-0.500335693359375,0.0804290771484375
1783169391076450000,8.472449951171875,-0.8406219482421875,-0.50311279296875,0.0829010009765625
1783169391086399000,8.48239892578125,-0.83843994140625,-0.50421142578125,0.08428955078125
1783169391096355300,8.492355224609375,-0.8359527587890625,-0.502685546875,0.08447265625
1783169391106303500,8.502303466796874,-0.838897705078125,-0.5038299560546875,0.082489013671875
1783169391116283400,8.512283447265625,-0.84527587890625,-0.5055694580078125,0.078887939453125
1783169391126231600,8.5222314453125,-0.850555419921875,-0.5056304931640625,0.07379150390625
1783169391136180500,8.532180419921875,-0.85345458984375,-0.5038909912109375,0.0692291259765625
1783169391146159400,8.542159423828124,-0.85638427734375,-0.5026702880859375,0.064697265625
1783169391156108500,8.552108642578125,-0.862396240234375,-0.5043487548828125,0.0624542236328125
1783169391166057500,8.562057373046875,-0.8630218505859375,-0.5095977783203125,0.062347412109375
1783169391176006700,8.572006591796875,-0.85858154296875,-0.5130157470703125,0.0622100830078125
1783169391185985500,8.581985595703125,-0.8497161865234375,-0.51080322265625,0.0630340576171875
1783169391195934500,8.5919345703125,-0.844329833984375,-0.5089263916015625,0.0656280517578125
1783169391205882600,8.601882568359375,-0.8426055908203125,-0.513031005859375,0.068115234375
1783169391215831600,8.61183154296875,-0.84100341796875,-0.5172576904296875,0.066375732421875
1783169391225810400,8.621810546875,-0.836273193359375,-0.516021728515625,0.0643768310546875
1783169391235759600,8.631759521484375,-0.8337249755859375,-0.514556884765625,0.0649261474609375
1783169391245708500,8.64170849609375,-0.832061767578125,-0.5170440673828125,0.0650634765625
1783169391255656400,8.651656494140624,-0.830169677734375,-0.519775390625,0.0642242431640625
1783169391265636400,8.66163623046875,-0.82965087890625,-0.5211944580078125,0.064910888671875
1783169391275584500,8.67158447265625,-0.827789306640625,-0.520355224609375,0.063873291015625
1783169391285533400,8.681533447265625,-0.8314971923828125,-0.5201263427734375,0.0624847412109375
1783169391295512300,8.69151220703125,-0.8325042724609375,-0.5169219970703125,0.0623931884765625
1783169391305461500,8.70146142578125,-0.8311920166015625,-0.513214111328125,0.0611419677734375
1783169391315410700,8.71141064453125,-0.8338775634765625,-0.511749267578125,0.060943603515625
1783169391325359600,8.721359619140625,-0.8353118896484375,-0.5131072998046875,0.0645599365234375
1783169391335338500,8.73133837890625,-0.8338470458984375,-0.5159912109375,0.0692901611328125
1783169391345287700,8.74128759765625,-0.8344573974609375,-0.5173187255859375,0.069488525390625
1783169391355235600,8.751235595703125,-0.8361663818359375,-0.5171661376953125,0.0715789794921875
1783169391365184500,8.7611845703125,-0.83441162109375,-0.5162506103515625,0.0742950439453125
1783169391375163600,8.77116357421875,-0.8326568603515625,-0.513671875,0.0758209228515625
1783169391385112600,8.781112548828125,-0.832611083984375,-0.5128173828125,0.0796966552734375
1783169391395061500,8.7910615234375,-0.8313140869140625,-0.513153076171875,0.0842132568359375
1783169391405040400,8.801040283203125,-0.8303375244140625,-0.5152587890625,0.088165283203125
1783169391414989600,8.810989501953125,-0.8316497802734375,-0.516021728515625,0.0904541015625
1783169391424937500,8.8209375,-0.83319091796875,-0.514892578125,0.0915069580078125
1783169391434886400,8.830886474609375,-0.8361358642578125,-0.514434814453125,0.09173583984375
1783169391444865500,8.840865478515624,-0.8414459228515625,-0.51422119140625,0.093353271484375
1783169391454814500,8.850814453125,-0.8430328369140625,-0.5120391845703125,0.0933685302734375
1783169391464763400,8.860763427734375,-0.84320068359375,-0.5115509033203125,0.0935211181640625
1783169391474712600,8.870712646484375,-0.8468017578125,-0.5119476318359375,0.094970703125
1783169391484691700,8.880691650390625,-0.8480072021484375,-0.51318359375,0.097381591796875
1783169391494640600,8.890640625,-0.848541259765625,-0.512786865234375,0.0966339111328125
1783169391504588500,8.900588623046875,-0.8516845703125,-0.5098419189453125,0.095001220703125
1783169391514568400,8.910568359375,-0.8530120849609375,-0.51031494140625,0.0920562744140625
1783169391524516600,8.9205166015625,-0.853973388671875,-0.509368896484375,0.0883026123046875
1783169391534465500,8.930465576171875,-0.857177734375,-0.508270263671875,0.0843048095703125
1783169391544414500,8.94041455078125,-0.856903076171875,-0.5116424560546875,0.080780029296875
1783169391554393600,8.9503935546875,-0.8522491455078125,-0.51361083984375,0.075714111328125
1783169391564342500,8.960342529296875,-0.8479156494140625,-0.5120391845703125,0.0738372802734375
1783169391574290400,8.97029052734375,-0.8438720703125,-0.5146484375,0.0726776123046875
1783169391584239400,8.9802392578125,-0.8385467529296875,-0.516815185546875,0.072509765625
1783169391594218500,8.990218505859374,-0.8351593017578125,-0.5186309814453125,0.072540283203125
1783169391604167400,9.00016748046875,-0.8305511474609375,-0.520599365234375,0.07318115234375
1783169391614116400,9.010116455078125,-0.82720947265625,-0.52203369140625,0.073516845703125
1783169391624095500,9.020095458984375,-0.8247528076171875,-0.520355224609375,0.0742950439453125
1783169391634044400,9.03004443359375,-0.8240966796875,-0.5184173583984375,0.073272705078125
1783169391643993600,9.03999365234375,-0.8280029296875,-0.517181396484375,0.0737152099609375
1783169391653941500,9.04994140625,-0.8327178955078125,-0.5149993896484375,0.0750732421875
1783169391663921700,9.059921630859375,-0.8350372314453125,-0.5095062255859375,0.0756378173828125
1783169391673869600,9.06986962890625,-0.8358306884765625,-0.502105712890625,0.077362060546875
1783169391683818500,9.079818603515625,-0.8365478515625,-0.499847412109375,0.081268310546875
1783169391693767400,9.089767333984375,-0.8370208740234375,-0.4997711181640625,0.0865936279296875
1783169391703746600,9.09974658203125,-0.8377227783203125,-0.4983367919921875,0.0897064208984375
1783169391713695500,9.109695556640625,-0.83929443359375,-0.494598388671875,0.090667724609375
1783169391723643600,9.1196435546875,-0.8398590087890625,-0.4897003173828125,0.090972900390625
1783169391733623600,9.12962353515625,-0.84515380859375,-0.4875640869140625,0.092864990234375
1783169391743571500,9.139571533203124,-0.85015869140625,-0.489990234375,0.0942535400390625
1783169391753520400,9.149520263671874,-0.848602294921875,-0.4902496337890625,0.0915985107421875
1783169391763469600,9.159469482421875,-0.849151611328125,-0.489715576171875,0.0906982421875
1783169391773448400,9.169448486328125,-0.844390869140625,-0.4933624267578125,0.0955047607421875
1783169391783397400,9.1793974609375,-0.84075927734375,-0.5025634765625,0.103485107421875
1783169391793346300,9.18934619140625,-0.8497314453125,-0.5121307373046875,0.1021881103515625
1783169391803294500,9.19929443359375,-0.8658599853515625,-0.5198974609375,0.0891876220703125
1783169391813274600,9.209274658203125,-0.88031005859375,-0.5237579345703125,0.0702056884765625
1783169391823222300,9.21922216796875,-0.8876190185546875,-0.527374267578125,0.054290771484375
1783169391833171700,9.229171630859375,-0.8898773193359375,-0.5260772705078125,0.0424346923828125
1783169391843150600,9.239150634765625,-0.8845367431640625,-0.5217437744140625,0.0305023193359375
1783169391853099500,9.249099609375,-0.8728485107421875,-0.5172576904296875,0.021331787109375
1783169391863048400,9.25904833984375,-0.8571014404296875,-0.5136566162109375,0.023101806640625
1783169391872996600,9.26899658203125,-0.83355712890625,-0.5125274658203125,0.03094482421875
1783169391882976500,9.2789765625,-0.8116912841796875,-0.5124053955078125,0.044281005859375
1783169391892924700,9.288924560546874,-0.794342041015625,-0.5127105712890625,0.05975341796875
1783169391902873600,9.29887353515625,-0.77996826171875,-0.5123748779296875,0.0747222900390625
1783169391912822500,9.308822509765625,-0.7762908935546875,-0.5133056640625,0.08905029296875
1783169391922801400,9.318801513671875,-0.7801971435546875,-0.51397705078125,0.102935791015625
1783169391932750300,9.328750244140625,-0.7800750732421875,-0.5116729736328125,0.1110076904296875
1783169391942699500,9.338699462890625,-0.79193115234375,-0.50616455078125,0.1155548095703125
1783169391952678400,9.348678466796875,-0.80859375,-0.5034027099609375,0.1200103759765625
1783169391962627300,9.35862744140625,-0.8248443603515625,-0.501312255859375,0.1231231689453125
1783169391972575500,9.368575439453124,-0.8420867919921875,-0.4947662353515625,0.1221466064453125
1783169391982524400,9.3785244140625,-0.857666015625,-0.483642578125,0.1182403564453125
1783169391992503300,9.38850341796875,-0.878570556640625,-0.4764556884765625,0.1108245849609375
1783169392002452700,9.39845263671875,-0.90106201171875,-0.473785400390625,0.102783203125
1783169392012401700,9.408401611328125,-0.915771484375,-0.47467041015625,0.094818115234375
1783169392022350600,9.4183505859375,-0.9249725341796875,-0.471160888671875,0.0889434814453125
1783169392032329500,9.42832958984375,-0.93365478515625,-0.4682769775390625,0.080718994140625
1783169392042278700,9.438278564453125,-0.939178466796875,-0.46624755859375,0.073272705078125
1783169392052226600,9.4482265625,-0.9384002685546875,-0.4669952392578125,0.0649566650390625
1783169392062205400,9.458205322265625,-0.9361724853515625,-0.4666290283203125,0.057586669921875
1783169392072154600,9.468154541015625,-0.9309539794921875,-0.4673919677734375,0.0520782470703125
1783169392082103600,9.478103515625,-0.9127349853515625,-0.4711151123046875,0.0481719970703125
1783169392092052500,9.488052490234375,-0.8959197998046875,-0.4750823974609375,0.046905517578125
1783169392102052000,9.498052001953125,-0.8819580078125,-0.4813232421875,0.0458221435546875
1783169392112001000,9.5080009765625,-0.8662872314453125,-0.4886016845703125,0.0448760986328125
1783169392121949000,9.517948974609375,-0.8529205322265625,-0.494659423828125,0.04180908203125
1783169392131897900,9.52789794921875,-0.841644287109375,-0.4988861083984375,0.040252685546875
1783169392141877000,9.537876953125,-0.836517333984375,-0.502685546875,0.04022216796875
1783169392151826200,9.547826171875,-0.8325347900390625,-0.5058746337890625,0.045379638671875
1783169392161775000,9.557775146484374,-0.8265838623046875,-0.508056640625,0.0514678955078125
1783169392171754200,9.567754150390625,-0.8314208984375,-0.5114288330078125,0.0501708984375
1783169392181703200,9.577703125,-0.837738037109375,-0.516204833984375,0.053192138671875
1783169392191652000,9.587652099609375,-0.83294677734375,-0.5139617919921875,0.06475830078125
1783169392201600000,9.59760009765625,-0.828948974609375,-0.50592041015625,0.071563720703125
1783169392211580200,9.607580078125,-0.82769775390625,-0.4979248046875,0.0710296630859375
1783169392221528000,9.617528076171874,-0.8252410888671875,-0.49639892578125,0.0711212158203125
1783169392231477000,9.62747705078125,-0.8260955810546875,-0.4953460693359375,0.0781402587890625
1783169392241426000,9.637426025390624,-0.828094482421875,-0.4941558837890625,0.0886077880859375
1783169392251405000,9.647405029296875,-0.83184814453125,-0.4909820556640625,0.0948486328125
1783169392261354000,9.65735400390625,-0.84490966796875,-0.4881591796875,0.0951080322265625
1783169392271302000,9.667302001953125,-0.8616790771484375,-0.4820098876953125,0.0885162353515625
1783169392281282000,9.677281982421874,-0.87164306640625,-0.4732208251953125,0.08343505859375
1783169392291230000,9.68722998046875,-0.8810882568359375,-0.4662628173828125,0.0791168212890625
1783169392301179000,9.697178955078124,-0.88482666015625,-0.4621429443359375,0.0749969482421875
1783169392311128000,9.707128173828124,-0.88818359375,-0.4610748291015625,0.0721435546875
1783169392321107200,9.717107177734375,-0.8927764892578125,-0.4632415771484375,0.0699462890625
1783169392331056000,9.72705615234375,-0.89117431640625,-0.46728515625,0.0698699951171875
1783169392341005000,9.737005126953125,-0.881866455078125,-0.4691619873046875,0.069000244140625
1783169392350953200,9.746953125,-0.875335693359375,-0.4723968505859375,0.0668792724609375
1783169392360933000,9.75693310546875,-0.8708648681640625,-0.4756011962890625,0.066253662109375
1783169392370881000,9.766881103515624,-0.8648223876953125,-0.4819183349609375,0.0663299560546875
1783169392380830000,9.776829833984374,-0.8616485595703125,-0.4906768798828125,0.0664215087890625
1783169392390809000,9.78680908203125,-0.8641204833984375,-0.4936981201171875,0.0660247802734375
1783169392400758000,9.796758056640625,-0.863800048828125,-0.49578857421875,0.0651397705078125
1783169392410707000,9.80670703125,-0.8612213134765625,-0.497711181640625,0.0622406005859375
1783169392420655000,9.816655029296875,-0.8572540283203125,-0.4945831298828125,0.060943603515625
1783169392430635000,9.826635009765624,-0.8534698486328125,-0.492828369140625,0.0611724853515625
1783169392440583000,9.8365830078125,-0.85064697265625,-0.49249267578125,0.060760498046875
1783169392450531800,9.84653173828125,-0.8505401611328125,-0.4917755126953125,0.0596466064453125
1783169392460481000,9.85648095703125,-0.8489532470703125,-0.490478515625,0.0595703125
1783169392470460000,9.8664599609375,-0.8465423583984375,-0.491302490234375,0.061279296875
1783169392480409000,9.8764091796875,-0.850067138671875,-0.4943695068359375,0.0607452392578125
1783169392490358000,9.88635791015625,-0.8560638427734375,-0.49456787109375,0.05712890625
1783169392500337200,9.896337158203124,-0.8635711669921875,-0.4930419921875,0.052093505859375
1783169392510286000,9.9062861328125,-0.872833251953125,-0.4915618896484375,0.0471649169921875
1783169392520234000,9.91623388671875,-0.876556396484375,-0.4902191162109375,0.04547119140625
1783169392530183200,9.92618310546875,-0.8812255859375,-0.488189697265625,0.045074462890625
1783169392540162000,9.936162109375,-0.88714599609375,-0.48419189453125,0.0438690185546875
1783169392550111000,9.946111083984375,-0.8931884765625,-0.4821929931640625,0.0445709228515625
1783169392560060000,9.956059814453125,-0.8984375,-0.4801177978515625,0.0468902587890625
1783169392570008000,9.966008056640625,-0.9005279541015625,-0.4785919189453125,0.046478271484375
1783169392579988000,9.975988037109374,-0.9028167724609375,-0.4776153564453125,0.0410614013671875
1783169392589936000,9.98593603515625,-0.9022674560546875,-0.475128173828125,0.03662109375
1783169392599885000,9.995885009765624,-0.9019622802734375,-0.476715087890625,0.035400390625
1783169392609864000,10.005864013671875,-0.9037017822265625,-0.4788665771484375,0.034393310546875
1783169392619812900,10.015812744140625,-0.8980865478515625,-0.4801788330078125,0.0314788818359375
1783169392629762000,10.025761962890625,-0.888397216796875,-0.4790496826171875,0.0296630859375
1783169392639711200,10.035711181640625,-0.8777923583984375,-0.4791717529296875,0.029144287109375
1783169392649690000,10.045690185546874,-0.8665008544921875,-0.479766845703125,0.029510498046875
1783169392659639000,10.05563916015625,-0.85693359375,-0.4804840087890625,0.0319061279296875
1783169392669587200,10.065587158203124,-0.8496246337890625,-0.480712890625,0.031646728515625
1783169392679536000,10.0755361328125,-0.8390960693359375,-0.47979736328125,0.031341552734375
1783169392689515000,10.085514892578125,-0.8276214599609375,-0.476959228515625,0.035308837890625
1783169392699464200,10.095464111328125,-0.8215789794921875,-0.4752349853515625,0.040740966796875
1783169392709413000,10.1054130859375,-0.818450927734375,-0.473876953125,0.0471649169921875
1783169392719392000,10.11539208984375,-0.8139801025390625,-0.4718780517578125,0.0540313720703125
1783169392729341000,10.1253408203125,-0.8095550537109375,-0.4704742431640625,0.06231689453125
1783169392739289000,10.1352890625,-0.8099365234375,-0.4727935791015625,0.0684814453125
1783169392749238000,10.145238037109374,-0.8077239990234375,-0.4718017578125,0.07318115234375
1783169392759217000,10.155216796875,-0.8123016357421875,-0.470977783203125,0.0743865966796875
1783169392769166000,10.165166015625,-0.8163604736328125,-0.472900390625,0.07659912109375
1783169392779115000,10.175114990234375,-0.809661865234375,-0.4704742431640625,0.0857696533203125
1783169392789064000,10.18506396484375,-0.819183349609375,-0.4724578857421875,0.0830841064453125
1783169392799042800,10.195042724609374,-0.832275390625,-0.478912353515625,0.0769805908203125
1783169392808992300,10.2049921875,-0.8455963134765625,-0.4861602783203125,0.0732421875
1783169392818940200,10.214940185546874,-0.862060546875,-0.4867401123046875,0.0698699951171875
1783169392828920000,10.224920166015625,-0.88177490234375,-0.4870758056640625,0.0591583251953125
1783169392838868200,10.2348681640625,-0.90325927734375,-0.4897003173828125,0.04461669921875
1783169392848817200,10.244817138671875,-0.92510986328125,-0.4920196533203125,0.0301055908203125
1783169392858766000,10.25476611328125,-0.926971435546875,-0.490753173828125,0.0185394287109375
1783169392868745200,10.2647451171875,-0.9104766845703125,-0.4860687255859375,0.0148773193359375
1783169392878694100,10.274694091796874,-0.8878631591796875,-0.488037109375,0.020416259765625
1783169392888642000,10.28464208984375,-0.8684844970703125,-0.4953765869140625,0.0311126708984375
1783169392898591000,10.294591064453124,-0.856475830078125,-0.503204345703125,0.0414581298828125
1783169392908570000,10.304570068359375,-0.85479736328125,-0.509368896484375,0.0505828857421875
1783169392918519000,10.31451904296875,-0.853973388671875,-0.509796142578125,0.05535888671875
1783169392928468000,10.324468017578125,-0.85455322265625,-0.5071258544921875,0.048858642578125
1783169392938447000,10.334447021484374,-0.8591766357421875,-0.5038604736328125,0.0385589599609375
1783169392948396000,10.34439599609375,-0.8625030517578125,-0.502288818359375,0.03033447265625
1783169392958345000,10.354344970703124,-0.861846923828125,-0.5011749267578125,0.02545166015625
1783169392968292900,10.36429296875,-0.859527587890625,-0.501434326171875,0.0230865478515625
1783169392978273300,10.374273193359375,-0.8553466796875,-0.5033416748046875,0.0231475830078125
1783169392988221000,10.384220947265625,-0.8480377197265625,-0.5050201416015625,0.0232696533203125
1783169392998170000,10.394170166015625,-0.84197998046875,-0.502593994140625,0.020660400390625
1783169393008119000,10.404119140625,-0.836517333984375,-0.5012054443359375,0.0208892822265625
1783169393018098200,10.41409814453125,-0.8303375244140625,-0.501678466796875,0.02679443359375
1783169393028047000,10.424047119140624,-0.8246307373046875,-0.5027008056640625,0.0335845947265625
1783169393037996000,10.43399609375,-0.825958251953125,-0.503143310546875,0.0429229736328125
1783169393047975200,10.44397509765625,-0.8261871337890625,-0.50164794921875,0.052154541015625
1783169393057924000,10.453924072265625,-0.8267059326171875,-0.4962310791015625,0.062774658203125
1783169393067872000,10.4638720703125,-0.8348541259765625,-0.49090576171875,0.072723388671875
1783169393077821000,10.473821044921875,-0.847412109375,-0.491058349609375,0.0809173583984375
1783169393087800000,10.483800048828124,-0.861358642578125,-0.4910125732421875,0.087493896484375
1783169393097795800,10.4937958984375,-0.877532958984375,-0.487884521484375,0.0874176025390625
1783169393107744800,10.503744873046875,-0.888458251953125,-0.48052978515625,0.081024169921875
1783169393117692700,10.513692626953125,-0.8913421630859375,-0.471954345703125,0.072021484375
1783169393127672600,10.523672607421876,-0.8931732177734375,-0.468109130859375,0.06732177734375
1783169393137620700,10.533620849609376,-0.89013671875,-0.469024658203125,0.0646514892578125
1783169393147569700,10.543569580078126,-0.8850555419921875,-0.471435546875,0.0635223388671875
1783169393157548500,10.553548583984375,-0.880950927734375,-0.475311279296875,0.0641021728515625
1783169393167497700,10.563497802734375,-0.878143310546875,-0.480712890625,0.0656890869140625
1783169393177446700,10.57344677734375,-0.88055419921875,-0.4832611083984375,0.064483642578125
1783169393187395600,10.5833955078125,-0.88128662109375,-0.4812164306640625,0.06005859375
1783169393197374500,10.59337451171875,-0.877410888671875,-0.480377197265625,0.055084228515625
1783169393207323600,10.60332373046875,-0.8698577880859375,-0.479522705078125,0.053619384765625
1783169393217271600,10.613271484375,-0.8603973388671875,-0.4775390625,0.0578765869140625
1783169393227220500,10.623220458984376,-0.8541259765625,-0.4749603271484375,0.0670623779296875
1783169393237199600,10.63319970703125,-0.852325439453125,-0.4744873046875,0.0756072998046875
1783169393247148500,10.6431484375,-0.8482208251953125,-0.475128173828125,0.083038330078125
1783169393257097700,10.65309765625,-0.842803955078125,-0.476776123046875,0.089691162109375
1783169393267045600,10.663045654296875,-0.840118408203125,-0.4757537841796875,0.095703125
1783169393277025800,10.67302587890625,-0.8404541015625,-0.4755401611328125,0.1021881103515625
1783169393286973700,10.6829736328125,-0.845611572265625,-0.4785308837890625,0.1044921875
1783169393296922600,10.692922607421876,-0.859619140625,-0.4816741943359375,0.1011810302734375
1783169393306901800,10.70290185546875,-0.8742218017578125,-0.482757568359375,0.0978240966796875
1783169393316850700,10.7128505859375,-0.88372802734375,-0.480316162109375,0.09515380859375
1783169393326799600,10.722799560546875,-0.8892364501953125,-0.4769439697265625,0.096099853515625
1783169393336748500,10.73274853515625,-0.9001617431640625,-0.475372314453125,0.096405029296875
1783169393346727700,10.742727783203126,-0.91461181640625,-0.47589111328125,0.0945281982421875
1783169393356676600,10.752676513671876,-0.91839599609375,-0.47552490234375,0.0941925048828125
1783169393366624500,10.76262451171875,-0.9149627685546875,-0.4731903076171875,0.095062255859375
1783169393376573400,10.772573486328126,-0.9151763916015625,-0.468994140625,0.095306396484375
1783169393386552600,10.782552490234375,-0.9109954833984375,-0.467864990234375,0.0921173095703125
1783169393396501500,10.79250146484375,-0.9020843505859375,-0.4675140380859375,0.0888671875
1783169393406450400,10.802450439453125,-0.8998260498046875,-0.4661865234375,0.086395263671875
1783169393416429600,10.8124296875,-0.887481689453125,-0.4666748046875,0.0863494873046875
1783169393426378800,10.822378662109376,-0.874237060546875,-0.468017578125,0.08575439453125
1783169393436326700,10.83232666015625,-0.8687591552734375,-0.4698028564453125,0.0840911865234375
1783169393446275600,10.842275634765626,-0.859100341796875,-0.4688873291015625,0.0858612060546875
1783169393456254700,10.852254638671875,-0.8496551513671875,-0.4677581787109375,0.088714599609375
1783169393466203600,10.86220361328125,-0.8481597900390625,-0.4685516357421875,0.0872802734375
1783169393476152600,10.872152587890625,-0.8489227294921875,-0.4691314697265625,0.085418701171875
1783169393486101500,10.8821015625,-0.8463134765625,-0.46783447265625,0.0836639404296875
1783169393496080600,10.89208056640625,-0.844512939453125,-0.4654083251953125,0.0796661376953125
1783169393506029600,10.902029541015626,-0.84356689453125,-0.462860107421875,0.077606201171875
1783169393515977700,10.911977783203126,-0.846893310546875,-0.462005615234375,0.07513427734375
1783169393525957600,10.92195751953125,-0.8463592529296875,-0.463531494140625,0.0737762451171875
1783169393535905500,10.931905517578125,-0.8455047607421875,-0.4619140625,0.0709228515625
1783169393545854500,10.9418544921875,-0.8481292724609375,-0.4598388671875,0.069854736328125
1783169393555803600,10.9518037109375,-0.846710205078125,-0.460540771484375,0.070648193359375
1783169393565782500,10.961782470703126,-0.84600830078125,-0.4637603759765625,0.0701141357421875
1783169393575731500,10.9717314453125,-0.84552001953125,-0.467498779296875,0.0681304931640625
1783169393585679600,10.9816796875,-0.84185791015625,-0.4704132080078125,0.0691375732421875
1783169393595628800,10.99162890625,-0.837615966796875,-0.4713287353515625,0.0699310302734375
1783169393605607700,11.001607666015625,-0.8395233154296875,-0.4726715087890625,0.0717010498046875
1783169393615556600,11.011556640625,-0.8394012451171875,-0.4748382568359375,0.07269287109375
1783169393625505800,11.021505859375,-0.8383026123046875,-0.4752197265625,0.075347900390625
1783169393635484700,11.031484619140626,-0.8427581787109375,-0.4760589599609375,0.076446533203125
1783169393645433600,11.04143359375,-0.8457183837890625,-0.477447509765625,0.079498291015625
1783169393655382500,11.051382568359376,-0.852783203125,-0.47772216796875,0.0812530517578125
1783169393665330700,11.06133056640625,-0.8597259521484375,-0.4769134521484375,0.0791473388671875
1783169393675310600,11.071310546875,-0.8687286376953125,-0.4738922119140625,0.07489013671875
1783169393685258800,11.0812587890625,-0.8771209716796875,-0.4718017578125,0.072357177734375
1783169393695207700,11.091207763671875,-0.884063720703125,-0.4709320068359375,0.06939697265625
1783169393705156600,11.101156494140625,-0.891937255859375,-0.470672607421875,0.066253662109375
1783169393715135500,11.111135498046876,-0.8955230712890625,-0.4680633544921875,0.0641632080078125
1783169393725084400,11.12108447265625,-0.8956756591796875,-0.4661102294921875,0.0613250732421875
1783169393735032600,11.131032470703126,-0.8997344970703125,-0.4651947021484375,0.05767822265625
1783169393745012500,11.141012451171875,-0.9005584716796875,-0.4655609130859375,0.054351806640625
1783169393754960600,11.150960693359375,-0.889434814453125,-0.46527099609375,0.0558929443359375
1783169393764909800,11.160909912109375,-0.896636962890625,-0.4621124267578125,0.05126953125
1783169393774858800,11.170858642578125,-0.899627685546875,-0.4664154052734375,0.04742431640625
1783169393784837600,11.180837646484376,-0.8884735107421875,-0.470184326171875,0.0519561767578125
1783169393794786800,11.190786865234376,-0.8829498291015625,-0.468719482421875,0.05419921875
1783169393804735700,11.20073583984375,-0.8782196044921875,-0.4684295654296875,0.0551605224609375
1783169393814683600,11.21068359375,-0.87384033203125,-0.4715576171875,0.0557861328125
1783169393824663600,11.22066357421875,-0.8713836669921875,-0.47406005859375,0.0579833984375
1783169393834611700,11.23061181640625,-0.8730316162109375,-0.474090576171875,0.052703857421875
1783169393844560600,11.240560546875,-0.87249755859375,-0.473541259765625,0.052154541015625
1783169393854539500,11.25053955078125,-0.872650146484375,-0.4740753173828125,0.0413970947265625
1783169393864488700,11.26048876953125,-0.8836822509765625,-0.4758148193359375,0.0271759033203125
1783169393874437600,11.270437744140626,-0.902008056640625,-0.4841461181640625,0.0303192138671875
1783169393884386600,11.280386474609376,-0.892669677734375,-0.481597900390625,0.018768310546875
1783169393894365400,11.290365478515625,-0.87664794921875,-0.48291015625,0.0035247802734375
1783169393904313600,11.300313720703125,-0.8755340576171875,-0.51824951171875,0.023651123046875
1783169393914262500,11.310262451171875,-0.8784027099609375,-0.5045166015625,0.033538818359375
1783169393924211700,11.320211669921875,-0.8648834228515625,-0.480133056640625,0.0420989990234375
1783169393934190600,11.330190673828126,-0.8437957763671875,-0.480438232421875,0.0537567138671875
1783169393944139800,11.340139892578126,-0.8425140380859375,-0.479217529296875,0.055755615234375
1783169393954088700,11.350088623046876,-0.8445587158203125,-0.467376708984375,0.0526275634765625
1783169393964067600,11.360067626953125,-0.841522216796875,-0.4587554931640625,0.0626983642578125
1783169393974016800,11.370016845703125,-0.851104736328125,-0.4520263671875,0.0695343017578125
1783169393983964700,11.379964599609375,-0.8576812744140625,-0.4476470947265625,0.0708465576171875
1783169393993913600,11.38991357421875,-0.8549041748046875,-0.453826904296875,0.0638580322265625
1783169394003892700,11.399892822265626,-0.858367919921875,-0.4600372314453125,0.054351806640625
1783169394013841700,11.409841552734376,-0.867706298828125,-0.464447021484375,0.0455474853515625
1783169394023790600,11.41979052734375,-0.8747100830078125,-0.4681243896484375,0.0405120849609375
1783169394033739500,11.429739501953126,-0.87811279296875,-0.4680938720703125,0.0371246337890625
1783169394043718700,11.43971875,-0.883575439453125,-0.4740142822265625,0.036468505859375
1783169394053667600,11.44966748046875,-0.879425048828125,-0.4786529541015625,0.0360107421875
1783169394063615500,11.459615478515625,-0.872711181640625,-0.4761962890625,0.0361480712890625
1783169394073595600,11.469595703125,-0.86700439453125,-0.473358154296875,0.0395660400390625
1783169394083543600,11.47954345703125,-0.8682708740234375,-0.4703216552734375,0.0479736328125
1783169394093492700,11.48949267578125,-0.8700408935546875,-0.46728515625,0.0517578125
1783169394103456000,11.4994560546875,-0.8679046630859375,-0.4686126708984375,0.054718017578125
1783169394113435100,11.50943505859375,-0.8690032958984375,-0.4684600830078125,0.056640625
1783169394123384300,11.51938427734375,-0.8717498779296875,-0.469085693359375,0.0567779541015625
1783169394133332000,11.52933203125,-0.874359130859375,-0.4705810546875,0.0516357421875
1783169394143281200,11.53928125,-0.8807373046875,-0.4707489013671875,0.0472259521484375
1783169394153260300,11.54926025390625,-0.8853912353515625,-0.4712982177734375,0.0450286865234375
1783169394163209200,11.559209228515625,-0.8831024169921875,-0.472381591796875,0.044464111328125
1783169394173158100,11.569158203125,-0.877899169921875,-0.4701690673828125,0.046142578125
1783169394183137300,11.57913720703125,-0.8800506591796875,-0.47021484375,0.045440673828125
1783169394193086200,11.589086181640624,-0.8746337890625,-0.469940185546875,0.0477294921875
1783169394203035100,11.59903515625,-0.8704986572265625,-0.4674835205078125,0.0518951416015625
1783169394212983000,11.608983154296874,-0.868438720703125,-0.46575927734375,0.05108642578125
1783169394222963200,11.618963134765625,-0.868316650390625,-0.4652252197265625,0.0482940673828125
1783169394232911000,11.6289111328125,-0.8729248046875,-0.467498779296875,0.0451507568359375
1783169394242860000,11.638860107421875,-0.871337890625,-0.471466064453125,0.0391998291015625
1783169394252809000,11.64880908203125,-0.86859130859375,-0.469024658203125,0.036407470703125
1783169394262788000,11.6587880859375,-0.87139892578125,-0.4658355712890625,0.0377349853515625
1783169394272737000,11.668737060546874,-0.8716583251953125,-0.46771240234375,0.0440216064453125
1783169394282685000,11.678684814453124,-0.8732452392578125,-0.4694671630859375,0.0479278564453125
1783169394292665300,11.688665283203125,-0.8766937255859375,-0.46600341796875,0.0469512939453125
1783169394302613000,11.698613037109375,-0.8780670166015625,-0.464447021484375,0.0468597412109375
1783169394312562200,11.708562255859375,-0.8786468505859375,-0.4657440185546875,0.04925537109375
1783169394322511000,11.718510986328125,-0.879302978515625,-0.468841552734375,0.05133056640625
1783169394332490200,11.728490234375,-0.8724517822265625,-0.470245361328125,0.05352783203125
1783169394342439200,11.738439208984374,-0.8682403564453125,-0.469482421875,0.05322265625
1783169394352388000,11.74838818359375,-0.869537353515625,-0.4681243896484375,0.04986572265625
1783169394362336300,11.758336181640624,-0.8722076416015625,-0.4708099365234375,0.0475921630859375
1783169394372316200,11.768316162109375,-0.8715972900390625,-0.47265625,0.0467681884765625
1783169394382264000,11.77826416015625,-0.8663787841796875,-0.4695892333984375,0.045379638671875
1783169394392213000,11.788212890625,-0.8652801513671875,-0.4654693603515625,0.044952392578125
1783169394402192100,11.798192138671874,-0.86566162109375,-0.4649505615234375,0.04571533203125
1783169394412141000,11.80814111328125,-0.866302490234375,-0.4687957763671875,0.04876708984375
1783169394422090000,11.818090087890624,-0.86505126953125,-0.468963623046875,0.0524749755859375
1783169394432038100,11.8280380859375,-0.868316650390625,-0.4654083251953125,0.0555877685546875
1783169394442018000,11.83801806640625,-0.8690643310546875,-0.46502685546875,0.0567169189453125
1783169394451966000,11.847966064453125,-0.872772216796875,-0.46710205078125,0.0562591552734375
1783169394461915100,11.8579150390625,-0.8795013427734375,-0.4684295654296875,0.05743408203125
1783169394471864300,11.8678642578125,-0.875732421875,-0.465484619140625,0.0590362548828125
1783169394481843200,11.87784326171875,-0.86865234375,-0.46099853515625,0.061279296875
1783169394491792100,11.887792236328124,-0.8676605224609375,-0.4603118896484375,0.0586700439453125
1783169394501741000,11.897740966796874,-0.863067626953125,-0.464813232421875,0.0514068603515625
1783169394511720200,11.90772021484375,-0.859832763671875,-0.468658447265625,0.045440673828125
1783169394521669000,11.917669189453125,-0.86114501953125,-0.471038818359375,0.046722412109375
1783169394531617300,11.9276171875,-0.864715576171875,-0.4712066650390625,0.046905517578125
1783169394541566200,11.937566162109375,-0.867584228515625,-0.4721221923828125,0.043487548828125
1783169394551545000,11.947545166015624,-0.8656158447265625,-0.47308349609375,0.0399932861328125
1783169394561494000,11.957493896484374,-0.866119384765625,-0.47174072265625,0.037445068359375
1783169394571443200,11.967443115234374,-0.8641357421875,-0.4717254638671875,0.0410614013671875
1783169394581391000,11.97739111328125,-0.86285400390625,-0.471832275390625,0.04388427734375
1783169394591371000,11.98737109375,-0.8633880615234375,-0.4691162109375,0.0479583740234375
1783169394601319200,11.997319091796875,-0.8710174560546875,-0.46514892578125,0.0506134033203125
1783169394611268000,12.00726806640625,-0.87255859375,-0.463714599609375,0.050628662109375
1783169394621247000,12.0172470703125,-0.86865234375,-0.463958740234375,0.04949951171875
1783169394631196000,12.02719580078125,-0.865203857421875,-0.4651947021484375,0.0508575439453125
1783169394641145300,12.037145263671874,-0.8651123046875,-0.4679412841796875,0.0442352294921875
1783169394651094300,12.04709423828125,-0.8648834228515625,-0.4723663330078125,0.037506103515625
1783169394661073200,12.0570732421875,-0.862518310546875,-0.4749298095703125,0.037994384765625
1783169394671022000,12.06702197265625,-0.8630218505859375,-0.4746856689453125,0.0400848388671875
1783169394680970200,12.07697021484375,-0.86639404296875,-0.473846435546875,0.0443878173828125
1783169394690919200,12.086919189453125,-0.8719482421875,-0.473480224609375,0.0438690185546875
1783169394700898000,12.09689794921875,-0.8719635009765625,-0.4716949462890625,0.043670654296875
1783169394710847200,12.10684716796875,-0.8739166259765625,-0.4644927978515625,0.0438385009765625
1783169394720796200,12.116796142578124,-0.8759613037109375,-0.4606781005859375,0.0474853515625
1783169394730775000,12.126775146484375,-0.873199462890625,-0.4624176025390625,0.0495758056640625
1783169394740724000,12.136723876953125,-0.869964599609375,-0.4651947021484375,0.0482177734375
1783169394750672100,12.146672119140625,-0.874481201171875,-0.4684295654296875,0.04156494140625
1783169394760621000,12.15662109375,-0.8725128173828125,-0.4740753173828125,0.035614013671875
1783169394770600200,12.16660009765625,-0.8647308349609375,-0.47320556640625,0.04034423828125
1783169394780549000,12.176549072265624,-0.8606719970703125,-0.4728546142578125,0.045623779296875
1783169394790498000,12.186498046875,-0.8584136962890625,-0.476470947265625,0.04730224609375
1783169394800447200,12.196447265625,-0.862823486328125,-0.4752960205078125,0.050323486328125
1783169394810426000,12.206426025390625,-0.8695831298828125,-0.4703521728515625,0.0532073974609375
1783169394820375300,12.216375244140625,-0.871185302734375,-0.46923828125,0.054412841796875
1783169394830323200,12.2263232421875,-0.8672027587890625,-0.46942138671875,0.0546112060546875
1783169394840303000,12.23630322265625,-0.8665008544921875,-0.4673919677734375,0.05548095703125
1783169394850251300,12.246251220703124,-0.8701324462890625,-0.4697418212890625,0.0590667724609375
1783169394860200200,12.2562001953125,-0.86962890625,-0.4699554443359375,0.0578765869140625
1783169394870149000,12.266149169921874,-0.8717041015625,-0.4669036865234375,0.0566253662109375
1783169394880128300,12.276128173828125,-0.8736419677734375,-0.46575927734375,0.054656982421875
1783169394890077200,12.2860771484375,-0.8703155517578125,-0.4659423828125,0.052642822265625
1783169394900026000,12.296026123046875,-0.876068115234375,-0.4674835205078125,0.0497589111328125
1783169394909974000,12.30597412109375,-0.8755035400390625,-0.4693603515625,0.0498046875
1783169394919953200,12.315953125,-0.875030517578125,-0.4675445556640625,0.049530029296875
1783169394929902000,12.325902099609374,-0.8768768310546875,-0.4665985107421875,0.04876708984375
1783169394939851000,12.33585107421875,-0.874908447265625,-0.4659881591796875,0.048004150390625
1783169394949830100,12.345830078125,-0.870574951171875,-0.4645538330078125,0.0480194091796875
1783169394959779000,12.355779052734375,-0.8725738525390625,-0.4617462158203125,0.0489654541015625
1783169394969728300,12.365728271484375,-0.882354736328125,-0.465179443359375,0.050262451171875
1783169394979676200,12.37567626953125,-0.8950347900390625,-0.475616455078125,0.0440216064453125
1783169394989656300,12.38565625,-0.9016265869140625,-0.475341796875,0.034759521484375
1783169394999604200,12.395604248046874,-0.8684539794921875,-0.45855712890625,0.0309295654296875
1783169395009553200,12.40555322265625,-0.723175048828125,-0.427215576171875,0.0699462890625
1783169395019502000,12.415502197265624,-0.8393402099609375,-0.4588165283203125,0.1177825927734375
1783169395029481200,12.425481201171875,-0.931304931640625,-0.502655029296875,0.070037841796875
1783169395039430100,12.43543017578125,-0.906005859375,-0.4803466796875,0.0448760986328125
1783169395049379000,12.445379150390625,-0.9055328369140625,-0.4737091064453125,0.0574951171875
1783169395059358200,12.455358154296874,-0.88629150390625,-0.4880218505859375,0.0450286865234375
1783169395069307100,12.46530712890625,-0.8963623046875,-0.4965667724609375,0.030364990234375
1783169395079255000,12.475255126953124,-0.8753509521484375,-0.508544921875,0.0215911865234375
1783169395089204000,12.485203857421874,-0.837066650390625,-0.5098724365234375,0.0267181396484375
