time,seconds_elapsed,z,y,x
1782858846095214600,0.098214599609375,-0.7974090576171875,-0.4496612548828125,0.0658416748046875
1782858846105193700,0.10819384765625,-0.7273712158203125,-0.46630859375,0.069183349609375
1782858846115142700,0.118142578125,-0.683441162109375,-0.490081787109375,0.0654754638671875
1782858846125091600,0.128091552734375,-0.6898651123046875,-0.5227203369140625,0.04925537109375
1782858846135039500,0.13803955078125,-0.723785400390625,-0.5579681396484375,0.058685302734375
1782858846145019600,0.14801953125,-0.764404296875,-0.6327667236328125,0.0821380615234375
1782858846154967600,0.157967529296875,-0.8043212890625,-0.731170654296875,0.108551025390625
1782858846164916500,0.16791650390625,-0.839202880859375,-0.7707672119140625,0.15130615234375
1782858846174865700,0.17786572265625,-0.8815765380859375,-0.75140380859375,0.1962890625
1782858846184844500,0.187844482421875,-0.9052734375,-0.725494384765625,0.2140960693359375
1782858846194793700,0.197793701171875,-0.928009033203125,-0.7121124267578125,0.2102508544921875
1782858846204742700,0.20774267578125,-0.9619598388671875,-0.712615966796875,0.1784820556640625
1782858846214690600,0.217690673828125,-0.967742919921875,-0.6884307861328125,0.130645751953125
1782858846224669700,0.227669677734375,-0.95831298828125,-0.6439208984375,0.111541748046875
1782858846234618600,0.23761865234375,-0.976898193359375,-0.607269287109375,0.11767578125
1782858846244567600,0.247567626953125,-1.03424072265625,-0.5815887451171875,0.1644744873046875
1782858846254516500,0.2575166015625,-1.064056396484375,-0.5623321533203125,0.233734130859375
1782858846264495600,0.26749560546875,-1.0696868896484375,-0.5472259521484375,0.27764892578125
1782858846274444500,0.277444580078125,-1.1013641357421875,-0.540863037109375,0.3137054443359375
1782858846284392700,0.287392822265625,-1.102569580078125,-0.52703857421875,0.3050384521484375
1782858846294341600,0.297341552734375,-1.0946807861328125,-0.492767333984375,0.3018951416015625
1782858846304320500,0.307320556640625,-1.0996551513671875,-0.4669342041015625,0.3228302001953125
1782858846314269400,0.31726953125,-1.1036224365234375,-0.4534149169921875,0.35296630859375
1782858846324218600,0.327218505859375,-1.0832061767578125,-0.44183349609375,0.3726348876953125
1782858846334167800,0.337167724609375,-1.0458526611328125,-0.4296417236328125,0.3718414306640625
1782858846344146700,0.347146728515625,-1.018157958984375,-0.4249267578125,0.361785888671875
1782858846354095600,0.357095703125,-0.9879302978515625,-0.423126220703125,0.348876953125
1782858846364043800,0.367043701171875,-0.955230712890625,-0.4225311279296875,0.3399505615234375
1782858846373992700,0.37699267578125,-0.9212799072265625,-0.423553466796875,0.338470458984375
1782858846383971600,0.3869716796875,-0.898468017578125,-0.425750732421875,0.334564208984375
1782858846393920800,0.396920654296875,-0.9033050537109375,-0.42938232421875,0.3201751708984375
1782858846403869700,0.40686962890625,-0.907196044921875,-0.4385223388671875,0.2857666015625
1782858846413817600,0.416817626953125,-0.90020751953125,-0.4352874755859375,0.2458953857421875
1782858846423797500,0.426797607421875,-0.8933868408203125,-0.4238739013671875,0.2070465087890625
1782858846433745700,0.43674560546875,-0.88128662109375,-0.4247283935546875,0.178436279296875
1782858846443694600,0.446694580078125,-0.8571014404296875,-0.4368438720703125,0.16229248046875
1782858846453643500,0.4566435546875,-0.8348846435546875,-0.4407958984375,0.1549224853515625
1782858846463622700,0.46662255859375,-0.814483642578125,-0.442596435546875,0.1516571044921875
1782858846473571600,0.476571533203125,-0.79217529296875,-0.447967529296875,0.146514892578125
1782858846483520500,0.4865205078125,-0.7645111083984375,-0.4504852294921875,0.142730712890625
1782858846493468400,0.496468505859375,-0.73370361328125,-0.4485321044921875,0.1420135498046875
1782858846503448800,0.50644873046875,-0.711151123046875,-0.4466400146484375,0.145233154296875
1782858846513396500,0.516396484375,-0.68768310546875,-0.4410552978515625,0.14373779296875
1782858846523345700,0.526345703125,-0.6553497314453125,-0.4316558837890625,0.13653564453125
1782858846533294600,0.536294677734375,-0.629669189453125,-0.425628662109375,0.132354736328125
1782858846543273700,0.546273681640625,-0.6166229248046875,-0.4290924072265625,0.1284942626953125
1782858846553222700,0.55622265625,-0.5979766845703125,-0.428558349609375,0.1276092529296875
1782858846563170600,0.566170654296875,-0.578277587890625,-0.428131103515625,0.1317291259765625
1782858846573119700,0.57611962890625,-0.5678863525390625,-0.4349822998046875,0.1399078369140625
1782858846583098600,0.5860986328125,-0.5550994873046875,-0.4380950927734375,0.1519012451171875
1782858846593047600,0.596047607421875,-0.5406951904296875,-0.436126708984375,0.1635894775390625
1782858846602996500,0.60599658203125,-0.533966064453125,-0.4304351806640625,0.17510986328125
1782858846612945700,0.615945556640625,-0.5345306396484375,-0.4276580810546875,0.1820068359375
1782858846622924500,0.625924560546875,-0.5348358154296875,-0.4237213134765625,0.185150146484375
1782858846632873500,0.63587353515625,-0.5379638671875,-0.4141387939453125,0.189788818359375
1782858846642821600,0.645821533203125,-0.5475616455078125,-0.4066925048828125,0.193084716796875
1782858846652770600,0.6557705078125,-0.5585784912109375,-0.405242919921875,0.19049072265625
1782858846662749400,0.66574951171875,-0.574188232421875,-0.405426025390625,0.181915283203125
1782858846672698600,0.67569873046875,-0.5822296142578125,-0.408416748046875,0.1810760498046875
1782858846682647800,0.685647705078125,-0.574127197265625,-0.423736572265625,0.2034912109375
1782858846692596700,0.6955966796875,-0.57501220703125,-0.448486328125,0.2500457763671875
1782858846702575600,0.70557568359375,-0.574371337890625,-0.472625732421875,0.3083648681640625
1782858846712523800,0.715523681640625,-0.5551910400390625,-0.49542236328125,0.375457763671875
1782858846722472700,0.72547265625,-0.54913330078125,-0.5149688720703125,0.446014404296875
1782858846732421600,0.735421630859375,-0.5743408203125,-0.5326080322265625,0.514495849609375
1782858846742400800,0.74540087890625,-0.613739013671875,-0.544342041015625,0.5706787109375
1782858846752349700,0.755349609375,-0.65948486328125,-0.5426483154296875,0.6030731201171875
1782858846762298600,0.765298583984375,-0.7181854248046875,-0.5254058837890625,0.60107421875
1782858846772277500,0.775277587890625,-0.782470703125,-0.500152587890625,0.57550048828125
1782858846782226700,0.785226806640625,-0.83685302734375,-0.4754638671875,0.543243408203125
1782858846792174600,0.795174560546875,-0.8721160888671875,-0.4540557861328125,0.5126190185546875
1782858846802123500,0.80512353515625,-0.885406494140625,-0.4299163818359375,0.489898681640625
1782858846812102700,0.8151025390625,-0.9155120849609375,-0.410552978515625,0.48529052734375
1782858846822051600,0.825051513671875,-0.941253662109375,-0.4053955078125,0.4935150146484375
1782858846832000500,0.83500048828125,-0.9361419677734375,-0.409027099609375,0.5087890625
1782858846841949700,0.84494970703125,-0.9252777099609375,-0.422576904296875,0.52691650390625
1782858846851928800,0.8549287109375,-0.9051666259765625,-0.441986083984375,0.54571533203125
1782858846861885400,0.864885498046875,-0.8914947509765625,-0.4620361328125,0.5694580078125
1782858846871833600,0.87483349609375,-0.8879852294921875,-0.4943084716796875,0.5918731689453125
1782858846881782500,0.884782470703125,-0.886077880859375,-0.541961669921875,0.6040496826171875
1782858846891761700,0.89476171875,-0.8894805908203125,-0.5923919677734375,0.6254730224609375
1782858846901710600,0.904710693359375,-0.8990478515625,-0.644439697265625,0.6518096923828125
1782858846911659500,0.914659423828125,-0.912628173828125,-0.6833953857421875,0.664794921875
1782858846921607400,0.924607421875,-0.928497314453125,-0.698883056640625,0.6585235595703125
1782858846931587600,0.934587646484375,-0.93701171875,-0.69989013671875,0.638336181640625
1782858846941535500,0.944535400390625,-0.9476165771484375,-0.6865081787109375,0.616790771484375
1782858846951484400,0.954484375,-0.9556427001953125,-0.666961669921875,0.5942535400390625
1782858846961433300,0.964433349609375,-0.951690673828125,-0.6426544189453125,0.5691375732421875
1782858846971412500,0.97441259765625,-0.94970703125,-0.616302490234375,0.546966552734375
1782858846981361400,0.984361328125,-0.946533203125,-0.592315673828125,0.5188140869140625
1782858846991310600,0.994310546875,-0.926239013671875,-0.558258056640625,0.4833221435546875
1782858847001258500,1.004258544921875,-0.897674560546875,-0.521575927734375,0.450897216796875
1782858847011238700,1.01423876953125,-0.878570556640625,-0.4944305419921875,0.4282379150390625
1782858847021186600,1.0241865234375,-0.8627166748046875,-0.4703216552734375,0.402099609375
1782858847031135500,1.034135498046875,-0.84027099609375,-0.4466705322265625,0.369537353515625
1782858847041084400,1.04408447265625,-0.810333251953125,-0.427581787109375,0.3319091796875
1782858847051063600,1.0540634765625,-0.78369140625,-0.4086151123046875,0.2933349609375
1782858847061012500,1.064012451171875,-0.761138916015625,-0.3866424560546875,0.2583770751953125
1782858847070960600,1.073960693359375,-0.7331695556640625,-0.362762451171875,0.2237396240234375
1782858847080909600,1.08390966796875,-0.70989990234375,-0.343048095703125,0.19293212890625
1782858847090888400,1.093888427734375,-0.683563232421875,-0.3242645263671875,0.160552978515625
1782858847100837400,1.10383740234375,-0.650299072265625,-0.3092498779296875,0.1248016357421875
1782858847110786600,1.11378662109375,-0.610198974609375,-0.301422119140625,0.0928955078125
1782858847120735500,1.123735595703125,-0.5782623291015625,-0.2948455810546875,0.079010009765625
1782858847130714400,1.13371435546875,-0.5578460693359375,-0.2945709228515625,0.0813140869140625
1782858847140663300,1.143663330078125,-0.536956787109375,-0.296783447265625,0.087646484375
1782858847150611500,1.153611572265625,-0.51373291015625,-0.293426513671875,0.0872955322265625
1782858847160560400,1.163560302734375,-0.4896697998046875,-0.2834625244140625,0.073486328125
1782858847170539300,1.173539306640625,-0.4703826904296875,-0.27105712890625,0.0585174560546875
1782858847180488700,1.18348876953125,-0.4513702392578125,-0.264862060546875,0.046356201171875
1782858847190437600,1.193437744140625,-0.43157958984375,-0.2594757080078125,0.0378265380859375
1782858847200385500,1.203385498046875,-0.41278076171875,-0.2515411376953125,0.036285400390625
1782858847210365400,1.213365478515625,-0.4064483642578125,-0.2470703125,0.0395965576171875
1782858847220313600,1.223313720703125,-0.4197540283203125,-0.2555999755859375,0.0437164306640625
1782858847230262500,1.233262451171875,-0.4452056884765625,-0.276123046875,0.060699462890625
1782858847240211500,1.24321142578125,-0.4888916015625,-0.303375244140625,0.0984039306640625
1782858847250190600,1.253190673828125,-0.538818359375,-0.3484039306640625,0.1298980712890625
1782858847260139500,1.263139404296875,-0.600982666015625,-0.407928466796875,0.1561737060546875
1782858847270088400,1.27308837890625,-0.668853759765625,-0.4738616943359375,0.1988983154296875
1782858847280036400,1.283036376953125,-0.732147216796875,-0.546234130859375,0.2494049072265625
1782858847290016500,1.2930166015625,-0.8028717041015625,-0.62835693359375,0.297821044921875
1782858847299964400,1.30296435546875,-0.8750152587890625,-0.713623046875,0.34234619140625
1782858847309913300,1.312913330078125,-0.982513427734375,-0.780731201171875,0.366455078125
1782858847319862300,1.3228623046875,-1.1259765625,-0.8355712890625,0.3614654541015625
1782858847329841400,1.33284130859375,-1.2525482177734375,-0.8799285888671875,0.3444976806640625
1782858847339790600,1.34279052734375,-1.341033935546875,-0.896026611328125,0.321044921875
1782858847349739500,1.352739501953125,-1.406280517578125,-0.8818511962890625,0.28668212890625
1782858847359687700,1.362687744140625,-1.441192626953125,-0.865020751953125,0.2381744384765625
1782858847369666600,1.37266650390625,-1.44384765625,-0.842987060546875,0.1875762939453125
1782858847379615500,1.382615478515625,-1.438262939453125,-0.825958251953125,0.147308349609375
1782858847389564400,1.392564453125,-1.427215576171875,-0.841094970703125,0.13861083984375
1782858847399513600,1.402513671875,-1.4073638916015625,-0.8728485107421875,0.1596527099609375
1782858847409492500,1.412492431640625,-1.37518310546875,-0.8714599609375,0.185699462890625
1782858847419441400,1.42244140625,-1.3393402099609375,-0.8565826416015625,0.194122314453125
1782858847429389600,1.4323896484375,-1.311798095703125,-0.8444366455078125,0.168426513671875
1782858847439338500,1.44233837890625,-1.27728271484375,-0.820281982421875,0.1127471923828125
1782858847449317400,1.4523173828125,-1.2186279296875,-0.7712249755859375,0.0508575439453125
1782858847459266300,1.462266357421875,-1.1454010009765625,-0.71929931640625,0.005157470703125
1782858847469215500,1.472215576171875,-1.0654296875,-0.67919921875,-0.0323638916015625
1782858847479164700,1.48216455078125,-0.9739227294921875,-0.6390380859375,-0.0664825439453125
1782858847489143300,1.492143310546875,-0.882568359375,-0.6029052734375,-0.078125
1782858847499092500,1.502092529296875,-0.794830322265625,-0.568939208984375,-0.066192626953125
1782858847509040600,1.51204052734375,-0.703643798828125,-0.52850341796875,-0.045196533203125
1782858847518989600,1.521989501953125,-0.611236572265625,-0.4814605712890625,-0.02655029296875
1782858847528968400,1.531968505859375,-0.52569580078125,-0.4354705810546875,-0.0087432861328125
1782858847538917600,1.541917724609375,-0.4470672607421875,-0.39923095703125,0.0113525390625
1782858847548866600,1.551866455078125,-0.3806610107421875,-0.367095947265625,0.02886962890625
1782858847558814500,1.561814453125,-0.3406524658203125,-0.3340606689453125,0.0489044189453125
1782858847568794400,1.57179443359375,-0.3240509033203125,-0.3133392333984375,0.069580078125
1782858847578742500,1.581742431640625,-0.3173828125,-0.3034515380859375,0.07647705078125
1782858847588691500,1.59169140625,-0.312744140625,-0.2917022705078125,0.071014404296875
1782858847598640400,1.601640380859375,-0.3058013916015625,-0.27545166015625,0.058624267578125
1782858847608619500,1.61161962890625,-0.30328369140625,-0.2625885009765625,0.0459442138671875
1782858847618568400,1.621568359375,-0.2987823486328125,-0.2559661865234375,0.0365142822265625
1782858847628517400,1.631517333984375,-0.301116943359375,-0.249114990234375,0.0330047607421875
1782858847638465300,1.64146533203125,-0.3226470947265625,-0.2482452392578125,0.0369720458984375
1782858847648445400,1.651445556640625,-0.3297576904296875,-0.2476806640625,0.0491180419921875
1782858847658393300,1.661393310546875,-0.33453369140625,-0.2549896240234375,0.066741943359375
1782858847668342500,1.671342529296875,-0.3558807373046875,-0.26739501953125,0.1000213623046875
1782858847678291500,1.68129150390625,-0.3868408203125,-0.2762908935546875,0.1478271484375
1782858847688270600,1.6912705078125,-0.419830322265625,-0.2880706787109375,0.1852264404296875
1782858847698219500,1.701219482421875,-0.423858642578125,-0.296875,0.1992645263671875
1782858847708167700,1.711167724609375,-0.413970947265625,-0.301544189453125,0.201751708984375
1782858847718116600,1.72111669921875,-0.4258880615234375,-0.3045196533203125,0.20294189453125
1782858847728095500,1.731095458984375,-0.456787109375,-0.30029296875,0.208709716796875
1782858847738044400,1.74104443359375,-0.4985198974609375,-0.302276611328125,0.2110595703125
1782858847747993300,1.750993408203125,-0.5429229736328125,-0.330780029296875,0.215362548828125
1782858847757942500,1.760942626953125,-0.5921478271484375,-0.3689422607421875,0.2510528564453125
1782858847767921400,1.77092138671875,-0.6485748291015625,-0.418792724609375,0.3090667724609375
1782858847777870300,1.780870361328125,-0.7135772705078125,-0.49041748046875,0.38006591796875
1782858847787818500,1.790818603515625,-0.821014404296875,-0.572357177734375,0.4638824462890625
1782858847797767400,1.800767333984375,-0.97735595703125,-0.65716552734375,0.550750732421875
1782858847807746300,1.810746337890625,-1.1636199951171875,-0.725128173828125,0.60443115234375
1782858847817695500,1.820695556640625,-1.3398895263671875,-0.769500732421875,0.60369873046875
1782858847827644700,1.830644775390625,-1.4692840576171875,-0.781463623046875,0.596832275390625
1782858847837593600,1.840593505859375,-1.5794830322265625,-0.76788330078125,0.5984039306640625
1782858847847572500,1.850572509765625,-1.659698486328125,-0.753692626953125,0.608673095703125
1782858847857521400,1.860521484375,-1.722808837890625,-0.753692626953125,0.6336669921875
1782858847867473000,1.870472900390625,-1.794525146484375,-0.7677764892578125,0.6678924560546875
1782858847877421800,1.880421875,-1.8439483642578125,-0.7742462158203125,0.6811370849609375
1782858847887401000,1.89040087890625,-1.8504180908203125,-0.759765625,0.654998779296875
1782858847897350000,1.900349853515625,-1.8198699951171875,-0.7328643798828125,0.60101318359375
1782858847907298800,1.910298828125,-1.7494354248046875,-0.6943206787109375,0.54107666015625
1782858847917246700,1.920246826171875,-1.6369476318359375,-0.650543212890625,0.48089599609375
1782858847927227000,1.930226806640625,-1.4883575439453125,-0.6159515380859375,0.434051513671875
1782858847937174800,1.9401748046875,-1.3274383544921875,-0.60040283203125,0.402191162109375
1782858847947123700,1.950123779296875,-1.1679229736328125,-0.586090087890625,0.37835693359375
1782858847957102800,1.960102783203125,-1.0126800537109375,-0.5645294189453125,0.360992431640625
1782858847967051800,1.9700517578125,-0.868682861328125,-0.537872314453125,0.34796142578125
1782858847977000700,1.980000732421875,-0.7447967529296875,-0.5197906494140625,0.343170166015625
1782858847986949600,1.98994970703125,-0.6423797607421875,-0.510955810546875,0.3428497314453125
1782858847996928800,1.9999287109375,-0.561248779296875,-0.5030059814453125,0.3459625244140625
1782858848006877700,2.009877685546875,-0.50103759765625,-0.4845123291015625,0.340850830078125
1782858848016825600,2.01982568359375,-0.4852142333984375,-0.4657745361328125,0.3289642333984375
1782858848026774800,2.02977490234375,-0.4995574951171875,-0.4470672607421875,0.31610107421875
1782858848036754000,2.03975390625,-0.53094482421875,-0.4249725341796875,0.2947235107421875
1782858848046702800,2.049702880859375,-0.5617523193359375,-0.392852783203125,0.263885498046875
1782858848056651800,2.05965185546875,-0.574859619140625,-0.354339599609375,0.223388671875
1782858848066600000,2.069599853515625,-0.58477783203125,-0.3194122314453125,0.183746337890625
1782858848076579800,2.079579833984375,-0.600006103515625,-0.284637451171875,0.150482177734375
1782858848086527700,2.08952783203125,-0.5903472900390625,-0.2475738525390625,0.11456298828125
1782858848096476700,2.0994765625,-0.5588531494140625,-0.2116851806640625,0.0812225341796875
1782858848106425900,2.10942578125,-0.5290069580078125,-0.18988037109375,0.064605712890625
1782858848116404700,2.11940478515625,-0.5091552734375,-0.180633544921875,0.0666046142578125
1782858848126353700,2.129353759765625,-0.48614501953125,-0.175079345703125,0.07659912109375
1782858848136302600,2.139302490234375,-0.4495086669921875,-0.1677703857421875,0.08111572265625
1782858848146250800,2.149250732421875,-0.3990631103515625,-0.1645050048828125,0.082489013671875
1782858848156230700,2.159230712890625,-0.358673095703125,-0.1619110107421875,0.0898284912109375
1782858848166178800,2.1691787109375,-0.3407440185546875,-0.160400390625,0.0990753173828125
1782858848176127700,2.179127685546875,-0.3321685791015625,-0.1678466796875,0.1042938232421875
1782858848186077000,2.189076904296875,-0.3161163330078125,-0.178955078125,0.108734130859375
1782858848196055800,2.199055908203125,-0.294952392578125,-0.1888427734375,0.11083984375
1782858848206004700,2.209004638671875,-0.27252197265625,-0.2042388916015625,0.12908935546875
1782858848215953000,2.218952880859375,-0.25921630859375,-0.2309722900390625,0.1811676025390625
1782858848225901800,2.22890185546875,-0.2529449462890625,-0.2618255615234375,0.2476806640625
1782858848235881000,2.238880859375,-0.257476806640625,-0.294189453125,0.3102264404296875
1782858848245830000,2.248829833984375,-0.2926483154296875,-0.334503173828125,0.3412017822265625
1782858848255778800,2.25877880859375,-0.392547607421875,-0.3856201171875,0.3619232177734375
1782858848265727700,2.268727783203125,-0.4971771240234375,-0.439605712890625,0.39361572265625
1782858848275707000,2.278706787109375,-0.538055419921875,-0.485687255859375,0.407440185546875
1782858848285655800,2.28865576171875,-0.6004791259765625,-0.528656005859375,0.4239959716796875
1782858848295603700,2.298603759765625,-0.74835205078125,-0.584320068359375,0.4632110595703125
1782858848305552600,2.308552734375,-0.912384033203125,-0.666229248046875,0.50579833984375
1782858848315531800,2.31853173828125,-1.030181884765625,-0.7512969970703125,0.5416717529296875
1782858848325480700,2.328480712890625,-1.14764404296875,-0.817626953125,0.582366943359375
1782858848335429600,2.3384296875,-1.269805908203125,-0.8575286865234375,0.6106719970703125
1782858848345378800,2.34837890625,-1.424285888671875,-0.88330078125,0.596282958984375
1782858848355358000,2.35835791015625,-1.582672119140625,-0.876068115234375,0.5379180908203125
1782858848365305600,2.3683056640625,-1.7203826904296875,-0.830047607421875,0.476806640625
1782858848375254800,2.3782548828125,-1.8027496337890625,-0.772491455078125,0.40948486328125
1782858848385203700,2.38820361328125,-1.8204803466796875,-0.715667724609375,0.3410186767578125
1782858848395182800,2.398182861328125,-1.7978515625,-0.676055908203125,0.2866668701171875
1782858848405131800,2.4081318359375,-1.7433013916015625,-0.66998291015625,0.2450103759765625
1782858848415080700,2.418080810546875,-1.651580810546875,-0.67987060546875,0.23614501953125
1782858848425028900,2.42802880859375,-1.5287628173828125,-0.6883544921875,0.2545928955078125
1782858848435008800,2.4380087890625,-1.388427734375,-0.68499755859375,0.2754974365234375
1782858848444956700,2.447956787109375,-1.2602386474609375,-0.6712646484375,0.2858123779296875
1782858848454905900,2.45790576171875,-1.1581573486328125,-0.654876708984375,0.2806549072265625
1782858848464854800,2.467854736328125,-1.0609893798828125,-0.6463775634765625,0.2555084228515625
1782858848474833700,2.477833740234375,-0.948089599609375,-0.5987091064453125,0.236358642578125
1782858848484782600,2.487782470703125,-0.8836822509765625,-0.5617218017578125,0.1898956298828125
1782858848494731800,2.497731689453125,-0.8269500732421875,-0.5432281494140625,0.1174163818359375
1782858848504679700,2.5076796875,-0.7541351318359375,-0.5024871826171875,0.0619659423828125
1782858848514659800,2.517659912109375,-0.697357177734375,-0.4639129638671875,0.02740478515625
1782858848524607700,2.527607666015625,-0.649688720703125,-0.446441650390625,0.0018157958984375
1782858848534557000,2.537556884765625,-0.6117706298828125,-0.432830810546875,-0.0123138427734375
1782858848544505900,2.547505859375,-0.5843048095703125,-0.4048614501953125,-0.0151214599609375
1782858848554484700,2.557484619140625,-0.5511627197265625,-0.3731842041015625,-0.00860595703125
1782858848564434000,2.567433837890625,-0.50823974609375,-0.3482208251953125,0.003326416015625
1782858848574381800,2.5773818359375,-0.47802734375,-0.3238067626953125,0.0193634033203125
1782858848584330800,2.587330810546875,-0.467864990234375,-0.3045501708984375,0.03802490234375
1782858848594310000,2.597309814453125,-0.4538726806640625,-0.29144287109375,0.05322265625
1782858848604258800,2.6072587890625,-0.4450225830078125,-0.281158447265625,0.063720703125
1782858848614207700,2.617207763671875,-0.4412384033203125,-0.270751953125,0.0673828125
1782858848624156700,2.62715673828125,-0.4322509765625,-0.2455291748046875,0.0644073486328125
1782858848634135800,2.6371357421875,-0.4261627197265625,-0.2126617431640625,0.061798095703125
1782858848644084700,2.647084716796875,-0.4224700927734375,-0.1932373046875,0.0563201904296875
1782858848654032600,2.65703271484375,-0.4208221435546875,-0.1941986083984375,0.052642822265625
1782858848663981600,2.666981689453125,-0.4087371826171875,-0.2056884765625,0.0540771484375
1782858848673960700,2.676960693359375,-0.38702392578125,-0.21435546875,0.06182861328125
1782858848683910000,2.686909912109375,-0.3639984130859375,-0.2238922119140625,0.078155517578125
1782858848693858800,2.69685888671875,-0.349273681640625,-0.240814208984375,0.1041259765625
1782858848703807000,2.706806884765625,-0.3442230224609375,-0.2636260986328125,0.1368408203125
1782858848713787000,2.716786865234375,-0.3446807861328125,-0.2893218994140625,0.1680755615234375
1782858848723734800,2.72673486328125,-0.3527984619140625,-0.3145294189453125,0.2046661376953125
1782858848733683700,2.73668359375,-0.3706512451171875,-0.34027099609375,0.2493896484375
1782858848743633000,2.7466328125,-0.41070556640625,-0.378173828125,0.2672882080078125
1782858848753611800,2.75661181640625,-0.467437744140625,-0.4207916259765625,0.260528564453125
1782858848763560700,2.766560791015625,-0.5374908447265625,-0.466552734375,0.2808380126953125
1782858848773509600,2.776509521484375,-0.6513519287109375,-0.5696563720703125,0.3401947021484375
1782858848783457800,2.786457763671875,-0.7889404296875,-0.7088775634765625,0.4144287109375
1782858848793437700,2.796437744140625,-0.9503021240234375,-0.80718994140625,0.4807586669921875
1782858848803385900,2.8063857421875,-1.157806396484375,-0.8398284912109375,0.49896240234375
1782858848813334800,2.816334716796875,-1.363006591796875,-0.85394287109375,0.455535888671875
1782858848823283700,2.82628369140625,-1.51220703125,-0.86962890625,0.3676300048828125
1782858848833262600,2.8362626953125,-1.6046905517578125,-0.847564697265625,0.264801025390625
1782858848843211800,2.846211669921875,-1.6663665771484375,-0.8035888671875,0.174530029296875
1782858848853159700,2.85615966796875,-1.6917724609375,-0.778106689453125,0.0915069580078125
1782858848863142100,2.86614208984375,-1.705352783203125,-0.7838592529296875,0.0300140380859375
1782858848873121300,2.876121337890625,-1.6776275634765625,-0.808074951171875,0.00372314453125
1782858848883070200,2.8860703125,-1.6129913330078125,-0.8257598876953125,0.0328826904296875
1782858848893019100,2.89601904296875,-1.548980712890625,-0.824127197265625,0.096893310546875
1782858848902968000,2.905968017578125,-1.442169189453125,-0.8095550537109375,0.1556549072265625
1782858848912947200,2.915947265625,-1.30120849609375,-0.796844482421875,0.190704345703125
1782858848922896100,2.925896240234375,-1.181060791015625,-0.7997283935546875,0.184906005859375
1782858848932844300,2.93584423828125,-1.0789337158203125,-0.8036956787109375,0.1573028564453125
1782858848942793200,2.945793212890625,-0.979583740234375,-0.801361083984375,0.140594482421875
1782858848952772000,2.955772216796875,-0.8958740234375,-0.794952392578125,0.1283111572265625
1782858848962721300,2.96572119140625,-0.8361358642578125,-0.786285400390625,0.12335205078125
1782858848972670200,2.975670166015625,-0.783599853515625,-0.7760162353515625,0.121826171875
1782858848982619400,2.985619384765625,-0.732696533203125,-0.75439453125,0.1167144775390625
1782858848992598300,2.995598388671875,-0.6878662109375,-0.725372314453125,0.098907470703125
1782858849002547200,3.005547119140625,-0.6481781005859375,-0.6959075927734375,0.0734710693359375
1782858849012495400,3.015495361328125,-0.61175537109375,-0.65802001953125,0.04522705078125
1782858849022444300,3.0254443359375,-0.5766143798828125,-0.613555908203125,0.02471923828125
1782858849032423200,3.035423095703125,-0.54266357421875,-0.5703582763671875,0.0150146484375
1782858849042372400,3.045372314453125,-0.5240936279296875,-0.53497314453125,0.0051116943359375
1782858849052321300,3.0553212890625,-0.5222015380859375,-0.5025482177734375,-0.0064849853515625
1782858849062269200,3.065269287109375,-0.5177764892578125,-0.47021484375,-0.01080322265625
1782858849072249000,3.0752490234375,-0.5226593017578125,-0.4394378662109375,-0.0144195556640625
1782858849082197200,3.085197265625,-0.5245208740234375,-0.4045562744140625,-0.0193939208984375
1782858849092146200,3.095146240234375,-0.516082763671875,-0.36669921875,-0.0206451416015625
1782858849102095000,3.10509521484375,-0.5028076171875,-0.336517333984375,-0.018707275390625
1782858849112074200,3.11507421875,-0.488006591796875,-0.3159332275390625,-0.01898193359375
1782858849122023400,3.1250234375,-0.464996337890625,-0.297637939453125,-0.009674072265625
1782858849131972400,3.134972412109375,-0.44000244140625,-0.2864227294921875,0.0189971923828125
1782858849141920300,3.144920166015625,-0.4279632568359375,-0.281005859375,0.058837890625
1782858849151900400,3.154900390625,-0.4277496337890625,-0.27874755859375,0.1013641357421875
1782858849161848300,3.164848388671875,-0.4272613525390625,-0.277801513671875,0.1436767578125
1782858849171797200,3.17479736328125,-0.4288330078125,-0.26702880859375,0.186126708984375
1782858849181746200,3.18474609375,-0.430328369140625,-0.24755859375,0.2168426513671875
1782858849191725300,3.194725341796875,-0.43658447265625,-0.248443603515625,0.241973876953125
1782858849201674200,3.20467431640625,-0.455963134765625,-0.27203369140625,0.27447509765625
1782858849211622100,3.2146220703125,-0.5045928955078125,-0.301483154296875,0.3123321533203125
1782858849221571300,3.2245712890625,-0.564666748046875,-0.324859619140625,0.348541259765625
1782858849231550200,3.23455029296875,-0.6125640869140625,-0.3462677001953125,0.3852386474609375
1782858849241499100,3.2444990234375,-0.6515655517578125,-0.388275146484375,0.4268646240234375
1782858849251448000,3.254447998046875,-0.6815338134765625,-0.4464569091796875,0.48187255859375
1782858849261427200,3.26442724609375,-0.707855224609375,-0.5233154296875,0.542724609375
1782858849271376100,3.274376220703125,-0.7338714599609375,-0.604400634765625,0.610687255859375
1782858849281325300,3.2843251953125,-0.78070068359375,-0.6652069091796875,0.6768035888671875
1782858849291273200,3.294273193359375,-0.8640594482421875,-0.69903564453125,0.7045745849609375
1782858849301253400,3.30425341796875,-0.971343994140625,-0.7096405029296875,0.680755615234375
1782858849311201300,3.314201171875,-1.0660247802734375,-0.70697021484375,0.6225433349609375
1782858849321150200,3.324150146484375,-1.147247314453125,-0.7054290771484375,0.565643310546875
1782858849331099400,3.334099365234375,-1.209503173828125,-0.6912841796875,0.509033203125
1782858849341078300,3.344078369140625,-1.2330322265625,-0.6600799560546875,0.444000244140625
1782858849351027200,3.354027099609375,-1.22723388671875,-0.6190185546875,0.3789825439453125
1782858849360975400,3.363975341796875,-1.207855224609375,-0.588897705078125,0.3209991455078125
1782858849370924300,3.37392431640625,-1.1840667724609375,-0.57855224609375,0.2864990234375
1782858849380903200,3.383903076171875,-1.164794921875,-0.5880584716796875,0.300262451171875
1782858849390852000,3.39385205078125,-1.1646728515625,-0.6222991943359375,0.3525848388671875
1782858849400801300,3.40380126953125,-1.17279052734375,-0.645904541015625,0.4027862548828125
1782858849410750200,3.413750244140625,-1.1558685302734375,-0.6563873291015625,0.4295196533203125
1782858849420729000,3.42372900390625,-1.12841796875,-0.6484527587890625,0.4137115478515625
1782858849430678000,3.433677978515625,-1.0968780517578125,-0.613800048828125,0.3559417724609375
1782858849440626200,3.443626220703125,-1.0615692138671875,-0.5829010009765625,0.284576416015625
1782858849450575400,3.453575439453125,-1.0162506103515625,-0.569000244140625,0.2280120849609375
1782858849460554200,3.46355419921875,-0.955230712890625,-0.5570220947265625,0.1830902099609375
1782858849470503400,3.47350341796875,-0.8931732177734375,-0.54638671875,0.151611328125
1782858849480452400,3.483452392578125,-0.8339691162109375,-0.541961669921875,0.1455535888671875
1782858849490401300,3.4934013671875,-0.777069091796875,-0.540435791015625,0.162506103515625
1782858849500380200,3.503380126953125,-0.726043701171875,-0.5370635986328125,0.1780242919921875
1782858849510328300,3.513328369140625,-0.6872711181640625,-0.5307159423828125,0.1886138916015625
1782858849520277200,3.52327734375,-0.65399169921875,-0.5156707763671875,0.1888427734375
1782858849530226200,3.53322607421875,-0.6216583251953125,-0.488922119140625,0.1753387451171875
1782858849540205300,3.543205322265625,-0.593719482421875,-0.46307373046875,0.1520233154296875
1782858849550154200,3.553154296875,-0.569091796875,-0.442169189453125,0.1306304931640625
1782858849560103200,3.563103271484375,-0.556915283203125,-0.426300048828125,0.1155548095703125
1782858849570051000,3.573051025390625,-0.549530029296875,-0.4087066650390625,0.099334716796875
1782858849580031200,3.58303125,-0.5396881103515625,-0.38043212890625,0.08563232421875
1782858849589979100,3.592979248046875,-0.5340118408203125,-0.3530426025390625,0.0727691650390625
1782858849599928000,3.602927978515625,-0.5467987060546875,-0.3383026123046875,0.0709381103515625
1782858849609877200,3.612877197265625,-0.5488128662109375,-0.3375396728515625,0.0743865966796875
1782858849619856100,3.622856201171875,-0.5413970947265625,-0.3393707275390625,0.072540283203125
1782858849629805300,3.632805419921875,-0.550567626953125,-0.344696044921875,0.0691070556640625
1782858849639754200,3.642754150390625,-0.544219970703125,-0.3510589599609375,0.063751220703125
1782858849649702400,3.652702392578125,-0.5279998779296875,-0.351470947265625,0.055450439453125
1782858849659682300,3.662682373046875,-0.5257720947265625,-0.3511962890625,0.0500640869140625
1782858849669630200,3.672630126953125,-0.523773193359375,-0.35052490234375,0.0533905029296875
1782858849679579100,3.6825791015625,-0.5427398681640625,-0.36041259765625,0.0649566650390625
1782858849689528300,3.6925283203125,-0.5919647216796875,-0.3824615478515625,0.0720977783203125
1782858849699507200,3.702507080078125,-0.642303466796875,-0.399200439453125,0.0606231689453125
1782858849709456100,3.7124560546875,-0.6721954345703125,-0.405426025390625,0.04266357421875
1782858849719404300,3.722404296875,-0.699127197265625,-0.4269561767578125,0.0451202392578125
1782858849729353200,3.732353271484375,-0.74359130859375,-0.481903076171875,0.088409423828125
1782858849739332000,3.74233203125,-0.8018341064453125,-0.5770263671875,0.161041259765625
1782858849749281300,3.75228125,-0.8671875,-0.7005767822265625,0.2437286376953125
1782858849759230200,3.762230224609375,-0.957794189453125,-0.8160552978515625,0.29833984375
1782858849769179400,3.772179443359375,-1.0605010986328125,-0.8795166015625,0.30145263671875
1782858849779158000,3.782157958984375,-1.1550445556640625,-0.89727783203125,0.2568359375
1782858849789107200,3.792107177734375,-1.2363739013671875,-0.911651611328125,0.1795806884765625
1782858849799055400,3.802055419921875,-1.30389404296875,-0.91693115234375,0.107147216796875
1782858849809004300,3.81200439453125,-1.3475494384765625,-0.87896728515625,0.0240325927734375
1782858849818983400,3.8219833984375,-1.3641510009765625,-0.81927490234375,-0.068695068359375
1782858849828932400,3.831932373046875,-1.35052490234375,-0.7755126953125,-0.1526031494140625
1782858849838881300,3.84188134765625,-1.3087310791015625,-0.7591400146484375,-0.2037506103515625
1782858849848829200,3.8518291015625,-1.25225830078125,-0.7660064697265625,-0.206787109375
1782858849858809300,3.861809326171875,-1.1746978759765625,-0.7974090576171875,-0.1519012451171875
1782858849868779500,3.871779541015625,-1.099029541015625,-0.8221435546875,-0.0755767822265625
1782858849878728400,3.881728515625,-1.044525146484375,-0.844879150390625,-0.0003814697265625
1782858849888677600,3.891677734375,-1.013458251953125,-0.8826446533203125,0.071197509765625
1782858849898656300,3.90165625,-0.9997406005859375,-0.908416748046875,0.11474609375
1782858849908605700,3.911605712890625,-0.9889373779296875,-0.897857666015625,0.104095458984375
1782858849918554600,3.9215546875,-0.96343994140625,-0.8411102294921875,0.0371856689453125
1782858849928502500,3.93150244140625,-0.9144134521484375,-0.771820068359375,-0.040863037109375
1782858849938482400,3.941482421875,-0.8523712158203125,-0.7257537841796875,-0.098846435546875
1782858849948430600,3.9514306640625,-0.7934417724609375,-0.68157958984375,-0.1418304443359375
1782858849958379500,3.961379638671875,-0.7343292236328125,-0.6406402587890625,-0.1662445068359375
1782858849968328400,3.971328369140625,-0.6757659912109375,-0.60821533203125,-0.1646881103515625
1782858849978307600,3.9813076171875,-0.623504638671875,-0.580352783203125,-0.1321258544921875
1782858849988256500,3.991256591796875,-0.5872650146484375,-0.5544586181640625,-0.087493896484375
1782858849998205400,4.001205322265625,-0.57562255859375,-0.5245361328125,-0.0429534912109375
1782858850008153300,4.0111533203125,-0.578369140625,-0.4989471435546875,0.0028076171875
1782858850018132500,4.021132568359375,-0.5654296875,-0.4767913818359375,0.0368194580078125
1782858850028081400,4.031081298828125,-0.5450592041015625,-0.442474365234375,0.0532379150390625
1782858850038030300,4.0410302734375,-0.527252197265625,-0.399993896484375,0.0544586181640625
1782858850047979500,4.0509794921875,-0.501495361328125,-0.361480712890625,0.056610107421875
1782858850057958700,4.060958740234375,-0.45733642578125,-0.3414764404296875,0.0719451904296875
1782858850067907600,4.070907470703125,-0.3722076416015625,-0.3369293212890625,0.088592529296875
1782858850077855500,4.08085546875,-0.286102294921875,-0.318695068359375,0.114227294921875
1782858850087804700,4.0908046875,-0.2932586669921875,-0.278106689453125,0.1788330078125
1782858850097783600,4.100783447265625,-0.3597564697265625,-0.2677154541015625,0.2455291748046875
1782858850107732500,4.110732421875,-0.3950042724609375,-0.2792205810546875,0.2740478515625
1782858850117681400,4.120681396484375,-0.3973388671875,-0.2697601318359375,0.2579345703125
1782858850127630600,4.130630615234375,-0.3694000244140625,-0.2402496337890625,0.2164306640625
1782858850137609500,4.140609375,-0.331512451171875,-0.212890625,0.1919097900390625
1782858850147558400,4.150558349609375,-0.3338470458984375,-0.20233154296875,0.20147705078125
1782858850157506600,4.160506591796875,-0.3754119873046875,-0.231292724609375,0.226806640625
1782858850167455500,4.17045556640625,-0.4273681640625,-0.291107177734375,0.2413787841796875
1782858850177434400,4.180434326171875,-0.46905517578125,-0.34698486328125,0.2477874755859375
1782858850187383300,4.19038330078125,-0.4991302490234375,-0.3953704833984375,0.26177978515625
1782858850197332500,4.20033251953125,-0.52813720703125,-0.4512786865234375,0.2826995849609375
1782858850207280400,4.2102802734375,-0.5653076171875,-0.504241943359375,0.3128204345703125
1782858850217260500,4.220260498046875,-0.629852294921875,-0.5360260009765625,0.3531494140625
1782858850227208400,4.23020849609375,-0.7119903564453125,-0.56329345703125,0.397308349609375
1782858850237157600,4.24015771484375,-0.7927093505859375,-0.6045684814453125,0.4449462890625
1782858850247106600,4.2501064453125,-0.8622589111328125,-0.6555633544921875,0.506103515625
1782858850257085400,4.26008544921875,-0.9379730224609375,-0.6881866455078125,0.568206787109375
1782858850267034600,4.27003466796875,-1.0284881591796875,-0.677215576171875,0.6181182861328125
1782858850276983600,4.279983642578125,-1.1084136962890625,-0.65728759765625,0.6512603759765625
1782858850286931500,4.289931396484375,-1.196990966796875,-0.6425933837890625,0.6447906494140625
1782858850296911400,4.299911376953125,-1.3093414306640625,-0.6039276123046875,0.59246826171875
1782858850306859500,4.309859619140625,-1.4010162353515625,-0.5528106689453125,0.5412445068359375
1782858850316808400,4.319808349609375,-1.442413330078125,-0.5228424072265625,0.4850006103515625
1782858850326757400,4.32975732421875,-1.4317474365234375,-0.4956817626953125,0.4213409423828125
1782858850336736500,4.339736572265625,-1.394378662109375,-0.4602508544921875,0.378631591796875
1782858850346685400,4.349685546875,-1.340667724609375,-0.430816650390625,0.3646087646484375
1782858850356633300,4.35963330078125,-1.2799072265625,-0.4198150634765625,0.3894500732421875
1782858850366582300,4.369582275390625,-1.23980712890625,-0.41864013671875,0.436614990234375
1782858850376561400,4.3795615234375,-1.190460205078125,-0.4189605712890625,0.47161865234375
1782858850386510300,4.38951025390625,-1.1291961669921875,-0.4238433837890625,0.494384765625
1782858850396459500,4.39945947265625,-1.0877227783203125,-0.40972900390625,0.493896484375
1782858850406408400,4.409408447265625,-1.0417938232421875,-0.3819580078125,0.469390869140625
1782858850416387600,4.4193876953125,-0.97674560546875,-0.358154296875,0.4297027587890625
1782858850426336500,4.42933642578125,-0.9044189453125,-0.3417510986328125,0.3896942138671875
1782858850436284400,4.439284423828125,-0.8394775390625,-0.3318328857421875,0.356109619140625
1782858850446233600,4.449233642578125,-0.7734222412109375,-0.32830810546875,0.33428955078125
1782858850456212500,4.45921240234375,-0.70477294921875,-0.329864501953125,0.3200531005859375
1782858850466161400,4.469161376953125,-0.6402740478515625,-0.3312225341796875,0.306549072265625
1782858850476110300,4.4791103515625,-0.5964202880859375,-0.3334503173828125,0.3043212890625
1782858850486059500,4.4890595703125,-0.5792388916015625,-0.348663330078125,0.31439208984375
1782858850496038400,4.499038330078125,-0.5790557861328125,-0.3698577880859375,0.314239501953125
1782858850505986600,4.508986572265625,-0.57452392578125,-0.37255859375,0.297210693359375
1782858850515935500,4.518935546875,-0.56536865234375,-0.35809326171875,0.271331787109375
1782858850525884400,4.528884521484375,-0.562469482421875,-0.3492584228515625,0.25244140625
1782858850535863300,4.53886328125,-0.5600433349609375,-0.3423004150390625,0.2333526611328125
1782858850545812500,4.5488125,-0.558685302734375,-0.32427978515625,0.210540771484375
1782858850555761700,4.55876171875,-0.5579376220703125,-0.3029327392578125,0.1880340576171875
1782858850565740500,4.568740478515625,-0.5439605712890625,-0.281982421875,0.163055419921875
1782858850575689500,4.578689453125,-0.5235748291015625,-0.2581634521484375,0.13958740234375
1782858850585637600,4.5886376953125,-0.515533447265625,-0.2410888671875,0.123687744140625
1782858850595586600,4.598586669921875,-0.513214111328125,-0.2465362548828125,0.1092681884765625
1782858850605565400,4.6085654296875,-0.509063720703125,-0.25,0.0993194580078125
1782858850615514600,4.6185146484375,-0.5320587158203125,-0.2468719482421875,0.09765625
1782858850625463600,4.628463623046875,-0.559295654296875,-0.261993408203125,0.0890350341796875
1782858850635412500,4.63841259765625,-0.5901336669921875,-0.2802276611328125,0.0878143310546875
1782858850645391400,4.648391357421875,-0.65289306640625,-0.2938690185546875,0.0853271484375
1782858850655340500,4.658340576171875,-0.722930908203125,-0.3076019287109375,0.0634307861328125
1782858850665288400,4.668288330078125,-0.7704315185546875,-0.32659912109375,0.0351409912109375
1782858850675237400,4.6782373046875,-0.8076324462890625,-0.35968017578125,0.0157012939453125
1782858850685216500,4.688216552734375,-0.86871337890625,-0.3944091796875,0.0314788818359375
1782858850695165400,4.69816552734375,-0.95184326171875,-0.4423675537109375,0.0737457275390625
1782858850705114600,4.708114501953125,-1.0379638671875,-0.5052490234375,0.1095428466796875
1782858850715062300,4.718062255859375,-1.08978271484375,-0.5543060302734375,0.1183013916015625
1782858850725042700,4.728042724609375,-1.1166229248046875,-0.579498291015625,0.1054840087890625
1782858850734990600,4.737990478515625,-1.157989501953125,-0.58294677734375,0.0860595703125
1782858850744939500,4.747939453125,-1.2313385009765625,-0.5795745849609375,0.0667572021484375
1782858850754888400,4.757888427734375,-1.305328369140625,-0.5807342529296875,0.0392913818359375
1782858850764867600,4.76786767578125,-1.373382568359375,-0.585601806640625,0.0062103271484375
1782858850774816500,4.77781640625,-1.42828369140625,-0.5795440673828125,-0.03857421875
1782858850784765400,4.787765380859375,-1.4578704833984375,-0.550384521484375,-0.08026123046875
1782858850794713600,4.797713623046875,-1.4661102294921875,-0.52703857421875,-0.1085052490234375
1782858850804693500,4.807693603515625,-1.4486846923828125,-0.52557373046875,-0.1198883056640625
1782858850814641400,4.817641357421875,-1.42034912109375,-0.5386505126953125,-0.0891571044921875
1782858850824590300,4.82759033203125,-1.3909149169921875,-0.5452880859375,-0.030792236328125
1782858850834539500,4.83753955078125,-1.357696533203125,-0.545623779296875,0.0146942138671875
1782858850844518400,4.847518310546875,-1.3207244873046875,-0.557373046875,0.0469512939453125
1782858850854467300,4.85746728515625,-1.2722320556640625,-0.5695037841796875,0.0510406494140625
1782858850864425200,4.86742529296875,-1.222259521484375,-0.560455322265625,0.0211181640625
1782858850874374100,4.8773740234375,-1.170166015625,-0.53656005859375,-0.023712158203125
1782858850884353300,4.887353271484375,-1.121795654296875,-0.51611328125,-0.059051513671875
1782858850894302200,4.89730224609375,-1.063446044921875,-0.5097198486328125,-0.0729827880859375
1782858850904251100,4.907251220703125,-0.9944000244140625,-0.506805419921875,-0.0712890625
1782858850914200000,4.917199951171875,-0.92138671875,-0.5023040771484375,-0.0601959228515625
1782858850924179200,4.92717919921875,-0.8434600830078125,-0.497344970703125,-0.0428314208984375
1782858850934128000,4.937128173828125,-0.7653656005859375,-0.48681640625,-0.016510009765625
1782858850944076000,4.947075927734375,-0.6937255859375,-0.476226806640625,0.010406494140625
1782858850954025000,4.95702490234375,-0.641448974609375,-0.46173095703125,0.0332794189453125
1782858850964004000,4.967004150390625,-0.611541748046875,-0.4421234130859375,0.060333251953125
1782858850973953000,4.976953125,-0.594573974609375,-0.4304656982421875,0.09710693359375
1782858850983902200,4.986902099609375,-0.5692596435546875,-0.4276123046875,0.13739013671875
1782858850993850000,4.99685009765625,-0.5484466552734375,-0.4267730712890625,0.175994873046875
1782858851003830300,5.006830322265625,-0.546234130859375,-0.422393798828125,0.1960296630859375
1782858851013778200,5.016778076171875,-0.5436859130859375,-0.412506103515625,0.1988983154296875
1782858851023727000,5.02672705078125,-0.523284912109375,-0.3934173583984375,0.193389892578125
1782858851033676000,5.036676025390625,-0.4852447509765625,-0.3674163818359375,0.194976806640625
1782858851043655200,5.0466552734375,-0.461334228515625,-0.33831787109375,0.2175750732421875
1782858851053604000,5.05660400390625,-0.4785003662109375,-0.3226470947265625,0.2442626953125
1782858851063553000,5.066552978515625,-0.5244903564453125,-0.3171234130859375,0.2636871337890625
1782858851073501200,5.076501220703125,-0.552642822265625,-0.3165740966796875,0.2801971435546875
1782858851083481000,5.086481201171875,-0.5484619140625,-0.3133697509765625,0.2908477783203125
1782858851093429000,5.096428955078125,-0.541015625,-0.309906005859375,0.305328369140625
1782858851103378200,5.106378173828125,-0.56976318359375,-0.3210906982421875,0.3302001953125
1782858851113327000,5.1163271484375,-0.633941650390625,-0.357666015625,0.3724517822265625
1782858851123306000,5.126305908203125,-0.6936187744140625,-0.40875244140625,0.422882080078125
1782858851133255000,5.1362548828125,-0.7615966796875,-0.456573486328125,0.4551239013671875
1782858851143204000,5.1462041015625,-0.84454345703125,-0.4959869384765625,0.471435546875
1782858851153152300,5.15615234375,-0.9192352294921875,-0.52587890625,0.4882354736328125
1782858851163131000,5.166130859375,-0.97412109375,-0.5410003662109375,0.5089263916015625
1782858851173080300,5.176080322265625,-1.0164337158203125,-0.5342864990234375,0.5283050537109375
1782858851183029200,5.186029296875,-1.0535125732421875,-0.5227813720703125,0.53662109375
1782858851192978200,5.195978271484375,-1.0825653076171875,-0.5152587890625,0.5301361083984375
1782858851202957000,5.20595703125,-1.11602783203125,-0.5022430419921875,0.52972412109375
1782858851212906200,5.21590625,-1.1508941650390625,-0.4877777099609375,0.522552490234375
1782858851222854100,5.225854248046875,-1.1890869140625,-0.4780731201171875,0.5079193115234375
1782858851232803000,5.235802978515625,-1.212066650390625,-0.469818115234375,0.4895782470703125
1782858851242782200,5.2457822265625,-1.2085113525390625,-0.464141845703125,0.4753570556640625
1782858851252731100,5.255731201171875,-1.20147705078125,-0.460906982421875,0.45745849609375
1782858851262680000,5.26568017578125,-1.1969146728515625,-0.46270751953125,0.437255859375
1782858851272629000,5.27562890625,-1.174285888671875,-0.4722442626953125,0.4160919189453125
1782858851282608000,5.285608154296875,-1.146697998046875,-0.4765472412109375,0.402496337890625
1782858851292557000,5.29555712890625,-1.112457275390625,-0.47784423828125,0.3957366943359375
1782858851302505000,5.3055048828125,-1.0720062255859375,-0.48291015625,0.386077880859375
1782858851312454100,5.3154541015625,-1.016204833984375,-0.483795166015625,0.374298095703125
1782858851322433000,5.32543310546875,-0.955810546875,-0.4770660400390625,0.3660736083984375
1782858851332382200,5.33538232421875,-0.9030609130859375,-0.4720458984375,0.363616943359375
1782858851342331100,5.3453310546875,-0.8488922119140625,-0.4768218994140625,0.362091064453125
1782858851352279300,5.355279296875,-0.7892913818359375,-0.477569580078125,0.357177734375
1782858851362259200,5.36525927734375,-0.732177734375,-0.465240478515625,0.3587799072265625
1782858851372207000,5.37520703125,-0.680633544921875,-0.4575958251953125,0.3656768798828125
1782858851382156000,5.385156005859375,-0.6378631591796875,-0.45733642578125,0.373687744140625
1782858851392105200,5.395105224609375,-0.59844970703125,-0.458404541015625,0.3787689208984375
1782858851402084000,5.405083984375,-0.56427001953125,-0.45587158203125,0.381927490234375
1782858851412033000,5.415032958984375,-0.5428924560546875,-0.44873046875,0.380706787109375
1782858851421982000,5.42498193359375,-0.5232696533203125,-0.4390106201171875,0.37188720703125
1782858851431930000,5.43493017578125,-0.502655029296875,-0.424407958984375,0.3533935546875
1782858851441910000,5.444909912109375,-0.490478515625,-0.404083251953125,0.323883056640625
1782858851451858000,5.45485791015625,-0.486480712890625,-0.3801116943359375,0.2918701171875
1782858851461807000,5.46480712890625,-0.48193359375,-0.3525390625,0.2580413818359375
1782858851471756300,5.47475634765625,-0.4759979248046875,-0.33062744140625,0.2239532470703125
1782858851481735000,5.48473486328125,-0.4700164794921875,-0.31011962890625,0.1943206787109375
1782858851491684000,5.49468408203125,-0.4771575927734375,-0.2886962890625,0.1669921875
1782858851501632300,5.50463232421875,-0.49481201171875,-0.270843505859375,0.146026611328125
1782858851511581200,5.514581298828125,-0.5205841064453125,-0.2601776123046875,0.13543701171875
1782858851521560300,5.524560302734375,-0.5546112060546875,-0.250640869140625,0.133941650390625
1782858851531509200,5.53450927734375,-0.5951995849609375,-0.2435455322265625,0.1315765380859375
1782858851541458200,5.544458251953125,-0.62139892578125,-0.2393798828125,0.1271820068359375
1782858851551407000,5.554406982421875,-0.6427459716796875,-0.239227294921875,0.1302490234375
1782858851561386000,5.564385986328125,-0.675628662109375,-0.2556915283203125,0.1313629150390625
1782858851571335200,5.574335205078125,-0.717376708984375,-0.287017822265625,0.137481689453125
1782858851581283000,5.584282958984375,-0.749298095703125,-0.343994140625,0.1480865478515625
1782858851591232000,5.59423193359375,-0.760711669921875,-0.409027099609375,0.1637115478515625
1782858851601211100,5.604211181640625,-0.762725830078125,-0.4637451171875,0.2053375244140625
1782858851611160000,5.61416015625,-0.76708984375,-0.5232086181640625,0.272247314453125
1782858851621109000,5.62410888671875,-0.8114166259765625,-0.574737548828125,0.335357666015625
1782858851631058200,5.63405810546875,-0.8926239013671875,-0.605255126953125,0.3645782470703125
1782858851641037300,5.644037353515625,-0.9473419189453125,-0.6188201904296875,0.354248046875
1782858851650985000,5.65398486328125,-0.95855712890625,-0.6137237548828125,0.31683349609375
1782858851660934100,5.66393408203125,-0.982421875,-0.6103515625,0.281829833984375
1782858851670883000,5.673883056640625,-0.9974365234375,-0.61529541015625,0.254425048828125
1782858851680862200,5.6838623046875,-0.9938507080078125,-0.6145782470703125,0.2292022705078125
1782858851690811100,5.69381103515625,-0.9805145263671875,-0.61016845703125,0.2046051025390625
1782858851700760000,5.703760009765625,-0.9697113037109375,-0.6203460693359375,0.1995697021484375
1782858851710708200,5.713708251953125,-0.973297119140625,-0.65118408203125,0.22412109375
1782858851720688000,5.723688232421875,-0.9607696533203125,-0.6802978515625,0.254119873046875
1782858851730636000,5.733635986328125,-0.93585205078125,-0.698638916015625,0.2692108154296875
1782858851740585200,5.743585205078125,-0.93389892578125,-0.7101593017578125,0.2753143310546875
1782858851750534100,5.7535341796875,-0.9493865966796875,-0.7222747802734375,0.26409912109375
1782858851760513000,5.763512939453125,-0.947357177734375,-0.7239532470703125,0.23126220703125
1782858851770462000,5.7734619140625,-0.9351348876953125,-0.7121124267578125,0.1920928955078125
1782858851780411000,5.783410888671875,-0.925079345703125,-0.7015380859375,0.157501220703125
1782858851790359000,5.793359130859375,-0.9074554443359375,-0.69677734375,0.1224212646484375
1782858851800339200,5.803339111328125,-0.88580322265625,-0.687225341796875,0.0875396728515625
1782858851810287000,5.813287109375,-0.850189208984375,-0.6683349609375,0.0576171875
1782858851820236300,5.823236328125,-0.8115386962890625,-0.645782470703125,0.0475006103515625
1782858851830185200,5.833185302734375,-0.7847137451171875,-0.6185760498046875,0.05975341796875
1782858851840164000,5.8431640625,-0.764862060546875,-0.5877532958984375,0.0676116943359375
1782858851850113300,5.85311328125,-0.74261474609375,-0.551544189453125,0.067657470703125
1782858851860061200,5.863061279296875,-0.7349853515625,-0.50616455078125,0.0710296630859375
1782858851870055000,5.873054931640625,-0.7396240234375,-0.453369140625,0.072601318359375
1782858851880003000,5.883003173828125,-0.7214813232421875,-0.396759033203125,0.065399169921875
1782858851889952000,5.892951904296875,-0.68548583984375,-0.360198974609375,0.0590667724609375
1782858851899901000,5.90290087890625,-0.65924072265625,-0.3388824462890625,0.058197021484375
1782858851909879800,5.9128798828125,-0.63970947265625,-0.3209228515625,0.0698699951171875
1782858851919829000,5.9228291015625,-0.613861083984375,-0.3040313720703125,0.096435546875
1782858851929778000,5.93277783203125,-0.5836029052734375,-0.28472900390625,0.1252593994140625
1782858851939725800,5.942725830078125,-0.5709228515625,-0.263519287109375,0.1473236083984375
1782858851949705700,5.952705810546875,-0.5679168701171875,-0.2409515380859375,0.1616973876953125
1782858851959654000,5.96265380859375,-0.567474365234375,-0.216094970703125,0.169036865234375
1782858851969602800,5.972602783203125,-0.5732574462890625,-0.1924285888671875,0.1646270751953125
1782858851979551700,5.9825517578125,-0.58203125,-0.177825927734375,0.1548004150390625
1782858851989531000,5.99253076171875,-0.5882415771484375,-0.177459716796875,0.14678955078125
1782858851999479800,6.002479736328125,-0.58929443359375,-0.181182861328125,0.149078369140625
1782858852009427700,6.012427734375,-0.5831298828125,-0.182525634765625,0.16619873046875
1782858852019376600,6.022376708984375,-0.57098388671875,-0.1861114501953125,0.19635009765625
1782858852029355800,6.032355712890625,-0.5740203857421875,-0.20404052734375,0.231048583984375
1782858852039305000,6.042304931640625,-0.5807342529296875,-0.2314910888671875,0.2609710693359375
1782858852049254000,6.05225390625,-0.587127685546875,-0.2503509521484375,0.2932281494140625
1782858852059202800,6.062202880859375,-0.5965423583984375,-0.2668914794921875,0.3235015869140625
1782858852069182000,6.072181884765625,-0.615814208984375,-0.286834716796875,0.3568878173828125
1782858852079131000,6.082130859375,-0.6503753662109375,-0.31182861328125,0.39105224609375
1782858852089078800,6.092078857421875,-0.687042236328125,-0.3271942138671875,0.4183197021484375
1782858852099028000,6.102028076171875,-0.73052978515625,-0.3342437744140625,0.4379730224609375
1782858852109006800,6.1120068359375,-0.7764739990234375,-0.3477020263671875,0.459991455078125
1782858852118955800,6.121955810546875,-0.834930419921875,-0.370697021484375,0.4945220947265625
1782858852128904700,6.13190478515625,-0.9061431884765625,-0.3906707763671875,0.5249176025390625
1782858852138854000,6.14185400390625,-0.9604339599609375,-0.3880462646484375,0.5391387939453125
1782858852148832800,6.151832763671875,-1.005462646484375,-0.3690338134765625,0.5377197265625
1782858852158781000,6.161781005859375,-1.0710296630859375,-0.372039794921875,0.5413665771484375
1782858852168729900,6.171729736328125,-1.1481781005859375,-0.39654541015625,0.5624237060546875
1782858852178678800,6.1816787109375,-1.2246856689453125,-0.4183807373046875,0.5845794677734375
1782858852188657700,6.19165771484375,-1.2758026123046875,-0.419281005859375,0.591949462890625
1782858852198606800,6.20160693359375,-1.306976318359375,-0.408935546875,0.58978271484375
1782858852208556000,6.21155615234375,-1.332672119140625,-0.4087066650390625,0.59375
1782858852218504000,6.22150390625,-1.3448638916015625,-0.4189910888671875,0.6048736572265625
1782858852228483800,6.23148388671875,-1.33282470703125,-0.42364501953125,0.614776611328125
1782858852238432000,6.241431884765625,-1.3131866455078125,-0.423492431640625,0.6304931640625
1782858852248381000,6.251380859375,-1.2975921630859375,-0.4214019775390625,0.65234375
1782858852258329900,6.261329833984375,-1.279510498046875,-0.413787841796875,0.6581573486328125
1782858852268309000,6.27130908203125,-1.2592010498046875,-0.398712158203125,0.6453399658203125
1782858852278258000,6.2812578125,-1.2295379638671875,-0.3742218017578125,0.623870849609375
1782858852288206800,6.291206787109375,-1.1882171630859375,-0.3473663330078125,0.59307861328125
1782858852298154800,6.30115478515625,-1.130218505859375,-0.32012939453125,0.559417724609375
1782858852308135000,6.311135009765625,-1.061920166015625,-0.292877197265625,0.524871826171875
1782858852318082800,6.321082763671875,-0.989166259765625,-0.2718353271484375,0.4873504638671875
1782858852328031700,6.33103173828125,-0.9063720703125,-0.256256103515625,0.4499359130859375
1782858852337980700,6.340980712890625,-0.8291015625,-0.24542236328125,0.4195709228515625
1782858852347959800,6.350959716796875,-0.751556396484375,-0.2334442138671875,0.402679443359375
1782858852357909000,6.360908935546875,-0.681549072265625,-0.216552734375,0.39373779296875
1782858852367856600,6.370856689453125,-0.62322998046875,-0.1972808837890625,0.3826904296875
1782858852377805800,6.380805908203125,-0.582763671875,-0.18389892578125,0.3630218505859375
1782858852387785000,6.390784912109375,-0.5603790283203125,-0.172454833984375,0.339599609375
1782858852397734000,6.40073388671875,-0.54150390625,-0.1633758544921875,0.321136474609375
1782858852407682800,6.410682861328125,-0.5241851806640625,-0.1511077880859375,0.307403564453125
1782858852417631700,6.4206318359375,-0.5384368896484375,-0.142791748046875,0.2975616455078125
1782858852427611000,6.43061083984375,-0.573822021484375,-0.149261474609375,0.2890777587890625
1782858852437559800,6.440559814453125,-0.6161041259765625,-0.1598663330078125,0.2858428955078125
1782858852447508000,6.450508056640625,-0.662200927734375,-0.163970947265625,0.2808074951171875
1782858852457457000,6.460456787109375,-0.70318603515625,-0.1634674072265625,0.2707061767578125
1782858852467435800,6.470435791015625,-0.739715576171875,-0.152679443359375,0.2530059814453125
1782858852477384700,6.480384765625,-0.7586822509765625,-0.1383514404296875,0.2293243408203125
1782858852487334000,6.490333984375,-0.763824462890625,-0.1251983642578125,0.2091064453125
1782858852497281800,6.50028173828125,-0.7779388427734375,-0.1200408935546875,0.1956939697265625
1782858852507261700,6.51026171875,-0.7849273681640625,-0.1314697265625,0.18878173828125
1782858852517209900,6.5202099609375,-0.774658203125,-0.1546478271484375,0.199005126953125
1782858852527159000,6.530158935546875,-0.7676849365234375,-0.1797637939453125,0.2196044921875
1782858852537108000,6.54010791015625,-0.773162841796875,-0.211029052734375,0.24041748046875
1782858852547086800,6.5500869140625,-0.7818145751953125,-0.238739013671875,0.256317138671875
1782858852557036000,6.5600361328125,-0.792449951171875,-0.2601470947265625,0.2633056640625
1782858852566985000,6.56998486328125,-0.8071746826171875,-0.2717742919921875,0.2650146484375
1782858852576932900,6.579932861328125,-0.841217041015625,-0.2715301513671875,0.2628021240234375
1782858852586912800,6.589912841796875,-0.8843536376953125,-0.2716522216796875,0.268707275390625
1782858852596861000,6.59986083984375,-0.9343109130859375,-0.2802276611328125,0.264984130859375
1782858852606809900,6.609809814453125,-0.9848175048828125,-0.2922515869140625,0.2587890625
1782858852616758800,6.6197587890625,-1.0244598388671875,-0.29864501953125,0.264068603515625
1782858852626738000,6.629738037109375,-1.0639495849609375,-0.295318603515625,0.28045654296875
1782858852636686800,6.639686767578125,-1.070709228515625,-0.29949951171875,0.2968292236328125
1782858852646634800,6.649634765625,-1.0815887451171875,-0.317901611328125,0.319976806640625
1782858852656583700,6.659583740234375,-1.105743408203125,-0.3413238525390625,0.3373565673828125
1782858852666562800,6.669562744140625,-1.127044677734375,-0.347137451171875,0.3404388427734375
1782858852676511700,6.67951171875,-1.160308837890625,-0.349639892578125,0.327056884765625
1782858852686461000,6.6894609375,-1.194915771484375,-0.3549346923828125,0.3022613525390625
1782858852696409900,6.699409912109375,-1.221343994140625,-0.35833740234375,0.286346435546875
1782858852706389000,6.709388916015625,-1.25347900390625,-0.35736083984375,0.27618408203125
1782858852716338000,6.719337890625,-1.2848968505859375,-0.36114501953125,0.2710723876953125
1782858852726285800,6.729285888671875,-1.3102569580078125,-0.3703460693359375,0.273712158203125
1782858852736235000,6.739235107421875,-1.3434600830078125,-0.3827362060546875,0.279693603515625
1782858852746214000,6.7492138671875,-1.3885955810546875,-0.394317626953125,0.2867584228515625
1782858852756162800,6.759162841796875,-1.4310150146484375,-0.3948211669921875,0.2867279052734375
1782858852766111700,6.76911181640625,-1.4682159423828125,-0.38739013671875,0.2722015380859375
1782858852776061000,6.77906103515625,-1.5108184814453125,-0.378021240234375,0.255950927734375
1782858852786039800,6.789039794921875,-1.5575714111328125,-0.377960205078125,0.24896240234375
1782858852795988700,6.79898876953125,-1.58001708984375,-0.3745269775390625,0.2367095947265625
1782858852805937000,6.80893701171875,-1.566070556640625,-0.3604583740234375,0.2109375
1782858852815885800,6.8188857421875,-1.5314178466796875,-0.34991455078125,0.188873291015625
1782858852825864700,6.82886474609375,-1.481414794921875,-0.3527069091796875,0.183349609375
1782858852835814000,6.83881396484375,-1.4217681884765625,-0.3594970703125,0.19232177734375
1782858852845763000,6.84876318359375,-1.3374176025390625,-0.3560943603515625,0.190093994140625
1782858852855710700,6.858710693359375,-1.2295074462890625,-0.343902587890625,0.17413330078125
1782858852865717000,6.868717041015625,-1.107696533203125,-0.332794189453125,0.15594482421875
1782858852875665000,6.878664794921875,-0.983642578125,-0.3245697021484375,0.1438751220703125
1782858852885613800,6.88861376953125,-0.8839569091796875,-0.31414794921875,0.139190673828125
1782858852895563000,6.89856298828125,-0.80029296875,-0.3096466064453125,0.140045166015625
1782858852905542000,6.9085419921875,-0.7212066650390625,-0.302215576171875,0.1355438232421875
1782858852915490800,6.91849072265625,-0.6565399169921875,-0.28509521484375,0.1233978271484375
1782858852925439700,6.928439697265625,-0.6041259765625,-0.2705841064453125,0.1129913330078125
1782858852935388000,6.938387939453125,-0.57122802734375,-0.2583465576171875,0.111572265625
1782858852945367800,6.948367919921875,-0.56109619140625,-0.2472076416015625,0.11688232421875
1782858852955315700,6.958315673828125,-0.56103515625,-0.2371368408203125,0.1314239501953125
1782858852965265000,6.968264892578125,-0.57550048828125,-0.2318572998046875,0.13861083984375
1782858852975214000,6.978214111328125,-0.60565185546875,-0.2271575927734375,0.1352691650390625
1782858852985193000,6.98819287109375,-0.6358184814453125,-0.2153778076171875,0.11895751953125
1782858852995142000,6.998141845703125,-0.6422119140625,-0.19000244140625,0.1020050048828125
1782858853005090000,7.008090087890625,-0.6475372314453125,-0.170318603515625,0.10992431640625
1782858853015039000,7.0180390625,-0.66790771484375,-0.180267333984375,0.127410888671875
1782858853025017900,7.028017822265625,-0.6628875732421875,-0.1964874267578125,0.1462249755859375
1782858853034967000,7.037967041015625,-0.643218994140625,-0.20587158203125,0.163970947265625
1782858853044916000,7.047916015625,-0.6292266845703125,-0.227447509765625,0.1878204345703125
1782858853054865000,7.057864990234375,-0.6423187255859375,-0.2699127197265625,0.2258453369140625
1782858853064843800,7.06784375,-0.686920166015625,-0.333648681640625,0.270904541015625
1782858853074793000,7.07779296875,-0.74700927734375,-0.4017181396484375,0.3090972900390625
1782858853084740900,7.087740966796875,-0.78607177734375,-0.4524078369140625,0.3247222900390625
1782858853094689800,7.097689697265625,-0.800750732421875,-0.49261474609375,0.3432464599609375
1782858853104669000,7.1076689453125,-0.8612823486328125,-0.547454833984375,0.366485595703125
1782858853114617900,7.117617919921875,-0.954132080078125,-0.6124114990234375,0.387115478515625
1782858853124566800,7.12756689453125,-1.0391998291015625,-0.6520843505859375,0.409088134765625
1782858853134546000,7.1375458984375,-1.0885009765625,-0.6787109375,0.4239501953125
1782858853144495000,7.1474951171875,-1.119384765625,-0.7082672119140625,0.4253387451171875
1782858853154442800,7.15744287109375,-1.162994384765625,-0.73199462890625,0.4257049560546875
1782858853164392000,7.167391845703125,-1.220123291015625,-0.7493896484375,0.42083740234375
1782858853174371000,7.17737109375,-1.254791259765625,-0.75689697265625,0.406097412109375
1782858853184320000,7.187320068359375,-1.2562103271484375,-0.75128173828125,0.3859405517578125
1782858853194269000,7.19726904296875,-1.2320709228515625,-0.727752685546875,0.3657684326171875
1782858853204217900,7.2072177734375,-1.1869964599609375,-0.7098541259765625,0.338409423828125
1782858853214197000,7.217197021484375,-1.1378326416015625,-0.6988677978515625,0.32354736328125
1782858853224146000,7.22714599609375,-1.104949951171875,-0.6773834228515625,0.3314971923828125
1782858853234093800,7.23709375,-1.0793304443359375,-0.6516876220703125,0.34063720703125
1782858853244042800,7.247042724609375,-1.03533935546875,-0.606719970703125,0.3249359130859375
1782858853254022000,7.25702197265625,-1.004974365234375,-0.5496063232421875,0.29766845703125
1782858853263970800,7.266970703125,-0.971923828125,-0.499359130859375,0.264862060546875
1782858853273919700,7.276919677734375,-0.9205780029296875,-0.44757080078125,0.2347412109375
1782858853283868700,7.28686865234375,-0.8731231689453125,-0.3947296142578125,0.206756591796875
1782858853293847800,7.296847900390625,-0.817352294921875,-0.358856201171875,0.1814727783203125
1782858853303795700,7.306795654296875,-0.7467803955078125,-0.33526611328125,0.1697540283203125
1782858853313745000,7.316744873046875,-0.673309326171875,-0.315673828125,0.166595458984375
1782858853323694000,7.326694091796875,-0.6099090576171875,-0.300567626953125,0.1680450439453125
1782858853333673000,7.3366728515625,-0.55322265625,-0.2963409423828125,0.163360595703125
1782858853343622000,7.346621826171875,-0.5064544677734375,-0.3038787841796875,0.1595001220703125
1782858853353570800,7.35657080078125,-0.490997314453125,-0.3223724365234375,0.1645355224609375
1782858853363519000,7.36651904296875,-0.473968505859375,-0.343170166015625,0.17034912109375
1782858853373499000,7.376498779296875,-0.4370880126953125,-0.3434295654296875,0.1703338623046875
1782858853383447000,7.386447021484375,-0.400909423828125,-0.3230133056640625,0.159088134765625
1782858853393396000,7.39639599609375,-0.37982177734375,-0.3058929443359375,0.1419525146484375
1782858853403345000,7.406344970703125,-0.3754730224609375,-0.3082733154296875,0.11962890625
1782858853413323800,7.41632373046875,-0.3843841552734375,-0.3137054443359375,0.0898895263671875
1782858853423273000,7.42627294921875,-0.39483642578125,-0.3094940185546875,0.0614776611328125
1782858853433222000,7.436221923828125,-0.4253387451171875,-0.3077392578125,0.0415496826171875
1782858853443169800,7.446169677734375,-0.453033447265625,-0.32513427734375,0.0329742431640625
1782858853453149700,7.456149658203125,-0.4714202880859375,-0.347686767578125,0.028045654296875
1782858853463097900,7.466097900390625,-0.4893951416015625,-0.3644256591796875,0.0262298583984375
1782858853473047000,7.476047119140625,-0.489990234375,-0.3780517578125,0.026153564453125
1782858853482996000,7.485995849609375,-0.4835205078125,-0.394805908203125,0.027008056640625
1782858853492975000,7.49597509765625,-0.4972381591796875,-0.4137115478515625,0.0295867919921875
1782858853502924000,7.505924072265625,-0.5271148681640625,-0.43389892578125,0.032745361328125
1782858853512872000,7.515871826171875,-0.5676727294921875,-0.458953857421875,0.03564453125
1782858853522820900,7.52582080078125,-0.60040283203125,-0.496124267578125,0.0435638427734375
1782858853532800000,7.535800048828125,-0.6141815185546875,-0.53167724609375,0.058502197265625
1782858853542749000,7.5457490234375,-0.63189697265625,-0.5716094970703125,0.0878753662109375
1782858853552697900,7.55569775390625,-0.6665802001953125,-0.631744384765625,0.1393585205078125
1782858853562646800,7.565646728515625,-0.747406005859375,-0.695098876953125,0.183563232421875
1782858853572626000,7.5756259765625,-0.8721923828125,-0.7477569580078125,0.2028350830078125
1782858853582574800,7.585574951171875,-0.96282958984375,-0.789093017578125,0.194366455078125
1782858853592522800,7.595522705078125,-1.010528564453125,-0.810516357421875,0.162994384765625
1782858853602472000,7.605471923828125,-1.046173095703125,-0.812957763671875,0.11773681640625
1782858853612450800,7.615450927734375,-1.0780792236328125,-0.795806884765625,0.0602569580078125
1782858853622399700,7.625399658203125,-1.1018218994140625,-0.797637939453125,0.0052642822265625
1782858853632349000,7.635348876953125,-1.1006317138671875,-0.8250274658203125,-0.0283203125
1782858853642296800,7.645296875,-1.082733154296875,-0.866180419921875,-0.0113372802734375
1782858853652277000,7.655277099609375,-1.060150146484375,-0.9192352294921875,0.0496063232421875
1782858853662225000,7.665224853515625,-1.045074462890625,-0.961761474609375,0.1087188720703125
1782858853672174000,7.675174072265625,-1.01361083984375,-0.9882354736328125,0.1385650634765625
1782858853682123000,7.685123046875,-0.9754791259765625,-1.0121917724609375,0.140289306640625
1782858853692102000,7.695101806640625,-0.9641265869140625,-1.03204345703125,0.116058349609375
1782858853702050800,7.70505078125,-0.96710205078125,-1.044403076171875,0.083282470703125
1782858853712000000,7.715,-0.9373016357421875,-1.0496978759765625,0.0540008544921875
1782858853721948000,7.724947998046875,-0.9049224853515625,-1.033203125,0.055633544921875
1782858853731927800,7.734927734375,-0.881866455078125,-1.01312255859375,0.0876007080078125
1782858853741876000,7.7448759765625,-0.839935302734375,-0.99859619140625,0.14544677734375
1782858853751825000,7.754824951171875,-0.798309326171875,-0.9734954833984375,0.2072296142578125
1782858853761773800,7.76477392578125,-0.754486083984375,-0.939117431640625,0.264923095703125
1782858853771753000,7.7747529296875,-0.7043914794921875,-0.9150238037109375,0.3161773681640625
1782858853781702000,7.784701904296875,-0.6524505615234375,-0.8727569580078125,0.3397674560546875
1782858853791649800,7.79464990234375,-0.58465576171875,-0.8064117431640625,0.3503265380859375
1782858853801598700,7.8045986328125,-0.514617919921875,-0.7442169189453125,0.3541717529296875
1782858853811577900,7.814577880859375,-0.4781341552734375,-0.6821441650390625,0.345458984375
1782858853821527000,7.824527099609375,-0.4759063720703125,-0.6165313720703125,0.33209228515625
1782858853831476000,7.83447607421875,-0.4765625,-0.5635223388671875,0.3185882568359375
1782858853841425000,7.8444248046875,-0.48175048828125,-0.5220184326171875,0.2852783203125
1782858853851404000,7.854404052734375,-0.4987640380859375,-0.483001708984375,0.2332305908203125
1782858853861353000,7.86435302734375,-0.503173828125,-0.4420928955078125,0.180145263671875
1782858853871328300,7.874328369140625,-0.493194580078125,-0.3999481201171875,0.139434814453125
1782858853881277400,7.88427734375,-0.4857025146484375,-0.3636474609375,0.1113433837890625
1782858853891256300,7.89425634765625,-0.4830169677734375,-0.3497467041015625,0.0994415283203125
1782858853901205200,7.904205322265625,-0.47552490234375,-0.3513336181640625,0.107208251953125
1782858853911154200,7.914154296875,-0.47406005859375,-0.348907470703125,0.1241607666015625
1782858853921103400,7.924103271484375,-0.477264404296875,-0.3506011962890625,0.1337127685546875
1782858853931082200,7.934082275390625,-0.4814453125,-0.3625335693359375,0.1316680908203125
1782858853941031400,7.944031494140625,-0.4958343505859375,-0.377838134765625,0.126220703125
1782858853950979600,7.9539794921875,-0.5118408203125,-0.3951873779296875,0.119171142578125
1782858853960928500,7.963928466796875,-0.5078887939453125,-0.4051361083984375,0.10809326171875
1782858853970907400,7.973907470703125,-0.50244140625,-0.407928466796875,0.0895538330078125
1782858853980856300,7.983856201171875,-0.4986419677734375,-0.39794921875,0.0836334228515625
1782858853990805500,7.993805419921875,-0.496917724609375,-0.3794097900390625,0.0978851318359375
1782858854000753400,8.00375341796875,-0.4955902099609375,-0.3782196044921875,0.1545867919921875
1782858854010733300,8.0137333984375,-0.511138916015625,-0.403656005859375,0.2373504638671875
1782858854020681500,8.023681396484376,-0.5462188720703125,-0.435638427734375,0.31439208984375
1782858854030630400,8.03363037109375,-0.566925048828125,-0.4765625,0.382049560546875
1782858854040579300,8.043579345703124,-0.56951904296875,-0.52703857421875,0.4329833984375
1782858854050558200,8.05355810546875,-0.593658447265625,-0.57635498046875,0.4687347412109375
1782858854060507400,8.06350732421875,-0.662353515625,-0.627105712890625,0.487884521484375
1782858854070456300,8.073456298828125,-0.712127685546875,-0.6772308349609375,0.501190185546875
1782858854080404200,8.083404296875,-0.7413177490234375,-0.712371826171875,0.531280517578125
1782858854090384100,8.093384033203124,-0.7647247314453125,-0.741607666015625,0.56591796875
1782858854100332300,8.103332275390626,-0.7903594970703125,-0.75457763671875,0.5995025634765625
1782858854110281500,8.113281494140624,-0.8235321044921875,-0.76702880859375,0.6291046142578125
1782858854120230400,8.12323046875,-0.8444671630859375,-0.7779388427734375,0.658966064453125
1782858854130209500,8.13320947265625,-0.845733642578125,-0.7747344970703125,0.6927947998046875
1782858854140158500,8.143158447265625,-0.829925537109375,-0.7675933837890625,0.7462310791015625
1782858854150106400,8.1531064453125,-0.8224945068359375,-0.7660675048828125,0.8183135986328125
1782858854160055300,8.16305517578125,-0.8171844482421875,-0.7760162353515625,0.8810272216796875
1782858854170034400,8.173034423828126,-0.801239013671875,-0.7750396728515625,0.902069091796875
1782858854179983400,8.1829833984375,-0.786865234375,-0.753265380859375,0.869110107421875
1782858854189932300,8.192932373046874,-0.7604827880859375,-0.7293548583984375,0.79339599609375
1782858854199881200,8.202881103515624,-0.719268798828125,-0.7137298583984375,0.714813232421875
1782858854209860400,8.2128603515625,-0.6823272705078125,-0.708953857421875,0.676177978515625
1782858854219809300,8.222809326171875,-0.655426025390625,-0.715301513671875,0.6663360595703125
1782858854229757200,8.232757080078125,-0.6395111083984375,-0.70916748046875,0.6378631591796875
1782858854239706400,8.242706298828125,-0.6279754638671875,-0.6887054443359375,0.581390380859375
1782858854249685200,8.252685302734376,-0.6138763427734375,-0.6650238037109375,0.513946533203125
1782858854259634200,8.26263427734375,-0.6003875732421875,-0.633453369140625,0.449127197265625
1782858854269583400,8.272583251953124,-0.5814208984375,-0.58929443359375,0.401641845703125
1782858854279532500,8.282532470703124,-0.5505218505859375,-0.542266845703125,0.369720458984375
1782858854289511400,8.292511474609375,-0.5168914794921875,-0.4990234375,0.3566741943359375
1782858854299459600,8.30245947265625,-0.4868927001953125,-0.464935302734375,0.3532257080078125
1782858854309408500,8.312408447265625,-0.462554931640625,-0.4317169189453125,0.347137451171875
1782858854319357400,8.322357421875,-0.430816650390625,-0.3956298828125,0.3335418701171875
1782858854329336300,8.33233642578125,-0.3996734619140625,-0.3663177490234375,0.314453125
1782858854339285200,8.34228515625,-0.3820648193359375,-0.342559814453125,0.2899322509765625
1782858854349234400,8.352234375,-0.3730621337890625,-0.3226470947265625,0.257781982421875
1782858854359182300,8.362182373046876,-0.380584716796875,-0.3085479736328125,0.21832275390625
1782858854369162200,8.372162353515625,-0.4059600830078125,-0.304443359375,0.1731719970703125
1782858854379110400,8.3821103515625,-0.428436279296875,-0.311065673828125,0.126068115234375
1782858854389059300,8.392059326171875,-0.4425048828125,-0.3165740966796875,0.0762939453125
1782858854399008300,8.40200830078125,-0.4453887939453125,-0.31280517578125,0.0224151611328125
1782858854408987400,8.4119873046875,-0.4493255615234375,-0.3109893798828125,-0.03057861328125
1782858854418936300,8.421936279296874,-0.4684906005859375,-0.325897216796875,-0.0667724609375
1782858854428885500,8.431885498046874,-0.4864349365234375,-0.364532470703125,-0.0760345458984375
1782858854438864400,8.441864501953125,-0.4963226318359375,-0.4112548828125,-0.0516815185546875
1782858854448813300,8.451813232421875,-0.504119873046875,-0.4666748046875,0.006256103515625
1782858854458761500,8.461761474609375,-0.527862548828125,-0.5335235595703125,0.074310302734375
1782858854468710400,8.47171044921875,-0.570953369140625,-0.6069488525390625,0.132843017578125
1782858854478689500,8.481689453125,-0.61444091796875,-0.682525634765625,0.1822052001953125
1782858854488638500,8.491638427734374,-0.6514892578125,-0.75738525390625,0.22857666015625
1782858854498587400,8.50158740234375,-0.6920318603515625,-0.8036346435546875,0.264251708984375
1782858854508535300,8.511535400390626,-0.73822021484375,-0.8198394775390625,0.281585693359375
1782858854518515500,8.521515380859375,-0.798828125,-0.8416900634765625,0.2752685546875
1782858854528463400,8.53146337890625,-0.8268280029296875,-0.8808441162109375,0.25244140625
1782858854538412300,8.541412353515625,-0.8132476806640625,-0.9022216796875,0.2408294677734375
1782858854548361200,8.551361328125,-0.8172149658203125,-0.911651611328125,0.22802734375
1782858854558340400,8.56134033203125,-0.8413543701171875,-0.9298858642578125,0.21160888671875
1782858854568289300,8.571289306640624,-0.8776397705078125,-0.9563446044921875,0.1894683837890625
1782858854578238200,8.58123828125,-0.930389404296875,-0.973907470703125,0.1580657958984375
1782858854588186400,8.591186279296876,-0.971466064453125,-0.9807281494140625,0.121063232421875
1782858854598166500,8.60116650390625,-0.9741668701171875,-0.97149658203125,0.093902587890625
1782858854608114200,8.6111142578125,-0.9485931396484375,-0.9372100830078125,0.07513427734375
1782858854618063400,8.6210634765625,-0.897003173828125,-0.9027862548828125,0.0758209228515625
1782858854628012500,8.631012451171875,-0.8305816650390625,-0.895111083984375,0.1098785400390625
1782858854637991400,8.640991455078124,-0.7964324951171875,-0.901336669921875,0.173492431640625
1782858854647940400,8.6509404296875,-0.7827301025390625,-0.90521240234375,0.2317352294921875
1782858854657888500,8.660888427734376,-0.755615234375,-0.9056854248046875,0.275604248046875
1782858854667837400,8.67083740234375,-0.722259521484375,-0.905303955078125,0.2969207763671875
1782858854677816300,8.68081640625,-0.7068939208984375,-0.885284423828125,0.282379150390625
1782858854687765200,8.69076513671875,-0.6934967041015625,-0.8491668701171875,0.23919677734375
1782858854697714400,8.70071435546875,-0.6736907958984375,-0.816619873046875,0.1842193603515625
1782858854707663400,8.710663330078125,-0.652618408203125,-0.7758941650390625,0.1450653076171875
1782858854717642200,8.720642333984374,-0.6385650634765625,-0.725616455078125,0.1123046875
1782858854727591200,8.730591064453124,-0.616119384765625,-0.6755828857421875,0.083648681640625
1782858854737539300,8.740539306640626,-0.5798797607421875,-0.6273956298828125,0.0724334716796875
1782858854747488300,8.75048828125,-0.5544891357421875,-0.5806427001953125,0.0760040283203125
1782858854757467400,8.76046728515625,-0.53460693359375,-0.5413818359375,0.088226318359375
1782858854767416600,8.77041650390625,-0.502777099609375,-0.510833740234375,0.0962371826171875
1782858854777365500,8.780365478515625,-0.45635986328125,-0.486968994140625,0.09576416015625
1782858854787313400,8.7903134765625,-0.401580810546875,-0.4501495361328125,0.0881195068359375
1782858854797293300,8.800293212890624,-0.3643951416015625,-0.3871307373046875,0.067626953125
1782858854807241500,8.810241455078126,-0.3844757080078125,-0.30029296875,0.04571533203125
1782858854817190400,8.8201904296875,-0.4463348388671875,-0.2289276123046875,0.022064208984375
1782858854827139300,8.830139404296874,-0.5070648193359375,-0.205718994140625,-0.0106353759765625
1782858854837118500,8.840118408203125,-0.5550537109375,-0.192291259765625,-0.029388427734375
1782858854847067400,8.8500673828125,-0.602203369140625,-0.183624267578125,-0.0334930419921875
1782858854857016300,8.860016357421875,-0.6544189453125,-0.18426513671875,-0.0267486572265625
1782858854866975500,8.8699755859375,-0.70733642578125,-0.19793701171875,-0.002532958984375
1782858854876955400,8.879955322265625,-0.7391510009765625,-0.220703125,0.02423095703125
1782858854886903600,8.889903564453125,-0.7552032470703125,-0.2367401123046875,0.0586090087890625
1782858854896852500,8.8998525390625,-0.756988525390625,-0.24761962890625,0.1028594970703125
1782858854906801400,8.909801513671875,-0.7364959716796875,-0.256500244140625,0.1545867919921875
1782858854916780500,8.919780517578126,-0.7207183837890625,-0.261566162109375,0.2321014404296875
1782858854926729500,8.9297294921875,-0.7388763427734375,-0.2835693359375,0.34234619140625
1782858854936678400,8.939678466796876,-0.7941741943359375,-0.3305206298828125,0.4512481689453125
1782858854946626300,8.949626220703125,-0.8672637939453125,-0.3723602294921875,0.541961669921875
1782858854956605400,8.95960546875,-0.949676513671875,-0.3980255126953125,0.5948028564453125
1782858854966554600,8.9695546875,-1.0397796630859375,-0.404571533203125,0.601593017578125
1782858854976503600,8.979503662109375,-1.1277313232421875,-0.4031982421875,0.581329345703125
1782858854986452500,8.989452392578125,-1.2093658447265625,-0.3980255126953125,0.5606536865234375
1782858854996431600,8.999431640625,-1.2783660888671875,-0.399322509765625,0.536285400390625
1782858855006380500,9.009380615234376,-1.332977294921875,-0.4048614501953125,0.530181884765625
1782858855016328400,9.019328369140625,-1.3766937255859375,-0.410919189453125,0.5615081787109375
1782858855026277600,9.029277587890626,-1.382171630859375,-0.4258270263671875,0.60955810546875
1782858855036256500,9.039256591796875,-1.370391845703125,-0.4355316162109375,0.65875244140625
1782858855046205400,9.049205322265625,-1.3731231689453125,-0.44268798828125,0.697601318359375
1782858855056154400,9.059154296875,-1.36798095703125,-0.4497528076171875,0.7240753173828125
1782858855066103600,9.069103515625,-1.3560333251953125,-0.4483489990234375,0.7378082275390625
1782858855076082400,9.07908251953125,-1.3441009521484375,-0.4396820068359375,0.73785400390625
1782858855086031400,9.08903125,-1.32318115234375,-0.421722412109375,0.7218780517578125
1782858855095979500,9.0989794921875,-1.306396484375,-0.3913726806640625,0.68438720703125
1782858855105928400,9.108928466796876,-1.288055419921875,-0.3558807373046875,0.6263580322265625
1782858855115907300,9.1189072265625,-1.26654052734375,-0.3153076171875,0.564056396484375
1782858855125856500,9.1288564453125,-1.245574951171875,-0.2835845947265625,0.5024871826171875
1782858855135805700,9.1388056640625,-1.219482421875,-0.262237548828125,0.4464263916015625
1782858855145753600,9.148753662109375,-1.18792724609375,-0.2446746826171875,0.388824462890625
1782858855155733500,9.1587333984375,-1.1454925537109375,-0.2276763916015625,0.341552734375
1782858855165681700,9.168681640625,-1.0919036865234375,-0.2202911376953125,0.3193206787109375
1782858855175630600,9.178630615234376,-1.0317230224609375,-0.2271881103515625,0.3161773681640625
1782858855185579500,9.18857958984375,-0.9637908935546875,-0.245086669921875,0.309539794921875
1782858855195558700,9.19855859375,-0.872589111328125,-0.2622528076171875,0.27435302734375
1782858855205507600,9.208507568359375,-0.764129638671875,-0.2656097412109375,0.232177734375
1782858855215456500,9.21845654296875,-0.664825439453125,-0.2628021240234375,0.2037506103515625
1782858855225404400,9.228404296875,-0.5834503173828125,-0.259613037109375,0.192474365234375
1782858855235384600,9.238384521484376,-0.510162353515625,-0.2551727294921875,0.192901611328125
1782858855245332500,9.24833251953125,-0.4554595947265625,-0.246826171875,0.189727783203125
1782858855255281400,9.258281494140626,-0.43359375,-0.236358642578125,0.175018310546875
1782858855265230300,9.268230224609376,-0.451690673828125,-0.22552490234375,0.151397705078125
1782858855275209500,9.27820947265625,-0.500518798828125,-0.219879150390625,0.12188720703125
1782858855285158700,9.28815869140625,-0.5381927490234375,-0.207244873046875,0.082763671875
1782858855295106300,9.298106201171874,-0.536346435546875,-0.193145751953125,0.0406951904296875
1782858855305055700,9.3080556640625,-0.5067291259765625,-0.19549560546875,0.0011749267578125
1782858855315034600,9.31803466796875,-0.4884033203125,-0.199920654296875,-0.02728271484375
1782858855324983600,9.327983642578126,-0.49847412109375,-0.2004852294921875,-0.033599853515625
1782858855334932500,9.337932373046876,-0.5106964111328125,-0.2136383056640625,-0.0247344970703125
1782858855344881400,9.34788134765625,-0.506103515625,-0.22698974609375,-0.003662109375
1782858855354860500,9.357860595703125,-0.4941253662109375,-0.23162841796875,0.022064208984375
1782858855364809500,9.3678095703125,-0.5007781982421875,-0.24700927734375,0.05120849609375
1782858855374757600,9.377757568359375,-0.522369384765625,-0.291595458984375,0.0894927978515625
1782858855384706600,9.38770654296875,-0.5578765869140625,-0.3619384765625,0.1243133544921875
1782858855394685400,9.397685546875,-0.621002197265625,-0.4410858154296875,0.129119873046875
1782858855404634400,9.40763427734375,-0.69903564453125,-0.5187835693359375,0.104736328125
1782858855414583600,9.41758349609375,-0.7704925537109375,-0.5887603759765625,0.062530517578125
1782858855424532500,9.427532470703126,-0.8535614013671875,-0.6485137939453125,0.0238800048828125
1782858855434511400,9.437511474609375,-0.936126708984375,-0.7108154296875,-0.0072784423828125
1782858855444459500,9.44745947265625,-1.0012969970703125,-0.7400054931640625,-0.0173187255859375
1782858855454408400,9.457408447265625,-1.03338623046875,-0.7482147216796875,-0.017364501953125
1782858855464357600,9.467357666015625,-1.037200927734375,-0.7629852294921875,-0.007080078125
1782858855474336500,9.47733642578125,-1.0361328125,-0.786285400390625,0.040374755859375
1782858855484285700,9.48728564453125,-1.0401763916015625,-0.798736572265625,0.101226806640625
1782858855494234600,9.497234619140626,-1.04229736328125,-0.79718017578125,0.15625
1782858855504182500,9.5071826171875,-1.05792236328125,-0.8171539306640625,0.2325897216796875
1782858855514162400,9.517162353515625,-1.085174560546875,-0.828521728515625,0.3021240234375
1782858855524110600,9.527110595703125,-1.1113739013671875,-0.811767578125,0.3299713134765625
1782858855534059500,9.5370595703125,-1.09686279296875,-0.7925262451171875,0.31292724609375
1782858855544008400,9.547008544921875,-1.0671844482421875,-0.7627410888671875,0.2906646728515625
1782858855553987600,9.556987548828126,-1.05517578125,-0.7331390380859375,0.2796630859375
1782858855563936500,9.5669365234375,-1.0409393310546875,-0.7087249755859375,0.262603759765625
1782858855573885400,9.576885498046876,-1.0159149169921875,-0.6821136474609375,0.234619140625
1782858855583833300,9.586833251953125,-0.9932861328125,-0.6585540771484375,0.1984405517578125
1782858855593813500,9.5968134765625,-0.97216796875,-0.6379547119140625,0.15606689453125
1782858855603761400,9.606761474609375,-0.939056396484375,-0.6031951904296875,0.11199951171875
1782858855613710600,9.616710693359375,-0.870849609375,-0.5593414306640625,0.06658935546875
1782858855623659500,9.626659423828125,-0.7801666259765625,-0.5165252685546875,0.0316619873046875
1782858855633638700,9.636638671875,-0.693817138671875,-0.4817047119140625,0.021209716796875
1782858855643587600,9.646587646484376,-0.625274658203125,-0.4610595703125,0.0351715087890625
1782858855653535500,9.656535400390625,-0.572052001953125,-0.4499969482421875,0.057769775390625
1782858855663484700,9.666484619140626,-0.5390777587890625,-0.438385009765625,0.0737457275390625
1782858855673463600,9.676463623046875,-0.5180816650390625,-0.4191131591796875,0.082244873046875
1782858855683412500,9.68641259765625,-0.497161865234375,-0.3821258544921875,0.0944976806640625
1782858855693361400,9.696361328125,-0.4950714111328125,-0.3370819091796875,0.1059417724609375
1782858855703310600,9.706310546875,-0.50927734375,-0.30072021484375,0.116668701171875
1782858855713289500,9.71628955078125,-0.544891357421875,-0.266937255859375,0.1241912841796875
1782858855723238400,9.72623828125,-0.5617828369140625,-0.2283935546875,0.126678466796875
1782858855733186600,9.7361865234375,-0.5709686279296875,-0.1932373046875,0.115142822265625
1782858855743135500,9.746135498046876,-0.5863037109375,-0.16302490234375,0.1044769287109375
1782858855753114400,9.7561142578125,-0.6034393310546875,-0.145599365234375,0.09625244140625
1782858855763063600,9.7660634765625,-0.611053466796875,-0.1420135498046875,0.0911407470703125
1782858855773012700,9.7760126953125,-0.603790283203125,-0.1311187744140625,0.0975341796875
1782858855782991400,9.785991455078126,-0.619903564453125,-0.114349365234375,0.1094512939453125
1782858855792940500,9.7959404296875,-0.656707763671875,-0.10589599609375,0.13018798828125
1782858855802888700,9.805888671875,-0.7024078369140625,-0.113311767578125,0.1606292724609375
1782858855812837600,9.815837646484376,-0.736602783203125,-0.1349945068359375,0.1773529052734375
1782858855822816500,9.82581640625,-0.7683868408203125,-0.1457672119140625,0.1650390625
1782858855832765700,9.835765625,-0.82513427734375,-0.149749755859375,0.154052734375
1782858855842714600,9.845714599609375,-0.8719940185546875,-0.16705322265625,0.1591033935546875
1782858855852663600,9.85566357421875,-0.8891143798828125,-0.18890380859375,0.1863861083984375
1782858855862642400,9.865642333984376,-0.9138336181640625,-0.2048187255859375,0.23065185546875
1782858855872601900,9.875601806640624,-0.980560302734375,-0.2064361572265625,0.279266357421875
1782858855882549800,9.8855498046875,-1.0791015625,-0.2032470703125,0.3209381103515625
1782858855892498700,9.895498779296876,-1.1301422119140625,-0.2297821044921875,0.325042724609375
1782858855902477800,9.905477783203125,-1.159576416015625,-0.2651214599609375,0.2839202880859375
1782858855912426800,9.9154267578125,-1.1859130859375,-0.233734130859375,0.2387237548828125
1782858855922375700,9.925375732421875,-1.2332000732421875,-0.2385406494140625,0.231475830078125
1782858855932323600,9.935323486328125,-1.2979888916015625,-0.2704010009765625,0.271728515625
1782858855942303700,9.9453037109375,-1.3681488037109375,-0.28912353515625,0.3411865234375
1782858855952251600,9.955251708984376,-1.45782470703125,-0.2848968505859375,0.386810302734375
1782858855962200600,9.96520068359375,-1.5661773681640625,-0.3015594482421875,0.395599365234375
1782858855972149800,9.975149658203126,-1.654388427734375,-0.34222412109375,0.364105224609375
1782858855982128600,9.985128662109375,-1.7123260498046875,-0.36712646484375,0.290985107421875
1782858855992077800,9.995077880859375,-1.742095947265625,-0.365386962890625,0.202667236328125
1782858856002026800,10.00502685546875,-1.745361328125,-0.3507537841796875,0.1097869873046875
1782858856011975000,10.014974853515625,-1.743988037109375,-0.309722900390625,0.0068817138671875
1782858856021954800,10.024954833984374,-1.70428466796875,-0.263397216796875,-0.070068359375
1782858856031902700,10.03490283203125,-1.6025848388671875,-0.24139404296875,-0.0865936279296875
1782858856041851600,10.0448515625,-1.48284912109375,-0.2273406982421875,-0.0562896728515625
1782858856051800800,10.05480078125,-1.3773956298828125,-0.2129669189453125,-0.0000152587890625
1782858856061779700,10.06477978515625,-1.290008544921875,-0.2188873291015625,0.0444488525390625
1782858856071728600,10.074728759765625,-1.2364959716796875,-0.2479248046875,0.0818023681640625
1782858856081677600,10.084677490234375,-1.2201690673828125,-0.27044677734375,0.1211090087890625
1782858856091625700,10.094625732421875,-1.1942901611328125,-0.2875823974609375,0.141754150390625
1782858856101605600,10.104605712890624,-1.122344970703125,-0.3099822998046875,0.133392333984375
1782858856111553800,10.1145537109375,-1.016876220703125,-0.3131103515625,0.105865478515625
1782858856121502700,10.124502685546876,-0.9271392822265625,-0.299224853515625,0.0750274658203125
1782858856131452000,10.134451904296874,-0.8538970947265625,-0.2947540283203125,0.0416717529296875
1782858856141430500,10.144430419921875,-0.7813568115234375,-0.287078857421875,0.0070343017578125
1782858856151379700,10.154379638671875,-0.718841552734375,-0.2764129638671875,-0.0155792236328125
1782858856161327900,10.164327880859375,-0.6711883544921875,-0.27325439453125,-0.032318115234375
1782858856171276800,10.17427685546875,-0.6316680908203125,-0.276885986328125,-0.0486907958984375
1782858856181256000,10.184255859375,-0.6068572998046875,-0.2693023681640625,-0.055084228515625
1782858856191204900,10.194204833984376,-0.5842132568359375,-0.2505950927734375,-0.0461883544921875
1782858856201153800,10.20415380859375,-0.54205322265625,-0.221954345703125,-0.0302581787109375
1782858856211102700,10.214102783203124,-0.4911651611328125,-0.204345703125,-0.037200927734375
1782858856221081900,10.224081787109375,-0.4602508544921875,-0.196258544921875,-0.0561676025390625
1782858856231030800,10.23403076171875,-0.4640350341796875,-0.20660400390625,-0.07037353515625
1782858856240978700,10.243978759765625,-0.474761962890625,-0.2226104736328125,-0.0686492919921875
1782858856250927600,10.253927734375,-0.4837188720703125,-0.222381591796875,-0.0637359619140625
1782858856260906800,10.26390673828125,-0.4848175048828125,-0.2179412841796875,-0.05718994140625
1782858856270855700,10.273855712890626,-0.4792327880859375,-0.221923828125,-0.049102783203125
1782858856280804600,10.2838046875,-0.4859771728515625,-0.2333831787109375,-0.0406494140625
1782858856290752800,10.293752685546876,-0.5035858154296875,-0.230926513671875,-0.024017333984375
1782858856300733000,10.30373291015625,-0.533660888671875,-0.263031005859375,-0.01605224609375
1782858856310680600,10.3136806640625,-0.6014251708984375,-0.3206634521484375,-0.02001953125
1782858856320629800,10.323629638671875,-0.6775054931640625,-0.345367431640625,-0.0546112060546875
1782858856330578700,10.33357861328125,-0.7313079833984375,-0.347076416015625,-0.1082916259765625
1782858856340557800,10.343557861328126,-0.7580413818359375,-0.3533782958984375,-0.1310882568359375
1782858856350506800,10.3535068359375,-0.779022216796875,-0.3453369140625,-0.12164306640625
1782858856360455700,10.36345556640625,-0.810882568359375,-0.334503173828125,-0.1251373291015625
1782858856370403800,10.37340380859375,-0.881927490234375,-0.358306884765625,-0.1310272216796875
1782858856380383700,10.3833837890625,-0.999237060546875,-0.393096923828125,-0.126983642578125
1782858856390331600,10.39333154296875,-1.1665496826171875,-0.40753173828125,-0.129638671875
1782858856400280800,10.40328076171875,-1.3525543212890625,-0.425140380859375,-0.1590118408203125
1782858856410229800,10.413229736328125,-1.404632568359375,-0.468231201171875,-0.2246856689453125
1782858856420208600,10.423208740234376,-1.332122802734375,-0.512359619140625,-0.3090667724609375
1782858856430157600,10.433157470703126,-1.2887725830078125,-0.512542724609375,-0.3722991943359375
1782858856440105700,10.443105712890626,-1.3176116943359375,-0.4961700439453125,-0.3861846923828125
1782858856450054700,10.4530546875,-1.380645751953125,-0.5062103271484375,-0.3472747802734375
1782858856460033500,10.463033447265625,-1.445037841796875,-0.5381622314453125,-0.2745513916015625
1782858856469982700,10.472982666015625,-1.5199127197265625,-0.577239990234375,-0.2048187255859375
1782858856479932000,10.482931884765625,-1.5778045654296875,-0.6181488037109375,-0.1884307861328125
1782858856489880800,10.492880859375,-1.5932464599609375,-0.629669189453125,-0.2177734375
1782858856499859700,10.502859619140626,-1.556854248046875,-0.60516357421875,-0.2526702880859375
1782858856509809000,10.512808837890624,-1.490447998046875,-0.5522003173828125,-0.2706146240234375
1782858856519756800,10.5227568359375,-1.40814208984375,-0.47747802734375,-0.2687225341796875
1782858856529705700,10.532705810546876,-1.2916107177734375,-0.416748046875,-0.2709197998046875
1782858856539684900,10.542684814453125,-1.15545654296875,-0.380889892578125,-0.260955810546875
1782858856549633800,10.5526337890625,-1.024688720703125,-0.35211181640625,-0.222869873046875
1782858856559582700,10.562582763671875,-0.920196533203125,-0.331634521484375,-0.161376953125
1782858856569531600,10.57253173828125,-0.8386688232421875,-0.3248138427734375,-0.08489990234375
1782858856579510800,10.5825107421875,-0.78564453125,-0.32904052734375,-0.0103759765625
1782858856589459700,10.592459716796874,-0.7637176513671875,-0.3368377685546875,0.051605224609375
1782858856599407600,10.60240771484375,-0.7366180419921875,-0.3443145751953125,0.093963623046875
1782858856609356500,10.6123564453125,-0.7125701904296875,-0.3505706787109375,0.115631103515625
1782858856619335700,10.622335693359375,-0.68231201171875,-0.3544769287109375,0.117523193359375
1782858856629284600,10.63228466796875,-0.6338653564453125,-0.3512115478515625,0.10546875
1782858856639233800,10.64223388671875,-0.5905609130859375,-0.3443756103515625,0.0907745361328125
1782858856649182000,10.652181884765625,-0.56329345703125,-0.3324432373046875,0.0734405517578125
1782858856659161900,10.662161865234374,-0.5655059814453125,-0.3239898681640625,0.0570831298828125
1782858856669109800,10.67210986328125,-0.5959320068359375,-0.326324462890625,0.0395050048828125
1782858856679058700,10.68205859375,-0.5871429443359375,-0.3215179443359375,0.024871826171875
1782858856689007900,10.6920078125,-0.546417236328125,-0.301116943359375,0.016082763671875
1782858856698986800,10.70198681640625,-0.52874755859375,-0.2720947265625,0.0184783935546875
1782858856708935700,10.711935791015625,-0.547637939453125,-0.2549896240234375,0.0330352783203125
1782858856718884600,10.721884521484375,-0.5726318359375,-0.250579833984375,0.050323486328125
1782858856728832800,10.731832763671875,-0.584808349609375,-0.242279052734375,0.06732177734375
1782858856738812700,10.741812744140624,-0.58447265625,-0.238128662109375,0.0763397216796875
1782858856748760600,10.751760498046876,-0.61016845703125,-0.2463531494140625,0.0894317626953125
1782858856758709800,10.761709716796876,-0.672332763671875,-0.277618408203125,0.11480712890625
1782858856768658700,10.77165869140625,-0.7299957275390625,-0.3188629150390625,0.1408538818359375
1782858856778637600,10.781637451171875,-0.74053955078125,-0.3099365234375,0.142852783203125
1782858856788586500,10.79158642578125,-0.7175445556640625,-0.2635498046875,0.1381988525390625
1782858856798534700,10.80153466796875,-0.7033233642578125,-0.22796630859375,0.139373779296875
1782858856808483800,10.81148388671875,-0.7097930908203125,-0.2537384033203125,0.1698760986328125
1782858856818463000,10.821462890625,-0.724945068359375,-0.3346099853515625,0.2300262451171875
1782858856828412000,10.831411865234376,-0.761871337890625,-0.36029052734375,0.2912750244140625
1782858856838360800,10.84136083984375,-0.802734375,-0.3807830810546875,0.3553009033203125
1782858856848309800,10.851309814453124,-0.8477935791015625,-0.4198455810546875,0.401519775390625
1782858856858288600,10.86128857421875,-0.9313201904296875,-0.45458984375,0.4029998779296875
1782858856868268800,10.871268798828124,-1.05902099609375,-0.4664764404296875,0.365997314453125
1782858856878216400,10.881216552734376,-1.15130615234375,-0.4732666015625,0.3319854736328125
1782858856888165600,10.89116552734375,-1.19525146484375,-0.4794769287109375,0.319366455078125
1782858856898144800,10.901144775390625,-1.2302093505859375,-0.4932098388671875,0.31536865234375
1782858856908093700,10.91109375,-1.2589263916015625,-0.51708984375,0.327117919921875
1782858856918042600,10.921042724609375,-1.2627716064453125,-0.5433502197265625,0.36834716796875
1782858856927990800,10.93099072265625,-1.238250732421875,-0.5602264404296875,0.4292755126953125
1782858856937970700,10.940970703125,-1.2131805419921875,-0.5689239501953125,0.4839324951171875
1782858856947918600,10.950918701171876,-1.20562744140625,-0.5722808837890625,0.5248565673828125
1782858856957867500,10.960867431640626,-1.2099609375,-0.5699615478515625,0.5540618896484375
1782858856967816700,10.970816650390624,-1.1990509033203125,-0.565338134765625,0.54571533203125
1782858856977795600,10.980795654296875,-1.2013397216796875,-0.5554962158203125,0.51544189453125
1782858856987744500,10.99074462890625,-1.205322265625,-0.52490234375,0.457183837890625
1782858856997693400,11.000693359375,-1.1892852783203125,-0.4936065673828125,0.3780975341796875
1782858857007641600,11.0106416015625,-1.161376953125,-0.46820068359375,0.2923736572265625
1782858857017621500,11.02062158203125,-1.1305694580078125,-0.4479827880859375,0.2351531982421875
1782858857027569400,11.0305693359375,-1.096038818359375,-0.436553955078125,0.2257843017578125
1782858857037518600,11.0405185546875,-1.0536346435546875,-0.4396514892578125,0.2395477294921875
1782858857047467800,11.0504677734375,-0.9952850341796875,-0.4603424072265625,0.26324462890625
1782858857057446700,11.06044677734375,-0.9349365234375,-0.478363037109375,0.290618896484375
1782858857067395600,11.0703955078125,-0.8900299072265625,-0.4786376953125,0.3180389404296875
1782858857077344800,11.0803447265625,-0.8461456298828125,-0.46661376953125,0.32904052734375
1782858857087292700,11.090292724609375,-0.8001861572265625,-0.4525299072265625,0.316864013671875
1782858857097271800,11.100271728515626,-0.761749267578125,-0.43951416015625,0.2902069091796875
1782858857107220700,11.110220703125,-0.7372894287109375,-0.417633056640625,0.2537384033203125
1782858857117169700,11.120169677734374,-0.7239532470703125,-0.3955535888671875,0.194671630859375
1782858857127118600,11.13011865234375,-0.697967529296875,-0.3919677734375,0.1320343017578125
1782858857137097500,11.140097412109375,-0.5994873046875,-0.4189910888671875,0.1004791259765625
1782858857147046700,11.150046630859375,-0.544403076171875,-0.417816162109375,0.086029052734375
1782858857156994600,11.15999462890625,-0.587860107421875,-0.3488311767578125,0.0787353515625
1782858857166943500,11.169943603515625,-0.6382293701171875,-0.28564453125,0.081268310546875
1782858857176922600,11.179922607421876,-0.6746978759765625,-0.244964599609375,0.06610107421875
1782858857186871600,11.18987158203125,-0.6661834716796875,-0.227294921875,0.0322723388671875
1782858857196820500,11.199820556640624,-0.6377105712890625,-0.231536865234375,-0.001556396484375
1782858857206799600,11.209799560546875,-0.60589599609375,-0.2533111572265625,-0.030120849609375
1782858857216748800,11.219748779296875,-0.5843505859375,-0.2703857421875,-0.0531005859375
1782858857226697700,11.22969775390625,-0.5759735107421875,-0.2717437744140625,-0.0452117919921875
1782858857236645600,11.239645751953125,-0.5881500244140625,-0.27069091796875,-0.012908935546875
1782858857246625500,11.24962548828125,-0.6254730224609375,-0.2695159912109375,0.009613037109375
1782858857256573700,11.25957373046875,-0.7088775634765625,-0.278411865234375,0.0043487548828125
1782858857266522600,11.269522705078124,-0.809844970703125,-0.2983551025390625,-0.0229339599609375
1782858857276471600,11.279471435546874,-0.8572845458984375,-0.312408447265625,-0.0481109619140625
1782858857286450700,11.28945068359375,-0.8555450439453125,-0.31768798828125,-0.0718231201171875
1782858857296399600,11.299399658203125,-0.8379974365234375,-0.320159912109375,-0.0952606201171875
1782858857306347500,11.309347412109375,-0.8145294189453125,-0.323516845703125,-0.0964508056640625
1782858857316296700,11.319296630859375,-0.7957763671875,-0.3452606201171875,-0.0880126953125
1782858857326275600,11.329275634765626,-0.810821533203125,-0.3985595703125,-0.0754547119140625
1782858857336224500,11.339224609375,-0.8548583984375,-0.4704437255859375,-0.0523681640625
1782858857346173400,11.34917333984375,-0.9086151123046875,-0.5489654541015625,-0.03485107421875
1782858857356122400,11.359122314453124,-0.9473724365234375,-0.61614990234375,-0.0171661376953125
1782858857366101500,11.3691015625,-0.9661865234375,-0.6550445556640625,0.0008544921875
1782858857376050700,11.37905078125,-0.9745025634765625,-0.6669921875,0.00933837890625
1782858857385998800,11.388998779296875,-0.9702606201171875,-0.6622161865234375,0.007080078125
1782858857395947800,11.39894775390625,-0.9658050537109375,-0.65814208984375,0.00482177734375
1782858857405926700,11.4089267578125,-0.960296630859375,-0.658203125,0.0052947998046875
1782858857415875600,11.41887548828125,-0.958343505859375,-0.6624908447265625,0.0035400390625
1782858857425824800,11.42882470703125,-0.9532623291015625,-0.672119140625,0.0070953369140625
1782858857435772700,11.438772705078126,-0.94500732421875,-0.6928863525390625,0.012939453125
1782858857445752600,11.448752685546875,-0.9407196044921875,-0.72528076171875,0.018890380859375
1782858857455700700,11.45870068359375,-0.936798095703125,-0.7554779052734375,0.032958984375
1782858857465649700,11.468649658203125,-0.9306182861328125,-0.778045654296875,0.0457000732421875
1782858857475598600,11.4785986328125,-0.908843994140625,-0.7884979248046875,0.0413970947265625
1782858857485577500,11.488577392578126,-0.862884521484375,-0.7692413330078125,0.0215606689453125
1782858857495526700,11.498526611328124,-0.814208984375,-0.7299346923828125,-0.0117034912109375
1782858857505475600,11.5084755859375,-0.7698974609375,-0.6942596435546875,-0.039794921875
1782858857515423500,11.518423583984376,-0.7273712158203125,-0.66326904296875,-0.0460205078125
1782858857525403400,11.5284033203125,-0.681182861328125,-0.6328125,-0.0366973876953125
1782858857535351600,11.5383515625,-0.6332550048828125,-0.605499267578125,-0.0208282470703125
1782858857545300700,11.54830078125,-0.5907135009765625,-0.5860137939453125,0.001678466796875
1782858857555249700,11.558249755859375,-0.576873779296875,-0.5807037353515625,0.034149169921875
1782858857565228800,11.568228759765624,-0.5917816162109375,-0.5803070068359375,0.0739898681640625
1782858857575177700,11.578177734375,-0.606689453125,-0.5791473388671875,0.1126861572265625
1782858857585125600,11.588125732421876,-0.610870361328125,-0.57769775390625,0.1414337158203125
1782858857595074600,11.598074462890626,-0.6261749267578125,-0.58453369140625,0.155303955078125
1782858857605053700,11.6080537109375,-0.65863037109375,-0.5985107421875,0.1545257568359375
1782858857615002600,11.618002685546875,-0.6984100341796875,-0.6089935302734375,0.146453857421875
1782858857624951600,11.62795166015625,-0.723846435546875,-0.6100921630859375,0.13671875
1782858857634900500,11.637900390625,-0.729766845703125,-0.5938262939453125,0.1360931396484375
1782858857644879600,11.647879638671874,-0.7472686767578125,-0.5674591064453125,0.1414947509765625
1782858857654828500,11.65782861328125,-0.770172119140625,-0.54827880859375,0.1510772705078125
1782858857664776400,11.6677763671875,-0.785888671875,-0.54034423828125,0.1666107177734375
1782858857674725600,11.6777255859375,-0.799530029296875,-0.5353546142578125,0.1815338134765625
1782858857684704500,11.68770458984375,-0.7940521240234375,-0.53363037109375,0.1923828125
1782858857694653400,11.6976533203125,-0.7555694580078125,-0.546417236328125,0.2094573974609375
1782858857704602600,11.7076025390625,-0.7014923095703125,-0.585113525390625,0.2350006103515625
1782858857714551800,11.7175517578125,-0.67822265625,-0.631439208984375,0.268035888671875
1782858857724530700,11.72753076171875,-0.704833984375,-0.6700286865234375,0.31396484375
1782858857734479600,11.737479736328124,-0.7748565673828125,-0.7016754150390625,0.3525390625
1782858857744427800,11.747427734375,-0.8356781005859375,-0.7240142822265625,0.367584228515625
1782858857754376700,11.757376708984374,-0.8564910888671875,-0.7207183837890625,0.3590545654296875
1782858857764355600,11.76735546875,-0.863311767578125,-0.67938232421875,0.3284454345703125
1782858857774304500,11.777304443359375,-0.870452880859375,-0.6350555419921875,0.2833099365234375
1782858857784253700,11.787253662109375,-0.85992431640625,-0.6005706787109375,0.2303924560546875
1782858857794201600,11.79720166015625,-0.82452392578125,-0.5672607421875,0.1875457763671875
1782858857804181500,11.807181396484374,-0.76953125,-0.5517425537109375,0.168792724609375
1782858857814129700,11.817129638671876,-0.72015380859375,-0.5703582763671875,0.1862945556640625
1782858857824078600,11.82707861328125,-0.70452880859375,-0.6022186279296875,0.234588623046875
1782858857834027500,11.837027587890624,-0.693084716796875,-0.6358795166015625,0.2887420654296875
1782858857844006700,11.847006591796875,-0.67303466796875,-0.6757049560546875,0.3419189453125
1782858857853955600,11.85695556640625,-0.6493682861328125,-0.7047576904296875,0.3832855224609375
1782858857863904800,11.86690478515625,-0.6256561279296875,-0.7231597900390625,0.3933868408203125
1782858857873846300,11.87684619140625,-0.59259033203125,-0.73736572265625,0.375
1782858857883826200,11.886826171875,-0.569183349609375,-0.7521514892578125,0.34326171875
1782858857893774300,11.8967744140625,-0.56878662109375,-0.7652740478515625,0.3333587646484375
1782858857903723500,11.9067236328125,-0.5649261474609375,-0.7847137451171875,0.3383636474609375
1782858857913672400,11.91667236328125,-0.5525970458984375,-0.801605224609375,0.3457489013671875
1782858857923651600,11.926651611328126,-0.5442047119140625,-0.80218505859375,0.3517913818359375
1782858857933600500,11.9366005859375,-0.549591064453125,-0.794708251953125,0.3527984619140625
1782858857943548400,11.94654833984375,-0.5663909912109375,-0.7827911376953125,0.3516845703125
1782858857953497300,11.956497314453125,-0.5663909912109375,-0.7666473388671875,0.34466552734375
1782858857963476500,11.9664765625,-0.5680084228515625,-0.743865966796875,0.3371124267578125
1782858857973425400,11.97642529296875,-0.587982177734375,-0.722076416015625,0.3305511474609375
1782858857983374300,11.986374267578125,-0.6024627685546875,-0.7054901123046875,0.322113037109375
1782858857993323300,11.9963232421875,-0.6125335693359375,-0.68560791015625,0.30889892578125
1782858858003302400,12.006302490234376,-0.6246185302734375,-0.6665191650390625,0.296966552734375
1782858858013251300,12.016251220703126,-0.6219329833984375,-0.6495208740234375,0.2851104736328125
1782858858023199200,12.02619921875,-0.6143951416015625,-0.635467529296875,0.2810516357421875
1782858858033148400,12.0361484375,-0.6019287109375,-0.6283721923828125,0.2861328125
1782858858043127300,12.046127197265625,-0.5825347900390625,-0.6346588134765625,0.29742431640625
1782858858053076200,12.056076171875,-0.5594329833984375,-0.6401519775390625,0.30914306640625
1782858858063025400,12.066025390625,-0.5406036376953125,-0.640106201171875,0.32391357421875
1782858858072973300,12.075973388671875,-0.528411865234375,-0.6356964111328125,0.3365020751953125
1782858858082953500,12.085953369140626,-0.5211639404296875,-0.6604156494140625,0.333709716796875
1782858858092901400,12.0959013671875,-0.52685546875,-0.6894683837890625,0.33099365234375
1782858858102850600,12.1058505859375,-0.5300445556640625,-0.6851348876953125,0.3242645263671875
1782858858112799500,12.115799560546876,-0.5175018310546875,-0.6845550537109375,0.3095703125
1782858858122778400,12.1257783203125,-0.5089569091796875,-0.6832733154296875,0.2998199462890625
1782858858132727300,12.135727294921875,-0.514862060546875,-0.681610107421875,0.286834716796875
1782858858142676500,12.145676513671875,-0.5091705322265625,-0.689605712890625,0.2728271484375
1782858858152624400,12.155624267578125,-0.5062713623046875,-0.69952392578125,0.263916015625
1782858858162604300,12.165604248046876,-0.509490966796875,-0.71502685546875,0.25726318359375
1782858858172552400,12.175552490234375,-0.5071563720703125,-0.736907958984375,0.2574005126953125
1782858858182501400,12.18550146484375,-0.51080322265625,-0.7490997314453125,0.2572479248046875
1782858858192450300,12.1954501953125,-0.5335693359375,-0.7546844482421875,0.25408935546875
1782858858202429200,12.20542919921875,-0.5420379638671875,-0.7646484375,0.24169921875
1782858858212378400,12.21537841796875,-0.542266845703125,-0.775634765625,0.219024658203125
1782858858222327600,12.22532763671875,-0.5599365234375,-0.7777862548828125,0.185638427734375
1782858858232275200,12.235275146484375,-0.578948974609375,-0.7761077880859375,0.1438446044921875
1782858858242255400,12.24525537109375,-0.5501708984375,-0.7999114990234375,0.12567138671875
1782858858252203500,12.25520361328125,-0.50592041015625,-0.8508148193359375,0.1489105224609375
1782858858262152400,12.26515234375,-0.519134521484375,-0.870391845703125,0.163543701171875
1782858858272101400,12.275101318359376,-0.55645751953125,-0.8510589599609375,0.162353515625
1782858858282080500,12.28508056640625,-0.57379150390625,-0.827301025390625,0.1654510498046875
1782858858292029400,12.295029541015625,-0.5749969482421875,-0.820068359375,0.1612091064453125
1782858858301977300,12.304977294921875,-0.5860595703125,-0.816375732421875,0.1438140869140625
1782858858311926300,12.31492626953125,-0.6086883544921875,-0.8060455322265625,0.11944580078125
1782858858321905400,12.324905517578125,-0.626312255859375,-0.7965545654296875,0.095458984375
1782858858331854300,12.334854248046875,-0.6335296630859375,-0.7889404296875,0.07830810546875
1782858858341803300,12.34480322265625,-0.6432342529296875,-0.7859344482421875,0.072235107421875
1782858858351752200,12.354752197265626,-0.6298370361328125,-0.7803955078125,0.0767364501953125
1782858858361731300,12.3647314453125,-0.6079254150390625,-0.7724609375,0.082366943359375
1782858858371680300,12.37468017578125,-0.5970458984375,-0.7743988037109375,0.0897216796875
1782858858381628200,12.384628173828125,-0.5923919677734375,-0.7833251953125,0.0994415283203125
1782858858391577300,12.394577392578125,-0.58404541015625,-0.7969818115234375,0.113006591796875
1782858858401556200,12.40455615234375,-0.571136474609375,-0.8044281005859375,0.1308441162109375
1782858858411505400,12.41450537109375,-0.56890869140625,-0.806427001953125,0.145233154296875
1782858858421454300,12.424454345703126,-0.572113037109375,-0.8117218017578125,0.14801025390625
1782858858431402500,12.434402587890625,-0.578857421875,-0.81817626953125,0.1390533447265625
1782858858441382400,12.44438232421875,-0.5927581787109375,-0.8189697265625,0.12445068359375
1782858858451330300,12.454330322265625,-0.611419677734375,-0.812347412109375,0.109649658203125
1782858858461279500,12.464279541015625,-0.626495361328125,-0.8114166259765625,0.0970306396484375
1782858858471228400,12.474228515625,-0.63958740234375,-0.81451416015625,0.086822509765625
1782858858481207300,12.484207275390625,-0.6417388916015625,-0.8149261474609375,0.0801849365234375
1782858858491156200,12.49415625,-0.6489105224609375,-0.812103271484375,0.08038330078125
1782858858501105400,12.50410546875,-0.655059814453125,-0.8067474365234375,0.0844573974609375
1782858858511053300,12.51405322265625,-0.651763916015625,-0.799896240234375,0.0875244140625
1782858858521033200,12.524033203125,-0.6448516845703125,-0.792388916015625,0.0856781005859375
1782858858530981400,12.5339814453125,-0.6369171142578125,-0.7822418212890625,0.084075927734375
1782858858540930300,12.543930419921875,-0.625457763671875,-0.7722015380859375,0.0795440673828125
1782858858550879500,12.55387939453125,-0.6173248291015625,-0.76336669921875,0.074951171875
1782858858560858400,12.5638583984375,-0.6153717041015625,-0.75555419921875,0.0739898681640625
1782858858570807600,12.5738076171875,-0.615875244140625,-0.746246337890625,0.0769500732421875
1782858858580755500,12.58375537109375,-0.6166534423828125,-0.7387237548828125,0.0824127197265625
1782858858590704400,12.593704345703125,-0.611297607421875,-0.7329864501953125,0.091796875
1782858858600683500,12.60368359375,-0.5973968505859375,-0.7306060791015625,0.102813720703125
1782858858610632400,12.613632568359375,-0.591583251953125,-0.7284698486328125,0.118560791015625
1782858858620581400,12.623581298828125,-0.5877227783203125,-0.7300262451171875,0.139678955078125
1782858858630530300,12.6335302734375,-0.5798492431640625,-0.7348480224609375,0.1601104736328125
1782858858640509400,12.643509521484376,-0.5691680908203125,-0.746917724609375,0.1778106689453125
1782858858650458400,12.653458251953126,-0.56378173828125,-0.7692413330078125,0.1851806640625
1782858858660406300,12.66340625,-0.5776824951171875,-0.78631591796875,0.1832427978515625
1782858858670386400,12.673386474609375,-0.60040283203125,-0.7859039306640625,0.17022705078125
1782858858680334300,12.683334228515625,-0.6198272705078125,-0.7747650146484375,0.1523895263671875
1782858858690283300,12.693283203125,-0.626739501953125,-0.7580413818359375,0.134979248046875
1782858858700232200,12.703232177734375,-0.6291351318359375,-0.7403717041015625,0.1236572265625
1782858858710211300,12.71321142578125,-0.65093994140625,-0.72802734375,0.1251983642578125
1782858858720160300,12.72316015625,-0.65966796875,-0.7117462158203125,0.120269775390625
1782858858730109400,12.733109375,-0.6001739501953125,-0.6755828857421875,0.10296630859375
1782858858740057300,12.743057373046875,-0.3253936767578125,-0.6429595947265625,0.1525115966796875
1782858858750036500,12.753036376953125,-0.335693359375,-0.7324676513671875,0.35589599609375
1782858858759985400,12.7629853515625,-0.63214111328125,-0.819183349609375,0.5068359375
1782858858769934300,12.772934326171875,-0.548858642578125,-0.770660400390625,0.42828369140625
1782858858779883300,12.78288330078125,-0.5263214111328125,-0.6990203857421875,0.2793121337890625
1782858858789862400,12.7928623046875,-0.5510101318359375,-0.7249603271484375,0.22601318359375
1782858858799811300,12.802811279296876,-0.565093994140625,-0.7557525634765625,0.2519073486328125
1782858858809759500,12.812759521484375,-0.62677001953125,-0.7260284423828125,0.272369384765625
1782858858819708400,12.82270849609375,-0.65704345703125,-0.6930389404296875,0.2644500732421875
1782858858829687300,12.832687255859375,-0.6326904296875,-0.69500732421875,0.255035400390625
