time,seconds_elapsed,z,y,x
1783153834852236300,0.210236328125,-0.02194499969482422,-0.022050604224205017,-0.02416263520717621
1783153834861947100,0.219947021484375,-0.03793621063232422,-0.011725366115570068,0.001875847578048706
1783153834871657700,0.22965771484375,-0.015224456787109375,-0.006491906940937042,-0.0162808895111084
1783153834881368600,0.23936865234375,-0.0030355453491210938,-0.0015890076756477356,0.009468227624893188
1783153834891079200,0.2490791015625,-0.014066696166992188,-0.019440509378910065,-0.004503577947616577
1783153834900790000,0.2587900390625,-0.020008087158203125,-0.004777468740940094,-0.009097695350646973
1783153834910500600,0.26850048828125,-0.016637802124023438,-0.002137698233127594,-0.0018866509199142456
1783153834920211500,0.27821142578125,-0.0225677490234375,-0.001967817544937134,-0.0108833909034729
1783153834929922000,0.287922119140625,-0.010071754455566406,0.0027945488691329956,-0.005922943353652954
1783153834939633000,0.2976328125,-0.014151573181152344,-0.006623432040214539,-0.021681293845176697
1783153834949343500,0.307343505859375,-0.020369529724121094,-0.00849839299917221,0.004305645823478699
1783153834959054300,0.317054443359375,-0.014904975891113281,-0.023996636271476746,0.013362005352973938
1783153834968765000,0.326764892578125,0.006367683410644531,-0.020814992487430573,-0.0009312927722930908
1783153834978475800,0.336475830078125,-0.019165992736816406,-0.0015401989221572876,-0.007647454738616943
1783153834988186600,0.3461865234375,-0.0069122314453125,0.0007599368691444397,0.0044073015451431274
1783153834997897200,0.355897216796875,-0.0066471099853515625,0.0030863285064697266,0.009272605180740356
1783153835007608000,0.365608154296875,0.009768486022949219,-0.00863606482744217,-0.006468594074249268
1783153835017318700,0.375318603515625,-0.004416465759277344,-0.01032605767250061,0.008655428886413574
1783153835027029500,0.385029541015625,0.00501251220703125,-0.030657179653644562,-0.013632401823997498
1783153835036740000,0.394739990234375,-0.0020723342895507812,-0.013184577226638794,0.01128937304019928
1783153835046451000,0.404450927734375,-0.02517986297607422,-0.00322558730840683,-0.01127643883228302
1783153835056161500,0.41416162109375,-0.03137016296386719,-0.007601149380207062,0.010496392846107483
1783153835065872400,0.423872314453125,-0.04438495635986328,0.04158835858106613,-0.008089900016784668
1783153835075583200,0.433583251953125,-0.06636905670166016,-0.03191909193992615,0.0015323460102081299
1783153835085293800,0.4432939453125,0.012291908264160156,-0.019563645124435425,-0.005293354392051697
1783153835095004700,0.453004638671875,-0.006671905517578125,0.015619851648807526,-0.021483778953552246
1783153835104715300,0.46271533203125,-0.02047443389892578,-0.024704843759536743,0.025958538055419922
1783153835114426000,0.472426025390625,0.010384559631347656,-0.01018957793712616,0.002278149127960205
1783153835124136700,0.48213671875,-0.020216941833496094,0.004013970494270325,-0.02336825430393219
1783153835133847600,0.49184765625,-0.0033674240112304688,-0.005541376769542694,-0.017927229404449463
1783153835143558100,0.50155810546875,-0.007961273193359375,-0.005634479224681854,-0.005896538496017456
1783153835153269000,0.51126904296875,-0.0077800750732421875,0.001795940101146698,0.008246049284934998
1783153835162979800,0.520979736328125,-0.00292205810546875,0.022696129977703094,-0.010685995221138
1783153835172690400,0.5306904296875,-0.03094482421875,0.0012948140501976013,-0.012587979435920715
1783153835182401300,0.5404013671875,0.0025014877319335938,0.005958870053291321,-0.003534480929374695
1783153835192111900,0.55011181640625,-0.009245872497558594,0.00823451578617096,0.04668647050857544
1783153835201822700,0.55982275390625,-0.011435508728027344,0.04579443484544754,-0.05184444785118103
1783153835211533300,0.569533203125,-0.03464508056640625,0.009970322251319885,0.006043687462806702
1783153835221244200,0.579244140625,0.03408336639404297,0.01011822372674942,-0.043370142579078674
1783153835230955000,0.588955078125,-0.04640007019042969,-0.01091388612985611,0.0017130672931671143
1783153835240665600,0.59866552734375,0.008497238159179688,0.02480904757976532,-0.02869594097137451
1783153835250376400,0.60837646484375,-0.0222015380859375,0.0153484046459198,0.01421673595905304
1783153835260087000,0.618087158203125,-0.005352973937988281,0.010367237031459808,-0.0405135452747345
1783153835269798000,0.6277978515625,-0.02641773223876953,-0.010582730174064636,-0.004660114645957947
1783153835279508500,0.637508544921875,-0.025945663452148438,-0.012689821422100067,-0.0021952539682388306
1783153835289219300,0.64721923828125,0.014493942260742188,-0.014927700161933899,0.00952368974685669
1783153835298930000,0.656929931640625,-0.01634693145751953,-0.04054878652095795,-0.009658366441726685
1783153835308640800,0.666640869140625,-0.0043010711669921875,-0.009492278099060059,0.0163688063621521
1783153835318351600,0.6763515625,-0.001880645751953125,-0.02138720452785492,-0.007869169116020203
1783153835328062200,0.686062255859375,-0.018326759338378906,-0.0046626850962638855,0.02054475247859955
1783153835337773000,0.69577294921875,0.0031728744506835938,-0.007053263485431671,0.01804998517036438
1783153835347483600,0.705483642578125,-0.0015888214111328125,-0.0141109898686409,0.02237534523010254
1783153835357194500,0.715194580078125,-0.020397186279296875,-0.018695518374443054,-0.011037841439247131
1783153835366905000,0.724905029296875,-0.012991905212402344,0.014521867036819458,-0.0013470947742462158
1783153835376616000,0.734615966796875,-0.0033540725708007812,0.002575315535068512,-0.022305816411972046
1783153835386326800,0.744326904296875,0.0014133453369140625,0.00012243539094924927,0.0016396045684814453
1783153835396037400,0.754037353515625,-0.0009679794311523438,0.016489870846271515,-0.0009366273880004883
1783153835405748200,0.763748291015625,-0.010373115539550781,-0.011857748031616211,-0.022188231348991394
1783153835415458800,0.773458740234375,-0.0031442642211914062,0.011942781507968903,-0.012596338987350464
1783153835425169700,0.783169677734375,-0.014870643615722656,0.00003086775541305542,-0.005633741617202759
1783153835434880300,0.79288037109375,-0.0075664520263671875,-0.006965771317481995,0.010747596621513367
1783153835444591000,0.802591064453125,-0.016857147216796875,-0.025450147688388824,0.010659143328666687
1783153835454301700,0.8123017578125,-0.016572952270507812,-0.03460821509361267,-0.0012557804584503174
1783153835464012500,0.822012451171875,-0.018654823303222656,-0.026964843273162842,0.003335803747177124
1783153835473723400,0.831723388671875,-0.023047447204589844,-0.01956552267074585,0.012785613536834717
1783153835483434000,0.84143408203125,-0.0250091552734375,-0.012739390134811401,0.012663841247558594
1783153835493144800,0.851144775390625,-0.017526626586914062,-0.03204259276390076,-0.01593668758869171
1783153835502855700,0.860855712890625,-0.01722431182861328,-0.006291531026363373,-0.006164327263832092
1783153835512566300,0.870566162109375,-0.019286155700683594,-0.006756111979484558,0.005626559257507324
1783153835522277000,0.880277099609375,-0.004828453063964844,0.006971955299377441,0.010444313287734985
1783153835531987700,0.88998779296875,0.0070343017578125,-0.0031873583793640137,-0.0013559162616729736
1783153835541698600,0.899698486328125,0.013987541198730469,0.024607792496681213,0.019944459199905396
1783153835551409200,0.9094091796875,0.004342079162597656,0.019376620650291443,0.0008670836687088013
1783153835561120000,0.9191201171875,0.01367950439453125,0.01199226826429367,-0.022942259907722473
1783153835570830600,0.92883056640625,0.004038810729980469,0.030738219618797302,0.00118313729763031
1783153835580541400,0.93854150390625,0.01573467254638672,0.026090770959854126,-0.00356881320476532
1783153835599963000,0.957962890625,0.0011138916015625,0.03556555509567261,-0.0012820959091186523
1783153835609673700,0.967673828125,0.008146286010742188,0.014301352202892303,-0.010872140526771545
1783153835619384300,0.97738427734375,-0.017900466918945312,0.014465473592281342,-0.020473182201385498
1783153835629095200,0.98709521484375,-0.015262603759765625,0.019618496298789978,-0.010967403650283813
1783153835638805800,0.9968056640625,-0.0032510757446289062,0.012802153825759888,-0.013390377163887024
1783153835648516600,1.0065166015625,-0.017335891723632812,0.02263294905424118,0.005413457751274109
1783153835658227500,1.0162275390625,-0.03117847442626953,0.008587129414081573,-0.008827194571495056
1783153835667938000,1.02593798828125,-0.014185905456542969,-0.01217196136713028,-0.006293505430221558
1783153835677649000,1.03564892578125,-0.021020889282226562,-0.032648950815200806,-0.001622036099433899
1783153835687359500,1.045359375,-0.02537822723388672,-0.03423289954662323,0.015085458755493164
1783153835697070300,1.0550703125,-0.017891883850097656,-0.03348764032125473,-0.0015553981065750122
1783153835706781200,1.06478125,-0.027009010314941406,-0.04206749051809311,0.015148982405662537
1783153835716491800,1.07449169921875,-0.024200439453125,-0.027469024062156677,0.01969282329082489
1783153835726202600,1.08420263671875,-0.019083023071289062,-0.015354238450527191,-0.015803515911102295
1783153835735913200,1.093913330078125,-0.016407012939453125,-0.03892780840396881,0.005677327513694763
1783153835745624000,1.1036240234375,-0.0019989013671875,-0.022313378751277924,-0.0036899298429489136
1783153835755334700,1.113334716796875,0.0003948211669921875,0.003446511924266815,-0.024783223867416382
1783153835765045500,1.12304541015625,-0.0066680908203125,0.005576528608798981,-0.0100412517786026
1783153835774756400,1.13275634765625,-0.0042018890380859375,-0.0018595531582832336,-0.010011598467826843
1783153835784467000,1.142467041015625,0.021762847900390625,0.007643543183803558,-0.009871304035186768
1783153835794177800,1.152177734375,0.009623527526855469,0.017104849219322205,-0.0004290640354156494
1783153835803888400,1.161888427734375,0.021239280700683594,0.01423913985490799,0.0020208507776260376
1783153835813599200,1.17159912109375,0.009111404418945312,0.0026275962591171265,0.006782814860343933
1783153835823309800,1.181309814453125,-0.007525444030761719,-0.006774887442588806,-0.0052971988916397095
1783153835833020700,1.191020751953125,-0.005043983459472656,-0.013492941856384277,-0.005062073469161987
1783153835842731500,1.2007314453125,-0.007315635681152344,-0.015622466802597046,-0.0002952069044113159
1783153835852442000,1.210442138671875,0.0022230148315429688,-0.015587136149406433,-0.00037175416946411133
1783153835862153000,1.220153076171875,0.009245872497558594,0.015395015478134155,0.0019078254699707031
1783153835871863600,1.229863525390625,-0.00032901763916015625,0.008186668157577515,0.008854493498802185
1783153835881574400,1.239574462890625,-0.007386207580566406,-0.0014250800013542175,-0.012507438659667969
1783153835891285200,1.24928515625,-0.009615898132324219,0.012958258390426636,-0.0074424296617507935
1783153835900995800,1.258995849609375,0.00702667236328125,0.031522952020168304,-0.02135366201400757
1783153835910706700,1.268706787109375,-0.007212638854980469,0.007574789226055145,-0.0019598007202148438
1783153835920417300,1.278417236328125,-0.004742622375488281,0.002745524048805237,0.016712486743927002
1783153835930128100,1.288128173828125,-0.0023126602172851562,0.012460581958293915,0.0023410916328430176
1783153835939838700,1.297838623046875,-0.0069866180419921875,-0.0019821077585220337,0.006815850734710693
1783153835949549600,1.307549560546875,-0.009224891662597656,-0.008954964578151703,0.02080155909061432
1783153835959260400,1.317260498046875,-0.006720542907714844,0.007617950439453125,0.00383642315864563
1783153835978681900,1.336681884765625,-0.0043239593505859375,-0.009143628180027008,0.003634914755821228
1783153835988392400,1.346392333984375,-0.02542877197265625,-0.030462346971035004,0.010953113436698914
1783153835998103300,1.356103271484375,-0.01793384552001953,-0.035010211169719696,-0.0032124966382980347
1783153836007814100,1.365814208984375,0.005923271179199219,-0.039591893553733826,-0.00037610530853271484
1783153836017524700,1.375524658203125,0.003475189208984375,-0.013263672590255737,-0.014350220561027527
1783153836027235600,1.385235595703125,-0.0012836456298828125,0.007972858846187592,-0.020972594618797302
1783153836036946200,1.3949462890625,-0.013022422790527344,-0.020808912813663483,-0.0038850754499435425
1783153836046657000,1.404656982421875,-0.008074760437011719,0.0003313794732093811,0.03220842778682709
1783153836056367900,1.414367919921875,-0.01263427734375,0.0026243403553962708,-0.010160177946090698
1783153836066078500,1.424078369140625,0.0040569305419921875,0.018835000693798065,-0.035911574959754944
1783153836075789300,1.433789306640625,-0.010129928588867188,0.01140701025724411,-0.042228132486343384
1783153836085500000,1.4435,-0.007596015930175781,0.0038766786456108093,-0.008246749639511108
1783153836095210800,1.453210693359375,0.004313468933105469,-0.00329628586769104,0.022986844182014465
1783153836104921300,1.46292138671875,-0.00046825408935546875,-0.015180408954620361,-0.008139193058013916
1783153836114632200,1.472632080078125,-0.10872268676757812,0.00885472446680069,0.08280164003372192
1783153836124343000,1.482343017578125,-0.1609783172607422,0.028439193964004517,0.04500962793827057
1783153836134053600,1.4920537109375,0.3548431396484375,-0.03874017298221588,-0.21819305419921875
1783153836143764500,1.501764404296875,-0.046540260314941406,-0.029242679476737976,0.05970145761966705
1783153836153475000,1.51147509765625,-0.1987466812133789,-0.006371453404426575,0.03730142116546631
1783153836163186000,1.52118603515625,0.10590934753417969,0.0048841387033462524,0.020119592547416687
1783153836172896800,1.530896728515625,0.07588386535644531,-0.06213472783565521,-0.09168335795402527
1783153836182607400,1.540607421875,-0.15606307983398438,0.02428337186574936,0.050141558051109314
1783153836192318200,1.550318115234375,-0.02160930633544922,0.03766515851020813,0.016891375184059143
1783153836202028800,1.56002880859375,0.09410476684570312,-0.02675512433052063,-0.01183772087097168
1783153836211739600,1.56973974609375,0.012491226196289062,0.023472920060157776,-0.03985844552516937
1783153836221450200,1.5794501953125,-0.03714561462402344,0.05385521054267883,-0.0010984539985656738
1783153836231161000,1.5891611328125,-0.01532745361328125,0.03165435045957565,-0.0077710747718811035
1783153836240872000,1.598871826171875,0.00847625732421875,0.028884626924991608,-0.009681016206741333
1783153836250582500,1.60858251953125,-0.015207290649414062,0.014216475188732147,-0.014256000518798828
1783153836260293400,1.61829345703125,-0.05024909973144531,0.02844281494617462,0.022177428007125854
1783153836270004200,1.628004150390625,0.05416297912597656,-0.061771005392074585,-0.06106796860694885
1783153836279714800,1.63771484375,0.0038356781005859375,0.002764679491519928,0.013416007161140442
1783153836289425700,1.64742578125,-0.12098026275634766,0.023847736418247223,0.013962194323539734
1783153836299136300,1.65713623046875,0.02229022979736328,-0.03585992008447647,0.004173055291175842
1783153836308847000,1.66684716796875,0.010169029235839844,-0.01199902594089508,0.000054448843002319336
1783153836318557700,1.6765576171875,-0.07002639770507812,-0.01897568255662918,0.028903618454933167
1783153836328268500,1.6862685546875,-0.0005664825439453125,-0.011884421110153198,0.012654542922973633
1783153836337979400,1.6959794921875,0.03477191925048828,-0.045103318989276886,-0.017790108919143677
1783153836347690000,1.70568994140625,-0.024646759033203125,-0.030563466250896454,0.004182159900665283
1783153836357400800,1.71540087890625,-0.04775047302246094,0.011982955038547516,0.004997849464416504
1783153836367111400,1.725111328125,0.0024890899658203125,-0.017034582793712616,-0.011646896600723267
1783153836376822300,1.734822265625,0.03541851043701172,0.01127343624830246,-0.00878259539604187
1783153836386533000,1.744533203125,0.0065898895263671875,0.04398713260889053,-0.012858688831329346
1783153836396243700,1.75424365234375,0.025321006774902344,0.010576292872428894,0.02303937077522278
1783153836405954600,1.76395458984375,0.05550384521484375,-0.00832163542509079,0.01567995548248291
1783153836415665200,1.7736650390625,0.00043582916259765625,-0.0057137832045555115,0.020272433757781982
1783153836425376000,1.7833759765625,-0.013697624206542969,-0.002980269491672516,0.012959808111190796
1783153836435086800,1.7930869140625,0.012426376342773438,-0.014412999153137207,0.03643259406089783
1783153836444797400,1.80279736328125,0.02633953094482422,-0.01864798367023468,0.012203365564346313
1783153836454508300,1.81250830078125,-0.0023517608642578125,-0.02488667517900467,0.045104146003723145
1783153836464219000,1.822218994140625,0.004744529724121094,-0.009779699146747589,0.01848655939102173
1783153836473929700,1.8319296875,0.004650115966796875,-0.009157493710517883,-0.005728662014007568
1783153836483640600,1.841640625,-0.007205009460449219,0.01958499848842621,-0.008127719163894653
1783153836493351200,1.85135107421875,-0.016506195068359375,-0.029832616448402405,0.022589102387428284
1783153836503062000,1.86106201171875,0.0073108673095703125,-0.007746800780296326,0.0036388635635375977
1783153836512772600,1.870772705078125,-0.016357421875,-0.009853951632976532,-0.006033092737197876
1783153836522483500,1.8804833984375,-0.03021240234375,-0.028514675796031952,-0.010719716548919678
1783153836532194300,1.8901943359375,-0.0014600753784179688,0.0002121254801750183,0.0012047290802001953
1783153836541905000,1.89990478515625,-0.010849952697753906,0.028463132679462433,-0.0057881176471710205
1783153836551615700,1.90961572265625,-0.02479076385498047,-0.00048792362213134766,-0.000951617956161499
1783153836561326300,1.919326416015625,0.0015287399291992188,0.022834405303001404,0.006385341286659241
1783153836571037200,1.929037109375,-0.0102691650390625,0.010449118912220001,0.010845005512237549
1783153836580747800,1.938747802734375,-0.0289154052734375,-0.016136296093463898,0.011035144329071045
1783153836590458600,1.948458740234375,-0.021361351013183594,0.028631649911403656,0.015816733241081238
1783153836600169500,1.95816943359375,-0.023344039916992188,-0.0029711201786994934,0.011212825775146484
1783153836609880000,1.967880126953125,0.028847694396972656,0.06012073904275894,-0.014729559421539307
1783153836619591000,1.9775908203125,-0.06579208374023438,0.05480211228132248,0.08257800340652466
1783153836629301800,1.9873017578125,-0.1281604766845703,0.02332426607608795,0.061378926038742065
1783153836639012400,1.997012451171875,0.2906036376953125,-0.10493041574954987,-0.22961056232452393
1783153836648723200,2.00672314453125,0.019750595092773438,0.0494891032576561,0.031191229820251465
1783153836658433800,2.016433837890625,-0.15946388244628906,0.06076866388320923,0.027412399649620056
1783153836668144600,2.02614453125,0.04332256317138672,0.03361976891756058,0.06056514382362366
1783153836677855500,2.03585546875,0.14382076263427734,-0.016558654606342316,-0.09154105186462402
1783153836687566000,2.045566162109375,-0.0633859634399414,-0.009055860340595245,0.011413946747779846
1783153836697277000,2.05527685546875,-0.045838356018066406,-0.013450615108013153,-0.023549944162368774
1783153836706987500,2.064987548828125,0.07733631134033203,-0.048373691737651825,0.00960269570350647
1783153836716698400,2.074698486328125,0.017189979553222656,-0.031265124678611755,-0.019006967544555664
1783153836726409200,2.0844091796875,-0.03489398956298828,0.009727425873279572,0.02606847882270813
1783153836736119800,2.094119873046875,0.04337882995605469,0.009789429605007172,0.02112583816051483
1783153836745830700,2.10383056640625,0.040302276611328125,-0.020757175981998444,0.02085883915424347
1783153836755541200,2.113541259765625,-0.014513015747070312,-0.010654985904693604,0.018414825201034546
1783153836765252000,2.123252197265625,-0.007212638854980469,-0.022136464715003967,0.0015450716018676758
1783153836774963000,2.132962890625,0.02586841583251953,-0.026534631848335266,0.003960698843002319
1783153836784673500,2.142673583984375,-0.02164936065673828,-0.030521251261234283,-0.007847309112548828
1783153836794384400,2.15238427734375,-0.026004791259765625,-0.02995447814464569,0.001447528600692749
1783153836804095000,2.162094970703125,0.030927658081054688,-0.041221983730793,0.0013995170593261719
1783153836813805800,2.171805908203125,0.006861686706542969,-0.040361590683460236,-0.005938470363616943
1783153836823516700,2.1815166015625,0.0020399093627929688,-0.004602260887622833,0.008203566074371338
1783153836833227300,2.191227294921875,-0.009761810302734375,-0.0021656155586242676,0.017631053924560547
1783153836842938000,2.200938232421875,-0.01902484893798828,-0.006666071712970734,-0.004103302955627441
1783153836852649000,2.21064892578125,-0.004584312438964844,-0.006435476243495941,-0.015829116106033325
1783153836862359600,2.220359619140625,-0.0021505355834960938,0.014974512159824371,-0.0035920441150665283
1783153836872070400,2.2300703125,-0.011523246765136719,0.016736045479774475,-0.026930034160614014
1783153836881781000,2.239781005859375,-0.006615638732910156,0.009277403354644775,-0.01921829581260681
1783153836891491800,2.249491943359375,-0.020628929138183594,0.013715572655200958,-0.018867671489715576
1783153836901202700,2.25920263671875,0.0009050369262695312,-0.0031095221638679504,-0.002044171094894409
1783153836910913300,2.268913330078125,0.017374038696289062,0.01571260392665863,0.005194604396820068
1783153836920624000,2.2786240234375,0.0076732635498046875,0.03158394992351532,0.01225648820400238
1783153836930334700,2.288334716796875,0.016966819763183594,0.019166380167007446,0.01213739812374115
1783153836940045600,2.298045654296875,0.0049266815185546875,-0.018875889480113983,-0.01812589168548584
1783153836949756400,2.30775634765625,0.009535789489746094,0.007449842989444733,-0.056141823530197144
1783153836959467000,2.317467041015625,0.009379386901855469,0.01208755373954773,-0.003270387649536133
1783153836969177900,2.327177734375,0.006859779357910156,0.009874381124973297,-0.0010006725788116455
1783153836978888700,2.336888671875,-0.012093544006347656,0.0005217567086219788,0.00358542799949646
1783153836988599300,2.346599365234375,0.025774002075195312,0.0005696117877960205,-0.00827115774154663
1783153836998310100,2.35631005859375,0.0017948150634765625,-0.0013362914323806763,0.005910426378250122
1783153837008020700,2.366020751953125,-0.024140357971191406,0.01775287836790085,-0.020335018634796143
1783153837017731600,2.375731689453125,0.0068607330322265625,0.005748674273490906,0.008117318153381348
1783153837027442400,2.3854423828125,0.011453628540039062,-0.012947402894496918,0.005661487579345703
1783153837037153000,2.395153076171875,-0.0028696060180664062,0.01092684268951416,0.0218513160943985
1783153837046864000,2.40486376953125,0.0018825531005859375,0.0038001537322998047,0.007224291563034058
1783153837056574500,2.414574462890625,0.015970230102539062,-0.005445152521133423,-0.0024492740631103516
1783153837066285300,2.424285400390625,-0.012556076049804688,-0.0050058066844940186,-0.004955857992172241
1783153837075996200,2.43399609375,-0.017058372497558594,0.009319297969341278,0.009170472621917725
1783153837085706800,2.443706787109375,0.01853656768798828,0.004572056233882904,0.03018087148666382
1783153837095417600,2.45341748046875,-0.0006074905395507812,-0.004810519516468048,0.02965065836906433
1783153837105128200,2.463128173828125,-0.012371063232421875,0.002614840865135193,0.0032906830310821533
1783153837114839000,2.472839111328125,0.016082763671875,0.0005580410361289978,0.012683644890785217
1783153837124550000,2.4825498046875,-0.014787673950195312,0.012319408357143402,-0.006273418664932251
1783153837134260500,2.492260498046875,-0.0027647018432617188,0.03335390239953995,0.01527547836303711
1783153837143971300,2.501971435546875,-0.009778022766113281,0.0021316930651664734,0.010398432612419128
1783153837153682200,2.51168212890625,-0.011958122253417969,-0.014328159391880035,0.00594523549079895
1783153837163392800,2.521392822265625,0.00001049041748046875,-0.011627770960330963,0.019942834973335266
1783153837173103600,2.531103515625,-0.0023488998413085938,-0.01132204383611679,-0.0040718019008636475
1783153837182814200,2.540814208984375,-0.002300262451171875,0.0005175098776817322,-0.008399546146392822
1783153837192525000,2.550525146484375,-0.0234375,-0.01861698180437088,0.02030293643474579
1783153837202236000,2.56023583984375,0.012269020080566406,-0.006601996719837189,0.005923330783843994
1783153837211946500,2.569946533203125,0.009720802307128906,-0.034810133278369904,0.03208848834037781
1783153837221657300,2.5796572265625,0.004857063293457031,-0.0317608043551445,-0.05523553490638733
1783153837231368000,2.589367919921875,-0.01877117156982422,-0.005563125014305115,0.01835489273071289
1783153837241078800,2.599078857421875,0.012166023254394531,-0.02430734783411026,-0.01655179262161255
1783153837260500200,2.618500244140625,-0.009354591369628906,-0.0048493072390556335,0.00008234381675720215
1783153837270211000,2.628211181640625,0.019051551818847656,0.002355225384235382,0.0048223137855529785
1783153837279922000,2.637921875,0.004608154296875,0.011852294206619263,-0.018766433000564575
1783153837289632500,2.647632568359375,0.004530906677246094,0.016419701278209686,-0.009005814790725708
1783153837299343400,2.65734326171875,-0.019084930419921875,-0.007454663515090942,-0.01824212074279785
1783153837318764800,2.676764892578125,-0.0024061203002929688,0.01846136897802353,0.0010382235050201416
1783153837328475600,2.6864755859375,-0.0023660659790039062,0.004140391945838928,0.0034054815769195557
1783153837338186200,2.696186279296875,-0.0023288726806640625,-0.0028731971979141235,-0.006091952323913574
1783153837347897000,2.70589697265625,-0.009358406066894531,-0.0024274885654449463,0.008108913898468018
1783153837357608000,2.71560791015625,0.007273674011230469,-0.007032759487628937,-0.0062316060066223145
1783153837367318500,2.725318603515625,0.0000972747802734375,-0.004678495228290558,-0.005927383899688721
1783153837377029400,2.735029296875,0.004803657531738281,0.004928164184093475,0.005972772836685181
1783153837386740000,2.744739990234375,-0.0023393630981445312,0.009441867470741272,-0.0012714564800262451
1783153837396450800,2.754450927734375,0.002407073974609375,0.007097557187080383,-0.0012205243110656738
1783153837406161700,2.76416162109375,0.004718780517578125,-0.00025735795497894287,-0.008403658866882324
1783153837415872300,2.773872314453125,-0.0024242401123046875,-0.002604536712169647,0.005780130624771118
1783153837425583000,2.7835830078125,-0.009441375732421875,0.006686225533485413,-0.0059986412525177
1783153837435294000,2.7932939453125,-0.009275436401367188,-0.0053686946630477905,-0.00799494981765747
1783153837445004500,2.803004638671875,-0.011464118957519531,0.008558183908462524,0.011229097843170166
1783153837454715400,2.81271533203125,-0.001850128173828125,0.008014015853404999,0.013482734560966492
1783153837464426200,2.82242626953125,0.009965896606445312,-0.027721822261810303,0.011274099349975586
1783153837474136800,2.83213671875,-0.0043163299560546875,-0.02054186910390854,0.02305753529071808
1783153837483847700,2.84184765625,-0.006596565246582031,-0.004121653735637665,0.0037555992603302
1783153837493558300,2.851558349609375,0.0029354095458984375,-0.011286512017250061,0.017962932586669922
1783153837503269000,2.86126904296875,0.014662742614746094,-0.022984996438026428,0.006036669015884399
1783153837512980000,2.87097998046875,0.014417648315429688,-0.015487365424633026,-0.010571122169494629
1783153837522690600,2.880690673828125,-0.011716842651367188,0.005838319659233093,0.006112873554229736
1783153837532401400,2.8904013671875,0.0002498626708984375,-0.008605889976024628,0.015347644686698914
1783153837542112000,2.900112060546875,0.019080162048339844,0.0010708048939704895,-0.006006747484207153
1783153837551822800,2.90982275390625,-0.0142059326171875,-0.008304215967655182,-0.006215602159500122
1783153837561533700,2.91953369140625,0.007231712341308594,-0.00805085152387619,-0.01257413625717163
1783153837571244300,2.929244384765625,0.000026702880859375,0.0015013143420219421,-0.022659778594970703
1783153837580955100,2.938955078125,-0.0023107528686523438,0.006073661148548126,0.018340319395065308
1783153837590666000,2.948666015625,-0.0022716522216796875,-0.03420916944742203,-0.019653797149658203
1783153837600376600,2.95837646484375,-0.011652946472167969,0.0016228631138801575,-0.010046452283859253
1783153837610087400,2.96808740234375,0.007378578186035156,0.015783682465553284,0.009158790111541748
1783153837619798300,2.97779833984375,0.00019741058349609375,0.010876446962356567,-0.0002626776695251465
1783153837629508900,2.9875087890625,0.019023895263671875,0.010813198983669281,-0.00740167498588562
1783153837639219700,2.9972197265625,-0.0071868896484375,-0.017553173005580902,0.006937950849533081
1783153837648930300,3.006930419921875,0.018828392028808594,0.018284142017364502,0.02103734016418457
1783153837658641200,3.01664111328125,0.009085655212402344,0.011093251407146454,-0.0009225010871887207
1783153837668352000,3.02635205078125,0.004225730895996094,0.0060904622077941895,0.01083993911743164
1783153837678062600,3.0360625,-0.012324333190917969,0.015411533415317535,-0.008197546005249023
1783153837687773400,3.0457734375,-0.002712249755859375,-0.0037361159920692444,-0.027261674404144287
1783153837697484300,3.055484375,0.009103775024414062,0.01280520111322403,0.015542343258857727
1783153837707195000,3.06519482421875,-0.00046062469482421875,0.0077215880155563354,0.001249939203262329
1783153837716905700,3.07490576171875,0.00424957275390625,0.0003577917814254761,0.0009750425815582275
1783153837726616600,3.084616455078125,-0.002880096435546875,0.004947662353515625,0.0128183513879776
1783153837736327200,3.0943271484375,-0.005187034606933594,-0.011723682284355164,0.014878109097480774
1783153837746038000,3.1040380859375,0.011383056640625,-0.014108814299106598,0.007599234580993652
1783153837755748600,3.11374853515625,0.032379150390625,-0.013818629086017609,-0.004381805658340454
1783153837765459500,3.12345947265625,0.001239776611328125,-0.009041748940944672,0.005256682634353638
1783153837775170300,3.13317041015625,-0.00348663330078125,-0.0019933506846427917,0.0052027106285095215
1783153837784881000,3.142880859375,0.0083465576171875,-0.004592977464199066,-0.009032398462295532
1783153837794591700,3.152591796875,0.015267372131347656,-0.007095441222190857,-0.004368692636489868
1783153837804302600,3.162302490234375,0.0008897781372070312,0.02126980572938919,0.024041056632995605
1783153837814015700,3.172015625,0.019710540771484375,-0.0003281533718109131,0.018963664770126343
1783153837823726300,3.181726318359375,0.007617950439453125,0.0019773468375205994,0.00237119197845459
1783153837833437200,3.191437255859375,0.007483482360839844,0.01141926646232605,0.011495694518089294
1783153837843148000,3.20114794921875,0.00029754638671875,0.006584726274013519,0.0019784867763519287
1783153837852858600,3.210858642578125,-0.016183853149414062,0.004180386662483215,-0.014444619417190552
1783153837862569500,3.220569580078125,0.0076236724853515625,0.011289797723293304,-0.002514392137527466
1783153837872280000,3.230280029296875,-0.001922607421875,-0.017321236431598663,-0.007321178913116455
1783153837881991000,3.239990966796875,0.00046539306640625,0.004217877984046936,0.011724963784217834
1783153837891701800,3.24970166015625,0.0051670074462890625,-0.010036326944828033,-0.007273674011230469
1783153837901412400,3.259412353515625,-0.004334449768066406,-0.019284650683403015,-0.0024123787879943848
1783153837911123200,3.269123291015625,-0.0019083023071289062,-0.009546764194965363,-0.011814862489700317
1783153837920834000,3.278833984375,0.012250900268554688,-0.0045642852783203125,-0.002055734395980835
1783153837930544600,3.288544677734375,-0.009140968322753906,-0.011491186916828156,-0.006697535514831543
1783153837940255500,3.29825537109375,0.0004329681396484375,0.005125544965267181,-0.0016745328903198242
1783153837949966300,3.30796630859375,-0.01134490966796875,-0.018270038068294525,-0.003910958766937256
1783153837959677000,3.317677001953125,0.000614166259765625,0.003224968910217285,0.024379998445510864
1783153837969387800,3.3273876953125,-0.011168479919433594,-0.006072178483009338,0.009880810976028442
1783153837979098600,3.3370986328125,-0.0015659332275390625,0.008213825523853302,-0.011496186256408691
1783153837988809200,3.346809326171875,-0.006245613098144531,-0.0013371407985687256,-0.011215388774871826
1783153837998520000,3.35652001953125,-0.006140708923339844,0.008219972252845764,0.007894963026046753
1783153838008231000,3.36623095703125,0.008090019226074219,-0.015230245888233185,0.0009030997753143311
1783153838017941500,3.37594140625,0.005599021911621094,-0.017270997166633606,-0.0014907121658325195
1783153838027652400,3.38565234375,0.007861137390136719,0.0042627230286598206,0.01033678650856018
1783153838037363200,3.39536328125,-0.0063991546630859375,0.00666084885597229,0.01243661344051361
1783153838047073800,3.40507373046875,-0.008645057678222656,0.020677752792835236,-0.0018635392189025879
1783153838056784600,3.41478466796875,0.0056247711181640625,-0.005508013069629669,-0.018224596977233887
1783153838066495200,3.4244951171875,-0.010946273803710938,-0.0004237145185470581,-0.008359253406524658
1783153838076206000,3.4342060546875,0.001007080078125,0.01129712164402008,-0.010600000619888306
1783153838085917000,3.4439169921875,0.012765884399414062,-0.01013156771659851,0.001494377851486206
1783153838095627500,3.45362744140625,-0.010989189147949219,0.006691597402095795,0.013330325484275818
1783153838105338400,3.46333837890625,0.003322601318359375,0.004119426012039185,0.0014283061027526855
1783153838115049200,3.47304931640625,0.010334014892578125,0.006121724843978882,0.015561357140541077
1783153838124759800,3.482759765625,0.007805824279785156,0.001255616545677185,-0.010676264762878418
1783153838134470700,3.492470703125,-0.0088043212890625,-0.008237779140472412,0.013018444180488586
1783153838144181500,3.502181396484375,0.0054645538330078125,-0.00109206885099411,0.005657404661178589
1783153838153892000,3.51189208984375,-0.0016880035400390625,-0.01032336801290512,-0.006121277809143066
1783153838163603000,3.52160302734375,-0.0040111541748046875,-0.005675390362739563,-0.0012817978858947754
1783153838183024400,3.5410244140625,0.0078125,-0.012575030326843262,-0.011057645082473755
1783153838192735200,3.5507353515625,-0.004086494445800781,-0.01241961121559143,0.0009868443012237549
1783153838202446000,3.560446044921875,-0.008729934692382812,-0.0051488205790519714,0.010248184204101562
1783153838212156700,3.57015673828125,0.014957427978515625,-0.00023659318685531616,0.014818742871284485
1783153838221867500,3.579867431640625,0.01000213623046875,-0.007180251181125641,-0.0017621815204620361
1783153838231578400,3.589578369140625,0.00042057037353515625,-0.007173158228397369,-0.0064095258712768555
1783153838241289000,3.5992890625,0.009828567504882812,0.02590940147638321,0.0006790459156036377
1783153838260710700,3.618710693359375,-0.007168769836425781,0.0018305703997612,-0.0015177428722381592
1783153838270421200,3.628421142578125,0.002368927001953125,-0.01215171068906784,0.0010078847408294678
1783153838280132000,3.638132080078125,0.002330780029296875,-0.014297597110271454,-0.00839206576347351
1783153838289843000,3.647843017578125,-0.009478569030761719,0.011779643595218658,0.012909695506095886
1783153838299553500,3.657553466796875,-0.0046100616455078125,-0.00966014713048935,0.00572049617767334
1783153838309264400,3.667264404296875,0.011948585510253906,-0.007085323333740234,0.017485350370407104
1783153838318975000,3.67697509765625,0.00704193115234375,0.0070991963148117065,-0.008728742599487305
1783153838328685800,3.686685791015625,0.009275436401367188,0.006869815289974213,0.0006951689720153809
1783153838338396700,3.696396728515625,-0.005002021789550781,0.018522940576076508,-0.011000782251358032
1783153838348107300,3.706107177734375,0.0045013427734375,0.018215425312519073,-0.0036093592643737793
1783153838357818000,3.715818115234375,-0.004986763000488281,0.0011491701006889343,0.001133948564529419
1783153838367529000,3.725529052734375,-0.004901885986328125,0.012789934873580933,-0.012977778911590576
1783153838377239600,3.735239501953125,-0.0048160552978515625,0.024344369769096375,-0.017326384782791138
1783153838386950400,3.744950439453125,-0.011795997619628906,-0.0017871856689453125,0.0019407570362091064
1783153838396661200,3.7546611328125,0.0072422027587890625,-0.020649738609790802,0.009228914976119995
1783153838406371800,3.764371826171875,-0.01171112060546875,0.0009387582540512085,0.004454582929611206
1783153838416082700,3.774082763671875,-0.0020933151245117188,0.003160126507282257,0.011586427688598633
1783153838425793500,3.78379345703125,0.00029850006103515625,-0.006308130919933319,0.01854446530342102
1783153838435504000,3.793504150390625,-0.0044116973876953125,-0.00407516211271286,0.008850306272506714
1783153838445215000,3.803215087890625,-0.00669097900390625,0.0007023513317108154,-0.007744878530502319
1783153838454925800,3.81292578125,-0.004222869873046875,0.0005196481943130493,-0.000522226095199585
1783153838464636400,3.822636474609375,0.0029096603393554688,0.002635762095451355,-0.010013729333877563
1783153838474347300,3.83234716796875,0.0028638839721679688,-0.004472628235816956,-0.0050511956214904785
1783153838484058000,3.84205810546875,0.005167961120605469,0.00042529404163360596,-0.007346421480178833
1783153838493768700,3.851768798828125,-0.009044647216796875,-0.00434894859790802,-0.00736430287361145
1783153838503479600,3.8614794921875,0.0005207061767578125,-0.023167259991168976,0.004446595907211304
1783153838513190400,3.8711904296875,0.000514984130859375,-0.006471231579780579,0.009112566709518433
1783153838522901000,3.88090087890625,-0.0018405914306640625,0.010118737816810608,0.018637359142303467
1783153838532611800,3.89061181640625,0.0005483627319335938,-0.025303244590759277,-0.00972062349319458
1783153838542322700,3.90032275390625,0.000545501708984375,-0.02493874728679657,0.0047682225704193115
1783153838552033300,3.910033203125,0.005251884460449219,-0.005745209753513336,0.019073188304901123
1783153838561744100,3.919744140625,0.0004596710205078125,-0.003349415957927704,0.007073521614074707
1783153838571455000,3.929455078125,-0.0019083023071289062,0.0014206096529960632,-0.007420390844345093
1783153838581165600,3.93916552734375,-0.004221916198730469,0.006280273199081421,-0.0021571218967437744
1783153838590876400,3.94887646484375,-0.011214256286621094,0.0015222206711769104,0.002617567777633667
1783153838600587300,3.958587158203125,0.005452156066894531,-0.0010268166661262512,0.01667390763759613
1783153838610297900,3.9682978515625,0.0030088424682617188,-0.005716890096664429,-0.002405881881713867
1783153838620008700,3.9780087890625,-0.01587963104248047,-0.012684538960456848,0.01862543821334839
1783153838629719600,3.987719482421875,0.0008668899536132812,-0.012527287006378174,-0.00042936205863952637
1783153838639430100,3.99743017578125,-0.008557319641113281,-0.0031265318393707275,0.009140700101852417
1783153838658851800,4.016851806640625,0.003337860107421875,-0.016972623765468597,0.011025279760360718
1783153838668562400,4.0265625,-0.003780364990234375,-0.007213331758975983,0.008519679307937622
1783153838678273300,4.036273193359375,0.0009965896606445312,-0.009736672043800354,-0.0033073127269744873
1783153838687984000,4.045984130859375,0.0009832382202148438,-0.026109464466571808,-0.003163635730743408
1783153838697694700,4.05569482421875,0.00096893310546875,0.0024588927626609802,0.006335616111755371
1783153838707405600,4.065405517578125,0.0009517669677734375,0.00035241246223449707,0.003965646028518677
1783153838717116400,4.075116455078125,0.0009355545043945312,-0.008958324790000916,-0.007841020822525024
1783153838726827000,4.084826904296875,0.003276824951171875,-0.004154779016971588,-0.0005585849285125732
1783153838736537900,4.094537841796875,0.005572319030761719,-0.0062663257122039795,0.0064318180084228516
1783153838746248700,4.104248779296875,0.0054779052734375,-0.006163746118545532,-0.012592315673828125
1783153838755959300,4.113959228515625,-0.018156051635742188,0.005881838500499725,-0.005345076322555542
1783153838765670100,4.123670166015625,-0.006087303161621094,0.013021327555179596,-0.007691025733947754
1783153838775381000,4.133381103515625,-0.008341789245605469,0.0036147311329841614,-0.009886026382446289
1783153838785091600,4.143091552734375,0.008275985717773438,0.003615647554397583,0.0067341625690460205
1783153838794802400,4.152802490234375,0.012841224670410156,-0.00580790638923645,0.00883522629737854
1783153838804513300,4.16251318359375,0.0008554458618164062,-0.017420947551727295,0.006309807300567627
1783153838814224000,4.172223876953125,-0.0015125274658203125,-0.024132035672664642,0.008591800928115845
1783153838823934700,4.181934814453125,-0.010905265808105469,-0.002543918788433075,-0.005703061819076538
1783153838833645600,4.1916455078125,0.0034046173095703125,-0.0001984238624572754,-0.014934390783309937
1783153838843356200,4.201356201171875,-0.0013599395751953125,-0.01908744126558304,-0.005295157432556152
1783153838853067000,4.21106689453125,0.0010242462158203125,-0.00021745264530181885,-0.009769231081008911
1783153838862777900,4.22077783203125,-0.006056785583496094,-0.02403751015663147,0.004323482513427734
1783153838872488400,4.230488525390625,0.003467559814453125,-0.0002597719430923462,0.006809830665588379
1783153838882199300,4.24019921875,0.0034046173095703125,0.006868310272693634,-0.007566571235656738
1783153838891910100,4.24991015625,-0.008416175842285156,-0.005128182470798492,0.006830751895904541
1783153838901620700,4.259620849609375,0.0011377334594726562,0.008969895541667938,0.006577908992767334
1783153838911331600,4.26933154296875,0.012898445129394531,-0.0007104948163032532,-0.012106716632843018
1783153838921042400,4.27904248046875,0.010331153869628906,-0.0006390288472175598,0.02349717915058136
1783153838930753300,4.288753173828125,0.010159492492675781,-0.0005103349685668945,-0.0003466010093688965
1783153838940463900,4.2984638671875,0.005278587341308594,-0.0004990994930267334,0.008994489908218384
1783153838950174700,4.3081748046875,-0.013640403747558594,0.004105038940906525,-0.007603108882904053
1783153838959885600,4.317885498046875,0.005420684814453125,0.006392024457454681,0.009034663438796997
1783153838969596200,4.32759619140625,-0.001728057861328125,-0.0007743686437606812,-0.009860306978225708
1783153838979307000,4.33730712890625,0.0030107498168945312,0.02037063241004944,-0.007253199815750122
1783153838989017900,4.347017822265625,0.005312919616699219,-0.0036787912249565125,0.0068544745445251465
1783153838998728400,4.356728515625,-0.006552696228027344,-0.00338871031999588,-0.00046136975288391113
1783153839008439300,4.366439208984375,-0.006442070007324219,-0.0033833160996437073,0.0184134840965271
1783153839018150100,4.376150146484375,-0.001621246337890625,0.008675873279571533,-0.0004664957523345947
1783153839027860700,4.38586083984375,0.010176658630371094,-0.010185793042182922,0.008990377187728882
1783153839037571600,4.395571533203125,-0.006474494934082031,-0.012544289231300354,-0.01719653606414795
1783153839047282400,4.405282470703125,0.012470245361328125,-0.0029172301292419434,-0.014410316944122314
1783153839056993000,4.414992919921875,0.00048828125,-0.012224234640598297,0.009290993213653564
1783153839066704000,4.424703857421875,0.012248992919921875,-0.0024902671575546265,-0.0003065168857574463
1783153839076414700,4.434414794921875,-0.006785392761230469,-0.00009490549564361572,0.009203314781188965
1783153839086125600,4.44412548828125,-0.004321098327636719,-0.009339772164821625,0.016086623072624207
1783153839095836200,4.453836181640625,-0.008957862854003906,-0.018544331192970276,0.004021644592285156
1783153839105547000,4.463547119140625,-0.004099845886230469,0.005427807569503784,0.0016914904117584229
1783153839115257900,4.4732578125,-0.004027366638183594,-0.004190482199192047,-0.03120627999305725
1783153839124968400,4.482968505859375,-0.011021614074707031,0.017183631658554077,0.000007569789886474609
1783153839134679300,4.49267919921875,-0.010838508605957031,0.007370948791503906,0.011697530746459961
1783153839144390100,4.50239013671875,0.0034656524658203125,0.021432913839817047,0.00676959753036499
1783153839154100700,4.512100830078125,0.008114814758300781,-0.00016624480485916138,0.004164189100265503
1783153839163811600,4.5218115234375,-0.001430511474609375,-0.0028009042143821716,0.008948653936386108
1783153839173522400,4.5315224609375,0.000942230224609375,0.006722189486026764,-0.005464047193527222
1783153839183233000,4.54123291015625,-0.020256996154785156,-0.005390241742134094,0.006485313177108765
1783153839192943900,4.55094384765625,-0.0010852813720703125,-0.0028312355279922485,-0.000653684139251709
1783153839202654700,4.56065478515625,-0.015194892883300781,-0.01696339249610901,-0.0007811784744262695
1783153839212365300,4.570365234375,0.008604049682617188,-0.007150441408157349,0.013558730483055115
1783153839222076200,4.580076171875,-0.008013725280761719,0.007038235664367676,0.0017640888690948486
1783153839231787000,4.589787109375,-0.005527496337890625,-0.0024393051862716675,0.01818820834159851
1783153839241497600,4.59949755859375,0.003975868225097656,-0.01876305788755417,-0.0010875165462493896
1783153839251208400,4.60920849609375,-0.010216712951660156,0.005206599831581116,0.008322209119796753
1783153839260919300,4.618919189453125,-0.0053348541259765625,-0.004178933799266815,0.008330166339874268
1783153839270630100,4.628630126953125,-0.005248069763183594,0.005310222506523132,-0.008369505405426025
1783153839280340700,4.6383408203125,-0.005160331726074219,-0.0066049471497535706,-0.008255213499069214
1783153839290051600,4.648051513671875,0.004342079162597656,-0.004191756248474121,0.005984216928482056
1783153839299762400,4.657762451171875,0.0066242218017578125,-0.011184819042682648,0.020040690898895264
1783153839309473000,4.66747314453125,-0.0005474090576171875,0.0008291304111480713,0.007966727018356323
1783153839319184000,4.677183837890625,0.006522178649902344,-0.011237353086471558,-0.00878375768661499
1783153839338605300,4.696605224609375,-0.019474029541015625,0.0004649534821510315,0.000757366418838501
1783153839348316200,4.706316162109375,-0.0003108978271484375,-0.006487369537353516,-0.0014059245586395264
1783153839358027000,4.716027099609375,0.006749153137207031,-0.0016757622361183167,-0.011054515838623047
1783153839367737600,4.725737548828125,0.001934051513671875,-0.008881404995918274,-0.001365572214126587
1783153839377448400,4.735448486328125,-0.00044918060302734375,0.017107099294662476,-0.00831681489944458
1783153839387159300,4.7451591796875,-0.00044345855712890625,-0.00442146509885788,0.015281662344932556
1783153839396870000,4.754869873046875,0.008989334106445312,-0.00687447190284729,0.010576516389846802
1783153839406580700,4.764580810546875,-0.002925872802734375,0.00724966824054718,-0.022357434034347534
1783153839416291600,4.77429150390625,-0.014646530151367188,0.007299154996871948,0.006353467702865601
1783153839426002200,4.784002197265625,-0.000274658203125,0.0025287121534347534,0.0016852319240570068
1783153839435713000,4.793713134765625,0.002086639404296875,0.018973276019096375,-0.024147987365722656
1783153839445423900,4.803423828125,-0.009713172912597656,-0.004883706569671631,-0.011772185564041138
1783153839455134700,4.813134765625,0.00928497314453125,0.00008253008127212524,-0.004366129636764526
1783153839464845300,4.82284521484375,-0.0026397705078125,-0.011742427945137024,0.009864747524261475
1783153839474556200,4.83255615234375,-0.000240325927734375,-0.021072998642921448,0.014384761452674866
1783153839484267000,4.84226708984375,-0.009656906127929688,0.002938218414783478,0.01406414806842804
1783153839493977600,4.8519775390625,-0.011846542358398438,-0.03483204543590546,0.011564701795578003
1783153839503688400,4.8616884765625,0.004832267761230469,-0.008354142308235168,0.025585681200027466
1783153839513399300,4.8713994140625,0.004754066467285156,-0.003445357084274292,-0.005355536937713623
1783153839523110000,4.88110986328125,-0.004740715026855469,0.010739974677562714,0.006536990404129028
1783153839532820700,4.89082080078125,-0.004660606384277344,-0.0012072771787643433,-0.0006022453308105469
1783153839542531600,4.900531494140625,-0.004573822021484375,0.01271018385887146,0.006728917360305786
1783153839552242200,4.9102421875,0.00020694732666015625,0.005547642707824707,0.008887618780136108
1783153839561953000,4.919953125,0.004912376403808594,0.017113611102104187,0.004005879163742065
1783153839571664000,4.929663818359375,-0.009297370910644531,0.009648650884628296,0.015569224953651428
1783153839581374500,4.93937451171875,-0.004433631896972656,-0.011872425675392151,0.0011012256145477295
1783153839591085300,4.949085205078125,0.00740814208984375,-0.0024287253618240356,-0.006119340658187866
1783153839600796200,4.958796142578125,0.0025777816772460938,0.002491973340511322,0.01055055856704712
1783153839610506800,4.9685068359375,-0.009234428405761719,-0.004723168909549713,-0.0013639628887176514
1783153839620217600,4.978217529296875,-0.009077072143554688,-0.000044032931327819824,0.024645358324050903
1783153839629928400,4.987928466796875,0.0028467178344726562,0.0023659169673919678,0.003134101629257202
1783153839639639300,4.997639404296875,-0.004265785217285156,-0.011857420206069946,-0.013537704944610596
1783153839649350000,5.007349853515625,-0.0065479278564453125,-0.0023586079478263855,0.005495011806488037
1783153839659060700,5.017060791015625,0.007686614990234375,-0.004501663148403168,0.010257244110107422
1783153839668771600,5.026771484375,0.0004930496215820312,0.014400511980056763,-0.004180967807769775
1783153839678482200,5.036482177734375,0.00047969818115234375,-0.007198236882686615,0.007406324148178101
1783153839688193000,5.046193115234375,-0.0042324066162109375,0.009346961975097656,0.0003663301467895508
1783153839697903900,5.05590380859375,0.0052585601806640625,-0.011877059936523438,-0.006498187780380249
1783153839707614500,5.065614501953125,0.005167961120605469,0.007212541997432709,-0.011180371046066284
1783153839717325300,5.0753251953125,-0.006686210632324219,-0.009332031011581421,0.0008642375469207764
1783153839727036200,5.0850361328125,0.005200386047363281,0.00018002837896347046,-0.015486061573028564
1783153839736746800,5.094746826171875,0.007464408874511719,0.012122906744480133,-0.01525193452835083
1783153839746457600,5.10445751953125,-0.0020761489868164062,-0.009319528937339783,0.020291268825531006
1783153839756168400,5.11416845703125,-0.0020437240600585938,-0.011578656733036041,0.0010355114936828613
1783153839765879000,5.123879150390625,-0.009073257446289062,-0.011326082050800323,0.010410428047180176
1783153839775590000,5.13358984375,-0.008925437927246094,-0.003961294889450073,0.0030916035175323486
1783153839785300700,5.14330078125,0.005347251892089844,-0.00383719801902771,-0.0064018964767456055
1783153839795011600,5.153011474609375,-0.0018033981323242188,-0.013191893696784973,-0.015681594610214233
1783153839804722200,5.16272216796875,-0.008836746215820312,0.01533488929271698,-0.013091832399368286
1783153839814433000,5.17243310546875,-0.006335258483886719,-0.006047338247299194,0.005935937166213989
1783153839824144000,5.182143798828125,-0.0038747787475585938,0.010420277714729309,0.0034576058387756348
1783153839833854500,5.1918544921875,0.0032606124877929688,0.005424134433269501,0.0013042986392974854
1783153839843565300,5.2015654296875,-0.010912895202636719,-0.0018967464566230774,-0.005634009838104248
1783153839853276200,5.211276123046875,-0.010731697082519531,-0.0016902536153793335,0.003909558057785034
1783153839862986800,5.22098681640625,-0.0011386871337890625,0.0009177401661872864,0.008583217859268188
1783153839872697600,5.230697509765625,0.013009071350097656,0.005446009337902069,-0.005651533603668213
1783153839882408400,5.240408447265625,0.01043701171875,0.0003636851906776428,-0.010461539030075073
1783153839892119000,5.250119140625,0.012624740600585938,-0.016177430748939514,0.011159718036651611
1783153839901830000,5.259829833984375,-0.008769035339355469,-0.004361577332019806,-0.0077706873416900635
1783153839911540700,5.269540771484375,0.010205268859863281,-0.016057148575782776,0.003877699375152588
1783153839921251300,5.279251220703125,0.005320549011230469,-0.015450134873390198,-0.010338544845581055
1783153839930962200,5.288962158203125,0.007586479187011719,0.024829931557178497,0.015761598944664
1783153839940673000,5.298673095703125,0.002750396728515625,-0.008712098002433777,-0.003473609685897827
1783153839950383600,5.308383544921875,-0.004361152648925781,0.005731649696826935,-0.001086115837097168
1783153839960094500,5.318094482421875,-0.016056060791015625,0.017472833395004272,-0.015044689178466797
1783153839969805300,5.327805419921875,-0.0016622543334960938,-0.017961032688617706,-0.002878159284591675
1783153839979516200,5.33751611328125,0.019552230834960938,-0.0035937055945396423,0.01121222972869873
1783153839989226800,5.347226806640625,-0.023146629333496094,-0.003478795289993286,0.006461113691329956
1783153839998937600,5.3569375,0.005489349365234375,-0.005882970988750458,-0.0030867159366607666
1783153840008648400,5.3666484375,-0.022857666015625,-0.012672625482082367,0.0015353858470916748
1783153840018359000,5.376359130859375,0.0010671615600585938,-0.0004571378231048584,-0.0030513405799865723
1783153840028070000,5.38606982421875,0.008111000061035156,0.00891159474849701,-0.0006715059280395508
1783153840037780700,5.39578076171875,0.0056247711181640625,0.008888743817806244,0.006552010774612427
1783153840047491300,5.4054912109375,-0.0015306472778320312,0.02740628272294998,0.011126607656478882
1783153840057202200,5.4152021484375,-0.010919570922851562,-0.008305370807647705,0.011029690504074097
1783153840066913000,5.4249130859375,-0.0060253143310546875,0.010549485683441162,0.006224125623703003
1783153840076623600,5.43462353515625,-0.001220703125,0.010657697916030884,0.0037403404712677
1783153840086334500,5.44433447265625,-0.012965202331542969,0.00336485356092453,-0.00318107008934021
1783153840096045300,5.45404541015625,0.0037288665771484375,0.008070655167102814,0.018032610416412354
1783153840105756000,5.463755859375,-0.0034027099609375,-0.005958817899227142,-0.010656625032424927
1783153840115466800,5.473466796875,-0.0033512115478515625,-0.010511353611946106,0.012866511940956116
1783153840125177600,5.483177490234375,0.0061187744140625,-0.012742981314659119,0.0031543970108032227
1783153840134888400,5.492888427734375,-0.01752948760986328,-0.01258627325296402,0.007614433765411377
1783153840144599000,5.50259912109375,-0.0054645538330078125,0.015987291932106018,0.0005128383636474609
1783153840154310000,5.512309814453125,-0.00301361083984375,-0.00787680596113205,-0.004001826047897339
1783153840164020700,5.522020751953125,-0.0029630661010742188,0.0017323866486549377,0.0008061528205871582
1783153840173731300,5.5317314453125,-0.0005578994750976562,0.0017631053924560547,-0.008534908294677734
1783153840183442200,5.541442138671875,0.0065174102783203125,-0.0006146878004074097,0.015296533703804016
1783153840193153000,5.551153076171875,0.004055023193359375,0.0016940832138061523,-0.013233959674835205
1783153840202863600,5.560863525390625,-0.0148468017578125,-0.012459665536880493,-0.003679335117340088
1783153840212574500,5.570574462890625,-0.007537841796875,0.016225509345531464,0.0035324692726135254
1783153840222285300,5.580285400390625,0.00200653076171875,-0.009993702173233032,-0.0035561025142669678
1783153840231996000,5.589995849609375,-0.007447242736816406,0.015953436493873596,-0.0012828409671783447
1783153840241706800,5.599706787109375,-0.0049648284912109375,-0.0009028464555740356,-0.0035264790058135986
1783153840251417600,5.60941748046875,0.0021848678588867188,-0.008176654577255249,0.0036833882331848145
1783153840261128200,5.619128173828125,-0.009626388549804688,-0.0032139867544174194,-0.015292435884475708
1783153840270839000,5.628839111328125,-0.00004863739013671875,-0.007979825139045715,-0.012707918882369995
1783153840280550000,5.6385498046875,0.011723518371582031,-0.014848291873931885,-0.010165899991989136
1783153840290260500,5.648260498046875,-0.007306098937988281,0.016121752560138702,-0.0029009878635406494
1783153840299971300,5.657971435546875,-0.002475738525390625,0.00391571968793869,-0.0052877068519592285
1783153840309682200,5.66768212890625,-0.0024261474609375,0.022513113915920258,-0.014357894659042358
1783153840319393000,5.67739306640625,-0.0000324249267578125,-0.0037601441144943237,-0.004728257656097412
1783153840329103600,5.687103515625,-0.009439468383789062,-0.011035516858100891,0.004972696304321289
1783153840338814500,5.696814453125,0.004839897155761719,0.0008053258061408997,0.007104456424713135
1783153840348525300,5.706525390625,0.0000514984130859375,-0.0063832104206085205,-0.004810124635696411
1783153840358236000,5.71623583984375,-0.0070133209228515625,0.012559495866298676,0.016376331448554993
1783153840367946800,5.72594677734375,-0.0021886825561523438,0.014485783874988556,0.0018423795700073242
1783153840377657600,5.73565771484375,0.0025548934936523438,0.0024806931614875793,-0.007684677839279175
1783153840387368200,5.7453681640625,-0.011607170104980469,0.00715048611164093,0.0020630359649658203
1783153840397079000,5.7550791015625,0.0003566741943359375,0.009332917630672455,-0.00976628065109253
1783153840406790000,5.764789794921875,-0.0161285400390625,0.004414848983287811,0.004497051239013672
1783153840416500500,5.77450048828125,-0.006445884704589844,-0.009778112173080444,-0.007485926151275635
1783153840426211300,5.78421142578125,-0.018108367919921875,0.00009329617023468018,0.002203524112701416
1783153840435922200,5.793922119140625,-0.008388519287109375,0.0069849565625190735,0.002141594886779785
1783153840445632800,5.8036328125,-0.01059722900390625,-0.005013428628444672,-0.014227509498596191
1783153840455343600,5.813343505859375,0.013124465942382812,-0.0026313364505767822,0.01199430227279663
1783153840465054500,5.823054443359375,-0.010641098022460938,-0.009593553841114044,0.006946444511413574
1783153840474765000,5.83276513671875,-0.012824058532714844,0.01176144927740097,-0.005190461874008179
1783153840484476000,5.842475830078125,-0.0031909942626953125,-0.012144386768341064,0.0043450891971588135
1783153840494186800,5.852186767578125,0.0015649795532226562,-0.004821330308914185,0.0017795860767364502
1783153840503897600,5.861897705078125,-0.00316619873046875,0.0043973252177238464,-0.012398570775985718
1783153840513608200,5.871608154296875,-0.007815361022949219,-0.012264780700206757,0.002136707305908203
1783153840523319000,5.881319091796875,-0.005330085754394531,-0.007237061858177185,-0.0001645982265472412
1783153840533030000,5.89102978515625,0.008881568908691406,-0.0001049041748046875,-0.00024202466011047363
1783153840542740500,5.900740478515625,-0.010101318359375,0.014080092310905457,0.006742537021636963
1783153840552451300,5.910451416015625,-0.012288093566894531,-0.0005582347512245178,-0.02175721526145935
1783153840562162200,5.920162109375,-0.009728431701660156,-0.00043095648288726807,-0.0024712681770324707
1783153840571872800,5.929872802734375,-0.0024938583374023438,0.004115261137485504,-0.0021141767501831055
1783153840581583600,5.93958349609375,-0.011868476867675781,0.0038803964853286743,-0.0021597445011138916
1783153840591294500,5.94929443359375,-0.009319305419921875,0.0062279775738716125,-0.004560023546218872
1783153840601005000,5.959005126953125,-0.002101898193359375,0.013244830071926117,0.009672820568084717
1783153840610716000,5.9687158203125,-0.0020618438720703125,0.024744026362895966,0.016721442341804504
1783153840620426800,5.9784267578125,0.0003261566162109375,-0.010921739041805267,-0.002358555793762207
1783153840630137600,5.9881376953125,0.0026731491088867188,0.015047028660774231,-0.007108420133590698
1783153840639848200,5.99784814453125,0.009688377380371094,-0.006330400705337524,-0.016487538814544678
1783153840649559000,6.00755908203125,-0.006951332092285156,0.000777415931224823,0.002593696117401123
1783153840659270000,6.017269775390625,-0.002124786376953125,0.007885105907917023,0.0002847611904144287
1783153840678691300,6.03669140625,0.0001773834228515625,0.0029187798500061035,0.023614659905433655
1783153840688402200,6.046402099609375,0.00959014892578125,-0.01125231385231018,0.0020087361335754395
1783153840698112800,6.05611279296875,0.0023746490478515625,-0.013362452387809753,-0.018954098224639893
1783153840707823600,6.06582373046875,-0.007079124450683594,-0.008483923971652985,-0.0021258890628814697
1783153840717534500,6.075534423828125,-0.009310722351074219,0.015145324170589447,0.00040969252586364746
1783153840727245000,6.0852451171875,-0.011510848999023438,0.0029541105031967163,0.007327169179916382
1783153840736956000,6.094955810546875,0.00045490264892578125,-0.0018023177981376648,-0.016191571950912476
1783153840746666800,6.104666748046875,-0.004263877868652344,0.0053437501192092896,-0.0018805265426635742
1783153840756377300,6.11437744140625,0.000518798828125,0.021675340831279755,-0.01353299617767334
1783153840766088200,6.124088134765625,-0.0018405914306640625,0.004774428904056549,0.015029504895210266
1783153840775799000,6.133799072265625,-0.006518363952636719,-0.011668093502521515,0.010102897882461548
1783153840785509600,6.143509521484375,-0.001697540283203125,0.004891723394393921,-0.0017486214637756348
1783153840795220500,6.153220458984375,0.010105133056640625,0.0024003535509109497,-0.0015741288661956787
1783153840804931300,6.162931396484375,-0.013601303100585938,-0.018769383430480957,0.005660027265548706
1783153840814642000,6.172641845703125,-0.0016021728515625,-0.006684362888336182,0.012659937143325806
1783153840824352800,6.182352783203125,0.017258644104003906,-0.01834121346473694,0.024252191185951233
1783153840834063600,6.192063720703125,-0.0018634796142578125,-0.0015518665313720703,0.0049904584884643555
1783153840843774200,6.201774169921875,-0.0041866302490234375,0.003294214606285095,0.0073487162590026855
1783153840853485000,6.211485107421875,-0.006470680236816406,0.00800575315952301,-0.011575669050216675
1783153840863196000,6.22119580078125,-0.006359100341796875,-0.023013733327388763,-0.016058892011642456
1783153840872906800,6.23090673828125,-0.006249427795410156,0.010048635303974152,0.010137826204299927
1783153840882617300,6.240617431640625,-0.015562057495117188,0.009823977947235107,0.0052345991134643555
1783153840892328200,6.250328125,0.00823974609375,0.009490907192230225,-0.0090598464012146
1783153840902039000,6.2600390625,-0.0036668777465820312,0.0139240100979805,-0.008879125118255615
1783153840911749600,6.26974951171875,-0.00595855712890625,0.01828940212726593,-0.015818297863006592
1783153840921460500,6.27946044921875,-0.005858421325683594,0.008395366370677948,-0.008518576622009277
1783153840931171300,6.28917138671875,-0.010474205017089844,0.0037234053015708923,-0.001450955867767334
1783153840940882000,6.2988818359375,0.003818511962890625,0.0011915788054466248,-0.011097431182861328
1783153840950592800,6.3085927734375,-0.0033130645751953125,-0.008246943354606628,0.010078221559524536
1783153840960303600,6.3183037109375,-0.0009069442749023438,-0.015001900494098663,0.0004107654094696045
1783153840970014200,6.32801416015625,-0.0032482147216796875,0.006380259990692139,-0.004386484622955322
1783153840979725000,6.33772509765625,0.0062255859375,-0.0243893563747406,0.00048223137855529785
1783153840989436000,6.347435791015625,-0.008001327514648438,-0.005258694291114807,0.0052155256271362305
1783153840999146500,6.357146484375,-0.014943122863769531,-0.002754203975200653,-0.009417712688446045
1783153841008857300,6.366857421875,-0.0029230117797851562,0.004300199449062347,0.007194072008132935
1783153841018568200,6.376568115234375,-0.0028743743896484375,0.0066991448402404785,-0.0023103058338165283
1783153841028278800,6.38627880859375,-0.009881973266601562,-0.0007550343871116638,0.01900571584701538
1783153841037989600,6.39598974609375,-0.0026578903198242188,-0.014751218259334564,0.009247630834579468
1783153841047700500,6.405700439453125,0.0020895004272460938,0.001979812979698181,0.006545513868331909
1783153841057411000,6.4154111328125,-0.0026578903198242188,-0.0028725191950798035,0.010949760675430298
1783153841067122000,6.425121826171875,0.0020990371704101562,0.004242211580276489,0.008559703826904297
1783153841076832800,6.434832763671875,0.013829231262207031,-0.009835734963417053,0.005925238132476807
1783153841086543400,6.44454345703125,-0.009939193725585938,-0.002835378050804138,0.0010928809642791748
1783153841096254200,6.454254150390625,0.009063720703125,-0.009903289377689362,-0.003487110137939453
1783153841105965000,6.463965087890625,0.008917808532714844,0.0020339488983154297,0.001481562852859497
1783153841115675600,6.473675537109375,0.0017118453979492188,-0.007589124143123627,-0.003164321184158325
1783153841125386500,6.483386474609375,0.013458251953125,-0.014696083962917328,0.018164008855819702
1783153841135097300,6.493097412109375,0.001468658447265625,-0.023811422288417816,-0.0031249523162841797
1783153841144808000,6.502807861328125,-0.012677192687988281,-0.006987765431404114,-0.007634669542312622
1783153841154518800,6.512518798828125,0.0016584396362304688,0.014319196343421936,0.013598963618278503
1783153841164229600,6.522229736328125,0.0016307830810546875,0.01184430718421936,-0.003074139356613159
1783153841173940200,6.531940185546875,-0.014879226684570312,-0.009482838213443756,0.008666038513183594
1783153841183651000,6.541651123046875,0.0018529891967773438,-0.004444673657417297,0.0017180144786834717
1783153841193362000,6.55136181640625,-0.0005254745483398438,0.0028683096170425415,-0.005055457353591919
1783153841203072500,6.561072509765625,0.013608932495117188,-0.01819554716348648,-0.00011748075485229492
1783153841212783400,6.570783447265625,-0.005455970764160156,0.005816809833049774,-0.009673118591308594
1783153841222494200,6.580494140625,-0.0006570816040039062,0.0010157302021980286,0.014006122946739197
1783153841232204800,6.590204833984375,0.00876617431640625,0.0011167600750923157,-0.00985005497932434
1783153841241915600,6.59991552734375,0.006262779235839844,0.013040877878665924,-0.01447632908821106
1783153841251626500,6.60962646484375,0.010865211486816406,0.012996792793273926,0.006985008716583252
1783153841261337000,6.619337158203125,0.008336067199707031,-0.010812841355800629,0.009426891803741455
1783153841271048000,6.6290478515625,0.01055145263671875,0.005964718759059906,-0.00476565957069397
1783153841280758800,6.6387587890625,-0.0013885498046875,0.005754359066486359,-0.011602848768234253
1783153841290469600,6.6484697265625,-0.008428573608398438,-0.006052941083908081,0.002691119909286499
1783153841300180200,6.65818017578125,0.008190155029296875,0.00811900943517685,-0.009149312973022461
1783153841309891000,6.66789111328125,0.0009899139404296875,-0.02009493112564087,0.007514208555221558
1783153841319602000,6.677601806640625,0.0056896209716796875,-0.0009836256504058838,0.0005847513675689697
1783153841329312500,6.6873125,-0.0014657974243164062,0.010691270232200623,-0.013518542051315308
1783153841339023400,6.6970234375,0.003265380859375,-0.005912870168685913,0.003159046173095703
1783153841348734200,6.706734130859375,0.0032129287719726562,-0.0012199655175209045,0.014908388257026672
1783153841358444800,6.71644482421875,0.00551605224609375,0.005748935043811798,0.0052741169929504395
1783153841368155600,6.72615576171875,-0.011052131652832031,-0.015419766306877136,-0.006439387798309326
1783153841377866500,6.735866455078125,-0.00380706787109375,-0.0010440871119499207,0.007764697074890137
1783153841387577000,6.7455771484375,-0.008451461791992188,-0.015322744846343994,-0.018343597650527954
1783153841397288000,6.755287841796875,-0.008303642272949219,0.006063230335712433,-0.015482127666473389
1783153841406998800,6.764998779296875,0.010668754577636719,-0.00827086716890335,0.008351415395736694
1783153841416709400,6.77470947265625,-0.013047218322753906,-0.005888223648071289,-0.008177369832992554
1783153841426420200,6.784420166015625,-0.012829780578613281,0.0013351738452911377,-0.008007526397705078
1783153841436131000,6.794131103515625,-0.0008459091186523438,-0.0010369792580604553,0.013232916593551636
1783153841445841700,6.803841552734375,0.008587837219238281,0.008287698030471802,-0.008085638284683228
1783153841455552500,6.813552490234375,-0.010382652282714844,-0.008382357656955719,0.0016124844551086426
1783153841465263400,6.823263427734375,0.008620262145996094,0.0034742355346679688,0.01557256281375885
1783153841474974000,6.832973876953125,0.0037698745727539062,-0.0011172443628311157,0.006042778491973877
1783153841484684800,6.842684814453125,-0.003353118896484375,0.012974008917808533,0.01539178192615509
1783153841494395600,6.852395751953125,-0.005645751953125,-0.006472505629062653,0.010458499193191528
1783153841504106200,6.862106201171875,-0.0149688720703125,0.028894223272800446,-0.0038655996322631836
1783153841513817000,6.871817138671875,-0.005299568176269531,-0.00925484299659729,0.0033492445945739746
1783153841523528000,6.88152783203125,0.011263847351074219,-0.018513105809688568,0.017280980944633484
1783153841533238500,6.891238525390625,-0.00069427490234375,0.002758599817752838,-0.001922011375427246
1783153841542949400,6.900949462890625,-0.00067901611328125,0.0075359046459198,0.0030205845832824707
1783153841552660200,6.91066015625,-0.005367279052734375,-0.011591054499149323,-0.003832697868347168
1783153841562370800,6.920370849609375,-0.0076274871826171875,-0.01604977250099182,0.012855231761932373
1783153841572081700,6.93008154296875,0.004268646240234375,-0.004008546471595764,-0.0015087723731994629
1783153841581792500,6.93979248046875,0.00420379638671875,0.0007079243659973145,0.0034256577491760254
1783153841591503000,6.949503173828125,-0.000568389892578125,0.009994268417358398,0.005865514278411865
1783153841601214000,6.9592138671875,-0.0029144287109375,0.01666412502527237,0.010337293148040771
1783153841610924800,6.9689248046875,0.0018396377563476562,-0.007095992565155029,0.005375206470489502
1783153841620635400,6.978635498046875,-0.0052509307861328125,0.007260799407958984,0.0007219016551971436
1783153841630346200,6.98834619140625,0.0018987655639648438,0.021379858255386353,0.0007415115833282471
1783153841640057000,6.99805712890625,0.0065765380859375,0.01855839043855667,0.019538164138793945
1783153841649767700,7.007767578125,0.0017681121826171875,0.004012949764728546,0.007758051156997681
1783153841659478500,7.017478515625,-0.002971649169921875,-0.019596248865127563,0.009900301694869995
1783153841669189400,7.027189453125,0.004139900207519531,0.011279292404651642,-0.0020608901977539062
1783153841678900000,7.03689990234375,-0.005336761474609375,-0.0006800293922424316,-0.0040655434131622314
1783153841688610800,7.04661083984375,0.0018215179443359375,-0.010139577090740204,0.015038624405860901
1783153841698321700,7.05632177734375,-0.017042160034179688,-0.0007262080907821655,0.019413024187088013
1783153841708032300,7.0660322265625,0.00443267822265625,-0.012376360595226288,-0.008961349725723267
1783153841717743000,7.0757431640625,-0.00034236907958984375,-0.0028673186898231506,-0.0039021074771881104
1783153841727454000,7.085453857421875,-0.009752273559570312,-0.00034583359956741333,-0.006100833415985107
1783153841737164500,7.09516455078125,0.004532814025878906,-0.01693037897348404,-0.0013721585273742676
1783153841746875400,7.10487548828125,0.006806373596191406,-0.002638585865497589,0.007813632488250732
1783153841756586200,7.114586181640625,0.011396408081054688,-0.014362849295139313,0.0051909685134887695
1783153841766296800,7.124296875,0.0041484832763671875,0.002185046672821045,-0.013641297817230225
1783153841776007700,7.134007568359375,-0.012399673461914062,-0.0026691704988479614,0.0030415356159210205
1783153841785718500,7.143718505859375,-0.007480621337890625,-0.0002662092447280884,-0.018107175827026367
1783153841795429000,7.15342919921875,-0.00029087066650390625,0.01857147365808487,-0.008300751447677612
1783153841805140000,7.163139892578125,0.002071380615234375,0.004027366638183594,-0.0010100603103637695
1783153841814850800,7.172850830078125,-0.0003185272216796875,-0.005515269935131073,-0.015201717615127563
1783153841824561400,7.1825615234375,-0.0026712417602539062,0.011229299008846283,-0.0008477270603179932
1783153841834272300,7.192272216796875,0.00208282470703125,-0.007785595953464508,0.010970979928970337
1783153841843983000,7.201983154296875,-0.014431953430175781,-0.0005966871976852417,0.0013442039489746094
1783153841853693700,7.211693603515625,0.00699615478515625,0.01107332855463028,-0.0034679770469665527
1783153841863404500,7.221404541015625,0.016297340393066406,-0.007829926908016205,-0.003321707248687744
1783153841873115400,7.231115478515625,-0.000453948974609375,-0.007586099207401276,0.0061814188957214355
1783153841882826000,7.240825927734375,-0.0027980804443359375,0.03279333561658859,-0.0054891109466552734
1783153841892536800,7.250536865234375,-0.0027570724487304688,-0.01477757841348648,0.0014698803424835205
1783153841902247700,7.26024755859375,0.0043487548828125,-0.004941225051879883,0.008483409881591797
1783153841911958300,7.269958251953125,-0.0004291534423828125,-0.00037664175033569336,0.0059626102447509766
1783153841921669000,7.279669189453125,0.016054153442382812,0.013757564127445221,-0.00604596734046936
1783153841931380000,7.2893798828125,0.001659393310546875,-0.01707354187965393,0.015218004584312439
1783153841941090600,7.299090576171875,0.006344795227050781,-0.00024847686290740967,0.003396838903427124
1783153841950801400,7.308801513671875,0.0038852691650390625,-0.00024159252643585205,-0.010752648115158081
1783153841960512300,7.31851220703125,0.008523941040039062,-0.00735270231962204,-0.006059497594833374
1783153841970222800,7.328222900390625,0.0060291290283203125,-0.019118264317512512,0.010493725538253784
1783153841979933700,7.33793359375,-0.0058460235595703125,-0.006744749844074249,-0.006186395883560181
1783153841989644300,7.347644287109375,-0.005748748779296875,-0.0181732177734375,0.010485202074050903
1783153841999355100,7.357355224609375,0.0014162063598632812,-0.010854125022888184,-0.008317142724990845
1783153842009066000,7.36706591796875,-0.0009593963623046875,-0.005903691053390503,-0.015151351690292358
1783153842018776600,7.376776611328125,-0.0056552886962890625,-0.0011556446552276611,0.010857164859771729
1783153842028487400,7.3864873046875,0.0085601806640625,0.003683812916278839,0.00823870301246643
1783153842038198300,7.3961982421875,-0.0009965896606445312,-0.008264131844043732,-0.00363922119140625
1783153842047908900,7.405908935546875,0.0060863494873046875,0.010765224695205688,0.008337736129760742
1783153842057619700,7.41561962890625,0.0012807846069335938,-0.010543927550315857,-0.010432600975036621
1783153842067330600,7.42533056640625,0.0012617111206054688,-0.005772285163402557,0.001543879508972168
1783153842077041200,7.435041259765625,0.008301734924316406,0.020107604563236237,0.0037902891635894775
1783153842086752000,7.444751953125,0.005806922912597656,0.007775299251079559,0.008239775896072388
1783153842096462800,7.454462890625,-0.008410453796386719,0.00036310404539108276,0.0034851133823394775
1783153842106173400,7.46417333984375,0.010568618774414062,-0.011354342103004456,0.013103485107421875
1783153842115884300,7.47388427734375,0.0033273696899414062,0.014792196452617645,0.0033875107765197754
1783153842125595100,7.48359521484375,0.007974624633789062,-0.02306652069091797,0.0031340420246124268
1783153842135306000,7.493305908203125,-0.013344764709472656,-0.017920270562171936,-0.003894209861755371
1783153842145016600,7.5030166015625,0.0010061264038085938,-0.0059047117829322815,0.003322392702102661
1783153842154727400,7.5127275390625,0.0033445358276367188,0.0010854080319404602,-0.0014672279357910156
1783153842164438000,7.52243798828125,0.0032863616943359375,0.01760474592447281,0.02437134087085724
1783153842174148900,7.53214892578125,0.000873565673828125,0.008009441196918488,-0.004367262125015259
1783153842183859700,7.541859619140625,-0.006195068359375,-0.0018207952380180359,-0.006445199251174927
1783153842193570300,7.5515703125,-0.0013818740844726562,-0.009019292891025543,-0.011070102453231812
1783153842203281200,7.56128125,0.003353118896484375,-0.001860491931438446,0.0010312795639038086
1783153842212992000,7.570991943359375,-0.001415252685546875,-0.016011856496334076,0.005526095628738403
1783153842222702600,7.58070263671875,0.005667686462402344,-0.003915958106517792,0.007706135511398315
1783153842232413400,7.590413330078125,0.010273933410644531,-0.015500634908676147,0.0026761293411254883
1783153842242124300,7.600124267578125,0.00304412841796875,0.008188724517822266,0.016845807433128357
1783153842251835000,7.6098349609375,0.007701873779296875,0.017636172473430634,-0.016307145357131958
1783153842261545700,7.619545654296875,0.0005064010620117188,0.008038811385631561,-0.0067581236362457275
1783153842271256600,7.629256591796875,0.009915351867675781,0.003194563090801239,-0.00426095724105835
1783153842280967200,7.63896728515625,-0.006724357604980469,-0.010816730558872223,-0.006286978721618652
1783153842290678000,7.648677978515625,0.012225151062011719,-0.01304628700017929,-0.02487042546272278
1783153842300388900,7.658388916015625,-0.025644302368164062,-0.017479196190834045,-0.005590677261352539
1783153842310099500,7.668099365234375,-0.00167083740234375,0.011063694953918457,0.00877302885055542
1783153842319810300,7.677810302734375,0.0007028579711914062,-0.007728777825832367,-0.01746639609336853
1783153842339231700,7.697231689453125,0.012370109558105469,-0.0005569010972976685,-0.007891416549682617
1783153842358653200,7.716653076171875,0.00042629241943359375,0.013804450631141663,-0.007645338773727417
1783153842368364000,7.726364013671875,-0.00429534912109375,-0.01467633992433548,0.004056692123413086
1783153842378075000,7.736074951171875,0.0004825592041015625,0.002164088189601898,0.0063186585903167725
1783153842387785500,7.745785400390625,0.005175590515136719,-0.01681959629058838,-0.003513514995574951
1783153842397496300,7.755496337890625,0.0074481964111328125,0.009414948523044586,-0.003252744674682617
1783153842407207200,7.765207275390625,-0.013861656188964844,0.02114083617925644,-0.0030544400215148926
1783153842416918000,7.77491796875,-0.0018634796142578125,0.004084445536136627,-0.003255516290664673
1783153842426628600,7.784628662109375,0.0028781890869140625,-0.0030419230461120605,-0.005465686321258545
1783153842436339500,7.79433935546875,-0.01364898681640625,0.0016615167260169983,-0.019524991512298584
1783153842446050300,7.80405029296875,-0.004006385803222656,0.0016381219029426575,0.013678371906280518
1783153842455761000,7.813760986328125,0.0007677078247070312,-0.0009711086750030518,0.0015398859977722168
1783153842465471700,7.8234716796875,-0.006300926208496094,0.017939791083335876,0.0041287243366241455
1783153842475182300,7.833182373046875,0.0055789947509765625,0.0057588666677474976,0.027691006660461426
1783153842484893200,7.84289306640625,-0.010986328125,-0.006108440458774567,0.008654296398162842
1783153842494604000,7.85260400390625,0.008030891418457031,-0.01065235584974289,0.0015378594398498535
1783153842504314600,7.862314697265625,0.003192901611328125,0.0013573020696640015,0.008778274059295654
1783153842514025500,7.872025390625,0.0031385421752929688,-0.015254095196723938,0.0061969757080078125
1783153842523736300,7.881736328125,-0.001621246337890625,-0.00787612795829773,-0.007998555898666382
1783153842533447000,7.891447021484375,-0.0015888214111328125,-0.010097861289978027,-0.0006004571914672852
1783153842543157800,7.90115771484375,0.0007982254028320312,-0.007627911865711212,0.009029775857925415
1783153842552868600,7.91086865234375,-0.0015659332275390625,-0.014562174677848816,0.0019051730632781982
1783153842562579200,7.9205791015625,0.0031652450561523438,0.004682749509811401,0.013617932796478271
1783153842572290000,7.9302900390625,-0.011010169982910156,0.002254799008369446,0.0016528964042663574
1783153842582000600,7.940000732421875,-0.003765106201171875,-0.0027158036828041077,-0.0008102655410766602
1783153842591711500,7.94971142578125,-0.008419036865234375,-0.00008931010961532593,-0.015175193548202515
1783153842601422300,7.95942236328125,0.0011444091796875,-0.007206052541732788,-0.01472008228302002
1783153842611133000,7.9691328125,-0.00829315185546875,-0.0071415975689888,0.011339366436004639
1783153842620843800,7.97884375,-0.005799293518066406,-0.002369821071624756,-0.0005889534950256348
1783153842630554600,7.9885546875,0.003711700439453125,-0.023572199046611786,-0.0006605386734008789
1783153842640265200,7.99826513671875,-0.0010547637939453125,0.005016937851905823,0.013564735651016235
1783153842649976000,8.00797607421875,0.0013179779052734375,-0.006724320352077484,-0.0006986558437347412
1783153842659687000,8.01768701171875,0.0036487579345703125,-0.008962154388427734,-0.012481987476348877
1783153842669397500,8.0273974609375,-0.0011110305786132812,-0.006455838680267334,0.01158452033996582
1783153842679108400,8.0371083984375,-0.0034475326538085938,0.014677941799163818,-0.000458449125289917
1783153842688819200,8.046819091796875,0.015452384948730469,-0.009218059480190277,0.01628883183002472
1783153842698529800,8.05652978515625,0.005780220031738281,0.007419250905513763,-0.0027264952659606934
1783153842708240600,8.06624072265625,-0.001377105712890625,0.004828907549381256,0.0020589828491210938
1783153842717951500,8.075951416015625,0.012767791748046875,-0.004550360143184662,0.006709069013595581
1783153842727662000,8.085662109375,-0.01569366455078125,0.01447240263223648,0.02316451072692871
1783153842737373000,8.095373046875,0.0034036636352539062,-0.011837400496006012,-0.005441516637802124
1783153842747083800,8.105083740234376,0.0033483505249023438,-0.004519470036029816,0.008862853050231934
1783153842756794400,8.11479443359375,-0.001415252685546875,0.005030684173107147,-0.005378365516662598
1783153842766505200,8.124505126953125,-0.006098747253417969,0.0048343464732170105,-0.0005486905574798584
1783153842776216000,8.134216064453126,0.012839317321777344,0.011822208762168884,0.0043160319328308105
1783153842785926700,8.1439267578125,0.0008592605590820312,-0.026156015694141388,-0.0003764331340789795
1783153842795637500,8.153637451171875,0.01026153564453125,0.012008219957351685,0.00907948613166809
1783153842805348000,8.16334814453125,0.0006799697875976562,-0.009378492832183838,0.02090132236480713
1783153842815059000,8.173058837890625,-0.008749008178710938,0.0047889575362205505,0.0063450634479522705
1783153842824769800,8.182769775390625,0.0031681060791015625,-0.018833167850971222,-0.007854849100112915
1783153842834480400,8.19248046875,-0.011006355285644531,0.0002601891756057739,-0.002983272075653076
1783153842844191200,8.202191162109376,0.0009517669677734375,-0.009336456656455994,-0.0004933476448059082
1783153842853902000,8.211902099609375,0.005641937255859375,0.009540237486362457,-0.005332380533218384
1783153842863612700,8.22161279296875,-0.0038690567016601562,-0.011688552796840668,-0.0005021989345550537
1783153842873323500,8.231323486328124,-0.010862350463867188,0.007107451558113098,-0.024006664752960205
1783153842883034400,8.241034423828125,0.0034456253051757812,-0.002421937882900238,-0.011745214462280273
1783153842892745000,8.250744873046875,0.010454177856445312,0.02351735532283783,-0.0043408870697021484
1783153842902455800,8.260455810546874,0.01263427734375,0.013600781559944153,0.007479071617126465
1783153842912166700,8.270166748046876,0.012424468994140625,-0.007701888680458069,-0.013746112585067749
1783153842921877200,8.279877197265625,-0.004258155822753906,0.01591278612613678,-0.006365925073623657
1783153842931588000,8.289588134765625,0.0028810501098632812,0.0014083385467529297,-0.015531927347183228
1783153842941299000,8.299298828125,0.007537841796875,-0.010214373469352722,0.0034784674644470215
1783153842951009500,8.309009521484375,0.00034809112548828125,-0.0028650760650634766,0.01987530291080475
1783153842960720400,8.318720458984375,-0.006716728210449219,-0.019121840596199036,-0.013211250305175781
1783153842970431000,8.328430908203124,0.0028095245361328125,0.007207922637462616,0.005817323923110962
1783153842980141800,8.338141845703126,0.0051212310791015625,-0.01874876767396927,-0.005904644727706909
1783153842989852700,8.347852783203125,-0.0020284652709960938,-0.006551966071128845,-0.012894690036773682
1783153842999563300,8.357563232421874,-0.0019969940185546875,-0.02050834149122238,0.013134956359863281
1783153843009274000,8.367274169921876,-0.004319190979003906,-0.006153851747512817,-0.010708004236221313
1783153843018985000,8.37698486328125,0.0004596710205078125,0.01978766918182373,-0.010612249374389648
1783153843028695600,8.386695556640625,0.0028123855590820312,-0.008734442293643951,0.015719830989837646
1783153843038406400,8.396406494140624,0.0027713775634765625,-0.0016340985894203186,-0.00793689489364624
1783153843048117000,8.406116943359375,-0.004332542419433594,-0.015783019363880157,0.011176139116287231
1783153843057827800,8.415827880859375,0.0028047561645507812,-0.008625157177448273,-0.0007488429546356201
1783153843067538700,8.42553857421875,-0.009013175964355469,-0.008590780198574066,0.006245404481887817
1783153843077249300,8.435249267578126,-0.01828289031982422,-0.0061474815011024475,-0.003413766622543335
1783153843086960000,8.444960205078125,0.0079193115234375,-0.0014475584030151367,0.015508949756622314
1783153843096671000,8.4546708984375,0.007790565490722656,-0.006299607455730438,-0.012967616319656372
1783153843106381600,8.464381591796876,0.0076580047607421875,0.007993288338184357,0.008356064558029175
1783153843116092400,8.474092529296875,0.00047016143798828125,0.002925470471382141,0.015254199504852295
1783153843125803300,8.48380322265625,0.0075225830078125,-0.004067853093147278,-0.01327437162399292
1783153843135513900,8.493513916015624,-0.0020151138305664062,-0.004000410437583923,0.0012167692184448242
1783153843145224700,8.503224609375,-0.0066928863525390625,-0.0016305223107337952,0.008121997117996216
1783153843154935600,8.512935546875,-0.008934974670410156,-0.00860634446144104,0.0033105015754699707
1783153843164646100,8.522646240234375,0.00298309326171875,0.0034798234701156616,-0.006129801273345947
1783153843174357000,8.53235693359375,0.0029325485229492188,-0.005932241678237915,-0.0036967992782592773
1783153843184067800,8.54206787109375,-0.008887290954589844,0.003581501543521881,0.0010467469692230225
1783153843193778400,8.5517783203125,-0.0016698837280273438,0.005821920931339264,0.0035862624645233154
1783153843203489300,8.5614892578125,0.010128974914550781,0.015029184520244598,0.0011471211910247803
1783153843213200000,8.571199951171875,0.0005474090576171875,0.010073058307170868,0.008336544036865234
1783153843222910700,8.58091064453125,-0.0041675567626953125,0.0004280656576156616,0.005930036306381226
1783153843232621600,8.59062158203125,0.0029649734497070312,0.00277632474899292,0.01057124137878418
1783153843242332200,8.600332275390626,-0.006500244140625,0.007499612867832184,-0.003697216510772705
1783153843252043000,8.61004296875,0.005375862121582031,-0.001984119415283203,0.000990748405456543
1783153843261753900,8.61975390625,-0.004130363464355469,0.002929084002971649,0.0034169256687164307
1783153843271464400,8.62946435546875,-0.004067420959472656,-0.008834220468997955,-0.015669971704483032
1783153843281175300,8.63917529296875,0.010127067565917969,0.019513964653015137,0.008167296648025513
1783153843290886000,8.648885986328125,0.002899169921875,-0.01605994999408722,-0.02242550253868103
1783153843300596700,8.6585966796875,0.01462554931640625,0.002984084188938141,0.04159943759441376
1783153843310307600,8.6683076171875,0.0026063919067382812,0.0006997212767601013,-0.02273738384246826
1783153843320018400,8.678018310546875,-0.004502296447753906,0.014877520501613617,0.0034581422805786133
1783153843329729000,8.68772900390625,0.0073451995849609375,-0.0017886534333229065,0.010552823543548584
1783153843339439900,8.69743994140625,0.00016689300537109375,-0.0018713399767875671,0.010579138994216919
1783153843349150500,8.707150390625,-0.006903648376464844,0.0005721002817153931,0.00314447283744812
1783153843358861300,8.716861328125,0.00263214111328125,-0.02056092768907547,0.022130340337753296
1783153843368572200,8.726572265625,-0.011533737182617188,-0.003789857029914856,-0.004101157188415527
1783153843378282800,8.73628271484375,-0.025468826293945312,0.008043937385082245,0.01942645013332367
1783153843387993600,8.74599365234375,0.0032024383544921875,0.005727410316467285,-0.006818681955337524
1783153843397704400,8.755704345703125,0.000797271728515625,0.012642011046409607,0.002744615077972412
1783153843407415000,8.7654150390625,-0.010993003845214844,0.0007736608386039734,-0.021039456129074097
1783153843417126000,8.7751259765625,0.0033140182495117188,0.010234050452709198,0.01700936257839203
1783153843426836500,8.78483642578125,0.00325775146484375,0.0008184313774108887,-0.004430234432220459
1783153843436547300,8.79454736328125,-0.015631675720214844,0.010172143578529358,-0.016206979751586914
1783153843455968800,8.81396875,0.010437965393066406,0.005260542035102844,-0.001399993896484375
1783153843465679600,8.8236796875,-0.013278007507324219,-0.009001731872558594,-0.0013993680477142334
1783153843475390500,8.833390380859376,-0.0083465576171875,0.007741019129753113,0.0010660290718078613
1783153843485101000,8.84310107421875,-0.0011444091796875,0.007783733308315277,-0.0012174546718597412
1783153843494812000,8.85281201171875,-0.017617225646972656,-0.004175737500190735,-0.006386756896972656
1783153843504522800,8.862522705078124,0.015642166137695312,-0.02070111781358719,0.03394196927547455
1783153843514233300,8.8722333984375,-0.0034570693969726562,0.010363347828388214,0.023877441883087158
1783153843523944200,8.881944091796875,-0.026937484741210938,-0.008646398782730103,0.011851966381072998
1783153843533654800,8.89165478515625,0.0135345458984375,0.007922999560832977,-0.000027447938919067383
1783153843543365600,8.90136572265625,-0.012583732604980469,0.0008447915315628052,0.00011894106864929199
1783153843553076500,8.911076416015625,-0.0006084442138671875,0.0007719770073890686,0.0045715272426605225
1783153843562787000,8.920787109375,-0.02414226531982422,-0.006305374205112457,-0.0050047338008880615
1783153843572498000,8.930497802734376,0.016275405883789062,-0.0016674026846885681,0.008891969919204712
1783153843582208800,8.940208740234375,0.03956794738769531,-0.011113584041595459,-0.016382485628128052
1783153843591919400,8.94991943359375,-0.0670623779296875,0.04315786808729172,-0.007856607437133789
1783153843601630200,8.959630126953124,-0.0000019073486328125,0.009419538080692291,0.019052788615226746
1783153843611340800,8.9693408203125,0.025903701782226562,-0.028461791574954987,0.0002168715000152588
1783153843621051600,8.9790517578125,-0.023975372314453125,0.005083121359348297,-0.007160007953643799
1783153843630762500,8.988762451171874,0.014104843139648438,-0.009526543319225311,0.007455915212631226
1783153843640473000,8.99847314453125,-0.0002460479736328125,-0.03055434674024582,0.007647484540939331
1783153843650184000,9.008183837890625,0.011522293090820312,-0.0017904266715049744,-0.009153783321380615
1783153843659894800,9.017894775390625,-0.031037330627441406,-0.011005647480487823,0.0007314085960388184
1783153843669605400,9.02760546875,0.016579627990722656,-0.024946197867393494,0.02015279233455658
1783153843679316200,9.037316162109375,0.021001815795898438,-0.005463629961013794,-0.0016215741634368896
1783153843689027000,9.047027099609375,-0.031136512756347656,-0.00772867351770401,-0.00615885853767395
1783153843698737700,9.056737548828124,-0.002368927001953125,-0.014602862298488617,-0.0037266016006469727
1783153843708448500,9.066448486328126,-0.004693031311035156,-0.00028371065855026245,-0.008736640214920044
1783153843718159000,9.0761591796875,0.00481414794921875,-0.007338821887969971,0.010729461908340454
1783153843727870000,9.085869873046875,0.004723548889160156,-0.00009587407112121582,-0.013357549905776978
1783153843737580800,9.095580810546876,-0.009476661682128906,-0.002330474555492401,-0.005925774574279785
1783153843747291400,9.10529150390625,0.01893138885498047,-0.018823541700839996,0.003565758466720581
1783153843757002200,9.115002197265625,-0.009639739990234375,0.007449060678482056,0.010375052690505981
1783153843766713000,9.124713134765624,0.011713027954101562,0.014503933489322662,0.0033991336822509766
1783153843776423700,9.134423583984375,0.011519432067871094,0.007091797888278961,0.0010217726230621338
1783153843786134500,9.144134521484375,0.008969306945800781,0.0023185834288597107,0.01498916745185852
1783153843795845000,9.15384521484375,-0.010006904602050781,-0.016550876200199127,-0.008599787950515747
1783153843805556000,9.163555908203126,0.018398284912109375,0.014270782470703125,0.01936955749988556
1783153843815266800,9.173266845703125,0.015735626220703125,0.011623091995716095,-0.002223074436187744
1783153843824977400,9.182977294921875,-0.010419845581054688,0.006666891276836395,0.016736701130867004
1783153843834688300,9.192688232421874,0.0015268325805664062,0.006672218441963196,-0.006938278675079346
1783153843844399000,9.202399169921875,-0.012629508972167969,0.013681657612323761,-0.0046073198318481445
1783153843854109700,9.212109619140625,-0.0053558349609375,0.013568513095378876,-0.0068531036376953125
1783153843863820500,9.221820556640624,-0.0005540847778320312,-0.000721663236618042,-0.016009122133255005
1783153843873531400,9.231531494140626,0.00180816650390625,-0.017132528126239777,-0.0016429722309112549
1783153843883242000,9.241241943359375,-0.009993553161621094,-0.005131639540195465,-0.001697629690170288
1783153843892952800,9.250952880859375,-0.007465362548828125,0.002014569938182831,-0.0037657320499420166
1783153843902663400,9.260663330078126,0.004421234130859375,-0.01931925117969513,-0.004012346267700195
1783153843912374300,9.270374267578125,0.004345893859863281,-0.0002208799123764038,0.0053886473178863525
1783153843922085000,9.280085205078125,-0.00278472900390625,-0.02162957936525345,-0.006383061408996582
1783153843931795700,9.289795654296874,-0.0027418136596679688,-0.014205299317836761,0.0006470382213592529
1783153843941506600,9.299506591796876,0.0020122528076171875,0.002455204725265503,-0.004097342491149902
1783153843951217200,9.309217041015625,-0.002727508544921875,-0.009357050061225891,0.017246589064598083
1783153843960928000,9.318927978515624,-0.000324249267578125,-0.002301611006259918,0.005222231149673462
1783153843970638800,9.328638916015626,-0.0026731491088867188,0.00003685802221298218,0.009819000959396362
1783153843980349400,9.338349365234375,-0.009685516357421875,0.014107346534729004,-0.006678074598312378
1783153843990060300,9.348060302734375,0.006953239440917969,0.01594654470682144,0.005066573619842529
1783153843999771100,9.357771240234374,-0.004931449890136719,0.013095766305923462,0.00260084867477417
1783153844009481700,9.367481689453125,-0.007206916809082031,0.012768134474754333,0.000008851289749145508
1783153844019192600,9.377192626953125,-0.016508102416992188,-0.0015670955181121826,-0.018963128328323364
1783153844028903400,9.3869033203125,0.00024890899658203125,-0.0019376277923583984,0.014229625463485718
1783153844038614000,9.396614013671876,-0.006815910339355469,0.007454268634319305,-0.007164299488067627
1783153844048324900,9.406324951171875,0.00742340087890625,-0.006904520094394684,0.021181493997573853
1783153844058035500,9.416035400390625,0.016716957092285156,-0.002247259020805359,0.006622493267059326
1783153844067746300,9.425746337890626,0.0070171356201171875,-0.0020949244499206543,0.006430089473724365
1783153844077457200,9.43545703125,-0.0025157928466796875,-0.004413001239299774,0.011062979698181152
1783153844087167700,9.445167724609375,-0.0024700164794921875,-0.009275548160076141,0.013263791799545288
1783153844096878600,9.454878662109374,-0.0000743865966796875,0.00494704395532608,0.0036001205444335938
1783153844106589200,9.464589111328126,0.004630088806152344,0.011988312005996704,-0.0036601126194000244
1783153844116300000,9.474300048828125,0.006901741027832031,0.009320288896560669,-0.010914862155914307
1783153844126011000,9.484010986328125,-0.0002765655517578125,0.006870336830615997,-0.013111770153045654
1783153844135721500,9.493721435546876,-0.007335662841796875,0.006760120391845703,0.005916386842727661
1783153844145432300,9.503432373046875,0.0021991729736328125,-0.0002956315875053406,0.003383457660675049
1783153844155143200,9.51314306640625,-0.0025424957275390625,-0.005111567676067352,-0.010709613561630249
1783153844164853800,9.522853759765624,0.0045623779296875,0.01599053293466568,-0.010613799095153809
1783153844174564600,9.532564697265625,0.0021295547485351562,0.0017751902341842651,0.017790094017982483
1783153844184275200,9.542275146484375,0.01151275634765625,-0.007553212344646454,0.019994378089904785
1783153844193986000,9.551986083984374,0.011322975158691406,0.004228092730045319,0.007920533418655396
1783153844203697000,9.56169677734375,-0.0029926300048828125,0.006513029336929321,0.0006439089775085449
1783153844213407500,9.571407470703125,-0.010000228881835938,-0.012543119490146637,0.0077835917472839355
1783153844223118300,9.581118408203125,-0.005125999450683594,-0.003086596727371216,-0.006553322076797485
1783153844232829000,9.590828857421876,0.011438369750976562,-0.012509115040302277,-0.011178344488143921
1783153844242539800,9.600539794921875,-0.014641761779785156,-0.0005852878093719482,-0.0037272870540618896
1783153844252250600,9.610250732421875,0.002086639404296875,0.018203943967819214,0.02002274990081787
1783153844261961200,9.619961181640624,0.0044040679931640625,0.008484959602355957,-0.003934949636459351
1783153844271672000,9.629672119140626,-0.009789466857910156,-0.0013009458780288696,0.010286837816238403
1783153844281383000,9.6393828125,-0.00020694732666015625,0.010436087846755981,-0.0133381187915802
1783153844291093500,9.649093505859375,-0.0049114227294921875,-0.0017902925610542297,-0.0037804245948791504
1783153844300804400,9.658804443359376,-0.0001239776611328125,-0.006529107689857483,-0.0015040338039398193
1783153844310515200,9.66851513671875,0.01636219024658203,-0.0016523227095603943,0.0034321844577789307
1783153844320225800,9.678225830078125,-0.00038814544677734375,-0.0015667453408241272,-0.010661691427230835
1783153844329936600,9.6879365234375,0.013750076293945312,0.00546632707118988,0.02037954330444336
1783153844339647200,9.697647216796875,0.008817672729492188,-0.01340031623840332,0.0037626922130584717
1783153844349358000,9.707358154296875,-0.0077991485595703125,-0.011044323444366455,0.0015498697757720947
1783153844359069000,9.71706884765625,-0.005313873291015625,-0.0013823285698890686,0.011030584573745728
1783153844368779500,9.726779541015626,0.01125335693359375,-0.010830171406269073,-0.005657225847244263
1783153844378490400,9.736490478515625,0.008716583251953125,0.0056619346141815186,0.003942936658859253
1783153844388201000,9.746200927734375,-0.005541801452636719,-0.008445821702480316,-0.0027002692222595215
1783153844397911800,9.755911865234374,-0.0054473876953125,0.0034071803092956543,0.020917057991027832
1783153844407622700,9.76562255859375,-0.019466400146484375,-0.004048943519592285,0.016290858387947083
1783153844417333200,9.775333251953125,-0.005024909973144531,-0.022810742259025574,-0.0196017324924469
1783153844427044000,9.785044189453124,0.020946502685546875,0.03200601041316986,-0.03830242156982422
1783153844436755000,9.7947548828125,0.004118919372558594,0.01970279961824417,-0.009382009506225586
1783153844446465500,9.804465576171875,-0.01007080078125,0.0073173195123672485,0.009581416845321655
1783153844456176400,9.81417626953125,0.0018663406372070312,0.0001324191689491272,0.028229445219039917
1783153844465887000,9.823886962890626,0.03714179992675781,0.026425465941429138,0.013608574867248535
1783153844475597800,9.833597900390625,-0.015285491943359375,0.014668464660644531,-0.008229762315750122
1783153844485308700,9.84330859375,-0.017383575439453125,0.009832032024860382,-0.015066057443618774
1783153844495019300,9.853019287109374,-0.012389183044433594,-0.018298350274562836,0.0016954243183135986
1783153844504730000,9.862730224609376,-0.012179374694824219,-0.04635621979832649,0.013526618480682373
1783153844514440700,9.872440673828125,0.0021600723266601562,0.01309891790151596,-0.002863645553588867
1783153844524151600,9.882151611328124,-0.014349937438964844,0.033895961940288544,0.018515899777412415
1783153844533862400,9.8918623046875,-0.011755943298339844,0.012027688324451447,0.006409823894500732
1783153844543573000,9.901572998046875,-0.0068492889404296875,-0.0023014023900032043,-0.0030840635299682617
1783153844553283800,9.911283935546875,0.0003223419189453125,-0.03056904673576355,-0.0008741617202758789
1783153844562994400,9.920994384765624,-0.0020389556884765625,-0.034997180104255676,-0.008062362670898438
1783153844572705300,9.930705322265625,-0.016124725341796875,-0.018159113824367523,0.018057242035865784
1783153844582416100,9.940416015625,-0.0064373016357421875,-0.025143638253211975,-0.001101851463317871
1783153844592126700,9.950126708984374,0.0030889511108398438,0.005537107586860657,0.003598421812057495
1783153844601837600,9.959837646484376,0.0006961822509765625,-0.02343105524778366,0.010802537202835083
1783153844611548400,9.96954833984375,-0.0016651153564453125,-0.011724568903446198,0.005888223648071289
1783153844621259000,9.979259033203125,-0.0016374588012695312,-0.00441008061170578,-0.010658234357833862
1783153844630969900,9.988969970703126,0.010163307189941406,0.009736061096191406,0.013151079416275024
1783153844640680400,9.998680419921875,0.0076446533203125,0.002340354025363922,0.010665535926818848
1783153844650391300,10.008391357421875,0.0051670074462890625,-0.014351963996887207,-0.00825926661491394
1783153844660102100,10.01810205078125,0.00037384033203125,-0.02381407469511032,0.0035667121410369873
1783153844669812700,10.027812744140626,-0.004336357116699219,-0.004917241632938385,-0.020000487565994263
1783153844679523600,10.037523681640625,-0.0019044876098632812,0.011474788188934326,0.0063742995262146
1783153844689234200,10.047234130859374,0.0028352737426757812,0.013357847929000854,-0.012703090906143188
1783153844698945000,10.056945068359376,-0.01839447021484375,0.017678961157798767,-0.017052501440048218
1783153844708655900,10.06665576171875,0.010163307189941406,0.007853500545024872,-0.005023151636123657
1783153844718366500,10.076366455078125,-0.013548851013183594,-0.004160851240158081,-0.005021452903747559
1783153844728077300,10.086077392578124,0.005503654479980469,0.010037988424301147,0.0018735527992248535
1783153844737788200,10.0957880859375,-0.00164794921875,0.0004535466432571411,-0.0004240572452545166
1783153844747498800,10.105498779296875,0.0030879974365234375,0.014682933688163757,-0.014511853456497192
1783153844757209600,10.115209716796874,0.0006866455078125,0.019315220415592194,0.014181196689605713
1783153844766920200,10.124920166015626,0.0053844451904296875,0.009636089205741882,-0.002445399761199951
1783153844776631000,10.134631103515625,-0.006474494934082031,0.014074504375457764,-0.0000743567943572998
1783153844786342000,10.144341796875,0.003055572509765625,-0.012170255184173584,-0.006991088390350342
1783153844796052500,10.154052490234376,-0.011120796203613281,-0.002609364688396454,0.0025156736373901367
1783153844805763300,10.163763427734375,0.0031900405883789062,0.02109406888484955,0.011923521757125854
1783153844815474000,10.173473876953125,0.012554168701171875,0.0017964541912078857,-0.0024256110191345215
1783153844825184800,10.183184814453124,-0.0017766952514648438,-0.007704354822635651,0.009474903345108032
1783153844834895600,10.1928955078125,-0.015872955322265625,-0.016934707760810852,-0.01660439372062683
1783153844844606200,10.202606201171875,-0.0014858245849609375,0.0021807625889778137,-0.018764525651931763
1783153844854317000,10.212317138671875,-0.013233184814453125,0.01144874095916748,0.0050081610679626465
1783153844864028000,10.22202783203125,-0.008299827575683594,-0.007744930684566498,0.004956334829330444
1783153844873738500,10.231738525390625,-0.0105133056640625,0.022873148322105408,0.0002524852752685547
1783153844883449300,10.241449462890625,-0.0079803466796875,-0.02229500561952591,-0.011491745710372925
1783153844893160000,10.251159912109374,0.008636474609375,-0.0007881671190261841,0.007679969072341919
1783153844902870800,10.260870849609375,0.0037832260131835938,0.001466706395149231,-0.006655216217041016
1783153844912581400,10.270581298828125,-0.010401725769042969,-0.012508131563663483,0.010138511657714844
1783153844922292200,10.280292236328124,0.0038928985595703125,-0.024015717208385468,-0.0019416213035583496
1783153844932003000,10.290003173828126,-0.0032320022583007812,-0.011611297726631165,0.01712842285633087
1783153844941713700,10.299713623046875,-0.00318145751953125,-0.011301368474960327,0.019115760922431946
1783153844951424500,10.309424560546875,0.001583099365234375,-0.0016934797167778015,0.007115274667739868
1783153844961135400,10.31913525390625,-0.000789642333984375,-0.022854916751384735,0.014373719692230225
1783153844970846000,10.328845947265625,-0.007842063903808594,0.0060033127665519714,0.004691511392593384
1783153844980556800,10.338556884765625,0.011124610900878906,0.0035595595836639404,-0.002300083637237549
1783153844990267400,10.348267333984374,-0.0008363723754882812,-0.005686484277248383,-0.007051527500152588
1783153844999978200,10.357978271484376,0.0038900375366210938,0.0038262829184532166,-0.004434496164321899
1783153845009689000,10.367689208984375,0.0038280487060546875,-0.01524190604686737,-0.001975417137145996
1783153845019399700,10.377399658203124,0.0061130523681640625,-0.0007462874054908752,-0.0044348835945129395
1783153845029110500,10.387110595703126,0.015428543090820312,-0.0006158798933029175,-0.001917034387588501
1783153845038821000,10.396821044921875,-0.008365631103515625,-0.0170837864279747,-0.0065049827098846436
1783153845048532000,10.406531982421875,0.012963294982910156,-0.0026664510369300842,0.01017385721206665
1783153845058242800,10.416242919921874,-0.022563934326171875,0.016212768852710724,0.0029733479022979736
1783153845067953400,10.425953369140625,0.010774612426757812,0.013644836843013763,-0.003994107246398926
1783153845077664300,10.435664306640625,-0.001178741455078125,0.015712887048721313,-0.0017135143280029297
1783153845087374800,10.445374755859374,0.0058994293212890625,-0.003550305962562561,0.014599382877349854
1783153845097085700,10.455085693359376,0.010509490966796875,0.005871579051017761,0.004914730787277222
1783153845106796500,10.464796630859375,-0.001438140869140625,-0.013060212135314941,0.01416689157485962
1783153845116507100,10.474507080078125,-0.0014171600341796875,0.017703302204608917,-0.009751319885253906
1783153845126218000,10.484218017578126,-0.0037431716918945312,-0.0013642162084579468,-0.011796444654464722
1783153845135928600,10.493928466796875,-0.006039619445800781,-0.0038618668913841248,-0.011851072311401367
1783153845145639400,10.503639404296875,0.012888908386230469,0.005565211176872253,-0.00478595495223999
1783153845155350300,10.513350341796874,-0.01322174072265625,0.0007115304470062256,-0.004730105400085449
1783153845165060900,10.523060791015626,-0.0012331008911132812,0.010292813181877136,0.00945061445236206
1783153845174771700,10.532771728515625,-0.008275985717773438,0.010125569999217987,0.009212374687194824
1783153845184482300,10.542482421875,0.003631591796875,0.0006026923656463623,-0.007386922836303711
1783153845194193200,10.552193115234376,-0.0058441162109375,0.002946503460407257,-0.002524435520172119
1783153845203904000,10.561904052734375,0.0036687850952148438,-0.011226586997509003,-0.009570121765136719
1783153845213614600,10.571614501953125,0.0012540817260742188,-0.008567310869693756,-0.014086097478866577
1783153845223325400,10.581325439453124,0.008292198181152344,-0.0011871382594108582,0.0025472939014434814
1783153845233036300,10.591036376953125,0.008159637451171875,-0.010579831898212433,0.007416635751724243
1783153845242747000,10.600746826171875,0.010378837585449219,-0.007932886481285095,0.00738215446472168
1783153845252457700,10.610457763671874,0.005497932434082031,0.004198841750621796,0.009758621454238892
1783153845262168300,10.620168212890626,-0.004014015197753906,0.004131615161895752,0.00004100799560546875
1783153845271879200,10.629879150390625,0.0007610321044921875,-0.03366158902645111,-0.011756539344787598
1783153845281590000,10.639590087890625,-0.0039577484130859375,-0.002491690218448639,0.0003001689910888672
1783153845291300600,10.649300537109376,0.010236740112304688,0.016383066773414612,0.01221078634262085
1783153845301011500,10.659011474609375,0.0030078887939453125,-0.007545970380306244,0.007386684417724609
1783153845310722000,10.66872216796875,0.002960205078125,0.027897067368030548,0.009707540273666382
1783153845320433000,10.678432861328124,0.0052661895751953125,-0.007821261882781982,0.01434326171875
1783153845330143700,10.688143798828126,-0.0018777847290039062,-0.0007345974445343018,0.007246345281600952
1783153845339854300,10.697854248046875,-0.0018463134765625,-0.0031321868300437927,0.0071003735065460205
1783153845349565200,10.707565185546875,-0.008876800537109375,-0.01490660011768341,-0.004814118146896362
1783153845359275800,10.71727587890625,0.0053920745849609375,-0.012354947626590729,0.006900161504745483
1783153845368986600,10.726986572265625,0.007656097412109375,0.018627241253852844,-0.00024574995040893555
1783153845378697500,10.736697509765625,0.0028238296508789062,-0.0003404542803764343,-0.0023917853832244873
1783153845388408000,10.746407958984374,0.0027751922607421875,-0.00268467515707016,-0.018912017345428467
1783153845398119000,10.756118896484375,0.014492034912109375,0.0020712167024612427,-0.007077723741531372
1783153845407829500,10.76582958984375,0.0001239776611328125,-0.009677797555923462,-0.009396612644195557
1783153845417540400,10.775540283203124,-0.018712997436523438,-0.0021654292941093445,-0.013858646154403687
1783153845427251000,10.7852509765625,0.009853363037109375,0.007173426449298859,-0.01353985071182251
1783153845436961800,10.7949619140625,0.009683609008789062,0.0024035125970840454,0.005323678255081177
1783153845446672600,10.804672607421875,0.0024623870849609375,-0.004581145942211151,-0.015806257724761963
1783153845456383200,10.81438330078125,0.000057220458984375,0.009793654084205627,-0.0017263591289520264
1783153845466094000,10.824093994140625,0.007119178771972656,0.0073942095041275024,-0.0016078650951385498
1783153845475805000,10.833804931640625,0.016427040100097656,0.009575754404067993,0.0199250727891922
1783153845485515500,10.843515625,0.0020275115966796875,0.016595177352428436,0.010208487510681152
1783153845495226400,10.853226318359376,-0.00036907196044921875,0.004665590822696686,0.0073760151863098145
1783153845504937000,10.86293701171875,-0.005074501037597656,-0.01653880625963211,0.004818171262741089
1783153845514647800,10.872647705078125,-0.0026340484619140625,-0.028086677193641663,-0.004646003246307373
1783153845524358700,10.882358642578126,-0.0025873184204101562,-0.015841729938983917,0.012001186609268188
1783153845534069200,10.8920693359375,-0.009607315063476562,-0.008685968816280365,0.004599034786224365
1783153845543780000,10.901780029296875,0.007031440734863281,-0.008768901228904724,0.009148091077804565
1783153845553490700,10.91149072265625,-0.002498626708984375,-0.01585620641708374,-0.0003333091735839844
1783153845563201500,10.921201416015625,0.004611015319824219,-0.027533777058124542,0.011587917804718018
1783153845572912400,10.930912353515625,-0.004879951477050781,-0.013175852596759796,0.0207863450050354
1783153845582623000,10.940623046875,-0.004794120788574219,-0.010828211903572083,0.013465791940689087
1783153845592333800,10.950333740234376,-0.0023527145385742188,-0.010992206633090973,0.008676409721374512
1783153845602044400,10.96004443359375,0.0024013519287109375,-0.011205658316612244,0.001557677984237671
1783153845611755300,10.96975537109375,-0.00469207763671875,-0.015951886773109436,-0.002917051315307617
1783153845621466000,10.979466064453124,0.007161140441894531,-0.0018438249826431274,0.0018716156482696533
1783153845631176700,10.9891767578125,0.014105796813964844,-0.0068029239773750305,-0.0005383491516113281
1783153845640887600,10.998887451171875,-0.009664535522460938,-0.004387892782688141,-0.012153804302215576
1783153845650598100,11.00859814453125,0.011684417724609375,-0.004654586315155029,-0.007324844598770142
1783153845660309000,11.01830908203125,0.013848304748535156,0.00949098914861679,-0.016474872827529907
1783153845670019800,11.028019775390625,0.018332481384277344,0.006981357932090759,0.00519031286239624
1783153845679730400,11.03773046875,-0.000812530517578125,0.013985633850097656,-0.002154529094696045
1783153845689441300,11.047441162109376,0.0015497207641601562,0.011740610003471375,-0.004498004913330078
1783153845699152000,11.05715185546875,0.010937690734863281,0.004767753183841705,-0.004391402006149292
1783153845708862700,11.06686279296875,-0.0010204315185546875,0.016749344766139984,-0.004398375749588013
1783153845718573600,11.076573486328124,-0.0057125091552734375,0.01429082453250885,-0.01135474443435669
1783153845728284200,11.0862841796875,0.013216018676757812,0.02111489325761795,-0.004071861505508423
1783153845737995000,11.0959951171875,0.017706871032714844,0.009165272116661072,0.010267138481140137
1783153845747705600,11.10570556640625,0.0009298324584960938,0.016186892986297607,-0.001701444387435913
1783153845757416400,11.11541650390625,0.0056209564208984375,-0.01239044964313507,-0.013526767492294312
1783153845767127000,11.125126953125,0.007882118225097656,-0.012181185185909271,-0.0038522183895111084
1783153845776838000,11.134837890625,-0.025198936462402344,-0.002786010503768921,-0.015356212854385376
1783153845786548700,11.144548828125,-0.015358924865722656,-0.005210936069488525,0.008528262376785278
1783153845796259300,11.15425927734375,-0.017455101013183594,0.011238142848014832,0.0013532638549804688
1783153845805970200,11.16397021484375,0.004032135009765625,-0.005602546036243439,-0.005474835634231567
1783153845815681000,11.173680908203124,0.006327629089355469,0.0036214888095855713,-0.007593721151351929
1783153845825391600,11.1833916015625,-0.005550384521484375,-0.015613853931427002,0.020586803555488586
1783153845835102500,11.1931025390625,0.0039653778076171875,0.01709321141242981,0.017920508980751038
1783153845844813000,11.20281298828125,-0.007869720458984375,0.002398572862148285,-0.0036486387252807617
1783153845854524000,11.21252392578125,-0.005381584167480469,0.006727144122123718,0.005803734064102173
1783153845864234500,11.222234375,-0.009992599487304688,-0.01037626713514328,-0.006033003330230713
1783153845873945300,11.2319453125,0.0019426345825195312,-0.010600008070468903,0.0032886266708374023
1783153845883656200,11.24165625,0.006615638732910156,-0.020352058112621307,0.002923727035522461
1783153845893366800,11.25136669921875,-0.0005588531494140625,0.0032507702708244324,-0.0020270943641662598
1783153845903077600,11.26107763671875,0.004150390625,-0.00184699147939682,-0.002414405345916748
1783153845912788500,11.27078857421875,0.013490676879882812,-0.011681869626045227,0.004267334938049316
1783153845922499000,11.2804990234375,0.0014963150024414062,-0.004812009632587433,0.0017071366310119629
1783153845932210000,11.2902099609375,0.0014657974243164062,-0.01190069317817688,0.022616595029830933
1783153845941920500,11.29992041015625,0.02262401580810547,-0.023581214249134064,0.019634872674942017
1783153845951631400,11.30963134765625,0.008116722106933594,-0.009120188653469086,0.00027763843536376953
1783153845961342000,11.319342041015625,0.007977485656738281,-0.02050597220659256,-0.0021043717861175537
1783153845971052800,11.329052734375,0.0007848739624023438,-0.013154178857803345,-0.004333674907684326
1783153845980763400,11.338763427734374,-0.00157928466796875,-0.015172712504863739,0.007655531167984009
1783153845990474200,11.34847412109375,-0.0039081573486328125,-0.012330889701843262,-0.006506085395812988
1783153846000185000,11.35818505859375,0.0032243728637695312,0.01136094331741333,-0.006252318620681763
1783153846009895700,11.367895751953125,0.007872581481933594,0.0041086673736572266,-0.006401360034942627
1783153846019606500,11.3776064453125,-0.004036903381347656,0.015867695212364197,0.007577240467071533
1783153846029317400,11.3873173828125,-0.011038780212402344,0.006246022880077362,0.0024906396865844727
1783153846039028000,11.397028076171875,-0.0014448165893554688,0.008331388235092163,-0.00021255016326904297
1783153846048738800,11.40673876953125,-0.0014276504516601562,0.003431558609008789,-0.005168646574020386
1783153846058449400,11.416449462890625,-0.006119728088378906,0.007977940142154694,0.006382346153259277
1783153846068160300,11.42616015625,-0.01779460906982422,0.005496568977832794,0.0060822367668151855
1783153846077870800,11.435870849609374,-0.0010194778442382812,0.0028245821595191956,0.0034877657890319824
1783153846087581700,11.445581787109376,0.0013484954833984375,-0.006808608770370483,-0.003828674554824829
1783153846097292500,11.45529248046875,-0.012803077697753906,-0.006916724145412445,0.005401343107223511
1783153846107003100,11.465003173828125,-0.0008153915405273438,-0.011562429368495941,-0.011135071516036987
1783153846116714000,11.4747138671875,0.008618354797363281,0.014249540865421295,0.00791841745376587
1783153846126424800,11.4844248046875,-0.0032978057861328125,0.006892278790473938,-0.011129826307296753
1783153846136135400,11.494135498046875,0.0038166046142578125,0.008911527693271637,0.005341976881027222
1783153846145846300,11.50384619140625,0.008465766906738281,-0.01987949013710022,-0.0112496018409729
1783153846155556900,11.513556884765626,-0.008152008056640625,-0.010471239686012268,-0.0040815770626068115
1783153846165267700,11.523267822265625,-0.0009508132934570312,0.025129593908786774,-0.013285666704177856
1783153846174978300,11.532978271484374,-0.007996559143066406,-0.024841398000717163,0.0010350346565246582
1783153846184689200,11.542689208984376,0.00626373291015625,-0.0009379833936691284,-0.01072019338607788
1783153846194399700,11.552399658203125,0.0014495849609375,0.013088829815387726,-0.008270025253295898
1783153846204110600,11.562110595703125,-0.0009279251098632812,0.012816570699214935,0.0036142468452453613
1783153846213821400,11.571821533203124,0.020269393920898438,-0.0038199126720428467,-0.024892747402191162
1783153846223532000,11.581531982421875,-0.0012540817260742188,0.026904836297035217,0.013277128338813782
1783153846233243000,11.591242919921875,0.005832672119140625,-0.011207997798919678,0.00849345326423645
1783153846242953700,11.60095361328125,-0.008391380310058594,0.0006971955299377441,-0.00820818543434143
1783153846252664300,11.610664306640626,-0.003543853759765625,-0.003961712121963501,-0.010392606258392334
1783153846262375200,11.620375244140625,0.005931854248046875,0.003284864127635956,0.013355568051338196
1783153846272085800,11.630085693359375,-0.0012359619140625,0.003229789435863495,-0.005953878164291382
1783153846281796600,11.639796630859376,0.012907028198242188,-0.008478604257106781,-0.00587916374206543
1783153846291507200,11.649507080078125,-0.0037908554077148438,-0.01080092042684555,0.005795419216156006
1783153846301218000,11.659218017578125,0.019807815551757812,-0.010688766837120056,0.012503430247306824
1783153846310929000,11.668928955078124,0.024190902709960938,-0.0512007474899292,-0.03256818652153015
1783153846320639500,11.678639404296876,-0.0020971298217773438,0.06804279237985611,-0.047792255878448486
1783153846330350300,11.688350341796875,-0.056217193603515625,-0.041902437806129456,0.0937158614397049
1783153846340061000,11.69806103515625,0.10716915130615234,0.04825662076473236,-0.041605740785598755
1783153846349771800,11.707771728515626,-0.11591434478759766,-0.027995996177196503,0.020157188177108765
1783153846359482600,11.717482666015625,0.024921417236328125,0.011980034410953522,-0.008454978466033936
1783153846369193200,11.727193115234375,-0.006104469299316406,-0.035130321979522705,0.026860684156417847
1783153846378904000,11.736904052734374,-0.015405654907226562,0.023971766233444214,0.0032444000244140625
1783153846388614700,11.74661474609375,-0.01751232147216797,0.007040254771709442,-0.006591349840164185
