time,seconds_elapsed,z,y,x
1783153093721483800,0.15548388671875,-0.09468132257461548,-0.37261682748794556,0.06413896381855011
1783153093731194600,0.165194580078125,-0.13316470384597778,-0.29259583353996277,-0.09895725548267365
1783153093740905200,0.1749052734375,-0.13438639044761658,-0.2638860046863556,-0.17958909273147583
1783153093750616000,0.184615966796875,-0.14843589067459106,-0.3970507085323334,-0.22540263831615448
1783153093760326700,0.19432666015625,-0.19974705576896667,-0.6029062271118164,-0.2754921019077301
1783153093770037500,0.20403759765625,-0.2522799074649811,-0.7824953198432922,-0.31031039357185364
1783153093779748000,0.213748046875,-0.2864873707294464,-0.9046648144721985,-0.3439069986343384
1783153093789459000,0.223458984375,-0.2980934679508209,-1.0011786222457886,-0.3793361485004425
1783153093799169500,0.23316943359375,-0.30908870697021484,-1.0158389806747437,-0.41415444016456604
1783153093808880400,0.24288037109375,-0.3292466700077057,-0.8625163435935974,-0.45263782143592834
1783153093818591000,0.252591064453125,-0.34940463304519653,-0.629172682762146,-0.45324867963790894
1783153093828301800,0.2623017578125,-0.3775036036968231,-0.40071579813957214,-0.43614494800567627
1783153093838012700,0.2720126953125,-0.3799470067024231,-0.18081079423427582,-0.38849884271621704
1783153093847723300,0.28172314453125,-0.35917818546295166,-0.012216945178806782,-0.3005368411540985
1783153093857434000,0.29143408203125,-0.33230090141296387,0.06658235192298889,-0.1954711228609085
1783153093867144700,0.301144775390625,-0.31947311758995056,0.0036650835536420345,-0.11606097966432571
1783153093876855600,0.31085546875,-0.27976804971694946,-0.12094775587320328,-0.05741964280605316
1783153093886566100,0.320566162109375,-0.21868331730365753,-0.208298921585083,-0.01588202826678753
1783153093896277000,0.330277099609375,-0.13621893525123596,-0.28404396772384644,-0.015271181240677834
1783153093905987600,0.339987548828125,-0.02504473738372326,-0.3384093940258026,-0.06352811306715012
1783153093915698400,0.349698486328125,0.10017894953489304,-0.3390202224254608,-0.15332266688346863
1783153093925409000,0.359408935546875,0.20463383197784424,-0.26999449729919434,-0.27060532569885254
1783153093935120000,0.369119873046875,0.26694026589393616,-0.16737215220928192,-0.38849884271621704
1783153093944830700,0.378830810546875,0.2907632887363434,-0.0787992998957634,-0.47707170248031616
1783153093954541300,0.388541259765625,0.28221142292022705,-0.015271181240677834,-0.5222744345664978
1783153093964252200,0.398252197265625,0.25655585527420044,0.042759306728839874,-0.5033381581306458
1783153093973962800,0.407962646484375,0.2229592502117157,0.06963659077882767,-0.42637139558792114
1783153093983673600,0.417673583984375,0.1979145109653473,0.02076880633831024,-0.3005368411540985
1783153093993384200,0.42738427734375,0.18019993603229523,-0.12155860662460327,-0.14904673397541046
1783153094003095000,0.437094970703125,0.13866232335567474,-0.12888877093791962,0.043981000781059265
1783153094012805600,0.4468056640625,0.16187451779842377,-0.11545012891292572,0.20096874237060547
1783153094022516500,0.4565166015625,0.20402298867702484,-0.17897824943065643,0.3011476993560791
1783153094032227000,0.46622705078125,0.24250635504722595,-0.2363978922367096,0.3701734244823456
1783153094041938000,0.47593798828125,0.28160059452056885,-0.26632940769195557,0.41110020875930786
1783153094051648800,0.485648681640625,0.32008397579193115,-0.26816195249557495,0.4227063059806824
1783153094061359400,0.495359375,0.3310792148113251,-0.2644968628883362,0.41476529836654663
1783153094071070200,0.5050703125,0.3011476993560791,-0.24556060135364532,0.395218163728714
1783153094080780800,0.51478076171875,0.2345653474330902,-0.2089097648859024,0.37261682748794556
1783153094090491600,0.52449169921875,0.1557660549879074,-0.18691925704479218,0.34696123003959656
1783153094100202200,0.5342021484375,0.08551861345767975,-0.16187451779842377,0.3176405727863312
1783153094109913000,0.5439130859375,0.021379653364419937,-0.1050657257437706,0.28221142292022705
1783153094119623700,0.553623779296875,-0.021990500390529633,-0.05741964280605316,0.24556060135364532
1783153094129334500,0.56333447265625,-0.03237490355968475,-0.02076880633831024,0.21562908589839935
1783153094139045000,0.573045166015625,-0.024433890357613564,0.012827792204916477,0.19913621246814728
1783153094148756000,0.582755859375,-0.015271181240677834,0.033596597611904144,0.19974705576896667
1783153094158466600,0.592466552734375,-0.02076880633831024,0.03787253051996231,0.20402298867702484
1783153094168177400,0.602177490234375,-0.034818295389413834,0.047646086663007736,0.2211267054080963
1783153094177888300,0.61188818359375,-0.06719319522380829,0.05864133685827255,0.2486148327589035
1783153094187598800,0.621598876953125,-0.10873081535100937,0.018936265259981155,0.26999449729919434
1783153094197309700,0.631309814453125,-0.14049486815929413,-0.05070032179355621,0.2761029601097107
1783153094207020300,0.641020263671875,-0.15332266688346863,-0.10750912129878998,0.2730487287044525
1783153094216731100,0.650731201171875,-0.16187451779842377,-0.1423274129629135,0.26632940769195557
1783153094226441700,0.660441650390625,-0.17348061501979828,-0.15454435348510742,0.24678228795528412
1783153094236152600,0.670152587890625,-0.1844758689403534,-0.13988402485847473,0.22845686972141266
1783153094245863200,0.67986328125,-0.1954711228609085,-0.08735115826129913,0.2113531529903412
1783153094255574000,0.689573974609375,-0.19241689145565033,-0.02504473738372326,0.19913621246814728
1783153094265284900,0.699284912109375,-0.18691925704479218,0.009773556143045425,0.18142163753509521
1783153094274995500,0.708995361328125,-0.16676130890846252,0.015271181240677834,0.16859383881092072
1783153094284706300,0.718706298828125,-0.1178935244679451,0.04031591862440109,0.1698155403137207
1783153094294417000,0.7284169921875,-0.07391251623630524,0.05375456064939499,0.17592400312423706
1783153094304127700,0.738127685546875,-0.04581354558467865,0.03237490355968475,0.18019993603229523
1783153094313838300,0.74783837890625,-0.021379653364419937,-0.012216945178806782,0.182643324136734
1783153094323549200,0.757549072265625,-0.0024433890357613564,-0.04337015375494957,0.16126367449760437
1783153094333259800,0.767259765625,0.0030542362947016954,-0.051922015845775604,0.14843589067459106
1783153094342970600,0.776970703125,-0.004886778071522713,-0.021990500390529633,0.13988402485847473
1783153094352681200,0.78668115234375,-0.01588202826678753,0.0012216945178806782,0.14904673397541046
1783153094362392000,0.79639208984375,-0.022601349279284477,0.013438640162348747,0.16065283119678497
1783153094372102700,0.8061025390625,-0.034818295389413834,0.03420744836330414,0.17348061501979828
1783153094381813500,0.8158134765625,-0.06047387793660164,0.05741964280605316,0.1704263836145401
1783153094391524400,0.8255244140625,-0.10078980028629303,0.07513421028852463,0.1557660549879074
1783153094401235000,0.83523486328125,-0.13988402485847473,0.09834641218185425,0.12644538283348083
1783153094410945800,0.84494580078125,-0.1716480851173401,0.11117420345544815,0.08857285231351852
1783153094420656400,0.854656494140625,-0.19180603325366974,0.10262233763933182,0.033596597611904144
1783153094430367200,0.8643671875,-0.18997350335121155,0.08246438205242157,-0.017714571207761765
1783153094440077800,0.874077880859375,-0.17897824943065643,0.06658235192298889,-0.06658235192298889
1783153094449788700,0.88378857421875,-0.16004198789596558,0.05131116881966591,-0.1185043677687645
1783153094459499300,0.893499267578125,-0.14782503247261047,0.04581354558467865,-0.1820324808359146
1783153094469210000,0.903210205078125,-0.1435490995645523,0.054365407675504684,-0.25777754187583923
1783153094478921000,0.9129208984375,-0.14721418917179108,0.10262233763933182,-0.31825143098831177
1783153094488631600,0.922631591796875,-0.16676130890846252,0.14721418917179108,-0.3671191930770874
1783153094498342400,0.93234228515625,-0.1850867122411728,0.17836740612983704,-0.38849884271621704
1783153094508053000,0.942052978515625,-0.19180603325366974,0.2101314514875412,-0.3701734244823456
1783153094517763800,0.951763916015625,-0.20035789906978607,0.2089097648859024,-0.3261924386024475
1783153094527474400,0.961474365234375,-0.1948602795600891,0.18019993603229523,-0.26816195249557495
1783153094537185300,0.971185302734375,-0.17592400312423706,0.15271180868148804,-0.19302773475646973
1783153094546896000,0.980895751953125,-0.1459924876689911,0.12033691257238388,-0.11361759155988693
1783153094556606700,0.990606689453125,-0.11300674080848694,0.07452336698770523,-0.04703523963689804
1783153094566317300,1.0003173828125,-0.06902574002742767,0.038483377546072006,0.004275931045413017
1783153094576028200,1.010028076171875,-0.023823043331503868,0.01588202826678753,0.043981000781059265
1783153094585738800,1.01973876953125,0.021379653364419937,-0.008551862090826035,0.07085828483104706
1783153094595449600,1.02944970703125,0.0659715011715889,-0.04459185153245926,0.07452336698770523
1783153094605160200,1.03916015625,0.11117420345544815,-0.0781884491443634,0.07269082218408585
1783153094614871000,1.04887109375,0.15515519678592682,-0.10323318839073181,0.07391251623630524
1783153094624582000,1.058581787109375,0.19058434665203094,-0.1050657257437706,0.10017894953489304
1783153094634292500,1.06829248046875,0.20585553348064423,-0.10140064358711243,0.14110571146011353
1783153094644003300,1.07800341796875,0.21501824259757996,-0.10140064358711243,0.18630841374397278
1783153094653714000,1.0877138671875,0.21868331730365753,-0.1185043677687645,0.22723518311977386
1783153094663424800,1.0974248046875,0.21990501880645752,-0.13805148005485535,0.24067382514476776
1783153094673135400,1.10713525390625,0.2113531529903412,-0.13744063675403595,0.23273280262947083
1783153094682846200,1.11684619140625,0.17958909273147583,-0.1178935244679451,0.21501824259757996
1783153094692557000,1.12655712890625,0.12583453953266144,-0.09468132257461548,0.183865025639534
1783153094702267600,1.136267578125,0.06658235192298889,-0.08918370306491852,0.1319430023431778
1783153094711978500,1.145978515625,0.007941014133393764,-0.09773556143045425,0.06169557198882103
1783153094721689000,1.155689208984375,-0.03787253051996231,-0.11422843486070633,-0.022601349279284477
1783153094731400000,1.16539990234375,-0.06169557198882103,-0.12766708433628082,-0.11422843486070633
1783153094741110500,1.175110595703125,-0.06902574002742767,-0.12278030067682266,-0.19913621246814728
1783153094750821400,1.1848212890625,-0.0647498071193695,-0.0910162404179573,-0.25411245226860046
1783153094760532000,1.194531982421875,-0.05741964280605316,-0.05375456064939499,-0.26694026589393616
1783153094770242800,1.204242919921875,-0.05008947476744652,-0.04337015375494957,-0.23273280262947083
1783153094779953400,1.213953369140625,-0.04092676565051079,-0.07024743407964706,-0.16065283119678497
1783153094789664300,1.223664306640625,-0.02504473738372326,-0.1319430023431778,-0.07024743407964706
1783153094799374800,1.233374755859375,-0.0018325417768210173,-0.21257483959197998,0.023212196305394173
1783153094809085700,1.243085693359375,0.024433890357613564,-0.3035911023616791,0.09040539711713791
1783153094818796300,1.25279638671875,0.04947862774133682,-0.395218163728714,0.12278030067682266
1783153094828507100,1.262507080078125,0.0781884491443634,-0.46668729186058044,0.11667182296514511
1783153094838218000,1.272218017578125,0.10689827054738998,-0.5076140761375427,0.07330167293548584
1783153094847928600,1.281928466796875,0.13682979345321655,-0.5436540842056274,0.01954711228609085
1783153094857639400,1.291639404296875,0.16431790590286255,-0.5528167486190796,-0.033596597611904144
1783153094867350000,1.30135009765625,0.18753011524677277,-0.5161659121513367,-0.0647498071193695
1783153094877060900,1.311060791015625,0.1850867122411728,-0.45385950803756714,-0.08551861345767975
1783153094886771500,1.320771484375,0.16187451779842377,-0.4068242609500885,-0.10201149433851242
1783153094896482300,1.330482421875,0.129499614238739,-0.3805578351020813,-0.10811996459960938
1783153094906193200,1.340193115234375,0.10689827054738998,-0.3695625960826874,-0.09529217332601547
1783153094915903700,1.34990380859375,0.0916270911693573,-0.3817795515060425,-0.07085828483104706
1783153094925614600,1.359614501953125,0.07696675509214401,-0.39643988013267517,-0.045202698558568954
1783153094935325200,1.3693251953125,0.05497625470161438,-0.3958290219306946,-0.006719320081174374
1783153094945036000,1.3790361328125,0.028098974376916885,-0.3793361485004425,0.036039989441633224
1783153094954746600,1.38874658203125,0.004275931045413017,-0.3536805510520935,0.08307522535324097
1783153094964457500,1.39845751953125,-0.015271181240677834,-0.3176405727863312,0.12583453953266144
1783153094974168000,1.40816796875,-0.04031591862440109,-0.2987042963504791,0.16676130890846252
1783153094983879000,1.41787890625,-0.0653606578707695,-0.29442837834358215,0.18630841374397278
1783153094993589500,1.427589599609375,-0.0781884491443634,-0.2919849753379822,0.17409147322177887
1783153095003300400,1.43730029296875,-0.06963659077882767,-0.28221142292022705,0.14171656966209412
1783153095013011200,1.44701123046875,-0.055587101727724075,-0.2638860046863556,0.09651386737823486
1783153095022721800,1.4567216796875,-0.03787253051996231,-0.22723518311977386,0.047646086663007736
1783153095032432600,1.4664326171875,-0.01954711228609085,-0.17836740612983704,-0.0036650835536420345
1783153095042143200,1.476143310546875,0.0006108472589403391,-0.14171656966209412,-0.0525328628718853
1783153095051854000,1.48585400390625,0.024433890357613564,-0.1050657257437706,-0.09529217332601547
1783153095061564700,1.495564697265625,0.04825693368911743,-0.06413896381855011,-0.12705622613430023
1783153095071275500,1.505275634765625,0.0653606578707695,-0.02626643143594265,-0.1569877415895462
1783153095080986000,1.514986083984375,0.07757759839296341,0.01954711228609085,-0.16859383881092072
1783153095090697000,1.524697021484375,0.08979454636573792,0.06291726976633072,-0.16553960740566254
1783153095100407600,1.534407470703125,0.10078980028629303,0.08368607610464096,-0.15087927877902985
1783153095110118400,1.544118408203125,0.11178504675626755,0.08368607610464096,-0.13499724864959717
1783153095119829000,1.5538291015625,0.13927318155765533,0.06841489672660828,-0.1178935244679451
1783153095129539800,1.563539794921875,0.17409147322177887,0.04825693368911743,-0.10689827054738998
1783153095139250700,1.573250732421875,0.20524467527866364,0.0390942245721817,-0.10873081535100937
1783153095148961300,1.582961181640625,0.22906772792339325,0.02626643143594265,-0.12216944992542267
1783153095158672100,1.592672119140625,0.24617144465446472,0.02993151545524597,-0.1429382562637329
1783153095168382700,1.6023828125,0.2510582208633423,0.04153761267662048,-0.16859383881092072
1783153095178093600,1.612093505859375,0.23884128034114838,0.05375456064939499,-0.19119518995285034
1783153095187804200,1.62180419921875,0.22051586210727692,0.07207997888326645,-0.20280128717422485
1783153095197515000,1.631514892578125,0.20402298867702484,0.08429691940546036,-0.208298921585083
1783153095207225900,1.641225830078125,0.19180603325366974,0.10017894953489304,-0.20524467527866364
1783153095216936400,1.6509365234375,0.19119518995285034,0.12400199472904205,-0.18997350335121155
1783153095226647300,1.660647216796875,0.1985253542661667,0.14782503247261047,-0.16065283119678497
1783153095236358000,1.67035791015625,0.21685077250003815,0.15087927877902985,-0.11911521852016449
1783153095246068700,1.68006884765625,0.22967857122421265,0.14782503247261047,-0.08063183724880219
1783153095255779300,1.689779296875,0.23945212364196777,0.12522368133068085,-0.042759306728839874
1783153095265490200,1.699490234375,0.24433889985084534,0.08674030750989914,-0.023823043331503868
1783153095275200800,1.70920068359375,0.2486148327589035,0.047646086663007736,-0.012216945178806782
1783153095284911600,1.71891162109375,0.2516690790653229,0.025655584409832954,-0.004886778071522713
1783153095294622200,1.728622314453125,0.2492256760597229,0.03420744836330414,0.0006108472589403391
1783153095304333000,1.7383330078125,0.2339545041322708,0.07207997888326645,0.012827792204916477
1783153095314044000,1.7480439453125,0.20524467527866364,0.10995250940322876,0.02504473738372326
1783153095323754500,1.75775439453125,0.16676130890846252,0.12827792763710022,0.03420744836330414
1783153095333465300,1.76746533203125,0.13377554714679718,0.13988402485847473,0.04337015375494957
1783153095343176000,1.777176025390625,0.10995250940322876,0.1453816443681717,0.05741964280605316
1783153095352886800,1.78688671875,0.08674030750989914,0.12278030067682266,0.0659715011715889
1783153095362597400,1.796597412109375,0.06658235192298889,0.09040539711713791,0.07085828483104706
1783153095372308200,1.80630810546875,0.042759306728839874,0.055587101727724075,0.05986303091049194
1783153095382018800,1.816018798828125,0.023212196305394173,0.020157959312200546,0.03176405653357506
1783153095391729700,1.825729736328125,0.0018325417768210173,-0.00916270911693573,-0.007330167107284069
1783153095401440300,1.835440185546875,-0.036039989441633224,-0.016492875292897224,-0.056808795779943466
1783153095411151000,1.845151123046875,-0.08063183724880219,-0.013438640162348747,-0.10750912129878998
1783153095420862000,1.854862060546875,-0.11545012891292572,0.007330167107284069,-0.15393351018428802
1783153095430572500,1.864572509765625,-0.11422843486070633,0.029320668429136276,-0.18753011524677277
1783153095440283400,1.874283447265625,-0.07757759839296341,0.042759306728839874,-0.20646637678146362
1783153095449994000,1.883993896484375,-0.02504473738372326,0.05986303091049194,-0.1979145109653473
1783153095459704800,1.893704833984375,0.02748812735080719,0.05497625470161438,-0.16431790590286255
1783153095469415400,1.90341552734375,0.07452336698770523,0.036039989441633224,-0.12461283802986145
1783153095479126300,1.913126220703125,0.11361759155988693,0.01038440316915512,-0.08857285231351852
1783153095488836900,1.9228369140625,0.1319430023431778,-0.02993151545524597,-0.07085828483104706
1783153095498547700,1.932547607421875,0.13805148005485535,-0.07146912813186646,-0.08124268800020218
1783153095508258600,1.942258544921875,0.1301104724407196,-0.10628741979598999,-0.11606097966432571
1783153095517969200,1.95196923828125,0.11117420345544815,-0.129499614238739,-0.17225892841815948
1783153095527680000,1.961679931640625,0.09284878522157669,-0.1301104724407196,-0.24250635504722595
1783153095537390600,1.971390625,0.0787992998957634,-0.10628741979598999,-0.31886225938796997
1783153095547101400,1.981101318359375,0.07574506103992462,-0.04886778071522713,-0.37506023049354553
1783153095556812000,1.99081201171875,0.0787992998957634,0.03665083646774292,-0.3958290219306946
1783153095566523000,2.00052294921875,0.08002099394798279,0.10750912129878998,-0.3830012381076813
1783153095576233500,2.0102333984375,0.08429691940546036,0.1459924876689911,-0.33718767762184143
1783153095585944300,2.0199443359375,0.08368607610464096,0.1582094430923462,-0.2748812735080719
1783153095595655200,2.0296552734375,0.08002099394798279,0.14721418917179108,-0.2107423096895218
1783153095605365800,2.03936572265625,0.07146912813186646,0.11606097966432571,-0.16553960740566254
1783153095615076600,2.04907666015625,0.07146912813186646,0.07574506103992462,-0.13316470384597778
1783153095624787200,2.058787109375,0.07513421028852463,0.04214845970273018,-0.1178935244679451
1783153095634498000,2.068498046875,0.07513421028852463,0.015271181240677834,-0.11483928561210632
1783153095644208600,2.078208740234375,0.07146912813186646,0.006719320081174374,-0.12400199472904205
1783153095653919500,2.08791943359375,0.07024743407964706,0.033596597611904144,-0.13377554714679718
1783153095663630300,2.09763037109375,0.07146912813186646,0.07085828483104706,-0.14110571146011353
1783153095673341000,2.1073408203125,0.0787992998957634,0.10017894953489304,-0.14110571146011353
1783153095683051800,2.1170517578125,0.08918370306491852,0.12400199472904205,-0.12705622613430023
1783153095692762400,2.126762451171875,0.10262233763933182,0.14110571146011353,-0.09895725548267365
1783153095702473200,2.13647314453125,0.11972606182098389,0.13805148005485535,-0.05619794875383377
1783153095712183800,2.146183837890625,0.1325538605451584,0.12583453953266144,-0.0030542362947016954
1783153095721894700,2.155894775390625,0.13927318155765533,0.10384403169155121,0.04825693368911743
1783153095731605200,2.165605224609375,0.14843589067459106,0.0910162404179573,0.0916270911693573
1783153095741316000,2.175316162109375,0.1563768982887268,0.06902574002742767,0.11972606182098389
1783153095751027000,2.18502685546875,0.17897824943065643,0.05131116881966591,0.13560809195041656
1783153095760737500,2.194737548828125,0.2095206081867218,0.042759306728839874,0.1441599577665329
1783153095770448400,2.204448486328125,0.23028941452503204,0.04886778071522713,0.14782503247261047
1783153095780159000,2.214158935546875,0.23945212364196777,0.04337015375494957,0.14965757727622986
1783153095789869800,2.223869873046875,0.24128466844558716,0.03665083646774292,0.1447708010673523
1783153095799580400,2.233580322265625,0.2363978922367096,0.01710372418165207,0.12827792763710022
1783153095809291300,2.243291259765625,0.22601348161697388,-0.0006108472589403391,0.10689827054738998
1783153095819001900,2.253001953125,0.1960819661617279,-0.007941014133393764,0.08674030750989914
1783153095828712700,2.262712646484375,0.14904673397541046,-0.017714571207761765,0.06902574002742767
1783153095838423600,2.272423583984375,0.09040539711713791,-0.01710372418165207,0.05070032179355621
1783153095848134100,2.282134033203125,0.031153209507465363,-0.021990500390529633,0.028098974376916885
1783153095857845000,2.291844970703125,-0.02076880633831024,-0.026877280324697495,0.0006108472589403391
1783153095867555600,2.3015556640625,-0.045202698558568954,-0.023212196305394173,-0.024433890357613564
1783153095877266400,2.311266357421875,-0.051922015845775604,-0.008551862090826035,-0.03542914241552353
1783153095886977000,2.32097705078125,-0.04825693368911743,0.0012216945178806782,-0.04092676565051079
1783153095896687900,2.33068798828125,-0.05070032179355621,-0.014049487188458443,-0.042759306728839874
1783153095906398500,2.3403984375,-0.0525328628718853,-0.03420744836330414,-0.04947862774133682
1783153095916109300,2.350109375,-0.06413896381855011,-0.04092676565051079,-0.05986303091049194
1783153095925820200,2.359820068359375,-0.09773556143045425,-0.04459185153245926,-0.07330167293548584
1783153095935530800,2.36953076171875,-0.13866232335567474,-0.02870982140302658,-0.08674030750989914
1783153095945241600,2.37924169921875,-0.17225892841815948,-0.00916270911693573,-0.10078980028629303
1783153095954952200,2.3889521484375,-0.19119518995285034,-0.00916270911693573,-0.12278030067682266
1783153095964663000,2.3986630859375,-0.18753011524677277,0,-0.1429382562637329
1783153095974373600,2.40837353515625,-0.15943112969398499,0.015271181240677834,-0.1563768982887268
1783153095984084500,2.41808447265625,-0.12583453953266144,0.014660334214568138,-0.16431790590286255
1783153095993795300,2.42779541015625,-0.09834641218185425,0.024433890357613564,-0.16370706260204315
1783153096003506000,2.437505859375,-0.07635590434074402,0.016492875292897224,-0.14904673397541046
1783153096013216800,2.447216796875,-0.06169557198882103,-0.014660334214568138,-0.13927318155765533
1783153096022927400,2.45692724609375,-0.05008947476744652,-0.043981000781059265,-0.12400199472904205
1783153096032638200,2.46663818359375,-0.04337015375494957,-0.06352811306715012,-0.11667182296514511
1783153096042348800,2.476348876953125,-0.038483377546072006,-0.07391251623630524,-0.11667182296514511
1783153096052059600,2.4860595703125,-0.029320668429136276,-0.07085828483104706,-0.12278030067682266
1783153096061770200,2.495770263671875,-0.012216945178806782,-0.05070032179355621,-0.12888877093791962
1783153096071481000,2.505481201171875,0.0018325417768210173,-0.020157959312200546,-0.130721315741539
1783153096081191700,2.515191650390625,0.014049487188458443,0.012216945178806782,-0.12705622613430023
1783153096090902500,2.524902587890625,0.021990500390529633,0.033596597611904144,-0.10934165865182877
1783153096100613400,2.53461328125,0.023823043331503868,0.04825693368911743,-0.07024743407964706
1783153096110324000,2.544323974609375,0.024433890357613564,0.04581354558467865,-0.023823043331503868
1783153096120034800,2.554034912109375,0.022601349279284477,0.02748812735080719,0.018936265259981155
1783153096129745400,2.563745361328125,0.02076880633831024,0.00916270911693573,0.055587101727724075
1783153096139456300,2.573456298828125,0.01588202826678753,-0.010995250195264816,0.07207997888326645
1783153096149166800,2.583166748046875,0.009773556143045425,-0.016492875292897224,0.07269082218408585
1783153096158877700,2.592877685546875,-0.0012216945178806782,-0.0024433890357613564,0.055587101727724075
1783153096168588500,2.602588623046875,-0.01588202826678753,0.01588202826678753,0.033596597611904144
1783153096178299100,2.612299072265625,-0.022601349279284477,0.03420744836330414,0.014660334214568138
1783153096188010000,2.622010009765625,-0.022601349279284477,0.04459185153245926,-0.007330167107284069
1783153096197720600,2.631720458984375,-0.017714571207761765,0.038483377546072006,-0.020157959312200546
1783153096207431400,2.641431396484375,-0.015271181240677834,0.023823043331503868,-0.024433890357613564
1783153096217142000,2.65114208984375,-0.015271181240677834,0.0012216945178806782,-0.013438640162348747
1783153096226852900,2.660852783203125,-0.021379653364419937,-0.02870982140302658,-0.0024433890357613564
1783153096236563700,2.670563720703125,-0.028098974376916885,-0.05070032179355621,0.0024433890357613564
1783153096246274300,2.6802744140625,-0.02993151545524597,-0.04947862774133682,0.007941014133393764
1783153096255985200,2.689985107421875,-0.02993151545524597,-0.04031591862440109,0.005497625097632408
1783153096265695700,2.69969580078125,-0.033596597611904144,-0.04337015375494957,-0.006108472589403391
1783153096275406600,2.709406494140625,-0.0390942245721817,-0.056808795779943466,-0.023823043331503868
1783153096285117200,2.7191171875,-0.04886778071522713,-0.06658235192298889,-0.045202698558568954
1783153096294828000,2.728828125,-0.051922015845775604,-0.07635590434074402,-0.05925218388438225
1783153096304538600,2.73853857421875,-0.06413896381855011,-0.0647498071193695,-0.06169557198882103
1783153096314249500,2.74824951171875,-0.08490777015686035,-0.0397050715982914,-0.04703523963689804
1783153096323960300,2.757960205078125,-0.1050657257437706,-0.006719320081174374,-0.020157959312200546
1783153096333671000,2.7676708984375,-0.12094775587320328,0.023212196305394173,0.007330167107284069
1783153096343381800,2.7773818359375,-0.12827792763710022,0.042759306728839874,0.02748812735080719
1783153096353092400,2.78709228515625,-0.1325538605451584,0.04581354558467865,0.0390942245721817
1783153096362803200,2.79680322265625,-0.12888877093791962,0.03237490355968475,0.0390942245721817
1783153096372513800,2.806513671875,-0.11667182296514511,0.026877280324697495,0.028098974376916885
1783153096382224600,2.816224609375,-0.10017894953489304,0.037261683493852615,0.014660334214568138
1783153096391935500,2.825935546875,-0.08551861345767975,0.04947862774133682,-0.004886778071522713
1783153096401646000,2.83564599609375,-0.061084724962711334,0.05803048983216286,-0.030542362481355667
1783153096411357000,2.84535693359375,-0.038483377546072006,0.07146912813186646,-0.053143709897994995
1783153096421067500,2.855067626953125,-0.010995250195264816,0.07024743407964706,-0.0794101431965828
1783153096430778400,2.8647783203125,0.011606098152697086,0.051922015845775604,-0.09468132257461548
1783153096440489000,2.874489013671875,0.03298575058579445,0.04459185153245926,-0.09284878522157669
1783153096450199800,2.88419970703125,0.04947862774133682,0.04581354558467865,-0.07574506103992462
1783153096459910400,2.893910400390625,0.06352811306715012,0.0525328628718853,-0.04825693368911743
1783153096469621200,2.903621337890625,0.07635590434074402,0.05986303091049194,-0.015271181240677834
1783153096479332000,2.91333203125,0.08796200156211853,0.05741964280605316,0.016492875292897224
1783153096489042700,2.923042724609375,0.09956810623407364,0.05070032179355621,0.04031591862440109
1783153096498753500,2.93275341796875,0.11361759155988693,0.037261683493852615,0.05070032179355621
1783153096508464000,2.942464111328125,0.12888877093791962,0.01954711228609085,0.05619794875383377
1783153096518175000,2.952175048828125,0.13499724864959717,0.008551862090826035,0.05070032179355621
1783153096527885600,2.961885498046875,0.130721315741539,0.010995250195264816,0.03787253051996231
1783153096537596400,2.971596435546875,0.11361759155988693,0.017714571207761765,0.023212196305394173
1783153096547307300,2.981307373046875,0.08918370306491852,0.012216945178806782,0.006719320081174374
1783153096557017900,2.991017822265625,0.053143709897994995,0.0012216945178806782,0.0006108472589403391
1783153096566728700,3.000728759765625,0.014660334214568138,-0.0030542362947016954,-0.006719320081174374
1783153096576439300,3.010439208984375,-0.007330167107284069,-0.005497625097632408,-0.01588202826678753
1783153096586150100,3.020150146484375,-0.01588202826678753,0.00916270911693573,-0.02748812735080719
1783153096595860700,3.02986083984375,-0.008551862090826035,0.012827792204916477,-0.045202698558568954
1783153096605571600,3.039571533203125,0.011606098152697086,0.01710372418165207,-0.06658235192298889
1783153096615282200,3.0492822265625,0.038483377546072006,0.02993151545524597,-0.08246438205242157
1783153096624993000,3.058992919921875,0.05619794875383377,0.04214845970273018,-0.10140064358711243
1783153096634704000,3.068703857421875,0.06291726976633072,0.04825693368911743,-0.11300674080848694
1783153096644414500,3.07841455078125,0.061084724962711334,0.04886778071522713,-0.11239589750766754
1783153096654125300,3.088125244140625,0.05925218388438225,0.02870982140302658,-0.10873081535100937
1783153096663836000,3.0978359375,0.051922015845775604,-0.0030542362947016954,-0.10323318839073181
1783153096673546800,3.107546630859375,0.046424392610788345,-0.02626643143594265,-0.0910162404179573
1783153096683257300,3.11725732421875,0.04031591862440109,-0.02504473738372326,-0.06291726976633072
1783153096692968200,3.12696826171875,0.030542362481355667,-0.01832541823387146,-0.02748812735080719
1783153096702678800,3.1366787109375,0.023212196305394173,-0.011606098152697086,0.01710372418165207
1783153096712389600,3.1463896484375,0.012216945178806782,0.0024433890357613564,0.04581354558467865
1783153096722100500,3.1561005859375,0.03298575058579445,0.047646086663007736,0.08918370306491852
1783153096731811000,3.16581103515625,0.025655584409832954,0.0910162404179573,0.13438639044761658
1783153096741522000,3.17552197265625,0.008551862090826035,0.08124268800020218,0.1692046970129013
1783153096751232500,3.185232421875,-0.006108472589403391,0.05925218388438225,0.18814095854759216
1783153096760943400,3.194943359375,-0.005497625097632408,0.03420744836330414,0.1979145109653473
1783153096770654000,3.204654052734375,-0.0018325417768210173,0.01954711228609085,0.19424942135810852
1783153096780364800,3.21436474609375,0.0012216945178806782,0.013438640162348747,0.17714570462703705
1783153096790075600,3.22407568359375,-0.0030542362947016954,0.012216945178806782,0.1582094430923462
1783153096799786200,3.2337861328125,-0.0030542362947016954,0.007941014133393764,0.12888877093791962
1783153096809497000,3.2434970703125,0,-0.004275931045413017,0.09529217332601547
1783153096819207700,3.253207763671875,0.008551862090826035,-0.01954711228609085,0.054365407675504684
1783153096828918500,3.26291845703125,0.02504473738372326,-0.04153761267662048,0.018936265259981155
1783153096838629400,3.27262939453125,0.042759306728839874,-0.05864133685827255,-0.013438640162348747
1783153096848340000,3.282340087890625,0.04947862774133682,-0.0647498071193695,-0.03665083646774292
1783153096858050800,3.29205078125,0.0397050715982914,-0.05131116881966591,-0.04886778071522713
1783153096867761400,3.301761474609375,0.012216945178806782,-0.02748812735080719,-0.04337015375494957
1783153096877472300,3.31147216796875,-0.01588202826678753,-0.01832541823387146,-0.034818295389413834
1783153096887182800,3.321182861328125,-0.031153209507465363,-0.01954711228609085,-0.03176405653357506
1783153096896893700,3.330893798828125,-0.02993151545524597,-0.031153209507465363,-0.036039989441633224
1783153096906604500,3.3406044921875,-0.01038440316915512,-0.04825693368911743,-0.04886778071522713
1783153096916315100,3.350315185546875,0.012216945178806782,-0.05803048983216286,-0.06291726976633072
1783153096926026000,3.36002587890625,0.036039989441633224,-0.06658235192298889,-0.08246438205242157
1783153096935736600,3.369736572265625,0.05741964280605316,-0.0653606578707695,-0.10078980028629303
1783153096945447400,3.379447509765625,0.07024743407964706,-0.046424392610788345,-0.10934165865182877
1783153096955158000,3.389157958984375,0.07330167293548584,-0.020157959312200546,-0.11056335270404816
1783153096964868900,3.398868896484375,0.07452336698770523,-0.008551862090826035,-0.10384403169155121
1783153096974579700,3.408579833984375,0.07635590434074402,-0.006108472589403391,-0.09345962852239609
1783153096984290300,3.418290283203125,0.0787992998957634,-0.007330167107284069,-0.0794101431965828
1783153096994001200,3.428001220703125,0.08124268800020218,-0.012216945178806782,-0.06413896381855011
1783153097003711700,3.437711669921875,0.08674030750989914,-0.018936265259981155,-0.047646086663007736
1783153097013422600,3.447422607421875,0.08918370306491852,-0.02870982140302658,-0.034818295389413834
1783153097023133200,3.45713330078125,0.09407047927379608,-0.04092676565051079,-0.03787253051996231
1783153097032844000,3.466843994140625,0.09834641218185425,-0.04214845970273018,-0.04092676565051079
1783153097042554600,3.4765546875,0.0916270911693573,-0.022601349279284477,-0.04825693368911743
1783153097052265500,3.486265380859375,0.07757759839296341,0.0024433890357613564,-0.05803048983216286
1783153097061976300,3.495976318359375,0.07085828483104706,0.01710372418165207,-0.06719319522380829
1783153097071687000,3.50568701171875,0.07513421028852463,0.024433890357613564,-0.08002099394798279
1783153097081397800,3.515397705078125,0.08429691940546036,0.023212196305394173,-0.08735115826129913
1783153097091108400,3.5251083984375,0.08674030750989914,0.016492875292897224,-0.09834641218185425
1783153097100819200,3.534819091796875,0.0794101431965828,0.005497625097632408,-0.1185043677687645
1783153097110529800,3.54452978515625,0.07452336698770523,0.0036650835536420345,-0.12522368133068085
1783153097120240600,3.55424072265625,0.06169557198882103,0.01038440316915512,-0.1301104724407196
1783153097129951200,3.563951171875,0.045202698558568954,-0.018936265259981155,-0.13866232335567474
1783153097139662000,3.573662109375,0.03665083646774292,-0.04703523963689804,-0.14843589067459106
1783153097149373000,3.583373046875,0.02993151545524597,-0.05131116881966591,-0.16553960740566254
1783153097159083500,3.59308349609375,0.031153209507465363,-0.04703523963689804,-0.19974705576896667
1783153097168794400,3.60279443359375,0.03665083646774292,-0.04153761267662048,-0.2229592502117157
1783153097178505000,3.6125048828125,0.046424392610788345,-0.02993151545524597,-0.237008735537529
1783153097188215800,3.6222158203125,0.05925218388438225,0.0006108472589403391,-0.23273280262947083
1783153097197926700,3.6319267578125,0.062306419014930725,0.0397050715982914,-0.21379654109477997
1783153097207637200,3.64163720703125,0.05741964280605316,0.051922015845775604,-0.1844758689403534
1783153097217348000,3.65134814453125,0.04947862774133682,0.02076880633831024,-0.15210096538066864
1783153097227058700,3.66105859375,0.04886778071522713,-0.013438640162348747,-0.11606097966432571
1783153097236769500,3.67076953125,0.04886778071522713,-0.03298575058579445,-0.07513421028852463
1783153097246480400,3.68048046875,0.05070032179355621,-0.05008947476744652,-0.038483377546072006
1783153097256191000,3.69019091796875,0.053143709897994995,-0.05864133685827255,-0.012216945178806782
1783153097265901800,3.69990185546875,0.05008947476744652,-0.05375456064939499,0.012827792204916477
1783153097275612400,3.7096123046875,0.05008947476744652,-0.05864133685827255,0.020157959312200546
1783153097285323300,3.7193232421875,0.04459185153245926,-0.06352811306715012,0.023823043331503868
1783153097295033900,3.729033935546875,0.045202698558568954,-0.06413896381855011,0.030542362481355667
1783153097304744700,3.73874462890625,0.04214845970273018,-0.055587101727724075,0.042759306728839874
1783153097314455300,3.748455322265625,0.03298575058579445,-0.04214845970273018,0.054365407675504684
1783153097324166100,3.758166259765625,0.013438640162348747,-0.02993151545524597,0.06963659077882767
1783153097333877000,3.767876953125,-0.005497625097632408,-0.02504473738372326,0.08796200156211853
1783153097343587600,3.777587646484375,-0.02076880633831024,-0.025655584409832954,0.09895725548267365
1783153097353298400,3.78729833984375,-0.028098974376916885,-0.02504473738372326,0.10628741979598999
1783153097363009000,3.797009033203125,-0.04092676565051079,-0.029320668429136276,0.10934165865182877
1783153097372719900,3.806719970703125,-0.056808795779943466,-0.04153761267662048,0.10262233763933182
1783153097382430500,3.816430419921875,-0.06841489672660828,-0.04581354558467865,0.08674030750989914
1783153097392141300,3.826141357421875,-0.07696675509214401,-0.038483377546072006,0.07757759839296341
1783153097401852200,3.83585205078125,-0.07696675509214401,-0.021990500390529633,0.06719319522380829
1783153097411562800,3.845562744140625,-0.0647498071193695,-0.010995250195264816,0.0659715011715889
1783153097421273600,3.855273681640625,-0.05619794875383377,-0.00916270911693573,0.07452336698770523
1783153097430984200,3.864984130859375,-0.04947862774133682,-0.00916270911693573,0.09529217332601547
1783153097440695000,3.874695068359375,-0.05497625470161438,-0.007330167107284069,0.12033691257238388
1783153097450405600,3.884405517578125,-0.06963659077882767,-0.007941014133393764,0.1459924876689911
1783153097460116500,3.894116455078125,-0.09284878522157669,-0.014660334214568138,0.17775654792785645
1783153097469827300,3.903827392578125,-0.11056335270404816,-0.029320668429136276,0.20341213047504425
1783153097479538000,3.913537841796875,-0.12216944992542267,-0.045202698558568954,0.21868331730365753
1783153097489248800,3.923248779296875,-0.12522368133068085,-0.06047387793660164,0.21440738439559937
1783153097498959400,3.93295947265625,-0.12827792763710022,-0.07330167293548584,0.1844758689403534
1783153097508670200,3.942670166015625,-0.13621893525123596,-0.08429691940546036,0.13988402485847473
1783153097518381000,3.952381103515625,-0.1441599577665329,-0.09468132257461548,0.0787992998957634
1783153097528091600,3.962091552734375,-0.1459924876689911,-0.09712471067905426,0.008551862090826035
1783153097537802500,3.971802490234375,-0.14049486815929413,-0.08185353130102158,-0.05497625470161438
1783153097547513000,3.98151318359375,-0.12827792763710022,-0.061084724962711334,-0.10262233763933182
1783153097557224000,3.991223876953125,-0.11422843486070633,-0.04337015375494957,-0.12888877093791962
1783153097566934500,4.0009345703125,-0.09040539711713791,-0.037261683493852615,-0.13377554714679718
1783153097576645400,4.010645263671875,-0.06291726976633072,-0.03176405653357506,-0.1172826737165451
1783153097586356200,4.020356201171875,-0.0397050715982914,-0.031153209507465363,-0.09468132257461548
1783153097596066800,4.03006689453125,-0.01038440316915512,-0.04581354558467865,-0.0794101431965828
1783153097605777700,4.039777587890625,0.02748812735080719,-0.07024743407964706,-0.07024743407964706
1783153097615488300,4.04948828125,0.05803048983216286,-0.10201149433851242,-0.05741964280605316
1783153097625199000,4.05919921875,0.07513421028852463,-0.1313321590423584,-0.045202698558568954
1783153097634909700,4.06890966796875,0.07207997888326645,-0.1441599577665329,-0.030542362481355667
1783153097644620500,4.07862060546875,0.06047387793660164,-0.12705622613430023,-0.01588202826678753
1783153097654331100,4.0883310546875,0.05070032179355621,-0.08185353130102158,-0.0024433890357613564
1783153097664042000,4.0980419921875,0.046424392610788345,-0.030542362481355667,0.016492875292897224
1783153097673752800,4.1077529296875,0.045202698558568954,-0.0030542362947016954,0.031153209507465363
1783153097683463400,4.11746337890625,0.04947862774133682,0.0006108472589403391,0.046424392610788345
1783153097693174300,4.12717431640625,0.05008947476744652,-0.005497625097632408,0.05375456064939499
1783153097702884900,4.136884765625,0.04825693368911743,-0.014049487188458443,0.05803048983216286
1783153097712595700,4.146595703125,0.04337015375494957,-0.022601349279284477,0.055587101727724075
1783153097722306300,4.156306396484375,0.038483377546072006,-0.017714571207761765,0.04581354558467865
1783153097732017200,4.16601708984375,0.031153209507465363,-0.006719320081174374,0.03542914241552353
1783153097741727700,4.175727783203125,0.025655584409832954,0.004275931045413017,0.01710372418165207
1783153097751438600,4.1854384765625,0.02748812735080719,0.01710372418165207,0.0036650835536420345
1783153097761149400,4.1951494140625,0.031153209507465363,0.02504473738372326,-0.007330167107284069
1783153097770860000,4.204860107421875,0.03787253051996231,0.02076880633831024,-0.01710372418165207
1783153097780571000,4.21457080078125,0.037261683493852615,0.01710372418165207,-0.028098974376916885
1783153097790281500,4.224281494140625,0.03787253051996231,0.01710372418165207,-0.037261683493852615
1783153097799992300,4.233992431640625,0.030542362481355667,0.015271181240677834,-0.04459185153245926
1783153097809703200,4.243703125,0.022601349279284477,0.011606098152697086,-0.05864133685827255
1783153097819413800,4.253413818359375,0.01954711228609085,-0.0012216945178806782,-0.0794101431965828
1783153097829124600,4.26312451171875,0.01832541823387146,-0.01832541823387146,-0.10628741979598999
1783153097838835200,4.272835205078125,0.017714571207761765,-0.03420744836330414,-0.13988402485847473
1783153097848546000,4.282546142578125,0.026877280324697495,-0.04031591862440109,-0.17286977171897888
1783153097858257000,4.2922568359375,0.037261683493852615,-0.046424392610788345,-0.20157960057258606
1783153097867967500,4.301967529296875,0.04886778071522713,-0.04092676565051079,-0.22540263831615448
1783153097877678300,4.31167822265625,0.053143709897994995,-0.026877280324697495,-0.2339545041322708
1783153097887389000,4.321388916015625,0.04581354558467865,-0.010995250195264816,-0.2229592502117157
1783153097897099800,4.331099853515625,0.03420744836330414,-0.008551862090826035,-0.20402298867702484
1783153097906810400,4.340810302734375,0.017714571207761765,-0.01954711228609085,-0.17897824943065643
1783153097916521200,4.350521240234375,0.004886778071522713,-0.029320668429136276,-0.1563768982887268
1783153097926231800,4.360231689453125,0.0006108472589403391,-0.04459185153245926,-0.14171656966209412
1783153097935942700,4.369942626953125,0.0012216945178806782,-0.05375456064939499,-0.13377554714679718
1783153097945653500,4.379653564453125,0.004275931045413017,-0.046424392610788345,-0.129499614238739
1783153097955364000,4.389364013671875,0.008551862090826035,-0.025655584409832954,-0.11972606182098389
1783153097965075000,4.399074951171875,0.015271181240677834,-0.005497625097632408,-0.10628741979598999
1783153097974785500,4.40878564453125,0.025655584409832954,0.01038440316915512,-0.0916270911693573
1783153097984496400,4.418496337890625,0.029320668429136276,0.01710372418165207,-0.07391251623630524
1783153097994207000,4.42820703125,0.03176405653357506,0.010995250195264816,-0.053143709897994995
1783153098003917800,4.437917724609375,0.02993151545524597,-0.0006108472589403391,-0.03298575058579445
1783153098013628700,4.447628662109375,0.017714571207761765,-0.007941014133393764,-0.0036650835536420345
1783153098023339300,4.45733935546875,0.005497625097632408,-0.007330167107284069,0.01832541823387146
1783153098033050000,4.467050048828125,-0.005497625097632408,0.0036650835536420345,0.029320668429136276
1783153098042760700,4.4767607421875,-0.0036650835536420345,0.0036650835536420345,0.037261683493852615
1783153098052471600,4.486471435546875,0.012827792204916477,0.01038440316915512,0.04459185153245926
1783153098062182400,4.496182373046875,0.04214845970273018,0.015271181240677834,0.04947862774133682
1783153098071893000,4.50589306640625,0.07024743407964706,0.012827792204916477,0.05375456064939499
1783153098081603800,4.515603759765625,0.08674030750989914,0.006719320081174374,0.054365407675504684
1783153098091314400,4.525314453125,0.08551861345767975,0.0024433890357613564,0.05741964280605316
1783153098101025300,4.535025390625,0.0653606578707695,0,0.07085828483104706
1783153098110736000,4.54473583984375,0.04214845970273018,0.0030542362947016954,0.08796200156211853
1783153098120446700,4.55444677734375,0.018936265259981155,0,0.10628741979598999
1783153098130157600,4.564157470703125,-0.011606098152697086,-0.005497625097632408,0.11300674080848694
1783153098139868200,4.5738681640625,-0.04214845970273018,-0.01588202826678753,0.10140064358711243
1783153098149579000,4.5835791015625,-0.07696675509214401,-0.04153761267662048,0.07269082218408585
1783153098159289600,4.59328955078125,-0.09895725548267365,-0.05986303091049194,0.02870982140302658
1783153098169000400,4.60300048828125,-0.10873081535100937,-0.05741964280605316,-0.022601349279284477
1783153098178711000,4.6127109375,-0.10323318839073181,-0.04825693368911743,-0.07085828483104706
1783153098188422000,4.622421875,-0.08796200156211853,-0.054365407675504684,-0.1056765764951706
1783153098198132700,4.6321328125,-0.06902574002742767,-0.05925218388438225,-0.12339114397764206
1783153098207843300,4.64184326171875,-0.054365407675504684,-0.06719319522380829,-0.11911521852016449
1783153098217554200,4.65155419921875,-0.04703523963689804,-0.08185353130102158,-0.09345962852239609
1783153098227264800,4.6612646484375,-0.04459185153245926,-0.10384403169155121,-0.04703523963689804
1783153098236975600,4.6709755859375,-0.043981000781059265,-0.1325538605451584,0.009773556143045425
1783153098246686200,4.680686279296875,-0.04581354558467865,-0.1575985997915268,0.06047387793660164
1783153098256397000,4.69039697265625,-0.043981000781059265,-0.1973036676645279,0.09590301662683487
1783153098266107600,4.700107666015625,-0.0525328628718853,-0.22967857122421265,0.09773556143045425
1783153098275818500,4.709818603515625,-0.0653606578707695,-0.2486148327589035,0.08246438205242157
1783153098285529300,4.719529296875,-0.08429691940546036,-0.2498365342617035,0.04825693368911743
1783153098295240000,4.729239990234375,-0.11545012891292572,-0.22784602642059326,0.0030542362947016954
1783153098304950800,4.73895068359375,-0.1557660549879074,-0.1973036676645279,-0.04092676565051079
1783153098314661400,4.748661376953125,-0.18997350335121155,-0.16126367449760437,-0.06719319522380829
1783153098324372200,4.758372314453125,-0.21929416060447693,-0.12094775587320328,-0.08307522535324097
1783153098334083000,4.7680830078125,-0.23823043704032898,-0.09712471067905426,-0.07513421028852463
1783153098343793700,4.777793701171875,-0.2498365342617035,-0.08246438205242157,-0.062306419014930725
1783153098353504500,4.78750439453125,-0.25289076566696167,-0.07024743407964706,-0.02626643143594265
1783153098363215000,4.797215087890625,-0.2644968628883362,-0.0525328628718853,0.023212196305394173
1783153098372926000,4.806926025390625,-0.284654825925827,-0.05070032179355621,0.06963659077882767
1783153098382636500,4.816636474609375,-0.30603447556495667,-0.05925218388438225,0.10323318839073181
1783153098392347400,4.826347412109375,-0.32069480419158936,-0.04947862774133682,0.12766708433628082
1783153098402058200,4.836058349609375,-0.33535513281822205,-0.01832541823387146,0.13316470384597778
1783153098411768800,4.845768798828125,-0.34696123003959656,0.014049487188458443,0.12583453953266144
1783153098421479700,4.855479736328125,-0.3549022674560547,0.030542362481355667,0.11178504675626755
1783153098431190300,4.865190185546875,-0.3408527672290802,0.04581354558467865,0.08551861345767975
1783153098440901000,4.874901123046875,-0.312142938375473,0.05008947476744652,0.05741964280605316
1783153098450611700,4.88461181640625,-0.2779355049133301,0.05803048983216286,0.03542914241552353
1783153098460322600,4.894322509765625,-0.24311721324920654,0.05619794875383377,0.023823043331503868
1783153098470033400,4.904033447265625,-0.20585553348064423,0.042759306728839874,0.026877280324697495
1783153098479744000,4.913743896484375,-0.16676130890846252,0.016492875292897224,0.038483377546072006
1783153098489454800,4.923454833984375,-0.12583453953266144,-0.017714571207761765,0.05803048983216286
1783153098499165400,4.93316552734375,-0.08918370306491852,-0.06352811306715012,0.08063183724880219
1783153098508876300,4.942876220703125,-0.056808795779943466,-0.11239589750766754,0.10017894953489304
1783153098518587000,4.9525869140625,-0.020157959312200546,-0.15332266688346863,0.10689827054738998
1783153098528297700,4.962297607421875,0.012216945178806782,-0.17348061501979828,0.09895725548267365
1783153098538008600,4.972008544921875,0.03665083646774292,-0.17958909273147583,0.08185353130102158
1783153098547719200,4.98171923828125,0.04581354558467865,-0.1850867122411728,0.05619794875383377
1783153098557430000,4.991429931640625,0.038483377546072006,-0.1820324808359146,0.021990500390529633
1783153098567140600,5.001140625,0.026877280324697495,-0.17225892841815948,-0.005497625097632408
1783153098576851500,5.0108515625,0.014049487188458443,-0.15149012207984924,-0.025655584409832954
1783153098586562300,5.020562255859375,-0.007330167107284069,-0.12583453953266144,-0.02748812735080719
1783153098596273000,5.03027294921875,-0.04214845970273018,-0.12033691257238388,-0.026877280324697495
1783153098605983700,5.039983642578125,-0.08674030750989914,-0.129499614238739,-0.03298575058579445
1783153098615694300,5.0496943359375,-0.12522368133068085,-0.1313321590423584,-0.04214845970273018
1783153098625405200,5.0594052734375,-0.14904673397541046,-0.12583453953266144,-0.05741964280605316
1783153098635115800,5.06911572265625,-0.16065283119678497,-0.11178504675626755,-0.08612946420907974
1783153098644826600,5.07882666015625,-0.16187451779842377,-0.08246438205242157,-0.11056335270404816
1783153098654537500,5.088537353515625,-0.16065283119678497,-0.04947862774133682,-0.13621893525123596
1783153098664248000,5.098248046875,-0.16065283119678497,-0.034818295389413834,-0.16676130890846252
1783153098673959000,5.107958984375,-0.1575985997915268,-0.02076880633831024,-0.1966928243637085
1783153098683669500,5.11766943359375,-0.1575985997915268,0.0006108472589403391,-0.2345653474330902
1783153098693380400,5.12738037109375,-0.15026842057704926,0.006719320081174374,-0.2608317732810974
1783153098703091000,5.137091064453125,-0.1459924876689911,0.01954711228609085,-0.28160059452056885
1783153098712801800,5.1468017578125,-0.13621893525123596,0.024433890357613564,-0.2852656841278076
1783153098722512600,5.1565126953125,-0.12339114397764206,0.021379653364419937,-0.2736595869064331
1783153098732223200,5.16622314453125,-0.1044548824429512,0.01832541823387146,-0.25289076566696167
1783153098741934000,5.17593408203125,-0.08979454636573792,0.017714571207761765,-0.22845686972141266
1783153098751644700,5.185644775390625,-0.08857285231351852,0.017714571207761765,-0.2089097648859024
1783153098761355500,5.19535546875,-0.08918370306491852,0.004275931045413017,-0.20096874237060547
1783153098771066400,5.20506640625,-0.07696675509214401,-0.01038440316915512,-0.1985253542661667
1783153098780777000,5.21477685546875,-0.04886778071522713,-0.01954711228609085,-0.19424942135810852
1783153098790487800,5.22448779296875,-0.014660334214568138,-0.029320668429136276,-0.1844758689403534
1783153098800198400,5.234198486328125,0.02504473738372326,-0.05070032179355621,-0.16737215220928192
1783153098809909200,5.2439091796875,0.061084724962711334,-0.05131116881966591,-0.1435490995645523
1783153098819619800,5.253619873046875,0.0910162404179573,-0.03665083646774292,-0.11545012891292572
1783153098829330700,5.26333056640625,0.08918370306491852,-0.02076880633831024,-0.08002099394798279
1783153098839041500,5.27304150390625,0.06780404597520828,-0.012216945178806782,-0.042759306728839874
1783153098848752000,5.282752197265625,0.02870982140302658,-0.0012216945178806782,-0.014660334214568138
1783153098858463000,5.292462890625,-0.029320668429136276,0.0036650835536420345,0
1783153098868173600,5.302173583984375,-0.07330167293548584,0.004886778071522713,0.011606098152697086
1783153098877884400,5.311884521484375,-0.09284878522157669,0.010995250195264816,0.004275931045413017
1783153098887595000,5.321594970703125,-0.09773556143045425,0.02076880633831024,-0.004275931045413017
1783153098897305900,5.331305908203125,-0.0916270911693573,0.04031591862440109,-0.01710372418165207
1783153098907016700,5.3410166015625,-0.0787992998957634,0.05070032179355621,-0.021379653364419937
1783153098916727300,5.350727294921875,-0.05497625470161438,0.04581354558467865,-0.023212196305394173
1783153098926438100,5.360438232421875,-0.022601349279284477,0.031153209507465363,-0.01832541823387146
1783153098936148700,5.370148681640625,0.008551862090826035,0.012827792204916477,-0.0030542362947016954
1783153098945859600,5.379859619140625,0.03298575058579445,-0.006719320081174374,0.029320668429136276
1783153098955570400,5.3895703125,0.04825693368911743,-0.02626643143594265,0.0787992998957634
1783153098965281000,5.399281005859375,0.051922015845775604,-0.04214845970273018,0.1325538605451584
1783153098974992000,5.408991943359375,0.05375456064939499,-0.06169557198882103,0.1844758689403534
1783153098984702500,5.418702392578125,0.05864133685827255,-0.07330167293548584,0.22784602642059326
1783153098994413300,5.428413330078125,0.06780404597520828,-0.07391251623630524,0.2602209448814392
1783153099004124000,5.4381240234375,0.06658235192298889,-0.06841489672660828,0.27121618390083313
1783153099013834800,5.447834716796875,0.04581354558467865,-0.07207997888326645,0.2632751762866974
1783153099023545600,5.457545654296875,0.02076880633831024,-0.08063183724880219,0.2480039894580841
1783153099033256200,5.467256103515625,0.0036650835536420345,-0.08490777015686035,0.2241809368133545
1783153099042967000,5.476967041015625,0,-0.07391251623630524,0.20157960057258606
1783153099052677600,5.486677734375,-0.015271181240677834,-0.07513421028852463,0.19180603325366974
1783153099062388500,5.496388427734375,-0.038483377546072006,-0.07024743407964706,0.20219044387340546
1783153099072099000,5.50609912109375,-0.07635590434074402,-0.04031591862440109,0.23273280262947083
1783153099081810000,5.515809814453125,-0.12522368133068085,0.0018325417768210173,0.25533416867256165
1783153099091520800,5.525520751953125,-0.17836740612983704,0.037261683493852615,0.25777754187583923
1783153099101231400,5.5352314453125,-0.21807247400283813,0.05741964280605316,0.22845686972141266
1783153099110942200,5.544942138671875,-0.23090025782585144,0.061084724962711334,0.16187451779842377
1783153099120652800,5.55465283203125,-0.21379654109477997,0.056808795779943466,0.08063183724880219
1783153099130363600,5.56436376953125,-0.17409147322177887,0.05619794875383377,0.0006108472589403391
1783153099140074500,5.574074462890625,-0.12827792763710022,0.06413896381855011,-0.06352811306715012
1783153099149785000,5.58378515625,-0.07757759839296341,0.07635590434074402,-0.09468132257461548
1783153099159496000,5.593495849609375,-0.031153209507465363,0.0910162404179573,-0.09345962852239609
1783153099169206500,5.60320654296875,0.0030542362947016954,0.09834641218185425,-0.04947862774133682
1783153099178917400,5.61291748046875,0.02504473738372326,0.09590301662683487,0.025655584409832954
1783153099188628000,5.6226279296875,0.02626643143594265,0.07696675509214401,0.11178504675626755
1783153099198338800,5.6323388671875,0.014049487188458443,0.030542362481355667,0.1850867122411728
1783153099208049700,5.642049560546875,-0.0024433890357613564,-0.033596597611904144,0.23884128034114838
1783153099217760300,5.65176025390625,-0.02626643143594265,-0.08429691940546036,0.26755109429359436
1783153099227471000,5.66147119140625,-0.05619794875383377,-0.09345962852239609,0.2767138183116913
1783153099237181700,5.671181640625,-0.09590301662683487,-0.05864133685827255,0.26999449729919434
1783153099246892500,5.680892578125,-0.15210096538066864,0.01038440316915512,0.2602209448814392
1783153099256603100,5.69060302734375,-0.2095206081867218,0.10140064358711243,0.23823043704032898
1783153099266314000,5.70031396484375,-0.25655585527420044,0.17775654792785645,0.21501824259757996
1783153099276024800,5.71002490234375,-0.284654825925827,0.21623992919921875,0.19180603325366974
1783153099285735400,5.7197353515625,-0.29626092314720154,0.21868331730365753,0.18019993603229523
1783153099295446300,5.7294462890625,-0.29687178134918213,0.20707722008228302,0.17836740612983704
1783153099305156900,5.739156982421875,-0.2993151545524597,0.18630841374397278,0.17653486132621765
1783153099314867700,5.74886767578125,-0.3029802441596985,0.17286977171897888,0.1832541823387146
1783153099324578600,5.75857861328125,-0.2999260127544403,0.17286977171897888,0.19974705576896667
1783153099334289200,5.7682890625,-0.291374146938324,0.182643324136734,0.2229592502117157
1783153099344000000,5.778,-0.27915719151496887,0.19058434665203094,0.23823043704032898
1783153099353710600,5.787710693359375,-0.26938363909721375,0.1850867122411728,0.23334364593029022
1783153099363421400,5.79742138671875,-0.25594499707221985,0.23273280262947083,0.21379654109477997
1783153099373132000,5.807132080078125,-0.24311721324920654,0.314586341381073,0.1698155403137207
1783153099382843000,5.8168427734375,-0.22845686972141266,0.37322768568992615,0.09407047927379608
1783153099392553700,5.8265537109375,-0.1948602795600891,0.3823903799057007,0.016492875292897224
1783153099402264300,5.836264404296875,-0.14965757727622986,0.3939964771270752,-0.046424392610788345
1783153099411975200,5.84597509765625,-0.10995250940322876,0.40071579813957214,-0.08612946420907974
1783153099421686000,5.85568603515625,-0.08307522535324097,0.3671191930770874,-0.12339114397764206
1783153099431396600,5.865396728515625,-0.05986303091049194,0.29687178134918213,-0.1557660549879074
1783153099441107500,5.875107421875,-0.03237490355968475,0.21501824259757996,-0.1704263836145401
1783153099450818000,5.884818115234375,0,0.12278030067682266,-0.17225892841815948
1783153099460529000,5.89452880859375,0.03176405653357506,0.02504473738372326,-0.1569877415895462
1783153099470239500,5.904239501953125,0.05375456064939499,-0.06047387793660164,-0.11972606182098389
1783153099479950300,5.913950439453125,0.07085828483104706,-0.1319430023431778,-0.06841489672660828
1783153099489661000,5.923660888671875,0.0910162404179573,-0.1698155403137207,-0.00916270911693573
1783153099499371800,5.933371826171875,0.10628741979598999,-0.16370706260204315,0.05008947476744652
1783153099509082600,5.94308251953125,0.11056335270404816,-0.15026842057704926,0.09040539711713791
1783153099518793200,5.952793212890625,0.10628741979598999,-0.15026842057704926,0.09712471067905426
1783153099528504000,5.962504150390625,0.10689827054738998,-0.15332266688346863,0.07757759839296341
1783153099538215000,5.97221484375,0.1050657257437706,-0.13560809195041656,0.04337015375494957
1783153099547925500,5.981925537109375,0.09712471067905426,-0.09712471067905426,0.00916270911693573
1783153099557636400,5.99163623046875,0.08612946420907974,-0.06963659077882767,-0.02076880633831024
1783153099567347000,6.001346923828125,0.09590301662683487,-0.07085828483104706,-0.0397050715982914
1783153099577057800,6.011057861328125,0.11361759155988693,-0.062306419014930725,-0.04153761267662048
1783153099586768400,6.020768310546875,0.13377554714679718,-0.055587101727724075,-0.03176405653357506
1783153099596479200,6.030479248046875,0.15149012207984924,-0.06963659077882767,-0.0024433890357613564
1783153099606190000,6.040190185546875,0.17225892841815948,-0.08857285231351852,0.04092676565051079
1783153099615900700,6.049900634765625,0.17897824943065643,-0.10140064358711243,0.08490777015686035
1783153099625611500,6.059611572265625,0.17286977171897888,-0.12766708433628082,0.12705622613430023
1783153099635322000,6.069322021484375,0.1569877415895462,-0.15393351018428802,0.16492876410484314
1783153099645033000,6.079032958984375,0.1313321590423584,-0.16004198789596558,0.1948602795600891
1783153099654743800,6.088743896484375,0.09712471067905426,-0.15210096538066864,0.21440738439559937
1783153099664454400,6.098454345703125,0.06780404597520828,-0.14782503247261047,0.2107423096895218
1783153099674165200,6.108165283203125,0.0525328628718853,-0.13682979345321655,0.1850867122411728
1783153099683875800,6.117875732421875,0.04886778071522713,-0.11056335270404816,0.14965757727622986
1783153099693586700,6.127586669921875,0.05131116881966591,-0.09529217332601547,0.10323318839073181
1783153099703297300,6.13729736328125,0.04886778071522713,-0.09345962852239609,0.05925218388438225
1783153099713008000,6.147008056640625,0.05070032179355621,-0.09956810623407364,0.022601349279284477
1783153099722719000,6.156718994140625,0.05375456064939499,-0.10140064358711243,-0.004886778071522713
1783153099732429600,6.1664296875,0.0659715011715889,-0.11178504675626755,-0.018936265259981155
1783153099742140400,6.176140380859375,0.08185353130102158,-0.12522368133068085,-0.023212196305394173
1783153099751851000,6.18585107421875,0.09834641218185425,-0.14660334587097168,-0.021379653364419937
1783153099761561900,6.195561767578125,0.1044548824429512,-0.183865025639534,-0.031153209507465363
1783153099771272700,6.205272705078125,0.10628741979598999,-0.21990501880645752,-0.042759306728839874
1783153099780983300,6.2149833984375,0.10323318839073181,-0.2492256760597229,-0.07146912813186646
1783153099790694100,6.224694091796875,0.09529217332601547,-0.2767138183116913,-0.10873081535100937
1783153099800404700,6.23440478515625,0.09529217332601547,-0.29320669174194336,-0.14721418917179108
1783153099810115600,6.244115478515625,0.09345962852239609,-0.28404396772384644,-0.17653486132621765
1783153099819826400,6.253826416015625,0.08002099394798279,-0.2718270421028137,-0.18691925704479218
1783153099829537000,6.263537109375,0.05008947476744652,-0.25350162386894226,-0.17958909273147583
1783153099839248000,6.273247802734375,0.0024433890357613564,-0.23212195932865143,-0.15149012207984924
1783153099848958500,6.28295849609375,-0.05741964280605316,-0.20707722008228302,-0.11545012891292572
1783153099858669300,6.29266943359375,-0.12339114397764206,-0.19302773475646973,-0.08735115826129913
1783153099868380000,6.3023798828125,-0.17714570462703705,-0.17897824943065643,-0.06658235192298889
1783153099878090800,6.3120908203125,-0.2107423096895218,-0.17286977171897888,-0.05497625470161438
1783153099887801600,6.321801513671875,-0.21379654109477997,-0.17653486132621765,-0.05619794875383377
1783153099897512200,6.33151220703125,-0.20035789906978607,-0.18081079423427582,-0.06841489672660828
1783153099907223000,6.34122314453125,-0.17958909273147583,-0.1832541823387146,-0.08002099394798279
1783153099916933600,6.35093359375,-0.16859383881092072,-0.17409147322177887,-0.08979454636573792
1783153099926644500,6.36064453125,-0.17225892841815948,-0.1435490995645523,-0.08490777015686035
1783153099936355300,6.370355224609375,-0.182643324136734,-0.08918370306491852,-0.0659715011715889
1783153099946066000,6.38006591796875,-0.19913621246814728,-0.02870982140302658,-0.04092676565051079
1783153099955776800,6.38977685546875,-0.2235700935125351,-0.004886778071522713,-0.02626643143594265
1783153099965487400,6.3994873046875,-0.22845686972141266,-0.01832541823387146,-0.02504473738372326
1783153099975198200,6.4091982421875,-0.20341213047504425,-0.04703523963689804,-0.029320668429136276
1783153099984909000,6.418908935546875,-0.1557660549879074,-0.06841489672660828,-0.04031591862440109
1783153099994619600,6.42861962890625,-0.1044548824429512,-0.08063183724880219,-0.0390942245721817
1783153100004330500,6.43833056640625,-0.05741964280605316,-0.08368607610464096,-0.02076880633831024
1783153100014041000,6.448041015625,-0.018936265259981155,-0.08490777015686035,0.00916270911693573
1783153100023752000,6.457751953125,0.012216945178806782,-0.08246438205242157,0.03665083646774292
1783153100033462800,6.467462890625,0.03542914241552353,-0.08796200156211853,0.062306419014930725
1783153100043173400,6.47717333984375,0.05497625470161438,-0.1056765764951706,0.07757759839296341
1783153100052884200,6.48688427734375,0.05986303091049194,-0.11667182296514511,0.09284878522157669
1783153100062594800,6.4965947265625,0.056808795779943466,-0.11667182296514511,0.08368607610464096
1783153100072305700,6.5063056640625,0.04031591862440109,-0.09040539711713791,0.02748812735080719
1783153100082016500,6.5160166015625,0.056808795779943466,-0.10078980028629303,-0.07452336698770523
1783153100091727000,6.52572705078125,0.062306419014930725,-0.09345962852239609,-0.26938363909721375
1783153100101438000,6.53543798828125,0.1050657257437706,-0.07696675509214401,-0.4947862923145294
1783153100111148500,6.5451484375,0.12827792763710022,-0.033596597611904144,-0.6939224600791931
1783153100120859400,6.554859375,0.0659715011715889,0.0922379344701767,-0.8405258059501648
1783153100130570000,6.564570068359375,-0.15943112969398499,0.43919917941093445,-0.8625163435935974
1783153100140280800,6.57428076171875,-0.18142163753509521,0.10262233763933182,-0.8130376935005188
1783153100149991700,6.58399169921875,-0.2504473626613617,-0.37261682748794556,-0.7513421177864075
1783153100159702300,6.593702392578125,-0.30969956517219543,-0.6804838180541992,-0.5882459282875061
1783153100169413000,6.6034130859375,-0.3439069986343384,-0.8026533126831055,-0.35917818546295166
1783153100179124000,6.6131240234375,-0.3665083646774292,-0.8674030900001526,-0.1172826737165451
1783153100188834600,6.62283447265625,-0.29626092314720154,-0.5607577562332153,0.13377554714679718
1783153100198545400,6.63254541015625,-0.22051586210727692,-0.37139514088630676,0.3133646547794342
1783153100208256000,6.642256103515625,-0.21685077250003815,-0.3408527672290802,0.3542914092540741
1783153100217966800,6.651966796875,-0.2596100866794586,-0.4300364851951599,0.29565006494522095
1783153100227677400,6.661677490234375,-0.3042019307613373,-0.4727957844734192,0.22479179501533508
1783153100237388300,6.67138818359375,-0.33535513281822205,-0.40010493993759155,0.19058434665203094
1783153100247099100,6.68109912109375,-0.34573954343795776,-0.1979145109653473,0.1948602795600891
1783153100256809700,6.690809814453125,-0.3365768492221832,0.05986303091049194,0.25594499707221985
1783153100266520600,6.7005205078125,-0.3151971995830536,0.27854636311531067,0.3518480062484741
1783153100276231400,6.7102314453125,-0.2779355049133301,0.42698222398757935,0.46485477685928345
1783153100285942000,6.71994189453125,-0.2339545041322708,0.5137225389480591,0.5803049206733704
1783153100295652900,6.72965283203125,-0.17775654792785645,0.5479300022125244,0.6975875496864319
1783153100305363500,6.739363525390625,-0.08246438205242157,0.5473191738128662,0.7898254990577698
1783153100315074300,6.74907421875,0.013438640162348747,0.577861487865448,0.8496885299682617
1783153100324785000,6.758784912109375,0.10140064358711243,0.6316160559654236,0.8722898960113525
1783153100334495700,6.768495849609375,0.17531315982341766,0.6316160559654236,0.8344173431396484
1783153100344206600,6.77820654296875,0.2113531529903412,0.5851916670799255,0.7238540053367615
1783153100353917200,6.787917236328125,0.2113531529903412,0.5467082858085632,0.5638120174407959
1783153100363628000,6.7976279296875,0.183865025639534,0.5497625470161438,0.37383851408958435
1783153100373339000,6.8073388671875,0.14843589067459106,0.5601469278335571,0.16798299551010132
1783153100383049500,6.817049560546875,0.11545012891292572,0.5607577562332153,-0.03298575058579445
1783153100392760300,6.82676025390625,0.09284878522157669,0.5497625470161438,-0.21623992919921875
1783153100402471000,6.836470947265625,0.08185353130102158,0.5198310017585754,-0.3695625960826874
1783153100412181800,6.846181640625,0.08002099394798279,0.46485477685928345,-0.47585001587867737
1783153100421892400,6.855892333984375,0.0794101431965828,0.3573456406593323,-0.5296045541763306
1783153100431603200,6.865603271484375,0.07269082218408585,0.20524467527866364,-0.5351021885871887
1783153100441314000,6.87531396484375,0.062306419014930725,0.062306419014930725,-0.5033381581306458
1783153100451024600,6.885024658203125,0.037261683493852615,-0.042759306728839874,-0.4367557764053345
1783153100460735500,6.894735595703125,0.007330167107284069,-0.10873081535100937,-0.3542914092540741
1783153100470446000,6.904446044921875,-0.012216945178806782,-0.13377554714679718,-0.2724378705024719
1783153100480157000,6.914156982421875,-0.01832541823387146,-0.12522368133068085,-0.20035789906978607
1783153100489867800,6.92386767578125,-0.005497625097632408,-0.09773556143045425,-0.13560809195041656
1783153100499578400,6.933578369140625,0.031153209507465363,-0.05803048983216286,-0.05741964280605316
1783153100509289200,6.943289306640625,0.06841489672660828,-0.0012216945178806782,0.047646086663007736
1783153100519000000,6.953,0.08918370306491852,0.06352811306715012,0.17897824943065643
1783153100528710700,6.962710693359375,0.08429691940546036,0.0916270911693573,0.3035911023616791
1783153100538421500,6.97242138671875,0.07330167293548584,0.06169557198882103,0.393385648727417
1783153100548132000,6.982132080078125,0.06169557198882103,-0.0006108472589403391,0.44958359003067017
1783153100557843000,6.991843017578125,0.06047387793660164,-0.07574506103992462,0.4581354558467865
1783153100567553500,7.001553466796875,0.06047387793660164,-0.12522368133068085,0.4300364851951599
1783153100577264400,7.011264404296875,0.05803048983216286,-0.14721418917179108,0.3640649616718292
1783153100586975200,7.020975341796875,0.05497625470161438,-0.12522368133068085,0.2748812735080719
1783153100596685800,7.030685791015625,0.053143709897994995,-0.0653606578707695,0.18630841374397278
1783153100606396700,7.040396728515625,0.053143709897994995,0.01954711228609085,0.10323318839073181
1783153100616107500,7.050107421875,0.04886778071522713,0.10873081535100937,0.033596597611904144
1783153100625818000,7.059818115234375,0.04703523963689804,0.17470231652259827,-0.01954711228609085
1783153100635529000,7.069529052734375,0.04825693368911743,0.20402298867702484,-0.053143709897994995
1783153100645239600,7.079239501953125,0.05619794875383377,0.1979145109653473,-0.06719319522380829
1783153100654950400,7.088950439453125,0.06291726976633072,0.17958909273147583,-0.06352811306715012
1783153100664661200,7.0986611328125,0.06291726976633072,0.15515519678592682,-0.04337015375494957
1783153100674371800,7.108371826171875,0.061084724962711334,0.12461283802986145,-0.014660334214568138
1783153100684082700,7.118082763671875,0.062306419014930725,0.09712471067905426,0.01954711228609085
1783153100693793300,7.127793212890625,0.0647498071193695,0.07635590434074402,0.04825693368911743
1783153100703504100,7.137504150390625,0.0653606578707695,0.06352811306715012,0.06352811306715012
1783153100713215000,7.147215087890625,0.0653606578707695,0.04703523963689804,0.062306419014930725
1783153100722925600,7.156925537109375,0.0647498071193695,0.038483377546072006,0.05008947476744652
1783153100732636400,7.166636474609375,0.05986303091049194,0.04153761267662048,0.02748812735080719
1783153100742347000,7.176346923828125,0.05803048983216286,0.05008947476744652,0.006719320081174374
1783153100752057900,7.186057861328125,0.05497625470161438,0.06658235192298889,-0.01832541823387146
1783153100761768700,7.195768798828125,0.056808795779943466,0.08551861345767975,-0.03787253051996231
1783153100771479300,7.205479248046875,0.06047387793660164,0.10017894953489304,-0.05497625470161438
1783153100781190100,7.215190185546875,0.06047387793660164,0.11239589750766754,-0.06047387793660164
1783153100790900700,7.224900634765625,0.053143709897994995,0.10934165865182877,-0.06047387793660164
1783153100800611600,7.234611572265625,0.04703523963689804,0.08368607610464096,-0.06719319522380829
1783153100810322400,7.244322509765625,0.051922015845775604,0.05497625470161438,-0.07146912813186646
1783153100820033000,7.254032958984375,0.0653606578707695,0.03665083646774292,-0.0781884491443634
1783153100829743900,7.263743896484375,0.08002099394798279,0.05497625470161438,-0.07330167293548584
1783153100839454500,7.273454345703125,0.08490777015686035,0.07513421028852463,-0.07452336698770523
1783153100849165300,7.283165283203125,0.08612946420907974,0.0916270911693573,-0.07452336698770523
1783153100858876200,7.292876220703125,0.08307522535324097,0.11606097966432571,-0.0781884491443634
1783153100868586800,7.302586669921875,0.0794101431965828,0.130721315741539,-0.08735115826129913
1783153100878297600,7.312297607421875,0.07452336698770523,0.11545012891292572,-0.09651386737823486
1783153100888008400,7.322008544921875,0.07207997888326645,0.09407047927379608,-0.10689827054738998
1783153100897719000,7.331718994140625,0.0659715011715889,0.07574506103992462,-0.10323318839073181
1783153100907430000,7.341429931640625,0.06047387793660164,0.0653606578707695,-0.09529217332601547
1783153100917140500,7.351140380859375,0.05497625470161438,0.055587101727724075,-0.08612946420907974
1783153100926851300,7.360851318359375,0.05497625470161438,0.07146912813186646,-0.07696675509214401
1783153100936562000,7.37056201171875,0.061084724962711334,0.09773556143045425,-0.07207997888326645
1783153100946272800,7.380272705078125,0.062306419014930725,0.12400199472904205,-0.06841489672660828
1783153100955983600,7.389983642578125,0.06413896381855011,0.13621893525123596,-0.05925218388438225
1783153100965694200,7.399694091796875,0.06963659077882767,0.15515519678592682,-0.045202698558568954
1783153100975405000,7.409405029296875,0.07391251623630524,0.16370706260204315,-0.024433890357613564
1783153100985116000,7.419115966796875,0.08002099394798279,0.1563768982887268,-0.0036650835536420345
1783153100994826500,7.428826416015625,0.08979454636573792,0.13377554714679718,0.021379653364419937
1783153101004537300,7.438537353515625,0.10201149433851242,0.1056765764951706,0.034818295389413834
1783153101014248000,7.448248046875,0.1178935244679451,0.08063183724880219,0.04092676565051079
1783153101023958800,7.457958740234375,0.13560809195041656,0.061084724962711334,0.0397050715982914
1783153101033669600,7.467669677734375,0.14782503247261047,0.054365407675504684,0.02504473738372326
1783153101043380200,7.477380126953125,0.1557660549879074,0.047646086663007736,0.006719320081174374
1783153101053091000,7.487091064453125,0.1582094430923462,0.04214845970273018,-0.023212196305394173
1783153101062801700,7.4968017578125,0.16370706260204315,0.034818295389413834,-0.04947862774133682
1783153101072512500,7.506512451171875,0.17775654792785645,0.03665083646774292,-0.06719319522380829
1783153101082223400,7.516223388671875,0.19180603325366974,0.046424392610788345,-0.07391251623630524
1783153101091934000,7.525933837890625,0.1973036676645279,0.062306419014930725,-0.06291726976633072
1783153101101644800,7.535644775390625,0.1948602795600891,0.06780404597520828,-0.042759306728839874
1783153101111355600,7.545355712890625,0.18875180184841156,0.06291726976633072,-0.014049487188458443
1783153101121066200,7.555066162109375,0.18997350335121155,0.055587101727724075,0.026877280324697495
1783153101130777000,7.564777099609375,0.183865025639534,0.05803048983216286,0.0781884491443634
1783153101140487700,7.57448779296875,0.1575985997915268,0.051922015845775604,0.1325538605451584
1783153101150198500,7.584198486328125,0.12339114397764206,0.045202698558568954,0.1704263836145401
1783153101159909400,7.593909423828125,0.09712471067905426,0.04031591862440109,0.18875180184841156
1783153101169620000,7.603619873046875,0.07330167293548584,0.030542362481355667,0.1832541823387146
1783153101179330800,7.613330810546875,0.054365407675504684,0.030542362481355667,0.16370706260204315
1783153101189041400,7.62304150390625,0.04153761267662048,0.037261683493852615,0.1301104724407196
1783153101198752300,7.632752197265625,0.04337015375494957,0.038483377546072006,0.08551861345767975
1783153101208463000,7.642463134765625,0.05497625470161438,0.03420744836330414,0.046424392610788345
1783153101218173700,7.652173583984375,0.06719319522380829,0.031153209507465363,0.018936265259981155
1783153101227884500,7.661884521484375,0.07574506103992462,0.01954711228609085,-0.010995250195264816
1783153101237595400,7.671595458984375,0.08551861345767975,0.0006108472589403391,-0.029320668429136276
1783153101247306000,7.681305908203125,0.09651386737823486,-0.00916270911693573,-0.046424392610788345
1783153101257016800,7.691016845703125,0.10750912129878998,-0.007941014133393764,-0.04337015375494957
1783153101266727400,7.7007275390625,0.10934165865182877,0.006108472589403391,-0.03176405653357506
1783153101276438300,7.710438232421875,0.09590301662683487,0.021379653364419937,-0.021379653364419937
1783153101286149000,7.720149169921875,0.07391251623630524,0.01588202826678753,-0.0036650835536420345
1783153101295859700,7.729859619140625,0.05497625470161438,0.006108472589403391,-0.004275931045413017
1783153101305570600,7.739570556640625,0.042759306728839874,0.007941014133393764,-0.009773556143045425
1783153101315281200,7.74928125,0.03420744836330414,0.006719320081174374,-0.02076880633831024
1783153101324992000,7.758991943359375,0.024433890357613564,0.0036650835536420345,-0.037261683493852615
1783153101334702800,7.768702880859375,0.015271181240677834,0.005497625097632408,-0.054365407675504684
1783153101344413400,7.778413330078125,0.014049487188458443,-0.0036650835536420345,-0.06780404597520828
1783153101354124300,7.788124267578125,0.01832541823387146,-0.02504473738372326,-0.08674030750989914
1783153101363835000,7.7978349609375,0.030542362481355667,-0.04886778071522713,-0.09773556143045425
1783153101373545700,7.807545654296875,0.04825693368911743,-0.06719319522380829,-0.09834641218185425
1783153101383256600,7.817256591796875,0.062306419014930725,-0.07696675509214401,-0.09040539711713791
1783153101392967400,7.826967529296875,0.07757759839296341,-0.08857285231351852,-0.07207997888326645
1783153101402678000,7.836677978515625,0.08857285231351852,-0.10995250940322876,-0.051922015845775604
1783153101412388900,7.846388916015625,0.0910162404179573,-0.1301104724407196,-0.028098974376916885
1783153101422099500,7.856099365234375,0.0794101431965828,-0.1447708010673523,0
1783153101431810300,7.865810302734375,0.051922015845775604,-0.16187451779842377,0.023823043331503868
1783153101441521200,7.875521240234375,0.021990500390529633,-0.18630841374397278,0.04092676565051079
1783153101451231700,7.885231689453125,-0.014660334214568138,-0.208298921585083,0.05375456064939499
1783153101460942600,7.894942626953125,-0.046424392610788345,-0.23273280262947083,0.05741964280605316
1783153101470653200,7.904653076171875,-0.0653606578707695,-0.24189551174640656,0.04825693368911743
1783153101480364000,7.914364013671875,-0.07207997888326645,-0.23090025782585144,0.04153761267662048
1783153101490075000,7.924074951171875,-0.07024743407964706,-0.208298921585083,0.026877280324697495
1783153101499785500,7.933785400390625,-0.06780404597520828,-0.17836740612983704,0.0024433890357613564
1783153101509496300,7.943496337890625,-0.05986303091049194,-0.15332266688346863,-0.011606098152697086
1783153101519207000,7.95320703125,-0.0525328628718853,-0.1453816443681717,-0.01038440316915512
1783153101528917800,7.962917724609375,-0.05925218388438225,-0.13560809195041656,-0.0012216945178806782
1783153101538628600,7.972628662109375,-0.0781884491443634,-0.11911521852016449,0.004275931045413017
1783153101548339200,7.982339111328125,-0.10140064358711243,-0.10873081535100937,0.005497625097632408
1783153101558050000,7.992050048828125,-0.12705622613430023,-0.08918370306491852,0.006108472589403391
1783153101567761000,8.001760986328126,-0.14721418917179108,-0.06169557198882103,0.006719320081174374
1783153101577471500,8.011471435546875,-0.1692046970129013,-0.04581354558467865,0.007330167107284069
1783153101587182300,8.021182373046875,-0.18936264514923096,-0.0397050715982914,0.0030542362947016954
1783153101596893000,8.030892822265624,-0.1985253542661667,-0.0390942245721817,-0.004886778071522713
1783153101606603800,8.040603759765625,-0.1979145109653473,-0.03665083646774292,-0.01954711228609085
1783153101616314600,8.050314697265625,-0.18936264514923096,-0.04703523963689804,-0.036039989441633224
1783153101626025200,8.060025146484374,-0.17348061501979828,-0.06780404597520828,-0.0525328628718853
1783153101635736000,8.069736083984376,-0.1575985997915268,-0.08429691940546036,-0.07452336698770523
1783153101645447000,8.079447021484375,-0.1447708010673523,-0.08551861345767975,-0.0922379344701767
1783153101655157500,8.089157470703125,-0.1301104724407196,-0.07452336698770523,-0.1050657257437706
1783153101664868400,8.098868408203124,-0.11422843486070633,-0.07757759839296341,-0.11422843486070633
1783153101674579000,8.108578857421875,-0.09468132257461548,-0.09895725548267365,-0.11911521852016449
1783153101684289800,8.118289794921875,-0.07757759839296341,-0.11239589750766754,-0.11483928561210632
1783153101694000600,8.128000732421874,-0.056808795779943466,-0.12461283802986145,-0.1050657257437706
1783153101703711200,8.137711181640626,-0.03665083646774292,-0.11667182296514511,-0.08918370306491852
1783153101713422000,8.147422119140625,-0.031153209507465363,-0.11911521852016449,-0.07574506103992462
1783153101723133000,8.1571328125,-0.025655584409832954,-0.130721315741539,-0.06291726976633072
1783153101732843500,8.166843505859376,-0.018936265259981155,-0.1453816443681717,-0.051922015845775604
1783153101742554400,8.176554443359375,-0.01038440316915512,-0.15026842057704926,-0.04459185153245926
1783153101752265000,8.186264892578125,-0.00916270911693573,-0.15943112969398499,-0.043981000781059265
1783153101761975800,8.195975830078124,-0.010995250195264816,-0.15210096538066864,-0.04825693368911743
1783153101771686700,8.205686767578126,-0.005497625097632408,-0.1301104724407196,-0.05619794875383377
1783153101781397200,8.215397216796875,-0.007941014133393764,-0.11422843486070633,-0.06658235192298889
1783153101791108000,8.225108154296874,-0.01038440316915512,-0.09407047927379608,-0.07574506103992462
1783153101800818700,8.234818603515626,-0.016492875292897224,-0.0781884491443634,-0.0781884491443634
1783153101810529500,8.244529541015625,-0.021379653364419937,-0.07207997888326645,-0.07696675509214401
1783153101820240400,8.254240478515625,-0.02504473738372326,-0.06841489672660828,-0.06291726976633072
1783153101829951000,8.263950927734374,-0.03176405653357506,-0.06902574002742767,-0.04031591862440109
1783153101839661800,8.273661865234375,-0.038483377546072006,-0.07391251623630524,-0.02076880633831024
1783153101849372700,8.28337255859375,-0.046424392610788345,-0.07146912813186646,0.0012216945178806782
1783153101859083300,8.293083251953124,-0.051922015845775604,-0.05803048983216286,0.023212196305394173
1783153101868794000,8.302794189453126,-0.05070032179355621,-0.04947862774133682,0.03542914241552353
1783153101878505000,8.3125048828125,-0.04947862774133682,-0.05008947476744652,0.03787253051996231
1783153101888215600,8.322215576171875,-0.0390942245721817,-0.042759306728839874,0.028098974376916885
1783153101897926400,8.331926513671876,-0.026877280324697495,-0.03420744836330414,0.015271181240677834
1783153101907637000,8.341636962890625,-0.017714571207761765,-0.029320668429136276,-0.0030542362947016954
1783153101917347800,8.351347900390625,-0.007941014133393764,-0.011606098152697086,-0.012827792204916477
1783153101927058700,8.36105859375,-0.0030542362947016954,0.007941014133393764,-0.018936265259981155
1783153101936769300,8.370769287109376,0.0036650835536420345,0.02076880633831024,-0.022601349279284477
1783153101946480000,8.380480224609375,0.017714571207761765,0.023823043331503868,-0.02076880633831024
1783153101956191000,8.39019091796875,0.038483377546072006,0.021990500390529633,-0.0012216945178806782
1783153101965901600,8.399901611328126,0.05925218388438225,0.015271181240677834,0.021990500390529633
1783153101975612400,8.4096123046875,0.08185353130102158,0.0036650835536420345,0.0525328628718853
1783153101985323000,8.419322998046875,0.10017894953489304,-0.0018325417768210173,0.0787992998957634
1783153101995033900,8.429033935546874,0.1056765764951706,-0.0012216945178806782,0.1056765764951706
1783153102004744700,8.43874462890625,0.09529217332601547,0.007941014133393764,0.12094775587320328
1783153102014455300,8.448455322265625,0.07513421028852463,0.012216945178806782,0.12094775587320328
1783153102024166100,8.458166259765624,0.05070032179355621,0.020157959312200546,0.10689827054738998
1783153102033877000,8.467876953125,0.03237490355968475,0.033596597611904144,0.08307522535324097
1783153102043587600,8.477587646484375,0.018936265259981155,0.04581354558467865,0.05375456064939499
1783153102053298400,8.48729833984375,0.017714571207761765,0.047646086663007736,0.029320668429136276
1783153102063009300,8.49700927734375,0.022601349279284477,0.05803048983216286,0.012216945178806782
1783153102072720000,8.506719970703125,0.02870982140302658,0.05864133685827255,0.006719320081174374
1783153102082430700,8.5164306640625,0.02504473738372326,0.05864133685827255,0.01038440316915512
1783153102092141300,8.526141357421874,0.015271181240677834,0.05803048983216286,0.018936265259981155
1783153102101852200,8.53585205078125,0.006108472589403391,0.051922015845775604,0.031153209507465363
1783153102111563000,8.54556298828125,-0.0006108472589403391,0.038483377546072006,0.03787253051996231
1783153102121273600,8.555273681640625,0.0036650835536420345,0.029320668429136276,0.034818295389413834
1783153102130984400,8.564984375,0.013438640162348747,0.02870982140302658,0.02870982140302658
1783153102140695000,8.574695068359375,0.016492875292897224,0.04214845970273018,0.025655584409832954
1783153102150406000,8.584406005859375,0.012827792204916477,0.05803048983216286,0.024433890357613564
1783153102160116700,8.59411669921875,0.006108472589403391,0.05008947476744652,0.016492875292897224
1783153102169827300,8.603827392578125,0.0030542362947016954,0.033596597611904144,0.005497625097632408
1783153102179538200,8.6135380859375,0.0036650835536420345,0.024433890357613564,-0.004886778071522713
1783153102189249000,8.6232490234375,-0.0018325417768210173,0.024433890357613564,-0.012827792204916477
1783153102198959600,8.632959716796876,-0.012216945178806782,0.021990500390529633,-0.021990500390529633
1783153102208670500,8.64267041015625,-0.01588202826678753,0.020157959312200546,-0.02993151545524597
1783153102218381300,8.65238134765625,-0.007330167107284069,0.02504473738372326,-0.033596597611904144
1783153102228092000,8.662091796875,0.005497625097632408,0.031153209507465363,-0.03237490355968475
1783153102237802800,8.671802734375,0.018936265259981155,0.046424392610788345,-0.022601349279284477
1783153102247513600,8.681513671875,0.02504473738372326,0.06291726976633072,-0.0006108472589403391
1783153102257224200,8.69122412109375,0.022601349279284477,0.06902574002742767,0.020157959312200546
1783153102266935000,8.70093505859375,0.023823043331503868,0.05864133685827255,0.042759306728839874
1783153102276645600,8.710645751953125,0.026877280324697495,0.04886778071522713,0.056808795779943466
1783153102286356500,8.7203564453125,0.028098974376916885,0.03420744836330414,0.0647498071193695
1783153102296067300,8.7300673828125,0.031153209507465363,0.023823043331503868,0.061084724962711334
1783153102305778000,8.73977783203125,0.03420744836330414,0.01710372418165207,0.043981000781059265
1783153102315488800,8.74948876953125,0.03542914241552353,0.021990500390529633,0.025655584409832954
1783153102325199400,8.759199462890624,0.03420744836330414,0.025655584409832954,-0.0024433890357613564
1783153102334910200,8.76891015625,0.037261683493852615,0.022601349279284477,-0.03420744836330414
1783153102344621000,8.77862109375,0.04886778071522713,0.01588202826678753,-0.061084724962711334
1783153102354331600,8.78833154296875,0.056808795779943466,0.013438640162348747,-0.08002099394798279
1783153102364042500,8.79804248046875,0.0653606578707695,0.023212196305394173,-0.08796200156211853
1783153102373753300,8.80775341796875,0.07513421028852463,0.03420744836330414,-0.08124268800020218
1783153102383464000,8.8174638671875,0.09407047927379608,0.024433890357613564,-0.06780404597520828
1783153102393174800,8.8271748046875,0.12400199472904205,0.00916270911693573,-0.0525328628718853
1783153102402885600,8.8368857421875,0.13682979345321655,0.0018325417768210173,-0.029320668429136276
1783153102412596200,8.84659619140625,0.12766708433628082,-0.005497625097632408,-0.0024433890357613564
1783153102422307000,8.85630712890625,0.10201149433851242,-0.015271181240677834,0.015271181240677834
1783153102432018000,8.866017822265626,0.07696675509214401,-0.012827792204916477,0.023823043331503868
1783153102441728500,8.875728515625,0.05497625470161438,0.0018325417768210173,0.023212196305394173
1783153102451439400,8.885439453125,0.04825693368911743,0.01954711228609085,0.017714571207761765
1783153102461150000,8.89514990234375,0.03787253051996231,0.03787253051996231,0.0018325417768210173
1783153102470860800,8.90486083984375,0.023823043331503868,0.04459185153245926,-0.01710372418165207
1783153102480571600,8.914571533203125,0.009773556143045425,0.037261683493852615,-0.02748812735080719
1783153102490282200,8.9242822265625,0,0.03665083646774292,-0.033596597611904144
1783153102499993000,8.9339931640625,-0.0006108472589403391,0.03237490355968475,-0.02993151545524597
1783153102509704000,8.943703857421875,0.008551862090826035,0.024433890357613564,-0.023212196305394173
1783153102519414500,8.95341455078125,0.02076880633831024,0.02748812735080719,-0.008551862090826035
1783153102529125400,8.96312548828125,0.03420744836330414,0.021379653364419937,0.007941014133393764
1783153102538836200,8.972836181640625,0.0397050715982914,0.008551862090826035,0.01954711228609085
1783153102548546800,8.982546875,0.046424392610788345,-0.007330167107284069,0.022601349279284477
1783153102558257700,8.992257568359374,0.053143709897994995,-0.006719320081174374,0.024433890357613564
1783153102567968300,9.00196826171875,0.05375456064939499,0.012827792204916477,0.02076880633831024
1783153102577679000,9.01167919921875,0.04153761267662048,0.02870982140302658,0.021379653364419937
1783153102587390000,9.021389892578124,0.03542914241552353,0.022601349279284477,0.015271181240677834
1783153102597100500,9.0311005859375,0.0390942245721817,0.004275931045413017,0
1783153102606811400,9.040811279296875,0.046424392610788345,-0.006108472589403391,-0.013438640162348747
1783153102616522200,9.050522216796875,0.04459185153245926,-0.007941014133393764,-0.02748812735080719
1783153102626232800,9.06023291015625,0.03176405653357506,-0.008551862090826035,-0.036039989441633224
1783153102635943700,9.069943603515625,0.010995250195264816,-0.0024433890357613564,-0.038483377546072006
1783153102645654300,9.079654296875,-0.008551862090826035,0.010995250195264816,-0.037261683493852615
1783153102655365000,9.089365234375,-0.01710372418165207,0.017714571207761765,-0.036039989441633224
1783153102665076000,9.099075927734376,-0.024433890357613564,0.022601349279284477,-0.02626643143594265
1783153102674786600,9.10878662109375,-0.029320668429136276,0.02076880633831024,-0.015271181240677834
1783153102684497400,9.118497314453125,-0.033596597611904144,0.012827792204916477,-0.0018325417768210173
1783153102694208300,9.128208251953126,-0.03665083646774292,-0.0030542362947016954,0.008551862090826035
1783153102703918800,9.1379189453125,-0.03298575058579445,-0.01954711228609085,0.012216945178806782
1783153102713629700,9.147629638671875,-0.028098974376916885,-0.021379653364419937,0.010995250195264816
1783153102723340500,9.157340576171874,-0.02748812735080719,-0.018936265259981155,0.0024433890357613564
1783153102733051100,9.167051025390625,-0.02748812735080719,-0.016492875292897224,-0.005497625097632408
1783153102742762000,9.176761962890625,-0.023823043331503868,-0.01954711228609085,-0.021379653364419937
1783153102752472800,9.186472900390624,-0.01954711228609085,-0.02504473738372326,-0.0390942245721817
1783153102762183400,9.196183349609376,-0.011606098152697086,-0.03176405653357506,-0.056808795779943466
1783153102771894300,9.205894287109375,-0.004886778071522713,-0.020157959312200546,-0.06902574002742767
1783153102781604900,9.21560498046875,-0.005497625097632408,-0.013438640162348747,-0.0647498071193695
1783153102791315700,9.225315673828124,-0.010995250195264816,-0.012216945178806782,-0.05803048983216286
1783153102801026600,9.235026611328125,-0.014660334214568138,-0.004886778071522713,-0.043981000781059265
1783153102810737200,9.244737060546875,-0.014660334214568138,-0.0012216945178806782,-0.02870982140302658
1783153102820448000,9.254447998046874,-0.00916270911693573,-0.0006108472589403391,-0.011606098152697086
1783153102830158800,9.264158935546876,-0.004275931045413017,-0.0030542362947016954,0.0018325417768210173
1783153102839869400,9.273869384765625,-0.0012216945178806782,-0.007330167107284069,0.012827792204916477
1783153102849580300,9.283580322265625,0,-0.014049487188458443,0.016492875292897224
1783153102859291000,9.293290771484376,0.0018325417768210173,-0.009773556143045425,0.013438640162348747
1783153102869001700,9.303001708984375,-0.0006108472589403391,-0.0030542362947016954,0.007941014133393764
1783153102878712600,9.312712646484375,-0.007330167107284069,0.0024433890357613564,0.004275931045413017
1783153102888423200,9.322423095703124,-0.016492875292897224,0.01038440316915512,-0.007330167107284069
1783153102898134000,9.332134033203126,-0.025655584409832954,0.015271181240677834,-0.013438640162348747
1783153102907844900,9.341844970703125,-0.03176405653357506,0.013438640162348747,-0.02504473738372326
1783153102917555500,9.351555419921874,-0.028098974376916885,0.010995250195264816,-0.031153209507465363
1783153102927266300,9.361266357421876,-0.01710372418165207,0.01038440316915512,-0.03787253051996231
1783153102936977200,9.37097705078125,-0.006719320081174374,0.011606098152697086,-0.03542914241552353
1783153102946687700,9.380687744140625,0.006719320081174374,0.014660334214568138,-0.03237490355968475
1783153102956398600,9.390398681640624,0.01710372418165207,0.01832541823387146,-0.022601349279284477
1783153102966109200,9.400109130859375,0.024433890357613564,0.010995250195264816,-0.012827792204916477
1783153102975820000,9.409820068359375,0.031153209507465363,-0.0024433890357613564,-0.007941014133393764
1783153102985531000,9.41953076171875,0.0390942245721817,-0.006108472589403391,-0.0018325417768210173
1783153102995241500,9.429241455078126,0.04947862774133682,0,0.007941014133393764
1783153103004952300,9.438952392578125,0.045202698558568954,0.010995250195264816,0.01588202826678753
1783153103014663200,9.4486630859375,0.03237490355968475,0.0018325417768210173,0.012216945178806782
1783153103024373800,9.458373779296876,0.02748812735080719,-0.012827792204916477,0.0012216945178806782
1783153103034084600,9.468084716796875,0.028098974376916885,-0.013438640162348747,-0.008551862090826035
1783153103043795200,9.477795166015625,0.02748812735080719,-0.011606098152697086,-0.024433890357613564
1783153103053506000,9.487506103515624,0.01710372418165207,-0.0036650835536420345,-0.03787253051996231
1783153103063217000,9.497216796875,0.006108472589403391,0.012827792204916477,-0.042759306728839874
1783153103072927500,9.506927490234375,-0.007330167107284069,0.03237490355968475,-0.04031591862440109
1783153103082638300,9.516638427734375,-0.01954711228609085,0.043981000781059265,-0.034818295389413834
1783153103092349200,9.52634912109375,-0.020157959312200546,0.037261683493852615,-0.018936265259981155
1783153103102059800,9.536059814453125,-0.017714571207761765,0.02748812735080719,-0.0018325417768210173
1783153103111770600,9.5457705078125,-0.011606098152697086,0.02076880633831024,0.017714571207761765
1783153103121481500,9.5554814453125,-0.008551862090826035,0.01038440316915512,0.033596597611904144
1783153103131192000,9.565192138671875,-0.006108472589403391,0.0036650835536420345,0.04703523963689804
1783153103140903000,9.57490283203125,-0.0024433890357613564,0.004886778071522713,0.05925218388438225
1783153103150613800,9.58461376953125,-0.0024433890357613564,0.015271181240677834,0.062306419014930725
1783153103160324400,9.594324462890626,0.0006108472589403391,0.025655584409832954,0.05803048983216286
1783153103170035200,9.60403515625,0.006108472589403391,0.033596597611904144,0.037261683493852615
1783153103179745800,9.613745849609375,0.007330167107284069,0.03542914241552353,0.018936265259981155
1783153103189456600,9.62345654296875,0.004275931045413017,0.02993151545524597,-0.0018325417768210173
1783153103199167500,9.63316748046875,0.007941014133393764,0.03237490355968475,-0.013438640162348747
1783153103208878000,9.642878173828125,0.015271181240677834,0.04337015375494957,-0.015271181240677834
1783153103218589000,9.6525888671875,0.028098974376916885,0.053143709897994995,-0.006719320081174374
1783153103228299800,9.6622998046875,0.022601349279284477,0.04886778071522713,-0.0012216945178806782
1783153103238010400,9.67201025390625,0.014660334214568138,0.04214845970273018,0.015271181240677834
1783153103247721200,9.68172119140625,0.014049487188458443,0.046424392610788345,0.034818295389413834
1783153103257431800,9.691431884765626,0.015271181240677834,0.04092676565051079,0.045202698558568954
1783153103267142700,9.701142578125,0.01954711228609085,0.03176405653357506,0.047646086663007736
1783153103276853500,9.710853515625,0.024433890357613564,0.021990500390529633,0.04459185153245926
1783153103286564400,9.720564453125,0.023212196305394173,0.01588202826678753,0.03237490355968475
1783153103296275000,9.73027490234375,0.022601349279284477,0.01832541823387146,0.021990500390529633
1783153103305985800,9.73998583984375,0.014049487188458443,0.03298575058579445,0.0030542362947016954
1783153103315696400,9.7496962890625,0.006719320081174374,0.03665083646774292,-0.01710372418165207
1783153103325407200,9.7594072265625,0,0.03665083646774292,-0.03420744836330414
1783153103335118000,9.7691181640625,-0.0012216945178806782,0.03420744836330414,-0.04092676565051079
1783153103344828700,9.77882861328125,0,0.03176405653357506,-0.036039989441633224
1783153103354539500,9.78853955078125,0.0018325417768210173,0.033596597611904144,-0.026877280324697495
1783153103364250400,9.79825048828125,0.005497625097632408,0.028098974376916885,-0.009773556143045425
1783153103373961000,9.8079609375,0.012216945178806782,0.021990500390529633,0.004275931045413017
1783153103383671800,9.817671875,0.024433890357613564,0.007941014133393764,0.01832541823387146
1783153103393382400,9.82738232421875,0.03542914241552353,-0.007941014133393764,0.026877280324697495
1783153103403093200,9.83709326171875,0.046424392610788345,-0.01832541823387146,0.028098974376916885
1783153103412804000,9.84680419921875,0.061084724962711334,-0.013438640162348747,0.02993151545524597
1783153103422514700,9.8565146484375,0.06902574002742767,0.007941014133393764,0.026877280324697495
1783153103432225500,9.8662255859375,0.06413896381855011,0.02504473738372326,0.021379653364419937
1783153103441936400,9.875936279296875,0.04825693368911743,0.021990500390529633,0.013438640162348747
1783153103451647000,9.88564697265625,0.03298575058579445,0.011606098152697086,0.006719320081174374
1783153103461357800,9.89535791015625,0.02076880633831024,0.00916270911693573,0.004886778071522713
1783153103471068700,9.905068603515625,0.00916270911693573,0.008551862090826035,0.005497625097632408
1783153103480779300,9.914779296875,0,0.0018325417768210173,0.008551862090826035
1783153103490490000,9.924489990234376,-0.0036650835536420345,-0.0030542362947016954,0.007941014133393764
1783153103500201000,9.934200927734375,-0.004886778071522713,0.006108472589403391,0.007941014133393764
1783153103509911600,9.94391162109375,-0.006719320081174374,0.017714571207761765,0.01588202826678753
1783153103519622400,9.953622314453124,-0.012827792204916477,0.025655584409832954,0.01588202826678753
1783153103529333200,9.963333251953125,-0.021990500390529633,0.028098974376916885,0.023823043331503868
1783153103539043800,9.9730439453125,-0.030542362481355667,0.01710372418165207,0.02076880633831024
1783153103548754700,9.982754638671874,-0.03665083646774292,0.005497625097632408,0.012827792204916477
1783153103558465300,9.99246533203125,-0.042759306728839874,0.0024433890357613564,0.006719320081174374
1783153103568176000,10.002176025390625,-0.05008947476744652,-0.0036650835536420345,-0.005497625097632408
1783153103577887000,10.011886962890625,-0.0525328628718853,-0.007941014133393764,-0.017714571207761765
1783153103587597600,10.02159765625,-0.04825693368911743,-0.005497625097632408,-0.030542362481355667
1783153103597308400,10.031308349609375,-0.0397050715982914,-0.0006108472589403391,-0.04337015375494957
1783153103607019300,10.041019287109375,-0.03298575058579445,0.0024433890357613564,-0.053143709897994995
1783153103616729900,10.050729736328124,-0.030542362481355667,0.007941014133393764,-0.055587101727724075
1783153103626440700,10.060440673828126,-0.02870982140302658,-0.006108472589403391,-0.05925218388438225
1783153103636151300,10.0701513671875,-0.022601349279284477,-0.028098974376916885,-0.056808795779943466
1783153103645862100,10.079862060546875,-0.02076880633831024,-0.03787253051996231,-0.047646086663007736
1783153103655573000,10.089572998046876,-0.021990500390529633,-0.03176405653357506,-0.031153209507465363
1783153103665283600,10.09928369140625,-0.021990500390529633,-0.020157959312200546,-0.013438640162348747
1783153103674994400,10.108994384765625,-0.01038440316915512,-0.01038440316915512,0.0036650835536420345
1783153103684705300,10.118705322265624,0.0036650835536420345,-0.006108472589403391,0.014049487188458443
1783153103694416000,10.128415771484375,0.01588202826678753,-0.004886778071522713,0.01588202826678753
1783153103704126700,10.138126708984375,0.01954711228609085,0.0024433890357613564,0.020157959312200546
1783153103713837600,10.147837646484374,0.014660334214568138,-0.0006108472589403391,0.023212196305394173
1783153103723548200,10.157548095703126,0.004886778071522713,-0.014049487188458443,0.02870982140302658
1783153103733259000,10.167259033203125,-0.0012216945178806782,-0.038483377546072006,0.03298575058579445
1783153103742969900,10.176969970703125,-0.008551862090826035,-0.05131116881966591,0.037261683493852615
1783153103752680400,10.186680419921874,-0.012216945178806782,-0.04886778071522713,0.031153209507465363
1783153103762391300,10.196391357421875,-0.014049487188458443,-0.031153209507465363,0.005497625097632408
1783153103772102000,10.206101806640625,-0.012216945178806782,0.009773556143045425,-0.01832541823387146
1783153103781812700,10.215812744140624,-0.012216945178806782,0.06047387793660164,-0.02748812735080719
1783153103791523600,10.225523681640626,-0.022601349279284477,0.017714571207761765,-0.008551862090826035
1783153103801234200,10.235234130859375,-0.03542914241552353,-0.05497625470161438,0.023823043331503868
1783153103810945000,10.244945068359375,-0.043981000781059265,-0.02870982140302658,0.054365407675504684
1783153103820655900,10.25465576171875,-0.05008947476744652,0.07024743407964706,0.06291726976633072
1783153103830366500,10.264366455078125,-0.06780404597520828,0.13988402485847473,0.047646086663007736
1783153103840077300,10.274077392578125,-0.07146912813186646,0.1692046970129013,0.0397050715982914
1783153103849788200,10.2837880859375,-0.06780404597520828,0.19119518995285034,0.05131116881966591
1783153103859498800,10.293498779296876,-0.07757759839296341,0.15515519678592682,0.0647498071193695
1783153103869209600,10.303209716796875,-0.08857285231351852,0.0659715011715889,0.06841489672660828
1783153103878920200,10.312920166015624,-0.08368607610464096,-0.009773556143045425,0.07513421028852463
1783153103888631000,10.322631103515626,-0.07269082218408585,-0.054365407675504684,0.07146912813186646
1783153103898342000,10.332341796875,-0.05864133685827255,-0.07207997888326645,0.05008947476744652
1783153103908052700,10.342052734375,-0.05070032179355621,-0.06413896381855011,0.01832541823387146
1783153103917763300,10.351763427734374,-0.047646086663007736,-0.04031591862440109,-0.01954711228609085
1783153103927474200,10.36147412109375,-0.042759306728839874,-0.016492875292897224,-0.05008947476744652
1783153103937184800,10.371184814453125,-0.0397050715982914,0.015271181240677834,-0.06352811306715012
1783153103946895600,10.3808955078125,-0.03787253051996231,0.036039989441633224,-0.05741964280605316
1783153103956606500,10.3906064453125,-0.03237490355968475,0.03665083646774292,-0.04092676565051079
1783153103966317000,10.400317138671875,-0.023823043331503868,0.016492875292897224,-0.014660334214568138
1783153103976028000,10.41002783203125,-0.016492875292897224,-0.005497625097632408,0.011606098152697086
1783153103985738800,10.41973876953125,-0.012827792204916477,-0.021379653364419937,0.036039989441633224
1783153103995449300,10.429449462890625,-0.012827792204916477,-0.02870982140302658,0.04703523963689804
1783153104005160200,10.43916015625,-0.014049487188458443,-0.030542362481355667,0.04459185153245926
1783153104014870800,10.448870849609374,-0.01588202826678753,-0.026877280324697495,0.036039989441633224
1783153104024581600,10.45858154296875,-0.011606098152697086,-0.01954711228609085,0.016492875292897224
1783153104034292500,10.46829248046875,-0.01038440316915512,-0.006108472589403391,-0.009773556143045425
1783153104044003000,10.478003173828125,-0.0030542362947016954,0.0036650835536420345,-0.02993151545524597
1783153104053714000,10.4877138671875,0.006108472589403391,0.0018325417768210173,-0.04703523963689804
1783153104063424800,10.4974248046875,0.00916270911693573,-0.010995250195264816,-0.05131116881966591
1783153104073135400,10.50713525390625,0.01710372418165207,-0.010995250195264816,-0.0397050715982914
1783153104082846200,10.51684619140625,0.024433890357613564,-0.015271181240677834,-0.022601349279284477
1783153104092557000,10.52655712890625,0.02993151545524597,-0.021379653364419937,-0.00916270911693573
1783153104102267600,10.536267578125,0.0390942245721817,-0.021990500390529633,0.0006108472589403391
1783153104111978500,10.545978515625,0.05070032179355621,-0.018936265259981155,0.005497625097632408
1783153104121689300,10.555689453125,0.05497625470161438,-0.012216945178806782,0.01038440316915512
1783153104131400000,10.56539990234375,0.05497625470161438,-0.013438640162348747,0.006719320081174374
1783153104141110800,10.57511083984375,0.04886778071522713,-0.01588202826678753,0
1783153104150821600,10.584821533203124,0.04031591862440109,-0.017714571207761765,-0.012827792204916477
1783153104160532200,10.5945322265625,0.02993151545524597,-0.01038440316915512,-0.021990500390529633
1783153104170243000,10.6042431640625,0.02076880633831024,-0.008551862090826035,-0.028098974376916885
1783153104179953700,10.61395361328125,0.012827792204916477,-0.0024433890357613564,-0.03298575058579445
1783153104189664500,10.62366455078125,0.00916270911693573,-0.0030542362947016954,-0.03420744836330414
1783153104199375400,10.633375244140625,0.009773556143045425,-0.009773556143045425,-0.03542914241552353
1783153104209086000,10.6430859375,0.011606098152697086,-0.005497625097632408,-0.025655584409832954
1783153104218796800,10.652796875,0.009773556143045425,0.006108472589403391,-0.0018325417768210173
1783153104228507600,10.662507568359375,0.006108472589403391,0.00916270911693573,0.023212196305394173
1783153104238218200,10.67221826171875,0.008551862090826035,0.004275931045413017,0.04825693368911743
1783153104247929000,10.68192919921875,0.01710372418165207,-0.011606098152697086,0.061084724962711334
1783153104257639700,10.6916396484375,0.022601349279284477,-0.020157959312200546,0.07024743407964706
1783153104267350500,10.7013505859375,0.046424392610788345,-0.018936265259981155,0.07513421028852463
1783153104277061400,10.711061279296874,0.06352811306715012,0.0036650835536420345,0.07146912813186646
1783153104286772000,10.72077197265625,0.06841489672660828,0.018936265259981155,0.06902574002742767
1783153104296482800,10.73048291015625,0.05925218388438225,0.011606098152697086,0.061084724962711334
1783153104306193700,10.740193603515625,0.046424392610788345,-0.006719320081174374,0.05131116881966591
1783153104315904300,10.749904296875,0.03787253051996231,-0.021990500390529633,0.036039989441633224
1783153104325615000,10.759614990234375,0.030542362481355667,-0.02504473738372326,0.01588202826678753
1783153104335326000,10.769325927734375,0.023823043331503868,-0.02076880633831024,-0.0030542362947016954
1783153104345036500,10.77903662109375,0.023823043331503868,-0.00916270911693573,-0.022601349279284477
1783153104354747400,10.788747314453126,0.02748812735080719,0.011606098152697086,-0.033596597611904144
1783153104364458200,10.798458251953125,0.03176405653357506,0.028098974376916885,-0.036039989441633224
1783153104374168800,10.8081689453125,0.03420744836330414,0.03298575058579445,-0.025655584409832954
1783153104383879700,10.817879638671876,0.03420744836330414,0.025655584409832954,-0.0036650835536420345
1783153104393590500,10.827590576171875,0.03237490355968475,0.012216945178806782,0.023212196305394173
1783153104403301000,10.837301025390625,0.021379653364419937,-0.004275931045413017,0.05070032179355621
1783153104413012000,10.847011962890624,0.014049487188458443,-0.004886778071522713,0.07269082218408585
1783153104422722600,10.85672265625,0.01038440316915512,0.007330167107284069,0.08368607610464096
1783153104432433400,10.866433349609375,0.007330167107284069,0.012827792204916477,0.08918370306491852
1783153104442144300,10.876144287109375,0.00916270911693573,0.020157959312200546,0.07513421028852463
1783153104451854800,10.885854736328126,0.010995250195264816,0.01710372418165207,0.04886778071522713
1783153104461565700,10.895565673828125,0.017714571207761765,0.011606098152697086,0.017714571207761765
1783153104471276500,10.905276611328125,0.02076880633831024,0.0006108472589403391,-0.012827792204916477
1783153104480987100,10.914987060546874,0.02870982140302658,-0.014660334214568138,-0.045202698558568954
1783153104490698000,10.924697998046875,0.02870982140302658,-0.026877280324697495,-0.0659715011715889
1783153104500408800,10.934408935546875,0.02626643143594265,-0.033596597611904144,-0.08490777015686035
1783153104510119400,10.944119384765624,0.023212196305394173,-0.03665083646774292,-0.0910162404179573
1783153104519830300,10.953830322265626,0.021990500390529633,-0.037261683493852615,-0.09040539711713791
1783153104529541000,10.963541015625,0.014660334214568138,-0.04031591862440109,-0.07635590434074402
1783153104539251700,10.973251708984375,-0.00916270911693573,-0.05131116881966591,-0.05864133685827255
1783153104548962600,10.982962646484374,-0.02504473738372326,-0.009773556143045425,-0.037261683493852615
1783153104558673400,10.99267333984375,-0.030542362481355667,0.07452336698770523,-0.02748812735080719
1783153104568384000,11.002384033203125,-0.03665083646774292,0.08307522535324097,-0.023823043331503868
1783153104578094800,11.0120947265625,-0.04153761267662048,0.03420744836330414,-0.015271181240677834
1783153104587805400,11.021805419921876,-0.046424392610788345,-0.0024433890357613564,-0.0030542362947016954
1783153104597516300,11.031516357421875,-0.046424392610788345,-0.02626643143594265,0.0006108472589403391
1783153104607227100,11.04122705078125,-0.04031591862440109,-0.03542914241552353,-0.007330167107284069
1783153104616937700,11.050937744140626,-0.02504473738372326,-0.023212196305394173,-0.01710372418165207
1783153104626648600,11.060648681640625,-0.011606098152697086,-0.0006108472589403391,-0.02626643143594265
1783153104636359400,11.070359375,-0.0024433890357613564,0.025655584409832954,-0.034818295389413834
1783153104646070000,11.080070068359374,0.004275931045413017,0.045202698558568954,-0.03665083646774292
1783153104655780900,11.08978076171875,0.01038440316915512,0.04886778071522713,-0.033596597611904144
1783153104665491700,11.09949169921875,0.020157959312200546,0.04337015375494957,-0.02504473738372326
1783153104675202300,11.109202392578124,0.030542362481355667,0.031153209507465363,-0.014049487188458443
1783153104684913200,11.1189130859375,0.0397050715982914,0.023212196305394173,0.0012216945178806782
1783153104694623700,11.128623779296875,0.05375456064939499,0.02993151545524597,0.025655584409832954
1783153104704334600,11.13833447265625,0.061084724962711334,0.03787253051996231,0.05008947476744652
1783153104714045400,11.14804541015625,0.06352811306715012,0.043981000781059265,0.07085828483104706
1783153104723756000,11.157756103515625,0.05925218388438225,0.04153761267662048,0.08246438205242157
1783153104733467000,11.167466796875,0.04581354558467865,0.042759306728839874,0.08063183724880219
1783153104743177700,11.177177734375,0.04153761267662048,0.04092676565051079,0.06047387793660164
1783153104752888300,11.186888427734376,0.03665083646774292,0.0397050715982914,0.02993151545524597
1783153104762599200,11.19659912109375,0.03237490355968475,0.04092676565051079,-0.005497625097632408
1783153104772310000,11.20631005859375,0.029320668429136276,0.04703523963689804,-0.04703523963689804
1783153104782020600,11.2160205078125,0.03298575058579445,0.04825693368911743,-0.08002099394798279
1783153104791731500,11.2257314453125,0.033596597611904144,0.02748812735080719,-0.10750912129878998
1783153104801442300,11.2354423828125,0.004275931045413017,-0.006719320081174374,-0.11972606182098389
1783153104811153000,11.24515283203125,-0.038483377546072006,-0.023212196305394173,-0.12278030067682266
1783153104820863700,11.25486376953125,-0.09407047927379608,0.04153761267662048,-0.10201149433851242
1783153104830574600,11.26457470703125,-0.16309621930122375,0.20646637678146362,-0.07269082218408585
1783153104840285200,11.27428515625,-0.2504473626613617,0.3249707520008087,-0.04031591862440109
1783153104849996000,11.28399609375,-0.3255815804004669,0.38605546951293945,-0.014660334214568138
1783153104859707000,11.293706787109375,-0.363454133272171,0.3781144618988037,0.004275931045413017
1783153104869417500,11.30341748046875,-0.3762819170951843,0.3365768492221832,0.018936265259981155
1783153104879128300,11.31312841796875,-0.3665083646774292,0.28098973631858826,0.02870982140302658
1783153104888839000,11.3228388671875,-0.3500154912471771,0.23945212364196777,0.018936265259981155
1783153104898549800,11.3325498046875,-0.3304683566093445,0.2363978922367096,0.0036650835536420345
1783153104908260600,11.342260498046874,-0.3170297145843506,0.265718549489975,-0.016492875292897224
1783153104917971200,11.35197119140625,-0.29687178134918213,0.28037887811660767,-0.020157959312200546
1783153104927682000,11.36168212890625,-0.2632751762866974,0.24678228795528412,-0.01832541823387146
1783153104937393000,11.371392822265625,-0.21623992919921875,0.1966928243637085,-0.021379653364419937
1783153104947103500,11.381103515625,-0.16004198789596558,0.13744063675403595,-0.021990500390529633
1783153104956814300,11.390814453125,-0.1044548824429512,0.0922379344701767,-0.03298575058579445
1783153104966525200,11.400525146484375,-0.051922015845775604,0.05008947476744652,-0.05803048983216286
1783153104976235800,11.41023583984375,-0.005497625097632408,0.0030542362947016954,-0.0787992998957634
1783153104985946600,11.419946533203126,0.029320668429136276,-0.03420744836330414,-0.09834641218185425
1783153104995657500,11.429657470703125,0.046424392610788345,-0.07574506103992462,-0.10628741979598999
1783153105005368000,11.4393681640625,0.06291726976633072,-0.08002099394798279,-0.1044548824429512
1783153105015079000,11.449078857421876,0.07574506103992462,-0.07391251623630524,-0.10262233763933182
1783153105024789800,11.458789794921875,0.08429691940546036,-0.04703523963689804,-0.09407047927379608
1783153105034500400,11.468500244140625,0.08796200156211853,-0.017714571207761765,-0.08002099394798279
1783153105044211200,11.478211181640624,0.08551861345767975,-0.006719320081174374,-0.06963659077882767
1783153105053922000,11.487922119140626,0.07635590434074402,-0.004275931045413017,-0.0647498071193695
1783153105063632600,11.497632568359375,0.05619794875383377,0.01954711228609085,-0.055587101727724075
1783153105073343500,11.507343505859374,0.029320668429136276,0.09407047927379608,-0.05925218388438225
1783153105083054000,11.51705419921875,0.010995250195264816,0.19302773475646973,-0.06902574002742767
1783153105092765000,11.526764892578125,0.016492875292897224,0.3029802441596985,-0.06902574002742767
1783153105102475800,11.536475830078125,0.04886778071522713,0.4080459773540497,-0.04947862774133682
1783153105112186400,11.546186279296874,0.10262233763933182,0.46302223205566406,-0.01832541823387146
1783153105121897200,11.555897216796875,0.14721418917179108,0.48012593388557434,0.02504473738372326
1783153105131608000,11.565608154296875,0.10689827054738998,0.48806697130203247,0.2773246467113495
1783153105141318700,11.575318603515624,0.05008947476744652,0.06169557198882103,0.37567105889320374
1783153105160740400,11.594740234375,0.06780404597520828,-0.2473931461572647,0.3817795515060425
1783153105170451000,11.604450927734375,0.0916270911693573,-0.312142938375473,0.3127537965774536
1783153105180161800,11.614161865234376,0.09590301662683487,-0.25533416867256165,0.2089097648859024
1783153105189872400,11.623872314453125,0.08246438205242157,-0.15026842057704926,0.05803048983216286
1783153105199583200,11.633583251953125,0.08002099394798279,-0.00916270911693573,-0.11972606182098389
1783153105209294000,11.643294189453124,0.10689827054738998,0.14110571146011353,-0.2761029601097107
1783153105219004700,11.653004638671876,0.12522368133068085,0.2736595869064331,-0.3915531039237976
1783153105228715500,11.662715576171875,0.12705622613430023,0.34940463304519653,-0.45447036623954773
1783153105238426400,11.67242626953125,0.10628741979598999,0.3524588644504547,-0.42637139558792114
1783153105248137200,11.68213720703125,0.06352811306715012,0.2907632887363434,-0.30481278896331787
