time,seconds_elapsed,z,y,x
1783169638275504400,0.14550439453125,-0.02091248333454132,-0.17933012545108795,-0.0475788451731205
1783169638285453300,0.155453369140625,0.03147339075803757,-0.04001033306121826,-0.18564657866954803
1783169638295467300,0.16546728515625,0.08004438877105713,0.04239080101251602,-0.25055474042892456
1783169638305416200,0.175416259765625,0.0895368903875351,0.06717904657125473,-0.23662815988063812
1783169638315364000,0.185364013671875,0.05428755283355713,0.0448196716606617,-0.16104446351528168
1783169638325344300,0.19534423828125,-0.004829155281186104,0.021248936653137207,-0.06581217050552368
1783169638335292400,0.20529248046875,-0.0682014673948288,0.02373899146914482,0.016478976234793663
1783169638345241300,0.215241455078125,-0.1155303344130516,0.01628812775015831,0.05707216635346413
1783169638355190300,0.225190185546875,-0.15231789648532867,-0.019925538450479507,0.03892272338271141
1783169638365169400,0.23516943359375,-0.17336861789226532,-0.09301622211933136,-0.0232252087444067
1783169638375118300,0.245118408203125,-0.1703331470489502,-0.17102687060832977,-0.10990151017904282
1783169638385067300,0.2550673828125,-0.14635643362998962,-0.18434742093086243,-0.1837247759103775
1783169638395046100,0.265046142578125,-0.09649167954921722,-0.11627382040023804,-0.25457391142845154
1783169638404995300,0.274995361328125,-0.0006400514394044876,0.007016168907284737,-0.32584092020988464
1783169638414943200,0.284943115234375,0.10774688422679901,0.12801316380500793,-0.41194355487823486
1783169638424892200,0.29489208984375,0.18884803354740143,0.18659943342208862,-0.4921536445617676
1783169638434871300,0.304871337890625,0.22033537924289703,0.17954233288764954,-0.5361000895500183
1783169638444820200,0.3148203125,0.18111127614974976,0.1385118067264557,-0.5219400525093079
1783169638454769200,0.32476904296875,0.10246573388576508,0.1015029326081276,-0.4663958251476288
1783169638464748000,0.334748046875,0.03427470475435257,0.1919834017753601,-0.3866109549999237
1783169638474697200,0.344697265625,-0.02729332074522972,0.2815191447734833,-0.248629629611969
1783169638484645000,0.35464501953125,-0.08923205733299255,0.16230522096157074,-0.12312780320644379
1783169638494594300,0.36459423828125,-0.16640780866146088,-0.0314626544713974,-0.03973010927438736
1783169638504573200,0.3745732421875,-0.20944349467754364,-0.1875641793012619,-0.005778765305876732
1783169638514522400,0.3845224609375,-0.19851042330265045,-0.3096197545528412,-0.023440051823854446
1783169638524471300,0.39447119140625,-0.17861875891685486,-0.38480710983276367,-0.09130395948886871
1783169638534450200,0.4044501953125,-0.15247742831707,-0.35511314868927,-0.1789374053478241
1783169638544399400,0.4143994140625,-0.12250515818595886,-0.22322669625282288,-0.2586952745914459
1783169638554348300,0.424348388671875,-0.08571705222129822,-0.02471785992383957,-0.3334251642227173
1783169638564296200,0.434296142578125,-0.03863169252872467,0.25206291675567627,-0.347852885723114
1783169638574276000,0.444276123046875,-0.00859895907342434,0.4209957420825958,-0.32017624378204346
1783169638584224300,0.454224365234375,-0.00020045973360538483,0.49805617332458496,-0.25126028060913086
1783169638594173200,0.464173095703125,0.0003630649298429489,0.5401219129562378,-0.15966297686100006
1783169638604152300,0.47415234375,-0.00002780929207801819,0.5411076545715332,-0.07352696359157562
1783169638614101200,0.484101318359375,-0.00166219100356102,0.47749271988868713,0.0020567430183291435
1783169638624050200,0.49405029296875,-0.012810100801289082,0.33985695242881775,0.0570465512573719
1783169638633999000,0.5039990234375,-0.01734812743961811,0.17175504565238953,0.10509024560451508
1783169638643978200,0.513978271484375,-0.015940798446536064,0.09326542913913727,0.14598941802978516
1783169638653926100,0.523926025390625,-0.006622664630413055,0.05945819616317749,0.17553426325321198
1783169638663875300,0.533875244140625,0.01473500020802021,0.07276275753974915,0.17781104147434235
1783169638673854200,0.543854248046875,0.047422103583812714,0.19965118169784546,0.15837210416793823
1783169638683803400,0.553803466796875,0.07699061185121536,0.38567858934402466,0.11797044426202774
1783169638693752300,0.56375244140625,0.10874081403017044,0.57216477394104,0.08024810254573822
1783169638703701200,0.573701171875,0.16193151473999023,0.7965317368507385,0.07976067811250687
1783169638713680400,0.583680419921875,0.225476935505867,1.0324100255966187,0.13577361404895782
1783169638723629300,0.59362939453125,0.2659350633621216,1.1193464994430542,0.22783975303173065
1783169638733577200,0.6035771484375,0.2546898126602173,0.9557728171348572,0.31069573760032654
1783169638743557000,0.61355712890625,0.2067144513130188,0.595954954624176,0.3589371144771576
1783169638753505300,0.62350537109375,0.13705627620220184,0.12732405960559845,0.33728933334350586
1783169638763454200,0.6334541015625,0.0588156059384346,-0.3812825083732605,0.2353479415178299
1783169638773403100,0.643403076171875,-0.014059138484299183,-0.803607702255249,0.056918807327747345
1783169638783382300,0.65338232421875,-0.051020488142967224,-0.9542979598045349,-0.13582006096839905
1783169638793331200,0.663331298828125,-0.04229091480374336,-0.7808545231819153,-0.24988697469234467
1783169638803280100,0.673280029296875,-0.0029023345559835434,-0.3525010347366333,-0.25730040669441223
1783169638813259000,0.683259033203125,0.038847774267196655,0.18291924893856049,-0.17613498866558075
1783169638823208400,0.69320849609375,0.0685504749417305,0.6606964468955994,-0.046108413487672806
1783169638833156000,0.703156005859375,0.09889213740825653,0.933812141418457,0.0657038688659668
1783169638843105300,0.713105224609375,0.1442590355873108,0.9525198340415955,0.1343124359846115
1783169638853084400,0.72308447265625,0.19307264685630798,0.7898744344711304,0.15409305691719055
1783169638863033300,0.733033447265625,0.2298288494348526,0.5149657130241394,0.13178685307502747
1783169638872982300,0.742982177734375,0.24307487905025482,0.1803267002105713,0.0704483911395073
1783169638882961200,0.752961181640625,0.2571929097175598,-0.11022823303937912,-0.007407897152006626
1783169638892910300,0.762910400390625,0.2863111197948456,-0.2773274779319763,-0.09252891689538956
1783169638902858200,0.772858154296875,0.3281942903995514,-0.3131551146507263,-0.17064322531223297
1783169638912807200,0.78280712890625,0.3670197129249573,-0.22027283906936646,-0.21852099895477295
1783169638922786300,0.792786376953125,0.4001937806606293,-0.05027449503540993,-0.2207266390323639
1783169638932735200,0.8027353515625,0.4079238772392273,0.12628908455371857,-0.1806175708770752
1783169638942684200,0.81268408203125,0.37965914607048035,0.2720123827457428,-0.11083565652370453
1783169638952663300,0.822663330078125,0.31758353114128113,0.3544851541519165,-0.02347998321056366
1783169638962612200,0.8326123046875,0.22498755156993866,0.3732457756996155,0.06503221392631531
1783169638972561200,0.84256103515625,0.13649070262908936,0.32644975185394287,0.13658097386360168
1783169638982509000,0.852509033203125,0.07538174092769623,0.24199040234088898,0.180588036775589
1783169638992489200,0.8624892578125,0.05202608183026314,0.15529997646808624,0.18043890595436096
1783169639002437000,0.87243701171875,0.06450439244508743,0.08511149138212204,0.1442970335483551
1783169639012386300,0.88238623046875,0.10123497992753983,0.03288370743393898,0.08053883165121078
1783169639022365400,0.892365478515625,0.1532561331987381,0.007041797041893005,-0.0023888275027275085
1783169639032314400,0.902314453125,0.2169690728187561,0.02332036942243576,-0.08693806827068329
1783169639042263300,0.91226318359375,0.27372947335243225,0.06466569751501083,-0.14260593056678772
1783169639052211200,0.922211181640625,0.30962780117988586,0.10754365473985672,-0.1713680773973465
1783169639062191400,0.93219140625,0.3283918797969818,0.1287209391593933,-0.16558623313903809
1783169639072139300,0.94213916015625,0.33261165022850037,0.10446275025606155,-0.1334133744239807
1783169639082088200,0.952088134765625,0.3310164213180542,0.034623030573129654,-0.08380402624607086
1783169639092067300,0.9620673828125,0.31664443016052246,-0.07586965709924698,-0.035318516194820404
1783169639102016300,0.972016357421875,0.28938138484954834,-0.17673762142658234,0.011195019818842411
1783169639111965200,0.981965087890625,0.26155322790145874,-0.24161195755004883,0.04814558103680611
1783169639121914000,0.9919140625,0.2248673290014267,-0.2738502025604248,0.07178904116153717
1783169639131893200,1.001893310546875,0.1914401352405548,-0.2535611689090729,0.07849275320768356
1783169639141842200,1.01184228515625,0.17221248149871826,-0.2034529149532318,0.06464987993240356
1783169639151790000,1.0217900390625,0.1650770604610443,-0.15776905417442322,0.0369921512901783
1783169639161770000,1.03177001953125,0.16311682760715485,-0.14535672962665558,0.01605299673974514
1783169639171718100,1.04171826171875,0.15838173031806946,-0.13593286275863647,0.02226189151406288
1783169639181667300,1.051667236328125,0.13986308872699738,-0.10186485201120377,0.06050410121679306
1783169639191616300,1.0616162109375,0.09789727628231049,-0.07353360950946808,0.1303819864988327
1783169639201595400,1.071595458984375,0.04396212100982666,-0.06098591536283493,0.212760329246521
1783169639211544300,1.08154443359375,-0.02348722703754902,-0.05083208158612251,0.2852632999420166
1783169639221492200,1.0914921875,-0.08794668316841125,-0.0491027869284153,0.33045053482055664
1783169639231472000,1.10147216796875,-0.1398295909166336,-0.07393995672464371,0.349813848733902
1783169639241420300,1.111420166015625,-0.1872124969959259,-0.12124573439359665,0.3371857702732086
1783169639251369200,1.121369140625,-0.22128364443778992,-0.1829221546649933,0.30097609758377075
1783169639261318100,1.131318115234375,-0.22968491911888123,-0.24113205075263977,0.24597856402397156
1783169639271297300,1.14129736328125,-0.2098827213048935,-0.27036502957344055,0.1756996065378189
1783169639281246200,1.15124609375,-0.16945508122444153,-0.2884853780269623,0.09416869282722473
1783169639291201500,1.161201416015625,-0.12122923135757446,-0.27324917912483215,0.013278909958899021
1783169639301180400,1.171180419921875,-0.07731102406978607,-0.2515909671783447,-0.047244198620319366
1783169639311129600,1.181129638671875,-0.050067685544490814,-0.2221534550189972,-0.09205641597509384
1783169639321077500,1.191077392578125,-0.03492685407400131,-0.17217543721199036,-0.10180781036615372
1783169639331026400,1.2010263671875,-0.030500415712594986,-0.12375437468290329,-0.07639006525278091
1783169639341005600,1.211005615234375,-0.024847207590937614,-0.09890694171190262,-0.003040802665054798
1783169639350954500,1.22095458984375,-0.0010422766208648682,-0.08427047729492188,0.10402040183544159
1783169639360903400,1.2309033203125,0.030462689697742462,-0.0895996242761612,0.20513947308063507
1783169639370882600,1.240882568359375,0.038242585957050323,-0.19525973498821259,0.25887563824653625
1783169639380831500,1.25083154296875,0.030901987105607986,-0.3819579780101776,0.24487438797950745
1783169639390779400,1.260779296875,0.021680790930986404,-0.5698948502540588,0.17075462639331818
1783169639400728600,1.270728515625,-0.014678955078125,-0.7214263081550598,0.0262213796377182
1783169639410707500,1.28070751953125,-0.09870248287916183,-0.800147533416748,-0.1875889003276825
1783169639420656400,1.290656494140625,-0.21152225136756897,-0.78819340467453,-0.44683700799942017
1783169639430605300,1.300605224609375,-0.3118794560432434,-0.6125078201293945,-0.6878275275230408
1783169639440584400,1.31058447265625,-0.39342445135116577,-0.29564139246940613,-0.8754068613052368
1783169639450533400,1.320533447265625,-0.444884717464447,0.043008025735616684,-0.985079824924469
1783169639460482300,1.330482421875,-0.45166662335395813,0.33385413885116577,-0.9866439700126648
1783169639470430500,1.340430419921875,-0.4120153486728668,0.5589599609375,-0.8801825046539307
1783169639480410600,1.35041064453125,-0.33860325813293457,0.6994383335113525,-0.6996510624885559
1783169639490358500,1.360358642578125,-0.25181564688682556,0.6804097294807434,-0.4716451168060303
1783169639500307500,1.370307373046875,-0.16506081819534302,0.5084881782531738,-0.23021472990512848
1783169639510286600,1.38028662109375,-0.07781299203634262,0.24864116311073303,-0.011352418921887875
1783169639520235500,1.390235595703125,-0.0032987743616104126,-0.026841729879379272,0.1710362732410431
1783169639530184400,1.400184326171875,0.05586015433073044,-0.24678660929203033,0.31828007102012634
1783169639540132600,1.410132568359375,0.08948912471532822,-0.35321563482284546,0.43322107195854187
1783169639550112500,1.420112548828125,0.09761735796928406,-0.3419012129306793,0.5087778568267822
1783169639560060400,1.430060302734375,0.08061926066875458,-0.26136091351509094,0.5377104878425598
1783169639570009300,1.44000927734375,0.037211865186691284,-0.15370528399944305,0.5177487730979919
1783169639579988500,1.449988525390625,-0.02457577735185623,-0.03362375125288963,0.4708070158958435
1783169639589937400,1.4599375,-0.09761697053909302,0.0737900584936142,0.39764490723609924
1783169639599886300,1.46988623046875,-0.16760995984077454,0.13491220772266388,0.31650790572166443
1783169639609835300,1.479835205078125,-0.2203970104455948,0.14247025549411774,0.22451086342334747
1783169639619814400,1.489814453125,-0.25381171703338623,0.13538911938667297,0.13080862164497375
1783169639629763300,1.499763427734375,-0.26990410685539246,0.1297892928123474,0.05124855414032936
1783169639639711500,1.50971142578125,-0.2778521180152893,0.11327969282865524,-0.021497882902622223
1783169639649691600,1.519691650390625,-0.2809094488620758,0.07635736465454102,-0.08111194521188736
1783169639659639300,1.529639404296875,-0.2759192883968353,0.033346112817525864,-0.1330644190311432
1783169639669588500,1.53958837890625,-0.2579605281352997,-0.03461349755525589,-0.18110013008117676
1783169639679537400,1.549537353515625,-0.22583651542663574,-0.08338004350662231,-0.21317653357982635
1783169639689516500,1.5595166015625,-0.1962357461452484,-0.09529369324445724,-0.213932067155838
1783169639699465500,1.569465576171875,-0.18278168141841888,-0.09233415126800537,-0.19158656895160675
1783169639709413600,1.57941357421875,-0.18832345306873322,-0.07891315221786499,-0.15737907588481903
1783169639719393500,1.5893935546875,-0.18896615505218506,-0.028862889856100082,-0.1115860790014267
1783169639729341400,1.599341552734375,-0.18723616003990173,0.010940448381006718,-0.0523320771753788
1783169639739290400,1.609290283203125,-0.18258748948574066,0.004168785642832518,0.00005554966628551483
1783169639749239600,1.619239501953125,-0.1805800050497055,-0.024351006373763084,0.0420975424349308
1783169639759218400,1.629218505859375,-0.18898643553256989,-0.057903192937374115,0.06807351857423782
1783169639769167400,1.63916748046875,-0.1984451860189438,-0.08439205586910248,0.08072033524513245
1783169639779116300,1.6491162109375,-0.19623059034347534,-0.1326577216386795,0.07008138298988342
1783169639789095400,1.659095458984375,-0.19317300617694855,-0.18093711137771606,0.03741105645895004
1783169639799044400,1.66904443359375,-0.1913609504699707,-0.20746546983718872,-0.012213388457894325
1783169639808992500,1.678992431640625,-0.19005441665649414,-0.2085733413696289,-0.06810435652732849
1783169639818941400,1.68894140625,-0.18172213435173035,-0.1517176777124405,-0.11148832738399506
1783169639828920300,1.69892041015625,-0.16949157416820526,-0.047584887593984604,-0.14186885952949524
1783169639838869500,1.708869384765625,-0.1497945636510849,0.06414429843425751,-0.15573114156723022
1783169639848818400,1.718818359375,-0.12332034856081009,0.15054097771644592,-0.14746814966201782
1783169639858797600,1.728797607421875,-0.09589662402868271,0.19581350684165955,-0.11098385602235794
1783169639868746500,1.73874658203125,-0.05547197163105011,0.2027827352285385,-0.04293262958526611
1783169639878694700,1.748694580078125,0.0052625276148319244,0.19944283366203308,0.04494792968034744
1783169639888643600,1.7586435546875,0.071889229118824,0.1765305995941162,0.14107872545719147
1783169639898622500,1.76862255859375,0.12654390931129456,0.12363682687282562,0.22908100485801697
1783169639908571400,1.7785712890625,0.16537678241729736,0.07974980026483536,0.2998638451099396
1783169639918520600,1.7885205078125,0.18030628561973572,0.06860823184251785,0.344070166349411
1783169639928499500,1.79849951171875,0.18075768649578094,0.1157831996679306,0.3667563199996948
1783169639938448400,1.808448486328125,0.1602131426334381,0.19012883305549622,0.3630427420139313
1783169639948397300,1.818397216796875,0.14704914391040802,0.2614443004131317,0.3435920774936676
1783169639958345500,1.828345458984375,0.1335981786251068,0.37355369329452515,0.3316144645214081
1783169639968325400,1.838325439453125,0.12194232642650604,0.49087101221084595,0.3386515974998474
1783169639978273300,1.848273193359375,0.1153901070356369,0.6424455046653748,0.3773915767669678
1783169639988222500,1.858222412109375,0.1194160133600235,0.8187755346298218,0.45332202315330505
1783169639998201300,1.868201416015625,0.13912004232406616,0.9523658752441406,0.5457413792610168
1783169640008150500,1.878150634765625,0.16436415910720825,0.9473961591720581,0.6304315328598022
1783169640018099500,1.888099365234375,0.1804497092962265,0.6867777705192566,0.6475061774253845
1783169640028047600,1.898047607421875,0.18077301979064941,0.11600667983293533,0.535778820514679
1783169640038027500,1.908027587890625,0.16424468159675598,-0.5861044526100159,0.3047725260257721
1783169640047975400,1.917975341796875,0.1533459573984146,-1.123079776763916,0.025408249348402023
1783169640057924600,1.927924560546875,0.14749151468276978,-1.34122896194458,-0.21847081184387207
1783169640067903500,1.937903564453125,0.14249888062477112,-1.2227261066436768,-0.3943946957588196
1783169640077852400,1.947852294921875,0.1339614987373352,-0.7903028726577759,-0.45325541496276855
1783169640087801300,1.95780126953125,0.11820731312036514,-0.11508477479219437,-0.3872939944267273
1783169640097750500,1.96775048828125,0.09160099178552628,0.5315814018249512,-0.23395705223083496
1783169640107729400,1.9777294921875,0.05010894685983658,0.8961926102638245,-0.05546720698475838
1783169640117678300,1.98767822265625,0.01276426948606968,0.862305223941803,0.09368948638439178
1783169640127626500,1.99762646484375,-0.016752608120441437,0.5161310434341431,0.19978129863739014
1783169640137606400,2.0076064453125,-0.038465384393930435,0.06743443757295609,0.2581515908241272
1783169640147554300,2.01755419921875,-0.042203933000564575,-0.32815948128700256,0.2783831059932709
1783169640157503500,2.02750341796875,-0.018919646739959717,-0.5270848274230957,0.2528420686721802
1783169640167452700,2.03745263671875,0.005048535764217377,-0.5226290822029114,0.17081084847450256
1783169640177431600,2.047431640625,0.0217352956533432,-0.39203304052352905,0.03960436210036278
1783169640187380500,2.05738037109375,0.029600411653518677,-0.197064608335495,-0.1223701611161232
1783169640197328600,2.06732861328125,0.027388744056224823,0.05542363226413727,-0.27325475215911865
1783169640207308500,2.07730859375,0.01889539137482643,0.3476341664791107,-0.37491002678871155
1783169640217256400,2.08725634765625,-0.021207377314567566,0.5534970164299011,-0.4142414331436157
1783169640227205600,2.09720556640625,-0.06782734394073486,0.6187132596969604,-0.4112464189529419
1783169640237154600,2.107154541015625,-0.09264921396970749,0.5838431715965271,-0.3747449219226837
1783169640247133400,2.117133544921875,-0.0940641537308693,0.48098015785217285,-0.3254958987236023
1783169640257082400,2.127082275390625,-0.05988917499780655,0.3307216763496399,-0.2737264931201935
1783169640267031600,2.137031494140625,0.001862071454524994,0.17748790979385376,-0.2146056443452835
1783169640277010400,2.147010498046875,0.08192664384841919,0.048308342695236206,-0.15155278146266937
1783169640286959400,2.15695947265625,0.16809721291065216,-0.0417427234351635,-0.09458722919225693
1783169640296934000,2.166933837890625,0.2422533482313156,-0.10654747486114502,-0.05434185266494751
1783169640306882800,2.1768828125,0.29907989501953125,-0.1394508332014084,-0.01942727528512478
1783169640316862000,2.186862060546875,0.3431503176689148,-0.1281929314136505,-0.0015550358220934868
1783169640326811000,2.196810791015625,0.365210622549057,-0.12016215920448303,-0.006665109656751156
1783169640336759800,2.206759765625,0.3797699809074402,-0.12201838195323944,-0.03411789983510971
1783169640346738700,2.21673876953125,0.3850421905517578,-0.12396061420440674,-0.06333917379379272
1783169640356688000,2.22668798828125,0.38244813680648804,-0.13530616462230682,-0.08753534406423569
1783169640366635800,2.2366357421875,0.3660805821418762,-0.16888728737831116,-0.10985450446605682
1783169640376584700,2.246584716796875,0.3370545208454132,-0.19289208948612213,-0.12113652378320694
1783169640386563800,2.256563720703125,0.30450910329818726,-0.19735075533390045,-0.11272866278886795
1783169640396512800,2.2665126953125,0.26992326974868774,-0.2135143280029297,-0.0982636958360672
1783169640406462000,2.2764619140625,0.23194977641105652,-0.23149226605892181,-0.07004084438085556
1783169640416441000,2.286441162109375,0.18694458901882172,-0.20850920677185059,-0.023178361356258392
1783169640426390000,2.29639013671875,0.13595624268054962,-0.15375354886054993,0.03712465986609459
1783169640436339000,2.3063388671875,0.08517880737781525,-0.05275769904255867,0.1145227774977684
1783169640446286800,2.316286865234375,0.04789188876748085,0.08857785910367966,0.1931733787059784
1783169640456267000,2.32626708984375,0.01658444106578827,0.22269004583358765,0.26670047640800476
1783169640466215000,2.33621484375,-0.019112301990389824,0.31008675694465637,0.31994637846946716
1783169640476163800,2.346163818359375,-0.05267797037959099,0.36131125688552856,0.3615235686302185
1783169640486143000,2.35614306640625,-0.08657281845808029,0.36659735441207886,0.37944504618644714
1783169640496092000,2.366091796875,-0.11303374171257019,0.315304696559906,0.3713957369327545
1783169640506040800,2.376040771484375,-0.1346210539340973,0.22190922498703003,0.3499000370502472
1783169640515989800,2.38598974609375,-0.13494406640529633,0.11252827942371368,0.3042156994342804
1783169640525969000,2.395968994140625,-0.1101071685552597,-0.005576253868639469,0.2428780496120453
1783169640535917800,2.405917724609375,-0.06576580554246902,-0.12721896171569824,0.16480350494384766
1783169640545865700,2.41586572265625,-0.008121415972709656,-0.1977410614490509,0.08170969784259796
1783169640555844900,2.425844970703125,0.043075717985630035,-0.2097756713628769,0.0054855626076459885
1783169640565793800,2.435793701171875,0.07184585183858871,-0.1853094846010208,-0.0634911060333252
1783169640575743000,2.445742919921875,0.08179613947868347,-0.16711848974227905,-0.11374446004629135
1783169640585692000,2.45569189453125,0.08049838244915009,-0.18089555203914642,-0.1369198113679886
1783169640595671000,2.465671142578125,0.07192139327526093,-0.1990000456571579,-0.13081419467926025
1783169640605620000,2.475619873046875,0.06339315325021744,-0.18278858065605164,-0.07131198048591614
1783169640615568000,2.48556787109375,0.052577897906303406,-0.14982402324676514,0.01227027177810669
1783169640625547800,2.4955478515625,0.015121331438422203,-0.15696103870868683,0.07641889899969101
1783169640635496000,2.505495849609375,-0.03921594098210335,-0.2592090964317322,0.05717120319604874
1783169640645444900,2.51544482421875,-0.10598671436309814,-0.38147830963134766,-0.05714631825685501
1783169640655393800,2.525393798828125,-0.19315457344055176,-0.4522254765033722,-0.23377223312854767
1783169640665373000,2.535373046875,-0.2969145178794861,-0.429830402135849,-0.42428839206695557
1783169640675321900,2.54532177734375,-0.3973022699356079,-0.27990415692329407,-0.5928859710693359
1783169640685270800,2.555270751953125,-0.4618109464645386,-0.042213570326566696,-0.7001506686210632
1783169640695250000,2.56525,-0.4833729565143585,0.191053107380867,-0.7288736701011658
1783169640705198800,2.57519873046875,-0.48725345730781555,0.3499636650085449,-0.6761090159416199
1783169640715146800,2.585146728515625,-0.4754636287689209,0.40915900468826294,-0.5534814596176147
1783169640725095700,2.595095703125,-0.4472314715385437,0.3643108606338501,-0.39199990034103394
1783169640735074800,2.60507470703125,-0.40936434268951416,0.24268744885921478,-0.22722108662128448
1783169640745024000,2.61502392578125,-0.3517434000968933,0.08885394036769867,-0.07941297441720963
1783169640754973000,2.624972900390625,-0.2787907123565674,-0.07509608566761017,0.043797776103019714
1783169640764952000,2.6349521484375,-0.19500446319580078,-0.21258898079395294,0.13802918791770935
1783169640774901000,2.64490087890625,-0.11584547162055969,-0.2908360958099365,0.18776878714561462
1783169640784849000,2.654848876953125,-0.0564764179289341,-0.3090348243713379,0.1935369372367859
1783169640794797800,2.6647978515625,-0.031184643507003784,-0.2786058187484741,0.17262020707130432
1783169640804777000,2.67477685546875,-0.03068370185792446,-0.2274121344089508,0.1468735635280609
1783169640814726000,2.684725830078125,-0.05108676105737686,-0.1803542971611023,0.13551804423332214
1783169640824674800,2.6946748046875,-0.08336640894412994,-0.17168304324150085,0.1288718581199646
1783169640834654000,2.704654052734375,-0.1323578655719757,-0.19109663367271423,0.1370534747838974
1783169640844603000,2.714602783203125,-0.19018813967704773,-0.2340417057275772,0.165363147854805
1783169640854551800,2.7245517578125,-0.2492746263742447,-0.2774695158004761,0.20239530503749847
1783169640864499700,2.734499755859375,-0.3115648925304413,-0.29311132431030273,0.2323702573776245
1783169640874479900,2.74447998046875,-0.3791487514972687,-0.27259358763694763,0.25148752331733704
1783169640884427800,2.754427734375,-0.44517409801483154,-0.24912552535533905,0.22565165162086487
1783169640894376700,2.764376708984375,-0.505054771900177,-0.24072527885437012,0.15617354214191437
1783169640904355800,2.77435595703125,-0.5369008183479309,-0.22294148802757263,0.04659564420580864
1783169640914304800,2.7843046875,-0.5322521924972534,-0.2136038988828659,-0.07755236327648163
1783169640924254000,2.79425390625,-0.49577274918556213,-0.20737981796264648,-0.19159157574176788
1783169640934201900,2.804201904296875,-0.44973522424697876,-0.199198916554451,-0.2816976010799408
1783169640944182000,2.81418212890625,-0.4091784358024597,-0.17656470835208893,-0.3147410452365875
1783169640954130000,2.8241298828125,-0.3849731683731079,-0.16619959473609924,-0.2966824769973755
1783169640964078800,2.834078857421875,-0.37796318531036377,-0.15653552114963531,-0.22561948001384735
1783169640974058000,2.84405810546875,-0.38623321056365967,-0.11970748752355576,-0.12435156106948853
1783169640984007000,2.8540068359375,-0.4083571434020996,-0.09338613599538803,-0.03428211808204651
1783169640993955800,2.863955810546875,-0.4329417645931244,-0.0979524627327919,0.02051565609872341
1783169641003904800,2.87390478515625,-0.4489859640598297,-0.10666286945343018,0.03453986346721649
1783169641013884000,2.8838837890625,-0.4586130380630493,-0.0966295376420021,-0.006918970495462418
1783169641023832800,2.893832763671875,-0.46659985184669495,-0.0687803253531456,-0.09279153496026993
1783169641033780700,2.90378076171875,-0.4683271050453186,-0.012257128022611141,-0.19769597053527832
1783169641043761000,2.913760986328125,-0.4627845287322998,0.05119401589035988,-0.30785685777664185
1783169641053708800,2.923708740234375,-0.4390183687210083,0.11562912166118622,-0.4243813455104828
1783169641063657700,2.93365771484375,-0.40458956360816956,0.18233944475650787,-0.5301067233085632
1783169641073607000,2.94360693359375,-0.3676582872867584,0.22346565127372742,-0.6167348027229309
1783169641083585800,2.953585693359375,-0.32577449083328247,0.2660040259361267,-0.6684775948524475
1783169641093535000,2.963534912109375,-0.2867772877216339,0.3002539277076721,-0.697953999042511
1783169641103483000,2.97348291015625,-0.2390046864748001,0.3081216812133789,-0.6910502910614014
1783169641113463000,2.983463134765625,-0.1881013810634613,0.29751431941986084,-0.6263883113861084
1783169641123411000,2.993410888671875,-0.13461631536483765,0.28769204020500183,-0.5028770565986633
1783169641133359900,3.00335986328125,-0.09395384788513184,0.3145899772644043,-0.33622363209724426
1783169641143308800,3.013308837890625,-0.08105616271495819,0.32974815368652344,-0.16188670694828033
1783169641153288000,3.023287841796875,-0.09458430111408234,0.3465974032878876,-0.010176544077694416
1783169641163236900,3.03323681640625,-0.11119470000267029,0.3701559901237488,0.11719951778650284
1783169641173185800,3.043185791015625,-0.11943319439888,0.39592039585113525,0.20805558562278748
1783169641183165000,3.0531650390625,-0.11745793372392654,0.4078638553619385,0.26828137040138245
1783169641193113900,3.06311376953125,-0.11161858588457108,0.41598960757255554,0.29657483100891113
1783169641203061800,3.073061767578125,-0.09997577965259552,0.4145568311214447,0.3044782876968384
1783169641213010700,3.0830107421875,-0.0822644829750061,0.43658924102783203,0.30726078152656555
1783169641222989800,3.09298974609375,-0.04386889189481735,0.5235870480537415,0.32523924112319946
1783169641232938800,3.102938720703125,0.02020617201924324,0.6555345058441162,0.36700281500816345
1783169641242887700,3.1128876953125,0.09359943121671677,0.7365627884864807,0.41963326930999756
1783169641252866800,3.12286669921875,0.1729503870010376,0.6848985552787781,0.447502464056015
1783169641262816000,3.13281591796875,0.23527048528194427,0.5017058253288269,0.449972540140152
1783169641272764000,3.142763916015625,0.2531815469264984,0.1746303290128708,0.40044912695884705
1783169641282712800,3.152712890625,0.20527687668800354,-0.2964807450771332,0.24631787836551666
1783169641292720600,3.162720703125,0.12099858373403549,-0.755978524684906,0.028110820800065994
1783169641302669600,3.172669677734375,0.06585410982370377,-0.9435396194458008,-0.15790832042694092
1783169641312618500,3.182618408203125,0.03169737383723259,-0.8188806176185608,-0.2754300832748413
1783169641322597400,3.192597412109375,0.0017341505736112595,-0.4387383460998535,-0.3297173082828522
1783169641332546800,3.202546875,-0.009734122082591057,0.10279780626296997,-0.31050094962120056
1783169641342495700,3.212495849609375,0.006184924393892288,0.6265403628349304,-0.22559724748134613
1783169641352443600,3.222443603515625,0.04318102449178696,0.9638441801071167,-0.09620054066181183
1783169641362423600,3.232423583984375,0.07293758541345596,1.0867385864257812,0.034755077213048935
1783169641372371700,3.242371826171875,0.08869613707065582,0.9654325842857361,0.13332022726535797
1783169641382320600,3.252320556640625,0.1048165112733841,0.653644323348999,0.19072413444519043
1783169641392299800,3.2622998046875,0.1257847249507904,0.2713419497013092,0.21647091209888458
1783169641402248700,3.272248779296875,0.15022295713424683,-0.10621627420186996,0.21470603346824646
1783169641412197600,3.28219775390625,0.17019765079021454,-0.388597697019577,0.18646058440208435
1783169641422145500,3.2921455078125,0.18466979265213013,-0.47894594073295593,0.13913995027542114
1783169641432125700,3.302125732421875,0.1853596270084381,-0.40901973843574524,0.07450690865516663
1783169641442073600,3.312073486328125,0.18427997827529907,-0.2591373026371002,0.006901497021317482
1783169641452022500,3.3220224609375,0.19287365674972534,-0.05355483293533325,-0.039814162999391556
1783169641462001700,3.332001708984375,0.19844792783260345,0.15297037363052368,-0.06370990723371506
1783169641471950600,3.34195068359375,0.21206580102443695,0.29308265447616577,-0.06704056262969971
1783169641481899500,3.3518994140625,0.23641453683376312,0.3442326784133911,-0.0696462094783783
1783169641491848700,3.3618486328125,0.27067428827285767,0.29670605063438416,-0.07637623697519302
1783169641501827800,3.371827880859375,0.3074730336666107,0.19264383614063263,-0.09098128229379654
1783169641511776800,3.38177685546875,0.33998969197273254,0.05646587535738945,-0.08819378912448883
1783169641521724700,3.391724609375,0.36653822660446167,-0.09804221242666245,-0.06430549919605255
1783169641531704600,3.40170458984375,0.38729870319366455,-0.21709103882312775,-0.01931409165263176
1783169641541652700,3.41165283203125,0.39669328927993774,-0.29043102264404297,0.041163370013237
1783169641551601700,3.4216015625,0.3977338671684265,-0.34153908491134644,0.09382663667201996
1783169641561550600,3.431550537109375,0.39774689078330994,-0.3419143259525299,0.13032393157482147
1783169641571529700,3.44152978515625,0.40007853507995605,-0.28835010528564453,0.14062364399433136
1783169641581478700,3.451478759765625,0.38703620433807373,-0.22787664830684662,0.12058442085981369
1783169641591426600,3.461426513671875,0.37095746397972107,-0.19131341576576233,0.06938309222459793
1783169641601406500,3.471406494140625,0.3628571927547455,-0.199240580201149,0.00696365674957633
1783169641611354600,3.481354736328125,0.36109524965286255,-0.26622703671455383,-0.06411544978618622
1783169641621303600,3.491303466796875,0.361393541097641,-0.37276092171669006,-0.12129378318786621
1783169641631252500,3.50125244140625,0.35550716519355774,-0.49768948554992676,-0.1656935065984726
1783169641641231600,3.511231689453125,0.33158451318740845,-0.6189607977867126,-0.1759490668773651
1783169641651180500,3.5211806640625,0.2822738587856293,-0.7013826966285706,-0.13343529403209686
1783169641661129700,3.531129638671875,0.2092829942703247,-0.737212061882019,-0.04767058789730072
1783169641671108600,3.541108642578125,0.13799023628234863,-0.6681903600692749,0.07444918155670166
1783169641681057800,3.551057861328125,0.08774065971374512,-0.5500876903533936,0.2141362428665161
1783169641691005700,3.561005615234375,0.06774388998746872,-0.40203943848609924,0.3326980769634247
1783169641700954600,3.57095458984375,0.07624337077140808,-0.2399379014968872,0.41745850443840027
1783169641710933800,3.580933837890625,0.10948894172906876,-0.10994048416614532,0.44765129685401917
1783169641720882700,3.590882568359375,0.14004632830619812,-0.03185340389609337,0.42711886763572693
1783169641730831600,3.60083154296875,0.1500474363565445,-0.015282833948731422,0.3764558434486389
1783169641740810800,3.610810791015625,0.13730953633785248,-0.042442549020051956,0.30981793999671936
1783169641750759700,3.620759765625,0.11101207882165909,-0.0499536395072937,0.24475347995758057
1783169641760707600,3.63070751953125,0.07547485828399658,-0.04319320619106293,0.18032975494861603
1783169641770656500,3.640656494140625,0.044249217957258224,-0.03628445044159889,0.11207373440265656
1783169641780635600,3.6506357421875,0.021632853895425797,-0.013215882703661919,0.03465723991394043
1783169641790584600,3.66058447265625,0.002872828394174576,0.023865722119808197,-0.0338754877448082
1783169641800533500,3.670533447265625,-0.015115492977201939,0.09741690009832382,-0.07064894586801529
1783169641810512600,3.6805126953125,-0.03222090005874634,0.17512354254722595,-0.06537023186683655
1783169641820461600,3.690461669921875,-0.03711152821779251,0.24084822833538055,-0.005931940861046314
1783169641830410500,3.700410400390625,-0.013435650616884232,0.29054132103919983,0.10587415844202042
1783169641840358400,3.7103583984375,0.047755803912878036,0.30218279361724854,0.24488957226276398
1783169641850338800,3.7203388671875,0.10462803393602371,0.22883284091949463,0.36020106077194214
1783169641860286700,3.73028662109375,0.1280321478843689,0.05651674047112465,0.4068838655948639
1783169641870235600,3.740235595703125,0.10993961244821548,-0.14111943542957306,0.3847578167915344
1783169641880214800,3.75021484375,0.0360637903213501,-0.3079763352870941,0.29184040427207947
1783169641890163700,3.760163818359375,-0.09418278932571411,-0.4351085126399994,0.11611171811819077
1783169641900112600,3.770112548828125,-0.2504054307937622,-0.4843663275241852,-0.12269047647714615
1783169641910060500,3.780060546875,-0.3966216742992401,-0.43666940927505493,-0.37684646248817444
1783169641920040700,3.790040771484375,-0.4867939054965973,-0.27450183033943176,-0.590313732624054
1783169641929988600,3.799988525390625,-0.5234925150871277,-0.0030563771724700928,-0.7303140759468079
1783169641939937500,3.8099375,-0.5279591679573059,0.3018108606338501,-0.7989889979362488
1783169641949916700,3.819916748046875,-0.4995534420013428,0.523658812046051,-0.7883349657058716
1783169641959865600,3.829865478515625,-0.4380975365638733,0.6180074214935303,-0.6961445808410645
1783169641969814500,3.839814453125,-0.34763938188552856,0.6032348871231079,-0.5498472452163696
1783169641979763500,3.849763427734375,-0.2414357215166092,0.48575863242149353,-0.36121895909309387
1783169641989742600,3.85974267578125,-0.1303543746471405,0.2911142110824585,-0.15948444604873657
1783169641999691500,3.86969140625,-0.012923352420330048,0.04418512061238289,0.03645230829715729
1783169642009639400,3.879639404296875,0.09294305741786957,-0.2282799631357193,0.20165041089057922
1783169642019619600,3.88961962890625,0.1580655872821808,-0.46616068482398987,0.31639564037323
1783169642029567500,3.8995673828125,0.1745477020740509,-0.6149886250495911,0.36421850323677063
1783169642039516700,3.9095166015625,0.15372604131698608,-0.6683695316314697,0.345329225063324
1783169642049465600,3.919465576171875,0.10246014595031738,-0.662350594997406,0.26268434524536133
1783169642059444700,3.92944482421875,0.027794431895017624,-0.612293541431427,0.1379173845052719
1783169642069393700,3.9393935546875,-0.0582355260848999,-0.5189981460571289,-0.007854938507080078
1783169642079341600,3.949341552734375,-0.1420164406299591,-0.4147838354110718,-0.15295593440532684
1783169642089321700,3.95932177734375,-0.21807613968849182,-0.28309398889541626,-0.29393741488456726
1783169642099269600,3.96926953125,-0.2908174395561218,-0.15267524123191833,-0.40929490327835083
1783169642109218600,3.979218505859375,-0.346101313829422,-0.05035204812884331,-0.4806597828865051
1783169642119167500,3.98916748046875,-0.3824276328086853,0.027160853147506714,-0.487658828496933
1783169642129146600,3.999146728515625,-0.3975127637386322,0.07294288277626038,-0.43919670581817627
1783169642139095600,4.009095458984375,-0.399848610162735,0.07789023965597153,-0.36130109429359436
1783169642149044500,4.01904443359375,-0.38717541098594666,0.044380784034729004,-0.2653614282608032
1783169642159023600,4.029023681640625,-0.35908013582229614,-0.022695187479257584,-0.16585879027843475
1783169642168972500,4.03897265625,-0.29927194118499756,-0.11670155078172684,-0.07717639207839966
1783169642178920400,4.04892041015625,-0.22369836270809174,-0.20303696393966675,-0.0032891230657696724
1783169642188869600,4.05886962890625,-0.1465926617383957,-0.23343193531036377,0.05703740566968918
1783169642198848500,4.0688486328125,-0.09370813518762589,-0.22657161951065063,0.10588031262159348
1783169642208797700,4.078797607421875,-0.0716906487941742,-0.21491526067256927,0.13358789682388306
1783169642218746600,4.08874658203125,-0.06653396785259247,-0.1807176172733307,0.1575358361005783
1783169642228725800,4.098725830078125,-0.08099942654371262,-0.12449752539396286,0.17599712312221527
1783169642238674700,4.1086748046875,-0.10800547897815704,-0.07367748767137527,0.19311858713626862
1783169642248623600,4.11862353515625,-0.1438479870557785,-0.015031978487968445,0.2001214623451233
1783169642258571500,4.128571533203125,-0.18447716534137726,0.03952261060476303,0.18099570274353027
1783169642268550700,4.138550537109375,-0.22239471971988678,0.07668551057577133,0.1374475359916687
1783169642278499600,4.14849951171875,-0.25502511858940125,0.09340883046388626,0.07162484526634216
1783169642288448500,4.158448486328125,-0.276465505361557,0.07921133935451508,-0.022200219333171844
1783169642298450700,4.16845068359375,-0.2712545096874237,0.058867454528808594,-0.13432437181472778
1783169642308399600,4.178399658203125,-0.2386930137872696,0.05787842348217964,-0.24939265847206116
1783169642318348500,4.1883486328125,-0.19093534350395203,0.07631522417068481,-0.34735196828842163
1783169642328296700,4.198296630859375,-0.1326155811548233,0.09661895781755447,-0.40935906767845154
1783169642338276600,4.208276611328125,-0.0614793598651886,0.13184139132499695,-0.40995481610298157
1783169642348224500,4.218224609375,0.013521745800971985,0.1765001267194748,-0.35279378294944763
1783169642358173700,4.228173583984375,0.07268626242876053,0.21720121800899506,-0.24651740491390228
1783169642368152600,4.238152587890625,0.11186590045690536,0.22855526208877563,-0.11871183663606644
1783169642378101500,4.2481015625,0.13167288899421692,0.1616731584072113,0.013196655549108982
1783169642388050400,4.258050537109375,0.1535387635231018,0.04556165263056755,0.13106326758861542
1783169642397999600,4.26799951171875,0.18023349344730377,-0.0569804348051548,0.2308548390865326
1783169642407978500,4.277978515625,0.21080464124679565,-0.1117129847407341,0.3032744824886322
1783169642417927400,4.287927490234375,0.24538259208202362,-0.1019357219338417,0.363925576210022
1783169642427875600,4.29787548828125,0.27662980556488037,-0.06687328219413757,0.420124351978302
1783169642437854500,4.3078544921875,0.2956274747848511,0.01456885039806366,0.48684853315353394
1783169642447803400,4.317803466796875,0.308271199464798,0.1698528528213501,0.5533275008201599
1783169642457752800,4.3277529296875,0.32710373401641846,0.3517198860645294,0.6155200600624084
1783169642467701800,4.33770166015625,0.33997291326522827,0.46823030710220337,0.6346375942230225
1783169642477680600,4.3476806640625,0.3416629731655121,0.412556916475296,0.5749369859695435
1783169642487629600,4.357629638671875,0.3205757737159729,0.18506650626659393,0.3990287780761719
1783169642497577700,4.36757763671875,0.28624603152275085,-0.08375589549541473,0.14610838890075684
1783169642507557600,4.3775576171875,0.2291613519191742,-0.2876797914505005,-0.14328312873840332
1783169642517505500,4.387505615234375,0.16996248066425323,-0.38767510652542114,-0.3949950039386749
1783169642527454700,4.397454833984375,0.11865295469760895,-0.3658028244972229,-0.5625720024108887
1783169642537403600,4.407403564453125,0.09917539358139038,-0.20415081083774567,-0.6149835586547852
1783169642547382500,4.417382568359375,0.11191516369581223,0.05914461612701416,-0.5449930429458618
1783169642557331500,4.42733154296875,0.1598893404006958,0.3582650125026703,-0.3685389757156372
1783169642567280600,4.43728076171875,0.23438727855682373,0.5889561772346497,-0.12904420495033264
1783169642577259500,4.447259521484375,0.3057991564273834,0.6802749037742615,0.11393088102340698
1783169642587208400,4.45720849609375,0.3621687591075897,0.6128361821174622,0.32222428917884827
1783169642597156600,4.467156494140625,0.40024957060813904,0.42806476354599,0.46915140748023987
1783169642607105500,4.47710546875,0.4221285879611969,0.14425727725028992,0.5310978293418884
1783169642617084400,4.48708447265625,0.4365203082561493,-0.2009246051311493,0.5001505017280579
1783169642627033600,4.49703369140625,0.4536861777305603,-0.5185876488685608,0.3942776918411255
1783169642636982800,4.506982666015625,0.4815654754638672,-0.719332754611969,0.23827503621578217
1783169642646961700,4.516961669921875,0.5043501853942871,-0.8062072396278381,0.052498672157526016
1783169642656910600,4.52691064453125,0.5267891883850098,-0.7570272088050842,-0.12283772230148315
1783169642666858800,4.536858642578125,0.5371993780136108,-0.5708709359169006,-0.23860077559947968
1783169642676807700,4.5468076171875,0.4970567226409912,-0.30230551958084106,-0.28903037309646606
1783169642686786600,4.55678662109375,0.40253573656082153,-0.025624996051192284,-0.2901398241519928
1783169642696735700,4.56673583984375,0.28293555974960327,0.2059994488954544,-0.26353856921195984
1783169642706684700,4.5766845703125,0.16357159614562988,0.326620489358902,-0.23892320692539215
1783169642716663600,4.58666357421875,0.07025496661663055,0.32752251625061035,-0.21921129524707794
1783169642726612500,4.596612548828125,0.007645932957530022,0.274249792098999,-0.1975705623626709
1783169642736561700,4.606561767578125,-0.03039173036813736,0.15148206055164337,-0.19612953066825867
1783169642746509600,4.616509521484375,-0.03576590120792389,0.008430618792772293,-0.2100691795349121
1783169642756489500,4.626489501953125,0.010112108662724495,-0.0824207291007042,-0.22385478019714355
1783169642766437600,4.636437744140625,0.09367996454238892,-0.09271632879972458,-0.21664969623088837
1783169642776386600,4.646386474609375,0.18368574976921082,-0.040102120488882065,-0.18416738510131836
1783169642786365400,4.656365478515625,0.27688947319984436,0.037344105541706085,-0.14201679825782776
1783169642796314600,4.666314697265625,0.35558080673217773,0.09888257086277008,-0.10756401717662811
1783169642806263800,4.676263916015625,0.4174492657184601,0.12107273936271667,-0.08872970938682556
1783169642816211700,4.686211669921875,0.4458193778991699,0.09550639241933823,-0.07996391505002975
1783169642826191600,4.696191650390625,0.4399731159210205,0.0066172960214316845,-0.06501682847738266
1783169642836139800,4.706139892578125,0.4027029871940613,-0.12093880027532578,-0.040743984282016754
1783169642846088700,4.716088623046875,0.34294572472572327,-0.25390130281448364,-0.008443824015557766
1783169642856067600,4.726067626953125,0.27639198303222656,-0.3412628471851349,0.005748693831264973
1783169642866016500,4.7360166015625,0.2367256134748459,-0.3506891429424286,0.017911959439516068
1783169642875965700,4.745965576171875,0.22482074797153473,-0.26606935262680054,0.03517962992191315
1783169642885914600,4.75591455078125,0.22364649176597595,-0.15357080101966858,0.05205057933926582
1783169642895893500,4.7658935546875,0.21394671499729156,-0.04599347338080406,0.08715503662824631
1783169642905842400,4.775842529296875,0.17255596816539764,0.053755711764097214,0.13708893954753876
1783169642915790600,4.78579052734375,0.1012924462556839,0.11254552006721497,0.19642123579978943
1783169642925770500,4.7957705078125,0.030038582161068916,0.13203860819339752,0.2495562881231308
1783169642935718700,4.80571875,-0.03192518651485443,0.15382006764411926,0.3072156012058258
1783169642945667600,4.81566748046875,-0.07078913599252701,0.1373198926448822,0.3523419499397278
1783169642955616800,4.82561669921875,-0.08270411938428879,0.07430523633956909,0.3694349229335785
1783169642965595400,4.835595458984375,-0.06855634599924088,-0.045644111931324005,0.3481419086456299
1783169642975544600,4.845544677734375,-0.03819204866886139,-0.18888835608959198,0.30291318893432617
1783169642985492700,4.85549267578125,-0.008468855172395706,-0.30742302536964417,0.23752780258655548
1783169642995472600,4.86547265625,0.003771565854549408,-0.33724990487098694,0.15427552163600922
1783169643005420800,4.8754208984375,-0.0009725075215101242,-0.3091186583042145,0.06420274078845978
1783169643015369700,4.88536962890625,-0.006006147712469101,-0.2740967571735382,-0.01658238284289837
1783169643025318700,4.895318603515625,-0.0059964656829833984,-0.20722536742687225,-0.06973251700401306
1783169643035297500,4.905297607421875,-0.009174149483442307,-0.14334918558597565,-0.07743890583515167
1783169643045246700,4.915246826171875,-0.016820264980196953,-0.08447550237178802,-0.040790215134620667
1783169643055195600,4.925195556640625,-0.021724475547671318,-0.041763193905353546,0.041239406913518906
1783169643065174500,4.935174560546875,-0.035024672746658325,-0.11901726573705673,0.10668648779392242
1783169643075123500,4.94512353515625,-0.061918072402477264,-0.35753557085990906,0.09637366235256195
1783169643085071600,4.955071533203125,-0.09472136199474335,-0.5910961031913757,-0.002077004872262478
1783169643095020500,4.9650205078125,-0.12000861763954163,-0.6806020140647888,-0.1710473895072937
1783169643104999400,4.97499951171875,-0.16872909665107727,-0.6574185490608215,-0.38264063000679016
1783169643114948600,4.984948486328125,-0.23778726160526276,-0.5552589297294617,-0.5949374437332153
1783169643124897500,4.9948974609375,-0.29438963532447815,-0.30740219354629517,-0.7407518029212952
1783169643134876400,5.00487646484375,-0.32246389985084534,0.01825205609202385,-0.7871233224868774
1783169643144825600,5.01482568359375,-0.3276606798171997,0.3114989101886749,-0.7216019034385681
1783169643154773800,5.024773681640625,-0.3185305893421173,0.4996539056301117,-0.5528285503387451
1783169643164722700,5.03472265625,-0.30071544647216797,0.513533890247345,-0.34235817193984985
1783169643174701600,5.04470166015625,-0.26984408497810364,0.4177146553993225,-0.13975048065185547
1783169643184650800,5.054650634765625,-0.21144844591617584,0.27424564957618713,0.025036294013261795
1783169643194599700,5.064599609375,-0.1181645616889,0.12760694324970245,0.15799567103385925
1783169643204578600,5.07457861328125,0.0013273172080516815,-0.01688617281615734,0.2513350546360016
1783169643214527500,5.084527587890625,0.1160067543387413,-0.14765484631061554,0.2938196659088135
1783169643224476700,5.0944765625,0.19797620177268982,-0.22163939476013184,0.2875470221042633
1783169643234424600,5.104424560546875,0.23530787229537964,-0.24877513945102692,0.23953714966773987
1783169643244404500,5.114404541015625,0.2229541540145874,-0.23066358268260956,0.1611907184123993
1783169643254352600,5.1243525390625,0.17053435742855072,-0.15615712106227875,0.0727362185716629
1783169643264301600,5.134301513671875,0.0816723108291626,-0.042619168758392334,-0.014760841615498066
1783169643274280400,5.144280517578125,-0.02042369730770588,0.06933745741844177,-0.08078672736883163
1783169643284229600,5.154229736328125,-0.10700564086437225,0.16270756721496582,-0.12407678365707397
1783169643294208500,5.16420849609375,-0.17265523970127106,0.2130943089723587,-0.14984473586082458
1783169643304156400,5.174156494140625,-0.21856555342674255,0.2047223597764969,-0.16233095526695251
1783169643314136600,5.184136474609375,-0.24955835938453674,0.1646505743265152,-0.15764114260673523
1783169643324084500,5.19408447265625,-0.27840617299079895,0.10676120221614838,-0.1457403600215912
1783169643334033400,5.204033447265625,-0.30975425243377686,0.038121163845062256,-0.12914033234119415
1783169643344012500,5.214012451171875,-0.34587717056274414,-0.03140685334801674,-0.12281148880720139
1783169643353961700,5.223961669921875,-0.3684125542640686,-0.08865523338317871,-0.11658714711666107
1783169643363910700,5.23391064453125,-0.3671862781047821,-0.11957010626792908,-0.11878275126218796
1783169643373859600,5.243859619140625,-0.34279999136924744,-0.12865974009037018,-0.12834137678146362
1783169643383838700,5.253838623046875,-0.30785858631134033,-0.11089868098497391,-0.12831521034240723
1783169643393787600,5.26378759765625,-0.27949243783950806,-0.07634789496660233,-0.11792407929897308
1783169643403735600,5.273735595703125,-0.2744178771972656,-0.0404970683157444,-0.09853877127170563
1783169643413715700,5.2837158203125,-0.2967117428779602,-0.026997234672307968,-0.058506663888692856
1783169643423663600,5.29366357421875,-0.3439403474330902,-0.032123349606990814,-0.017211653292179108
1783169643433612500,5.303612548828125,-0.4048447012901306,-0.04221753031015396,0.013680750504136086
1783169643443561500,5.3135615234375,-0.4705826938152313,-0.04687690734863281,0.03981658071279526
1783169643453540600,5.32354052734375,-0.5350727438926697,-0.02929258719086647,0.06978566944599152
1783169643463489500,5.333489501953125,-0.5862322449684143,-0.0008654119446873665,0.08158104121685028
1783169643473437400,5.3434375,-0.6117280125617981,0.008484946563839912,0.07331565022468567
1783169643483417600,5.35341748046875,-0.6009169220924377,0.025722229853272438,0.038268402218818665
1783169643493365500,5.363365478515625,-0.5667679905891418,0.05599518120288849,-0.004665481857955456
1783169643503314400,5.373314453125,-0.5167011022567749,0.1011987179517746,-0.04773135110735893
1783169643513263600,5.383263671875,-0.46294575929641724,0.147585928440094,-0.06312602013349533
1783169643523242800,5.39324267578125,-0.40580514073371887,0.18752673268318176,-0.057348061352968216
1783169643533191700,5.403191650390625,-0.3562639653682709,0.21319109201431274,-0.011919860728085041
1783169643543140600,5.413140625,-0.3178219497203827,0.2112772911787033,0.06055738776922226
1783169643553119700,5.42311962890625,-0.2824775278568268,0.198638454079628,0.15354858338832855
1783169643563068700,5.433068603515625,-0.23924821615219116,0.1487663835287094,0.24393154680728912
1783169643573016600,5.4430166015625,-0.1833212971687317,0.10190381854772568,0.2901480197906494
1783169643582965500,5.452965576171875,-0.10626741498708725,0.06512262672185898,0.3003515899181366
1783169643592944600,5.462944580078125,-0.01805046945810318,0.08902955800294876,0.29534804821014404
1783169643602893600,5.4728935546875,0.06483189761638641,0.16422496736049652,0.2980450391769409
1783169643612842500,5.482842529296875,0.13741663098335266,0.1987302154302597,0.32485777139663696
1783169643622821600,5.492821533203125,0.20504315197467804,0.2315964251756668,0.3727329671382904
1783169643632770600,5.5027705078125,0.25501787662506104,0.3251734972000122,0.43899986147880554
1783169643642718500,5.512718505859375,0.27577483654022217,0.3720657527446747,0.5111880302429199
1783169643652667600,5.522667724609375,0.2805062234401703,0.38673123717308044,0.5914655923843384
1783169643662646500,5.532646484375,0.3078661859035492,0.43683096766471863,0.6893282532691956
1783169643672595500,5.542595458984375,0.3541436493396759,0.4541095495223999,0.7755403518676758
1783169643682544600,5.552544677734375,0.39145299792289734,0.3060222864151001,0.775505006313324
1783169643692523800,5.562523681640625,0.4047112762928009,-0.06204067915678024,0.6263775825500488
1783169643702472700,5.57247265625,0.41441580653190613,-0.44735684990882874,0.3718598484992981
1783169643712421600,5.582421630859375,0.4055999517440796,-0.6631450653076172,0.07966715842485428
1783169643722369800,5.592369873046875,0.36574646830558777,-0.6956455111503601,-0.18358752131462097
1783169643732349700,5.602349609375,0.2891126871109009,-0.5675988793373108,-0.3656372129917145
1783169643742297600,5.612297607421875,0.18929482996463776,-0.29032835364341736,-0.45001134276390076
1783169643752246500,5.62224658203125,0.08513033390045166,0.07482457160949707,-0.4357687532901764
1783169643762225700,5.6322255859375,0.023980313912034035,0.4336027204990387,-0.3215193748474121
1783169643772174600,5.642174560546875,0.02185324765741825,0.7020703554153442,-0.13540728390216827
1783169643782123500,5.65212353515625,0.041830793023109436,0.7860251665115356,0.07409685105085373
1783169643792072400,5.662072509765625,0.05388559401035309,0.6865633130073547,0.2502388656139374
1783169643802051600,5.672051513671875,0.05927375704050064,0.4398929178714752,0.35717782378196716
1783169643811999500,5.68199951171875,0.10321298986673355,0.13462355732917786,0.39203301072120667
1783169643821948400,5.691948486328125,0.1907678246498108,-0.1475127786397934,0.372404545545578
1783169643831927600,5.701927490234375,0.3048458993434906,-0.358116090297699,0.2999543249607086
1783169643841876500,5.71187646484375,0.4040314257144928,-0.41245731711387634,0.1946859210729599
1783169643851825700,5.72182568359375,0.46885570883750916,-0.32846599817276,0.0809313952922821
1783169643861774600,5.731774658203125,0.4963310956954956,-0.1767740696668625,-0.00820134300738573
1783169643871753700,5.741753662109375,0.4927752614021301,-0.03406698256731033,-0.06296339631080627
1783169643881702700,5.75170263671875,0.460987389087677,0.08317045122385025,-0.08533674478530884
1783169643891650600,5.761650634765625,0.40281596779823303,0.1766633838415146,-0.06359176337718964
1783169643901630700,5.771630615234375,0.3236542344093323,0.22156867384910583,-0.015266376547515392
1783169643911578600,5.78157861328125,0.24406114220619202,0.20905500650405884,0.0339544340968132
1783169643921527600,5.791527587890625,0.18677116930484772,0.17221684753894806,0.06531128287315369
1783169643931476500,5.8014765625,0.15579646825790405,0.13045503199100494,0.0638342946767807
1783169643941455600,5.81145556640625,0.15240906178951263,0.0820528194308281,0.03502275422215462
1783169643951404500,5.821404541015625,0.17432527244091034,0.05516687408089638,-0.028094962239265442
1783169643961353500,5.831353515625,0.22246181964874268,0.037505436688661575,-0.10558369755744934
1783169643971332600,5.84133251953125,0.2895367443561554,0.04447093605995178,-0.17483706772327423
1783169643981280500,5.851280517578125,0.36784955859184265,0.09801896661520004,-0.21166542172431946
1783169643991229400,5.8612294921875,0.4171862304210663,0.1676901876926422,-0.21148377656936646
1783169644001178600,5.8711787109375,0.43243539333343506,0.20142066478729248,-0.17690633237361908
1783169644011157500,5.881157470703125,0.4254360795021057,0.22110648453235626,-0.11786378920078278
1783169644021106400,5.8911064453125,0.399601548910141,0.1971147507429123,-0.06652911752462387
1783169644031055600,5.9010556640625,0.3599209785461426,0.09215798228979111,-0.04329383373260498
1783169644041034800,5.91103466796875,0.3188570737838745,-0.03894033282995224,-0.06094378978013992
1783169644050983700,5.920983642578125,0.30019763112068176,-0.14856110513210297,-0.08818873018026352
1783169644060931600,5.930931640625,0.31014180183410645,-0.21624161303043365,-0.10331878066062927
1783169644070880800,5.940880859375,0.3226413428783417,-0.184124156832695,-0.09094493091106415
1783169644080859600,5.950859619140625,0.3186992406845093,-0.07835119217634201,-0.059136636555194855
1783169644090808600,5.96080859375,0.309341162443161,0.034700796008110046,-0.01908482238650322
1783169644100757500,5.970757568359375,0.30167290568351746,0.16473528742790222,0.03267359733581543
1783169644110736600,5.980736572265625,0.2861306965351105,0.28931665420532227,0.10343831032514572
1783169644120685600,5.990685546875,0.2497553527355194,0.3845832645893097,0.1605096310377121
1783169644130634500,6.000634521484375,0.1997358500957489,0.4223918914794922,0.21141169965267181
1783169644140582700,6.010582763671875,0.15663497149944305,0.39528074860572815,0.24552808701992035
1783169644150561500,6.0205615234375,0.12664884328842163,0.32712697982788086,0.2621150612831116
1783169644160510500,6.030510498046875,0.11390049755573273,0.2542153596878052,0.28521430492401123
1783169644170459400,6.04045947265625,0.10654591023921967,0.15410952270030975,0.31125709414482117
1783169644180438500,6.0504384765625,0.10161025822162628,0.06275578588247299,0.33086663484573364
1783169644190387500,6.060387451171875,0.08495990931987762,-0.0050083487294614315,0.33780017495155334
1783169644200336600,6.070336669921875,0.07186536490917206,-0.03359798341989517,0.31241360306739807
1783169644210284800,6.080284912109375,0.0497259795665741,-0.023369314149022102,0.24714352190494537
1783169644220264700,6.0902646484375,0.020379766821861267,-0.014712685719132423,0.14568191766738892
1783169644230212600,6.100212646484375,-0.010621823370456696,0.0026881429366767406,0.03434419631958008
1783169644240161500,6.11016162109375,-0.04639821499586105,0.04928471893072128,-0.061314262449741364
1783169644250140700,6.120140625,-0.07201489806175232,0.11822836846113205,-0.12134643644094467
1783169644260089600,6.130089599609375,-0.08965419232845306,0.13694994151592255,-0.16004414856433868
1783169644270038500,6.14003857421875,-0.1176658421754837,0.04690474644303322,-0.22110190987586975
1783169644279987500,6.149987548828125,-0.14178380370140076,-0.10228796303272247,-0.3317195773124695
1783169644289966600,6.159966552734375,-0.1553259789943695,-0.237203449010849,-0.5017387270927429
1783169644299946500,6.169946533203125,-0.16134391725063324,-0.31374308466911316,-0.7055836915969849
1783169644309894700,6.179894775390625,-0.17178963124752045,-0.3029748797416687,-0.8901492953300476
1783169644319873500,6.18987353515625,-0.19209443032741547,-0.22292345762252808,-1.0030957460403442
1783169644329822500,6.199822509765625,-0.21974283456802368,-0.0684414654970169,-1.018493413925171
1783169644339771400,6.209771484375,-0.23457060754299164,0.12214375287294388,-0.9417032599449158
1783169644349720800,6.219720947265625,-0.22510573267936707,0.2967672348022461,-0.7873126268386841
1783169644359699500,6.229699462890625,-0.18069113790988922,0.46272602677345276,-0.5670909285545349
1783169644369648600,6.239648681640625,-0.10163041204214096,0.5377703905105591,-0.31248947978019714
1783169644379596800,6.2495966796875,0.0033722426742315292,0.4498642385005951,-0.06719467788934708
1783169644389576700,6.25957666015625,0.13766135275363922,0.23244217038154602,0.1395968496799469
1783169644399524600,6.269524658203125,0.2760835289955139,-0.07647812366485596,0.2962273955345154
1783169644409473500,6.2794736328125,0.38913044333457947,-0.36877894401550293,0.40709611773490906
1783169644419422700,6.289422607421875,0.4488464891910553,-0.5472577214241028,0.4767117500305176
1783169644429401600,6.299401611328125,0.43949612975120544,-0.6092097759246826,0.5049145817756653
1783169644439350500,6.3093505859375,0.36094391345977783,-0.5976885557174683,0.48796963691711426
1783169644449299500,6.319299560546875,0.24213947355747223,-0.534719705581665,0.44740116596221924
1783169644459278600,6.329278564453125,0.10871973633766174,-0.3997289538383484,0.4008912742137909
1783169644469227500,6.3392275390625,-0.017583083361387253,-0.21363551914691925,0.34315821528434753
1783169644479175700,6.34917578125,-0.1373547613620758,-0.03975585475564003,0.2741202414035797
1783169644489124600,6.35912451171875,-0.23235264420509338,0.09227462112903595,0.20893219113349915
1783169644499103500,6.369103515625,-0.29314374923706055,0.16773195564746857,0.15031905472278595
1783169644509052400,6.379052490234375,-0.33149272203445435,0.15971823036670685,0.11404786258935928
1783169644519001600,6.389001708984375,-0.3675597310066223,0.08107336610555649,0.09977881610393524
1783169644528980500,6.39898046875,-0.4021768271923065,-0.025807812809944153,0.09937641024589539
1783169644538929700,6.4089296875,-0.425178200006485,-0.13588258624076843,0.09786316752433777
1783169644548877800,6.4188779296875,-0.4362468123435974,-0.2029055655002594,0.08465122431516647
1783169644558826800,6.42882666015625,-0.4396563768386841,-0.22678394615650177,0.052132394164800644
1783169644568805600,6.4388056640625,-0.4280894994735718,-0.2022426575422287,-0.0016868934035301208
1783169644578754600,6.448754638671875,-0.4062314033508301,-0.16355043649673462,-0.0719706118106842
1783169644588703700,6.458703857421875,-0.37716007232666016,-0.1058511883020401,-0.13641990721225739
1783169644598682600,6.4686826171875,-0.34051579236984253,-0.029303058981895447,-0.1679804027080536
1783169644608631600,6.478631591796875,-0.30235373973846436,0.04443081468343735,-0.1590137928724289
1783169644618580500,6.48858056640625,-0.277290016412735,0.08270126581192017,-0.10584098845720291
1783169644628528600,6.498528564453125,-0.27278953790664673,0.08538439869880676,-0.03384242579340935
1783169644638508500,6.508508544921875,-0.2775217294692993,0.054408907890319824,0.028823086991906166
1783169644648456400,6.51845654296875,-0.26506876945495605,0.0010977485217154026,0.07077186554670334
1783169644658405600,6.528405517578125,-0.23311768472194672,-0.03553388640284538,0.09171073138713837
1783169644668384500,6.538384521484375,-0.18972148001194,-0.0569547563791275,0.09194855391979218
1783169644678333400,6.54833349609375,-0.15977132320404053,-0.06631278246641159,0.06325756758451462
1783169644688282400,6.558282470703125,-0.14098431169986725,-0.06647523492574692,0.026438303291797638
1783169644698230500,6.56823046875,-0.1276167333126068,-0.031907062977552414,-0.008292458020150661
1783169644708210700,6.578210693359375,-0.11241620779037476,0.00004687625914812088,-0.042456019669771194
1783169644718158600,6.58815869140625,-0.09761880338191986,0.043781816959381104,-0.07514116913080215
1783169644728107800,6.598107666015625,-0.08754912763834,0.10125362873077393,-0.093934565782547
1783169644738086700,6.608086669921875,-0.07456372678279877,0.15070582926273346,-0.0957072302699089
1783169644748035600,6.61803564453125,-0.05838662013411522,0.202928826212883,-0.07005832344293594
1783169644757984500,6.627984619140625,-0.0476423054933548,0.2780446410179138,-0.028916869312524796
1783169644767933700,6.63793359375,-0.034806933254003525,0.3365311026573181,0.022048842161893845
1783169644777912600,6.64791259765625,-0.010401960462331772,0.3572753369808197,0.06182533875107765
1783169644787861500,6.657861572265625,0.018885886296629906,0.33945852518081665,0.08348189294338226
1783169644797809700,6.6678095703125,0.05653195083141327,0.2712647020816803,0.09749782830476761
1783169644807789600,6.67778955078125,0.10073749721050262,0.1759299486875534,0.10700211673974991
1783169644817737500,6.687737548828125,0.14670871198177338,0.07620494812726974,0.13724951446056366
1783169644827686700,6.697686767578125,0.18555277585983276,0.026026464998722076,0.2020394206047058
1783169644837635600,6.707635498046875,0.21534328162670135,0.03886324539780617,0.2770463526248932
1783169644847614500,6.717614501953125,0.230947807431221,0.08941750228404999,0.35798007249832153
1783169644857563400,6.7275634765625,0.23367835581302643,0.1491880863904953,0.43455755710601807
1783169644867511600,6.737511474609375,0.2306351512670517,0.20313893258571625,0.5151559710502625
1783169644877491700,6.74749169921875,0.20828960835933685,0.31222856044769287,0.6000750064849854
1783169644887439600,6.757439697265625,0.17528532445430756,0.44062650203704834,0.6798316240310669
1783169644897388800,6.767388916015625,0.13214179873466492,0.4554222524166107,0.7073582410812378
1783169644907337700,6.777337646484375,0.10070662945508957,0.30376189947128296,0.639484167098999
1783169644917316600,6.787316650390625,0.05564691871404648,-0.03469664603471756,0.45494621992111206
1783169644927265500,6.797265625,0.04832082986831665,-0.4473840892314911,0.1792571246623993
1783169644937214700,6.807214599609375,0.08025790005922318,-0.7742764353752136,-0.1119425892829895
1783169644947193600,6.817193603515625,0.12260668724775314,-0.9447901248931885,-0.3625026345252991
1783169644957142500,6.827142578125,0.16008666157722473,-0.9146551489830017,-0.5188872814178467
1783169644967090700,6.837090576171875,0.1820601373910904,-0.6567205190658569,-0.5419092178344727
1783169644977039600,6.84703955078125,0.1826564222574234,-0.24417343735694885,-0.4273637533187866
1783169644987018500,6.8570185546875,0.15106600522994995,0.18324793875217438,-0.20097054541110992
1783169644996967700,6.8669677734375,0.0887710452079773,0.5096200704574585,0.07931844145059586
1783169645006916600,6.87691650390625,0.009582744911313057,0.6528099775314331,0.3195669949054718
1783169645016895500,6.8868955078125,-0.05863368883728981,0.5774223804473877,0.4590582251548767
1783169645026844400,6.896844482421875,-0.10699695348739624,0.3648416996002197,0.4947965145111084
1783169645036792600,6.90679248046875,-0.12415807694196701,0.08305159211158752,0.43530794978141785
1783169645046741500,6.916741455078125,-0.1051710769534111,-0.177206888794899,0.3047792315483093
1783169645056720400,6.926720458984375,-0.0588846281170845,-0.32640859484672546,0.12680351734161377
1783169645066669800,6.936669921875,-0.0056168753653764725,-0.33981573581695557,-0.0668831318616867
1783169645076618800,6.94661865234375,0.04417916387319565,-0.22715029120445251,-0.25099825859069824
1783169645086597600,6.95659765625,0.07503721117973328,-0.03462638333439827,-0.3920783996582031
1783169645096546600,6.966546630859375,0.07933901995420456,0.172810897231102,-0.48058781027793884
1783169645106495700,6.976495849609375,0.05355136841535568,0.32335299253463745,-0.5131849050521851
1783169645116443600,6.986443603515625,0.0004862602800130844,0.3904278576374054,-0.4841921925544739
1783169645126423600,6.996423583984375,-0.06812209635972977,0.3703516125679016,-0.4303897023200989
1783169645136371700,7.006371826171875,-0.1381019651889801,0.2816973328590393,-0.3650861084461212
1783169645146320600,7.016320556640625,-0.17862674593925476,0.18870188295841217,-0.3055199682712555
1783169645156299500,7.026299560546875,-0.1869136095046997,0.11477977782487869,-0.25402402877807617
1783169645166248400,7.03624853515625,-0.15016305446624756,0.06110429763793945,-0.22762757539749146
1783169645176197600,7.04619775390625,-0.08251947164535522,0.015426354482769966,-0.21918192505836487
1783169645186145500,7.0561455078125,0.008105237036943436,-0.020029641687870026,-0.2133064568042755
1783169645196125400,7.06612548828125,0.10397705435752869,-0.035609569400548935,-0.20333223044872284
1783169645206073600,7.076073486328125,0.1920350044965744,-0.05039117857813835,-0.20087547600269318
1783169645216022500,7.0860224609375,0.2655986249446869,-0.025401795282959938,-0.1836720108985901
1783169645226001400,7.09600146484375,0.3057900071144104,0.034601084887981415,-0.140679270029068
1783169645235950600,7.10595068359375,0.3070138692855835,0.07119937241077423,-0.09907602518796921
1783169645245899800,7.115899658203125,0.2794610559940338,0.05788729339838028,-0.06499049067497253
1783169645255848700,7.1258486328125,0.2556726932525635,0.018635643646121025,-0.041788067668676376
1783169645265827600,7.13582763671875,0.23377643525600433,-0.02502341940999031,-0.027743618935346603
1783169645275776500,7.145776611328125,0.215093731880188,-0.07607898861169815,-0.019222507253289223
1783169645285724700,7.155724609375,0.19530165195465088,-0.14379598200321198,-0.006589004769921303
1783169645295715800,7.1657158203125,0.16854000091552734,-0.1631496399641037,0.016108116135001183
1783169645305663700,7.175663818359375,0.1336515247821808,-0.14618556201457977,0.06470175087451935
1783169645315612700,7.18561279296875,0.0989832878112793,-0.0997912734746933,0.11626817286014557
1783169645325562000,7.19556201171875,0.06745918095111847,-0.05721531808376312,0.164056196808815
1783169645335540700,7.205540771484375,0.05643708258867264,-0.029604416340589523,0.20260238647460938
1783169645345490000,7.215489990234375,0.06392642110586166,-0.01363743282854557,0.24172823131084442
1783169645355438000,7.22543798828125,0.0692976638674736,-0.039496541023254395,0.2701663374900818
1783169645365418000,7.23541796875,0.06770189851522446,-0.0691007673740387,0.2897197902202606
1783169645375366000,7.245365966796875,0.03696209192276001,-0.07752751559019089,0.29995667934417725
1783169645385314800,7.255314697265625,-0.021081237122416496,-0.07741353660821915,0.2986131012439728
1783169645395264000,7.265263916015625,-0.08946570754051208,-0.0822720006108284,0.27436479926109314
1783169645405243000,7.275242919921875,-0.14359845221042633,-0.08234816789627075,0.23912931978702545
1783169645415191800,7.28519189453125,-0.18108172714710236,-0.03460025042295456,0.20678892731666565
1783169645425140700,7.295140625,-0.20990271866321564,0.03531039133667946,0.17813916504383087
1783169645435119900,7.305119873046875,-0.2380153238773346,0.10467322170734406,0.14020617306232452
1783169645445068800,7.31506884765625,-0.25357404351234436,0.14991793036460876,0.09643658250570297
1783169645455017000,7.325016845703125,-0.25785064697265625,0.16773182153701782,0.052472371608018875
1783169645464966000,7.3349658203125,-0.24895836412906647,0.13980965316295624,0.01134890504181385
1783169645474944800,7.34494482421875,-0.23724283277988434,0.10597972571849823,-0.01255515031516552
1783169645484893700,7.354893798828125,-0.2426551729440689,0.07252669334411621,-0.016242830082774162
1783169645494843000,7.3648427734375,-0.26333728432655334,0.05612524598836899,0.003881509881466627
1783169645504821800,7.37482177734375,-0.2835317850112915,0.07255908846855164,0.04457194730639458
1783169645514771000,7.38477099609375,-0.28139814734458923,0.09299888461828232,0.09408291429281235
1783169645524719000,7.394718994140625,-0.2491496354341507,0.11370975524187088,0.1442190408706665
1783169645534668000,7.40466796875,-0.18364576995372772,0.17069309949874878,0.21164944767951965
1783169645544647000,7.41464697265625,-0.11696872860193253,0.16660381853580475,0.2882368862628937
1783169645554595800,7.424595947265625,-0.0678848922252655,0.055800024420022964,0.3426213264465332
1783169645564545000,7.434544921875,-0.03725934028625488,-0.10878120362758636,0.35423749685287476
1783169645574524000,7.44452392578125,-0.03467809781432152,-0.2813737392425537,0.3243296146392822
1783169645584472800,7.454472900390625,-0.06686878949403763,-0.40564268827438354,0.2521645724773407
1783169645594421800,7.464421875,-0.13559024035930634,-0.4962747097015381,0.13489022850990295
1783169645604370000,7.474369873046875,-0.2231328785419464,-0.5581828355789185,-0.029311493039131165
1783169645614349800,7.484349853515625,-0.30105602741241455,-0.550413966178894,-0.20319195091724396
1783169645624298000,7.494298095703125,-0.3523769974708557,-0.44595441222190857,-0.33314383029937744
1783169645634247000,7.504246826171875,-0.36765196919441223,-0.2614452540874481,-0.38846999406814575
1783169645644225800,7.514225830078125,-0.36537203192710876,-0.07892204821109772,-0.3657630681991577
1783169645654174700,7.5241748046875,-0.3464057743549347,0.03102887235581875,-0.2883951663970947
1783169645664123600,7.53412353515625,-0.3250797390937805,0.020102187991142273,-0.19168484210968018
1783169645674073000,7.544072998046875,-0.30223408341407776,-0.0532049685716629,-0.08661239594221115
1783169645684052000,7.554052001953125,-0.2748951315879822,-0.14723266661167145,-0.0005318382754921913
1783169645694000000,7.564000244140625,-0.24978198111057281,-0.23788219690322876,0.05053150653839111
1783169645703949000,7.573948974609375,-0.22330962121486664,-0.2817463278770447,0.06791102886199951
1783169645713928000,7.583927978515625,-0.2003738433122635,-0.28194552659988403,0.044859111309051514
1783169645723876900,7.593876953125,-0.18957605957984924,-0.2644599974155426,-0.022531379014253616
1783169645733826000,7.603825927734375,-0.18257178366184235,-0.23590761423110962,-0.11930996924638748
1783169645743775000,7.61377490234375,-0.1672828495502472,-0.16468803584575653,-0.21699844300746918
1783169645753753900,7.62375390625,-0.15728621184825897,-0.02628805860877037,-0.28121718764305115
1783169645763702800,7.633702880859375,-0.1745581477880478,0.09166760742664337,-0.30251529812812805
1783169645773651000,7.64365087890625,-0.21406108140945435,0.1344251185655594,-0.2837904691696167
1783169645783630800,7.653630859375,-0.24876952171325684,0.11586794257164001,-0.23478272557258606
1783169645793578800,7.663578857421875,-0.26665639877319336,0.04965807497501373,-0.17583973705768585
1783169645803528000,7.67352783203125,-0.26283663511276245,-0.029772033914923668,-0.12269289791584015
1783169645813476900,7.683476806640625,-0.23150843381881714,-0.08104267716407776,-0.08719862997531891
1783169645823455700,7.693455810546875,-0.18394172191619873,-0.09007690846920013,-0.0831088200211525
1783169645833404700,7.70340478515625,-0.13008016347885132,-0.08404321223497391,-0.08672365546226501
1783169645843354000,7.71335400390625,-0.08256617188453674,-0.07893367111682892,-0.09713475406169891
1783169645853333000,7.7233330078125,-0.051113784313201904,-0.07505094259977341,-0.10112978518009186
1783169645863281000,7.733281005859375,-0.03892583027482033,-0.0869978815317154,-0.10127919167280197
1783169645873230000,7.74322998046875,-0.03640328347682953,-0.1013297587633133,-0.08202303946018219
1783169645883179000,7.753178955078125,-0.05173563212156296,-0.11212248355150223,-0.05572459101676941
1783169645893158000,7.763157958984375,-0.06952253729104996,-0.12056848406791687,-0.02799425646662712
1783169645903106800,7.77310693359375,-0.08602987229824066,-0.11930614709854126,-0.013598806224763393
1783169645913056000,7.783055908203125,-0.0953855887055397,-0.12625357508659363,-0.015373365953564644
1783169645923035000,7.793034912109375,-0.10973203927278519,-0.1459074318408966,-0.041383661329746246
1783169645932983800,7.80298388671875,-0.13038885593414307,-0.1774642914533615,-0.08054730296134949
1783169645942932000,7.812931884765625,-0.15960294008255005,-0.17412948608398438,-0.12282605469226837
1783169645952881000,7.822880859375,-0.20441901683807373,-0.13779009878635406,-0.1431736946105957
1783169645962859800,7.83285986328125,-0.2533263564109802,-0.10757626593112946,-0.16160836815834045
1783169645972809000,7.84280908203125,-0.28577786684036255,-0.0835397019982338,-0.18101830780506134
1783169645982758000,7.8527578125,-0.28609317541122437,-0.06610718369483948,-0.19174817204475403
1783169645992736800,7.86273681640625,-0.25804460048675537,-0.06681405007839203,-0.19667893648147583
1783169646002685700,7.872685791015625,-0.21742898225784302,-0.07597345858812332,-0.19321469962596893
1783169646012635000,7.882634765625,-0.1920623779296875,-0.08265593647956848,-0.1790875345468521
1783169646022583000,7.8925830078125,-0.18903809785842896,-0.07166880369186401,-0.14951525628566742
1783169646032561700,7.902561767578125,-0.19604958593845367,-0.02281811460852623,-0.10334460437297821
1783169646042511000,7.912510986328125,-0.19840940833091736,0.03838825225830078,-0.04432496055960655
1783169646052460000,7.9224599609375,-0.187104731798172,0.10086207836866379,0.028428837656974792
1783169646062439000,7.93243896484375,-0.16105449199676514,0.15909980237483978,0.10835269838571548
1783169646072387800,7.942387939453125,-0.13331979513168335,0.17670410871505737,0.1838700920343399
1783169646082337000,7.9523369140625,-0.10929141938686371,0.1555013507604599,0.25311681628227234
1783169646092285000,7.962284912109375,-0.09270694851875305,0.11241640150547028,0.3098357617855072
1783169646102264800,7.972264892578125,-0.06826925277709961,0.08915848284959793,0.36725059151649475
1783169646112213000,7.982212890625,-0.03668932616710663,0.1135747954249382,0.4081905782222748
1783169646122162000,7.992161865234375,-0.008565012365579605,0.13794779777526855,0.4112390875816345
1783169646132140800,8.002140869140625,0.0026186760514974594,0.15930278599262238,0.37744301557540894
1783169646142089700,8.01208984375,-0.0064179617911577225,0.20065075159072876,0.33215171098709106
1783169646152039000,8.022038818359375,-0.01932346075773239,0.327383816242218,0.2919810116291046
1783169646161987800,8.03198779296875,-0.025501728057861328,0.4799395203590393,0.25685739517211914
1783169646171966700,8.041966796875,-0.026477331295609474,0.43581539392471313,0.19026537239551544
1783169646181916000,8.051916015625,-0.027152974158525467,0.1354137510061264,0.09199260175228119
1783169646191863800,8.06186376953125,-0.02692030929028988,-0.22873397171497345,-0.027195947244763374
1783169646201844000,8.071843994140625,-0.01759178936481476,-0.46910104155540466,-0.11486534774303436
1783169646211792000,8.0817919921875,-0.02734575793147087,-0.5337492227554321,-0.13147801160812378
1783169646221741000,8.091740966796875,-0.06637198477983475,-0.45871442556381226,-0.09947135299444199
1783169646231690000,8.10168994140625,-0.10994701832532883,-0.27887624502182007,-0.03205541521310806
1783169646241668900,8.1116689453125,-0.133701890707016,-0.06763296574354172,0.028567982837557793
1783169646251617800,8.12161767578125,-0.14165709912776947,0.08839067071676254,0.03758921101689339
1783169646261566000,8.13156591796875,-0.13854971528053284,0.17512956261634827,-0.01410940382629633
1783169646271545900,8.1415458984375,-0.11269281804561615,0.23870240151882172,-0.0919775664806366
1783169646281494000,8.151493896484375,-0.054069723933935165,0.31338462233543396,-0.16984280943870544
1783169646291443000,8.16144287109375,0.005983317270874977,0.3957403898239136,-0.20294317603111267
1783169646301404000,8.17140380859375,0.041877664625644684,0.46358415484428406,-0.18578176200389862
1783169646311383000,8.181383056640625,0.04614183306694031,0.46095624566078186,-0.13348586857318878
1783169646321332200,8.191332275390625,0.013912523165345192,0.3401925563812256,-0.06260503083467484
1783169646331281200,8.20128125,0.014811957255005836,0.1624756008386612,-0.007145807147026062
1783169646341260300,8.21126025390625,0.10319801419973373,-0.003709111362695694,0.014398633502423763
1783169646351209200,8.221209228515624,0.22330772876739502,-0.10736133903265,0.04217417910695076
1783169646361157000,8.2311572265625,0.3070489764213562,-0.23359251022338867,0.051705632358789444
1783169646371106000,8.24110595703125,0.3676524758338928,-0.32227393984794617,0.0407465435564518
1783169646381085200,8.251085205078125,0.4136119782924652,-0.341080904006958,0.01874057948589325
1783169646391034000,8.2610341796875,0.43778344988822937,-0.331662118434906,-0.03810228407382965
1783169646400983000,8.270983154296875,0.42975693941116333,-0.2396821230649948,-0.09827880561351776
1783169646410962200,8.280962158203126,0.3834870159626007,-0.09812967479228973,-0.13997510075569153
1783169646420911000,8.2909111328125,0.3044624924659729,0.05173838511109352,-0.1562289148569107
1783169646430859000,8.30085888671875,0.21422991156578064,0.20065878331661224,-0.14160671830177307
1783169646440808000,8.310807861328126,0.1286955624818802,0.2888091504573822,-0.10124729573726654
1783169646450787000,8.320787109375,0.06843769550323486,0.2651919424533844,-0.06260612607002258
1783169646460736000,8.330736083984375,0.03329569101333618,0.1611585021018982,-0.032763805240392685
1783169646470685000,8.340684814453125,0.023415839299559593,0.032494790852069855,-0.02029745653271675
1783169646480664000,8.3506640625,0.0582374632358551,-0.0703815221786499,-0.020126216113567352
1783169646490613000,8.360613037109376,0.13404469192028046,-0.12566585838794708,-0.021822255104780197
1783169646500562200,8.370562255859374,0.23182053864002228,-0.13308142125606537,-0.01943952590227127
1783169646510510000,8.380510009765626,0.3269745409488678,-0.07350843399763107,-0.016587693244218826
1783169646520490200,8.390490234375,0.3967919647693634,-0.0074196914210915565,-0.01176524069160223
1783169646530438100,8.400438232421875,0.4264419376850128,0.03190762549638748,-0.0022846702486276627
1783169646540387000,8.410386962890625,0.42290711402893066,0.025554655119776726,0.01656944490969181
1783169646550366200,8.4203662109375,0.39056214690208435,-0.0059685371816158295,0.03601124882698059
1783169646560315100,8.430315185546876,0.3280758857727051,-0.05580852925777435,0.042723484337329865
1783169646570264000,8.44026416015625,0.2589414417743683,-0.09836387634277344,0.044879503548145294
1783169646580243200,8.4502431640625,0.198106586933136,-0.11549492180347443,0.04474634677171707
1783169646590192000,8.460192138671875,0.163044735789299,-0.0904737263917923,0.04239264503121376
1783169646600140000,8.47014013671875,0.15340542793273926,-0.050488490611314774,0.031638003885746
1783169646610089000,8.4800888671875,0.16257256269454956,-0.02315487153828144,0.01682576723396778
1783169646620068000,8.490068115234376,0.16720139980316162,-0.030777636915445328,0.0005927351303398609
1783169646630017000,8.50001708984375,0.15995584428310394,-0.07064428180456161,-0.00857731606811285
1783169646639966000,8.509966064453126,0.14306262135505676,-0.1216675192117691,0.0016843769699335098
1783169646649945000,8.519945068359375,0.11560682952404022,-0.18230585753917694,0.029115064069628716
1783169646659894000,8.52989404296875,0.08694429695606232,-0.26226726174354553,0.054442789405584335
1783169646669843200,8.53984326171875,0.05933148413896561,-0.3139027953147888,0.09397385269403458
1783169646679791000,8.549791015625,0.026626797392964363,-0.3350525498390198,0.1199607104063034
1783169646689771300,8.559771240234374,-0.007090616971254349,-0.35342761874198914,0.1411627233028412
1783169646699719200,8.56971923828125,-0.029997531324625015,-0.3740183711051941,0.16102030873298645
1783169646709668000,8.579668212890626,-0.03780730813741684,-0.38221877813339233,0.17260700464248657
1783169646719647200,8.589647216796875,-0.04489051550626755,-0.40384921431541443,0.16520102322101593
1783169646729596200,8.59959619140625,-0.061263807117938995,-0.46420416235923767,0.1312076449394226
1783169646739545000,8.609545166015625,-0.08587221801280975,-0.538577139377594,0.06909634172916412
1783169646749493200,8.6194931640625,-0.12445778399705887,-0.596005916595459,-0.012528750114142895
1783169646759473200,8.62947314453125,-0.17254380881786346,-0.5702677965164185,-0.09278523921966553
1783169646769421000,8.639421142578126,-0.22517631947994232,-0.45102211833000183,-0.16212153434753418
1783169646779370000,8.649369873046876,-0.2952193021774292,-0.30560818314552307,-0.2243444323539734
1783169646789349000,8.65934912109375,-0.37655091285705566,-0.22019460797309875,-0.3037709593772888
1783169646799298000,8.669298095703125,-0.47793373465538025,-0.20442602038383484,-0.43245649337768555
1783169646809247000,8.6792470703125,-0.5742456316947937,-0.20629891753196716,-0.6057706475257874
1783169646819196000,8.68919580078125,-0.6497113704681396,-0.18272088468074799,-0.7801677584648132
1783169646829175000,8.699175048828126,-0.7023677825927734,-0.15624003112316132,-0.9250874519348145
1783169646839124200,8.709124267578124,-0.7314079999923706,-0.14244592189788818,-1.0121004581451416
1783169646849072000,8.719072021484376,-0.7208159565925598,-0.09309133887290955,-1.023268222808838
1783169646859052300,8.72905224609375,-0.6718223094940186,0.02976454421877861,-0.9601608514785767
1783169646869000200,8.739000244140625,-0.6072845458984375,0.19237355887889862,-0.8379679918289185
1783169646878949000,8.74894921875,-0.5493208765983582,0.38861018419265747,-0.6924105286598206
1783169646888898000,8.75889794921875,-0.5174482464790344,0.5658928155899048,-0.5728603601455688
1783169646898877200,8.768877197265626,-0.5052480101585388,0.6603212952613831,-0.49799543619155884
1783169646908826000,8.778826171875,-0.49715837836265564,0.6334348320960999,-0.4769947826862335
1783169646918774000,8.78877392578125,-0.47576361894607544,0.5124034881591797,-0.46780022978782654
1783169646928754200,8.798754150390625,-0.43748989701271057,0.3437238931655884,-0.4381595849990845
1783169646938702000,8.8087021484375,-0.40148529410362244,0.16201241314411163,-0.3799692690372467
1783169646948651000,8.818651123046875,-0.35663944482803345,-0.003092213999480009,-0.29970583319664
1783169646958600000,8.828599853515625,-0.283032089471817,-0.1235286146402359,-0.19504308700561523
1783169646968579000,8.8385791015625,-0.19890528917312622,-0.21971139311790466,-0.060385316610336304
1783169646978528000,8.848528076171876,-0.1354280412197113,-0.2868744432926178,0.09828661382198334
1783169646988477000,8.858476806640626,-0.13866300880908966,-0.2969849705696106,0.267825722694397
1783169646998456000,8.8684560546875,-0.21716155111789703,-0.29065197706222534,0.4137674570083618
1783169647008405200,8.8784052734375,-0.3507641851902008,-0.2956104278564453,0.5132787823677063
1783169647018353000,8.888352783203125,-0.5009062886238098,-0.26914340257644653,0.5566465258598328
1783169647028302000,8.898302001953125,-0.6463475227355957,-0.2370007485151291,0.5407264828681946
1783169647038281200,8.90828125,-0.7631545662879944,-0.2163359522819519,0.4756353497505188
1783169647048230100,8.918230224609376,-0.8340040445327759,-0.18664367496967316,0.3800928294658661
1783169647058179000,8.928178955078126,-0.8518189787864685,-0.14808297157287598,0.2709016501903534
1783169647068158200,8.938158203125,-0.8233245015144348,-0.10487542301416397,0.1598345935344696
1783169647078107100,8.948107177734375,-0.7608895897865295,-0.059061598032712936,0.05840224027633667
1783169647088055000,8.958054931640625,-0.69512540102005,-0.01984861120581627,-0.035109300166368484
1783169647098004200,8.968004150390625,-0.6551473736763,0.018571212887763977,-0.10222495347261429
1783169647107983000,8.977983154296876,-0.6481713652610779,0.045804738998413086,-0.14814837276935577
1783169647117932000,8.98793212890625,-0.6604650020599365,0.059340521693229675,-0.15389759838581085
1783169647127881000,8.997880859375,-0.6772974729537964,0.05853293836116791,-0.11839412897825241
1783169647137860000,9.007860107421875,-0.6932604908943176,0.02456112578511238,-0.05343324691057205
1783169647147809000,9.01780908203125,-0.6940643787384033,-0.007064307574182749,0.02691999077796936
1783169647157758000,9.027758056640625,-0.6808918714523315,-0.02355033904314041,0.11487194895744324
1783169647167706000,9.0377060546875,-0.6581586599349976,-0.06348982453346252,0.19737005233764648
1783169647177686300,9.047686279296874,-0.6300974488258362,-0.11540309339761734,0.2599325180053711
1783169647187634000,9.057634033203126,-0.5979993939399719,-0.155979722738266,0.2968338429927826
1783169647197583000,9.0675830078125,-0.5651975274085999,-0.2030944973230362,0.3019756078720093
1783169647207562200,9.077562255859375,-0.5338093638420105,-0.26676949858665466,0.28290361166000366
1783169647217511200,9.08751123046875,-0.5108163952827454,-0.3260381519794464,0.2526721954345703
1783169647227460000,9.097460205078125,-0.504432201385498,-0.37523287534713745,0.2153550684452057
1783169647237408300,9.107408203125,-0.5343855619430542,-0.4168327748775482,0.17849880456924438
1783169647247388200,9.11738818359375,-0.5915608406066895,-0.4459773004055023,0.14246326684951782
1783169647257336000,9.127336181640626,-0.6587007641792297,-0.4503776431083679,0.10777425765991211
1783169647267285000,9.137284912109376,-0.7163985371589661,-0.4309779107570648,0.06862955540418625
1783169647277264100,9.14726416015625,-0.7415019869804382,-0.40745311975479126,0.03233519569039345
1783169647287213000,9.157213134765625,-0.7464927434921265,-0.3906765580177307,0.0043112849816679955
1783169647297195500,9.167195556640625,-0.72291100025177,-0.37020963430404663,-0.019010549411177635
1783169647307144400,9.17714453125,-0.6892179250717163,-0.32945674657821655,-0.02477068081498146
1783169647317123300,9.187123291015626,-0.669052243232727,-0.27977386116981506,-0.005247310735285282
1783169647327072500,9.197072509765626,-0.665404736995697,-0.2549000084400177,0.029764946550130844
1783169647337020400,9.2070205078125,-0.6690311431884766,-0.23201654851436615,0.07846910506486893
1783169647347000600,9.21700048828125,-0.6713896989822388,-0.20626260340213776,0.1351737678050995
1783169647356948700,9.22694873046875,-0.6529694199562073,-0.207181915640831,0.20468279719352722
1783169647366897700,9.236897705078125,-0.6031270027160645,-0.20061984658241272,0.28277021646499634
1783169647376846600,9.2468466796875,-0.5174360275268555,-0.18033108115196228,0.3622858226299286
1783169647386825500,9.256825439453126,-0.42097458243370056,-0.15348176658153534,0.4342997670173645
1783169647396774700,9.266774658203126,-0.33579522371292114,-0.11017797142267227,0.5012956261634827
1783169647406722600,9.27672265625,-0.28559499979019165,-0.034315306693315506,0.5724839568138123
1783169647416702500,9.286702392578125,-0.2659909427165985,-0.016014598309993744,0.641993522644043
1783169647426650600,9.296650634765625,-0.2697954475879669,-0.15988720953464508,0.6739048361778259
1783169647436599600,9.306599609375,-0.30369722843170166,-0.5834720730781555,0.5776382684707642
1783169647446548500,9.316548583984375,-0.3663538992404938,-1.1610519886016846,0.31593140959739685
1783169647456527400,9.32652734375,-0.41761335730552673,-1.5239402055740356,-0.015518433414399624
1783169647466476500,9.3364765625,-0.4469429850578308,-1.467535376548767,-0.28762879967689514
1783169647476425500,9.346425537109376,-0.47109919786453247,-1.0614193677902222,-0.45967939496040344
1783169647486404400,9.356404296875,-0.5077953934669495,-0.45334938168525696,-0.5315776467323303
1783169647496353500,9.366353515625,-0.5546643733978271,0.17271822690963745,-0.5150644779205322
1783169647506301400,9.376301513671875,-0.5996270775794983,0.6145396828651428,-0.42570650577545166
1783169647516250600,9.386250732421875,-0.623409628868103,0.7858307361602783,-0.2909492254257202
1783169647526229500,9.3962294921875,-0.6129248142242432,0.7772514820098877,-0.1155867874622345
1783169647536178700,9.4061787109375,-0.5857433080673218,0.7032281160354614,0.07476744055747986
1783169647546127600,9.416127685546876,-0.5525894165039062,0.5765796899795532,0.23285850882530212
1783169647556106500,9.4261064453125,-0.5125852823257446,0.35704442858695984,0.31348755955696106
1783169647566055400,9.436055419921875,-0.4574790894985199,0.0808359682559967,0.30664727091789246
1783169647576003600,9.446003662109375,-0.3742845952510834,-0.17925900220870972,0.21626706421375275
1783169647585952500,9.455952392578125,-0.255431592464447,-0.35752731561660767,0.07540939748287201
1783169647595931600,9.465931640625,-0.13616111874580383,-0.43654730916023254,-0.08843705803155899
1783169647605880600,9.475880615234376,-0.03976607322692871,-0.40773022174835205,-0.2472764104604721
1783169647615829500,9.48582958984375,0.018463144078850746,-0.3259011209011078,-0.3779343068599701
1783169647625808400,9.495808349609375,0.02322719432413578,-0.22661787271499634,-0.4654749929904938
1783169647635757600,9.505757568359375,-0.030470121651887894,-0.1318090707063675,-0.48837578296661377
1783169647645706500,9.51570654296875,-0.13359536230564117,-0.07732687145471573,-0.46365848183631897
1783169647655654400,9.525654296875,-0.2515408992767334,-0.05777420848608017,-0.41341155767440796
1783169647665634600,9.535634521484376,-0.34124183654785156,-0.07035912573337555,-0.3299688994884491
1783169647675582500,9.54558251953125,-0.3776613771915436,-0.11427917331457138,-0.2556837499141693
1783169647685531600,9.55553173828125,-0.3643852770328522,-0.18402668833732605,-0.1950559765100479
1783169647695510500,9.565510498046875,-0.3137660324573517,-0.24753110110759735,-0.15494370460510254
1783169647705459700,9.575459716796875,-0.24573901295661926,-0.27951979637145996,-0.12843817472457886
1783169647715408600,9.58540869140625,-0.18046414852142334,-0.30445337295532227,-0.1074490025639534
1783169647725357600,9.595357666015625,-0.12090113013982773,-0.32058975100517273,-0.08856812119483948
1783169647735336400,9.60533642578125,-0.05905134230852127,-0.33683398365974426,-0.06988045573234558
1783169647745285600,9.61528564453125,-0.005248386412858963,-0.29909956455230713,-0.04734135419130325
1783169647755233500,9.625233642578126,0.008764103055000305,-0.2794225215911865,-0.02781745418906212
1783169647765212400,9.63521240234375,-0.00822162814438343,-0.2636561393737793,-0.007788588292896748
1783169647775161600,9.64516162109375,-0.05016082525253296,-0.2106320708990097,0.020660098642110825
1783169647785110500,9.655110595703125,-0.1135440543293953,-0.14150002598762512,0.04184321314096451
1783169647795059500,9.6650595703125,-0.19575610756874084,-0.11107420921325684,0.051031120121479034
1783169647805038300,9.675038330078126,-0.2753012478351593,-0.09773861616849899,0.033703628927469254
1783169647814987500,9.684987548828126,-0.3425367474555969,-0.10951617360115051,-0.01249875221401453
1783169647824935400,9.694935302734375,-0.38765817880630493,-0.15882545709609985,-0.0791720375418663
1783169647834915300,9.704915283203125,-0.40827104449272156,-0.23114334046840668,-0.1569235622882843
1783169647844863500,9.714863525390625,-0.39464524388313293,-0.2788374722003937,-0.2284805178642273
1783169647854812700,9.724812744140625,-0.36036211252212524,-0.2777210772037506,-0.2775684595108032
1783169647864761600,9.73476171875,-0.3208371698856354,-0.2563563883304596,-0.3135146200656891
1783169647874740500,9.744740478515626,-0.2758321464061737,-0.23138098418712616,-0.32095497846603394
1783169647884689700,9.754689697265626,-0.22879980504512787,-0.18359492719173431,-0.2847321331501007
1783169647894638600,9.764638671875,-0.1956421285867691,-0.145661398768425,-0.20861366391181946
1783169647904617500,9.774617431640625,-0.18305610120296478,-0.12928995490074158,-0.1034587174654007
1783169647914566400,9.78456640625,-0.18991774320602417,-0.12367627024650574,0.026505935937166214
1783169647924514600,9.7945146484375,-0.20592360198497772,-0.12881644070148468,0.1682894378900528
1783169647934463500,9.80446337890625,-0.2207994908094406,-0.15819697082042694,0.29320552945137024
1783169647944442600,9.814442626953126,-0.22908814251422882,-0.19331638514995575,0.38861513137817383
1783169647954391600,9.8243916015625,-0.23763209581375122,-0.21845129132270813,0.4504784941673279
1783169647964340500,9.834340576171876,-0.22437363862991333,-0.24431486427783966,0.4825226068496704
1783169647974319400,9.8443193359375,-0.19886136054992676,-0.27787575125694275,0.49666452407836914
1783169647984268500,9.8542685546875,-0.16330479085445404,-0.28477656841278076,0.5058540105819702
1783169647994216400,9.864216552734375,-0.1465258151292801,-0.29675066471099854,0.5129446983337402
1783169648004165400,9.874165283203125,-0.15539589524269104,-0.34245941042900085,0.5031158924102783
1783169648014144500,9.88414453125,-0.19030967354774475,-0.4043627381324768,0.46810808777809143
1783169648024093700,9.89409375,-0.2520933449268341,-0.449901282787323,0.38979917764663696
1783169648034042600,9.904042724609376,-0.3121257722377777,-0.44808101654052734,0.29922932386398315
1783169648044021500,9.914021484375,-0.3669850528240204,-0.36814725399017334,0.22486194968223572
1783169648053970700,9.923970703125,-0.40549302101135254,-0.22791291773319244,0.18538405001163483
1783169648063919600,9.933919677734375,-0.4261658787727356,-0.12825578451156616,0.17369584739208221
1783169648073867500,9.943867431640625,-0.4488826394081116,-0.1783897876739502,0.14328494668006897
1783169648083847400,9.953847412109376,-0.48677152395248413,-0.34476834535598755,0.057307325303554535
1783169648093795600,9.963795654296876,-0.5302750468254089,-0.512161374092102,-0.0799621194601059
1783169648103744500,9.97374462890625,-0.5719409584999084,-0.6023222804069519,-0.258633553981781
1783169648113723400,9.983723388671875,-0.622417151927948,-0.6169773936271667,-0.4458620548248291
1783169648123672600,9.993672607421875,-0.6735430955886841,-0.5666972398757935,-0.6155564785003662
1783169648133621500,10.00362158203125,-0.7087357044219971,-0.47012677788734436,-0.7441378831863403
1783169648143569400,10.0135693359375,-0.7147058248519897,-0.3367912173271179,-0.816328227519989
1783169648153549300,10.02354931640625,-0.7078897356987,-0.18824195861816406,-0.8376755714416504
1783169648163497500,10.03349755859375,-0.7143393158912659,-0.002187493722885847,-0.8016095757484436
1783169648173446400,10.0434462890625,-0.7275108098983765,0.20505943894386292,-0.7071430087089539
1783169648183425500,10.053425537109375,-0.7400737404823303,0.39198553562164307,-0.5687178373336792
1783169648193374700,10.063374755859375,-0.7292748689651489,0.47164201736450195,-0.40902960300445557
1783169648203323600,10.07332373046875,-0.6779589653015137,0.413021981716156,-0.2521559000015259
1783169648213272600,10.0832724609375,-0.5952510833740234,0.23582777380943298,-0.1206149086356163
1783169648223251500,10.09325146484375,-0.4740229845046997,0.031596142798662186,0.0053170290775597095
1783169648233200600,10.10320068359375,-0.3289653956890106,-0.10635773092508316,0.1251411736011505
1783169648243148500,10.1131484375,-0.18726621568202972,-0.18963967263698578,0.23759637773036957
1783169648253128400,10.12312841796875,-0.0829928070306778,-0.24453754723072052,0.34458377957344055
1783169648263076600,10.13307666015625,-0.043897777795791626,-0.25159168243408203,0.43910282850265503
1783169648273025500,10.143025634765625,-0.08372349292039871,-0.245113804936409,0.5023755431175232
1783169648282974500,10.152974365234375,-0.18729180097579956,-0.2378566861152649,0.5296903252601624
1783169648292953600,10.16295361328125,-0.3263995945453644,-0.22746476531028748,0.5190445780754089
1783169648302924000,10.172924072265625,-0.48714587092399597,-0.21819378435611725,0.47472143173217773
1783169648312872200,10.1828720703125,-0.6393623352050781,-0.20879149436950684,0.39576563239097595
1783169648322852400,10.192852294921876,-0.7591357827186584,-0.20317888259887695,0.294710248708725
1783169648332800300,10.20280029296875,-0.826050877571106,-0.19986990094184875,0.17448212206363678
1783169648342749400,10.21274951171875,-0.8389270305633545,-0.19249382615089417,0.047773607075214386
1783169648352698400,10.222698486328126,-0.8248522281646729,-0.16463635861873627,-0.07601837813854218
1783169648362677200,10.23267724609375,-0.8084749579429626,-0.12765218317508698,-0.1805426925420761
1783169648372626400,10.24262646484375,-0.8015432953834534,-0.09965036809444427,-0.2571343779563904
1783169648382575400,10.252575439453125,-0.8018271923065186,-0.09592513740062714,-0.30820661783218384
1783169648392554200,10.26255419921875,-0.8032176494598389,-0.07098570466041565,-0.31605789065361023
1783169648402503200,10.272503173828126,-0.8137604594230652,-0.0227280855178833,-0.2722645103931427
1783169648412451300,10.282451416015626,-0.8302978873252869,0.02650976926088333,-0.20045745372772217
1783169648422400300,10.292400146484376,-0.8408445119857788,0.05850274860858917,-0.11402115225791931
1783169648432379100,10.302379150390625,-0.8338279128074646,0.08665262907743454,-0.015873275697231293
1783169648442328300,10.312328369140625,-0.8102414608001709,0.10535497218370438,0.065789595246315
1783169648452277200,10.32227734375,-0.7792161703109741,0.09320589900016785,0.12980905175209045
1783169648462256000,10.332256103515626,-0.7516505122184753,0.040407273918390274,0.15556775033473969
1783169648472205000,10.342205078125,-0.7319963574409485,-0.024133902043104172,0.14955300092697144
1783169648482153200,10.3521533203125,-0.7272657752037048,-0.07769646495580673,0.11379100382328033
1783169648492102400,10.362102294921876,-0.7256303429603577,-0.11652082204818726,0.05476577207446098
1783169648502081300,10.372081298828125,-0.7184983491897583,-0.12105018645524979,-0.0016383174806833267
1783169648512030500,10.382030517578125,-0.7015920281410217,-0.10822253674268723,-0.0532732792198658
1783169648521979400,10.3919794921875,-0.6769692301750183,-0.10028368979692459,-0.09682519733905792
1783169648531958300,10.401958251953126,-0.657426655292511,-0.09640906006097794,-0.12741905450820923
1783169648541907200,10.4119072265625,-0.650922417640686,-0.08407942205667496,-0.1373337358236313
1783169648551856400,10.4218564453125,-0.6593108177185059,-0.05551702156662941,-0.13140740990638733
1783169648561804300,10.43180419921875,-0.6701151728630066,-0.0438632108271122,-0.10888691246509552
1783169648571784200,10.4417841796875,-0.6706967949867249,-0.04400915279984474,-0.06946307420730591
1783169648581732400,10.451732421875,-0.6675234436988831,-0.06668829172849655,-0.034001607447862625
1783169648591681300,10.461681396484375,-0.6479098200798035,-0.09839535504579544,0.006332500837743282
1783169648601660200,10.47166015625,-0.6177079677581787,-0.1219390258193016,0.045002397149801254
1783169648611609300,10.481609375,-0.5883955955505371,-0.15669646859169006,0.05995871126651764
1783169648621558300,10.491558349609376,-0.563151478767395,-0.19397494196891785,0.05420361086726189
1783169648631506200,10.501506103515625,-0.5466657280921936,-0.21015630662441254,0.026226572692394257
1783169648641486000,10.511486083984375,-0.5358486771583557,-0.2106616050004959,-0.014894031919538975
1783169648651434200,10.521434326171875,-0.5199871063232422,-0.1867155283689499,-0.048617906868457794
1783169648661383200,10.531383056640625,-0.5076390504837036,-0.15711399912834167,-0.08015856891870499
1783169648671362000,10.541362060546875,-0.4995638430118561,-0.11923399567604065,-0.100779689848423
1783169648681311500,10.5513115234375,-0.49234843254089355,-0.05453680455684662,-0.10409725457429886
1783169648691260400,10.561260498046876,-0.49437087774276733,0.05119867995381355,-0.08242630958557129
1783169648701209300,10.571209228515626,-0.5005949139595032,0.18803714215755463,-0.0291818268597126
1783169648711188200,10.581188232421875,-0.5003142356872559,0.20034892857074738,0.027159210294485092
1783169648721137400,10.591137451171875,-0.4992031455039978,-0.05296507477760315,0.018360884860157967
1783169648731085300,10.601085205078125,-0.4991951584815979,-0.498067706823349,-0.08058273792266846
1783169648741065200,10.611065185546876,-0.4987674653530121,-0.9034104347229004,-0.2166079431772232
1783169648751013400,10.621013427734376,-0.4879592955112457,-1.1243529319763184,-0.3111874461174011
1783169648760962300,10.63096240234375,-0.48631682991981506,-1.1310666799545288,-0.35341915488243103
1783169648770911200,10.6409111328125,-0.49595558643341064,-0.9426009654998779,-0.35492199659347534
1783169648780890000,10.65089013671875,-0.5091931819915771,-0.5558347702026367,-0.310630202293396
1783169648790839300,10.66083935546875,-0.5217481255531311,-0.07563646882772446,-0.21660731732845306
1783169648800787200,10.670787109375,-0.5238305926322937,0.39413514733314514,-0.0783003717660904
1783169648810767000,10.68076708984375,-0.5233003497123718,0.7258470058441162,0.08768380433320999
1783169648820715300,10.69071533203125,-0.5149141550064087,0.841446042060852,0.25731098651885986
1783169648830664200,10.700664306640626,-0.5162025690078735,0.7534804940223694,0.41407930850982666
1783169648840613400,10.71061328125,-0.5133906006813049,0.5305564999580383,0.5362063050270081
1783169648850592300,10.72059228515625,-0.49031299352645874,0.25442638993263245,0.6122443079948425
1783169648860541400,10.73054150390625,-0.44110050797462463,-0.03910169005393982,0.6252845525741577
1783169648870490400,10.740490478515625,-0.37994182109832764,-0.3260839283466339,0.551814615726471
1783169648880469200,10.75046923828125,-0.28639429807662964,-0.5071660280227661,0.41047272086143494
1783169648890418200,10.760418212890626,-0.19173917174339294,-0.5341342687606812,0.2429654598236084
1783169648900366300,10.770366455078126,-0.125087171792984,-0.4428364634513855,0.09267164021730423
1783169648910315300,10.780315185546876,-0.11032580584287643,-0.3185581862926483,-0.028444934636354446
1783169648920294400,10.79029443359375,-0.14402242004871368,-0.21123309433460236,-0.10863973200321198
1783169648930243300,10.800243408203125,-0.2079361528158188,-0.1363772302865982,-0.14623691141605377
1783169648940192300,10.810192138671875,-0.28591540455818176,-0.09059704840183258,-0.13831491768360138
1783169648950171100,10.820171142578126,-0.38501080870628357,-0.07266411930322647,-0.10457904636859894
1783169648960120300,10.830120361328126,-0.48620516061782837,-0.05982942879199982,-0.06411824375391006
1783169648970068200,10.840068115234375,-0.5639255046844482,-0.04541214182972908,-0.027433734387159348
1783169648980017200,10.85001708984375,-0.6025013327598572,-0.060572393238544464,-0.005814226344227791
1783169648989996300,10.859996337890625,-0.5888212323188782,-0.1001373752951622,-0.006044856272637844
1783169648999945200,10.8699453125,-0.5164969563484192,-0.13702252507209778,-0.015842732042074203
1783169649009894400,10.879894287109375,-0.399842232465744,-0.14715638756752014,-0.018483787775039673
1783169649019873300,10.889873291015626,-0.26389583945274353,-0.13826000690460205,-0.012152775190770626
1783169649029822500,10.899822509765626,-0.13894030451774597,-0.1381492167711258,0.007416132837533951
1783169649039771400,10.909771484375,-0.05022032558917999,-0.1572520136833191,0.03477239981293678
1783169649049719300,10.91971923828125,-0.008552508428692818,-0.20438170433044434,0.07010482251644135
1783169649059699200,10.92969921875,-0.009634967893362045,-0.283740371465683,0.10335923731327057
1783169649069647400,10.9396474609375,-0.04412662982940674,-0.39562028646469116,0.1105566993355751
1783169649079596300,10.94959619140625,-0.08916717022657394,-0.5002535581588745,0.08553099632263184
1783169649089575200,10.9595751953125,-0.12740856409072876,-0.5922189354896545,0.0610288567841053
1783169649099524400,10.9695244140625,-0.16158288717269897,-0.6016137003898621,0.05411534756422043
1783169649109473300,10.979473388671876,-0.19245664775371552,-0.5390528440475464,0.0629996508359909
1783169649119421200,10.989421142578125,-0.21251697838306427,-0.4567146897315979,0.06788067519664764
1783169649129401000,10.999401123046875,-0.20532643795013428,-0.3752240836620331,0.06857283413410187
1783169649139349200,11.009349365234375,-0.19115042686462402,-0.2936651110649109,0.06277941912412643
1783169649149298200,11.019298095703125,-0.18372207880020142,-0.2642230689525604,0.050790928304195404
1783169649159277300,11.02927734375,-0.1832457333803177,-0.24075381457805634,0.03251412510871887
1783169649169226200,11.039226318359376,-0.1845110058784485,-0.19544678926467896,0.011958248913288116
1783169649179175400,11.049175537109376,-0.18898475170135498,-0.17965787649154663,-0.012330645695328712
1783169649189124400,11.059124267578126,-0.18741348385810852,-0.19570422172546387,-0.0354095995426178
1783169649199103200,11.069103271484375,-0.1663927286863327,-0.19010545313358307,-0.05805144086480141
1783169649209052400,11.079052490234375,-0.13205526769161224,-0.1761195957660675,-0.08543671667575836
1783169649219000300,11.089000244140625,-0.08705483376979828,-0.16502048075199127,-0.11096926778554916
1783169649228980200,11.098980224609376,-0.05198925733566284,-0.147107794880867,-0.12517189979553223
1783169649238928400,11.108928466796876,-0.03747822716832161,-0.11503250896930695,-0.12061236798763275
1783169649248877300,11.118877197265626,-0.05174664407968521,-0.04611895605921745,-0.09080947190523148
1783169649258826200,11.128826171875,-0.09095734357833862,0.05012314021587372,-0.03808141127228737
1783169649268805400,11.138805419921875,-0.1453140527009964,0.1542719155550003,0.03286653012037277
1783169649278754300,11.14875439453125,-0.18867209553718567,0.20125621557235718,0.11124575138092041
1783169649288702200,11.1587021484375,-0.20752516388893127,0.12211133539676666,0.17129577696323395
1783169649298682000,11.16868212890625,-0.194491907954216,-0.04023953899741173,0.20072011649608612
1783169649308663300,11.178663330078125,-0.15479882061481476,-0.21229758858680725,0.21352273225784302
1783169649318612500,11.188612548828125,-0.12034088373184204,-0.33570513129234314,0.20562438666820526
1783169649328561700,11.198561767578125,-0.1113298088312149,-0.43550947308540344,0.16714437305927277
1783169649338540500,11.20854052734375,-0.12228970229625702,-0.558380126953125,0.08770208060741425
1783169649348489500,11.218489501953124,-0.13365685939788818,-0.6228355765342712,-0.015975575894117355
1783169649358438400,11.2284384765625,-0.12436741590499878,-0.6090232133865356,-0.11361529678106308
1783169649368417500,11.23841748046875,-0.09784073382616043,-0.5369141697883606,-0.18416109681129456
1783169649378366500,11.248366455078125,-0.06572797894477844,-0.3509584367275238,-0.19618506729602814
1783169649388314400,11.258314453125,-0.05477972328662872,-0.16770949959754944,-0.14717838168144226
1783169649398263600,11.268263671875,-0.09184391051530838,-0.2498006522655487,-0.13484619557857513
1783169649408242400,11.278242431640624,-0.16819965839385986,-0.4437573254108429,-0.1904793679714203
1783169649418191400,11.28819140625,-0.25087642669677734,-0.5070307850837708,-0.2517727315425873
1783169649428140300,11.298140380859374,-0.3472285270690918,-0.4867025911808014,-0.304625540971756
1783169649438119400,11.308119384765625,-0.4494263529777527,-0.48408013582229614,-0.3692995011806488
1783169649448068400,11.318068359375,-0.49960803985595703,-0.4698820412158966,-0.4322656989097595
1783169649458017500,11.328017578125,-0.4795318841934204,-0.3883838355541229,-0.4451290965080261
1783169649467965400,11.33796533203125,-0.4032086133956909,-0.25091785192489624,-0.38598909974098206
1783169649477944300,11.3479443359375,-0.29954853653907776,-0.12336664646863937,-0.2624709904193878
1783169649487893500,11.3578935546875,-0.19843897223472595,-0.04368886724114418,-0.08552709221839905
1783169649497842400,11.367842529296874,-0.12204895168542862,-0.05898648872971535,0.11542036384344101
1783169649507821600,11.377821533203125,-0.0875474289059639,-0.17033086717128754,0.31136375665664673
1783169649517770500,11.3877705078125,-0.09188670665025711,-0.3109944462776184,0.47205111384391785
1783169649527719400,11.397719482421875,-0.13053876161575317,-0.4158872961997986,0.577809751033783
1783169649537667600,11.40766748046875,-0.1902255266904831,-0.4504188895225525,0.6113688349723816
1783169649547647500,11.4176474609375,-0.2427941858768463,-0.41501352190971375,0.5728486180305481
1783169649557595400,11.427595458984374,-0.2825259864330292,-0.3506999909877777,0.4800354242324829
1783169649567544600,11.437544677734374,-0.292216956615448,-0.25145038962364197,0.3480491638183594
1783169649577523500,11.4475234375,-0.2652258276939392,-0.15089091658592224,0.21534126996994019
1783169649587472400,11.457472412109375,-0.20209823548793793,-0.09384547919034958,0.0947842225432396
1783169649597421300,11.46742138671875,-0.12130220234394073,-0.06929122656583786,0.01286369189620018
1783169649607370500,11.47737060546875,-0.05890326946973801,-0.08631095290184021,-0.017959199845790863
1783169649617349400,11.487349365234374,-0.03599466755986214,-0.14748388528823853,-0.02175493724644184
1783169649627298300,11.49729833984375,-0.05097734555602074,-0.1855095624923706,0.012796914204955101
1783169649637246500,11.50724658203125,-0.09669697284698486,-0.17535825073719025,0.07684128731489182
1783169649647225300,11.517225341796875,-0.16105811297893524,-0.14021436870098114,0.1516798436641693
1783169649657174500,11.527174560546875,-0.22662712633609772,-0.10491535812616348,0.21471405029296875
1783169649667123500,11.53712353515625,-0.2790652811527252,-0.08463751524686813,0.2462376207113266
1783169649677072600,11.54707275390625,-0.29931312799453735,-0.06940950453281403,0.253341943025589
1783169649687051500,11.557051513671874,-0.29344433546066284,-0.060871947556734085,0.2516114115715027
1783169649697000400,11.56700048828125,-0.2726021409034729,-0.06860469281673431,0.24849209189414978
1783169649706948600,11.576948486328124,-0.2330763190984726,-0.04885921999812126,0.2503829598426819
1783169649716928500,11.586928466796875,-0.18416287004947662,-0.0071223825216293335,0.270292729139328
1783169649726876400,11.59687646484375,-0.13270233571529388,0.02960953488945961,0.3047127425670624
1783169649736825300,11.606825439453125,-0.07851187884807587,0.04461626335978508,0.3496949374675751
1783169649746774500,11.6167744140625,-0.04201938584446907,0.025464408099651337,0.39654818177223206
1783169649756753400,11.62675341796875,-0.032465316355228424,-0.029799368232488632,0.4250527024269104
1783169649766702300,11.636702392578124,-0.06253772974014282,-0.09455519169569016,0.4335039556026459
1783169649776651300,11.6466513671875,-0.11303975433111191,-0.11641579121351242,0.4327896535396576
1783169649786630400,11.65663037109375,-0.17239736020565033,-0.10795678943395615,0.4112361669540405
1783169649796579300,11.666579345703125,-0.22253409028053284,-0.04531387984752655,0.3611483871936798
1783169649806527500,11.676527587890625,-0.26826003193855286,0.06972562521696091,0.2769831717014313
1783169649816476700,11.6864765625,-0.3095906972885132,0.1989668756723404,0.14839234948158264
1783169649826455600,11.69645556640625,-0.3376297950744629,0.3125118315219879,-0.012960845604538918
1783169649836404500,11.706404541015624,-0.3458780348300934,0.40455082058906555,-0.18500953912734985
1783169649846353400,11.716353515625,-0.3450404703617096,0.44476190209388733,-0.3303568959236145
1783169649856332500,11.72633251953125,-0.3369300067424774,0.39736318588256836,-0.42264190316200256
1783169649866281500,11.736281494140625,-0.3227582573890686,0.3173772990703583,-0.45469972491264343
1783169649876229600,11.746229736328125,-0.2995421588420868,0.27849945425987244,-0.4090604782104492
1783169649886209500,11.75620947265625,-0.27749598026275635,0.2785798907279968,-0.3031870424747467
1783169649896157400,11.766157470703124,-0.26082539558410645,0.279058575630188,-0.17111869156360626
1783169649906106400,11.7761064453125,-0.24495267868041992,0.2637280821800232,-0.04440416023135185
1783169649916055600,11.7860556640625,-0.21750710904598236,0.2222471684217453,0.062031906098127365
1783169649926034400,11.796034423828125,-0.1780923306941986,0.17762431502342224,0.13013292849063873
1783169649935983400,11.8059833984375,-0.11622293293476105,0.18556846678256989,0.17301753163337708
1783169649945932300,11.815932373046875,-0.054300710558891296,0.1777973622083664,0.20381566882133484
1783169649955911400,11.825911376953124,0.007726715877652168,0.15212519466876984,0.22391340136528015
1783169649965860400,11.8358603515625,0.05068483203649521,0.14840050041675568,0.2169646918773651
1783169649975808300,11.845808349609374,0.0904819667339325,0.1554439812898636,0.18717966973781586
1783169649985757700,11.8557578125,0.14598597586154938,0.15858064591884613,0.1334884762763977
1783169649995736300,11.865736328125,0.2251148521900177,0.28611794114112854,0.07026860862970352
1783169650005685500,11.875685546875,0.30862703919410706,0.5858687162399292,-0.00022366922348737717
1783169650015634400,11.885634521484375,0.39093267917633057,0.9250705242156982,-0.03407195582985878
1783169650025613600,11.895613525390624,0.447607159614563,1.2281494140625,0.2163112610578537
1783169650035562500,11.9055625,0.3458075523376465,1.0245234966278076,0.6692020893096924
1783169650045510700,11.9155107421875,0.15361760556697845,0.6914740800857544,1.0649518966674805
1783169650055459600,11.92545947265625,0.014476755633950233,0.22147595882415771,1.3452661037445068
1783169650065438500,11.9354384765625,-0.027521293610334396,-0.23996809124946594,1.4412312507629395
1783169650075387400,11.945387451171875,-0.02794695273041725,-0.5988823771476746,1.247117042541504
1783169650085336300,11.95533642578125,-0.01728791743516922,-0.8952429294586182,0.7506785988807678
1783169650095315500,11.9653154296875,0.04076118767261505,-1.0681570768356323,0.03487671911716461
1783169650105264400,11.975264404296874,0.1548835039138794,-0.9224771857261658,-0.7225265502929688
1783169650115213300,11.98521337890625,0.27053090929985046,-0.46735039353370667,-1.2684032917022705
