time,seconds_elapsed,z,y,x
1783170063475538400,0.090538330078125,-0.0054168701171875,-0.0048675537109375,0.0467529296875
1783170063485487400,0.1004873046875,0.000396728515625,-0.0555267333984375,0.038665771484375
1783170063495466500,0.110466552734375,-0.0234527587890625,-0.0967864990234375,0.0213470458984375
1783170063505415400,0.12041552734375,-0.0290679931640625,-0.115081787109375,0.0059356689453125
1783170063515363300,0.13036328125,-0.0218963623046875,-0.11090087890625,-0.0121002197265625
1783170063525312500,0.1403125,-0.0172576904296875,-0.083221435546875,-0.0299072265625
1783170063535291400,0.15029150390625,-0.0294647216796875,-0.05511474609375,-0.0402679443359375
1783170063545240600,0.160240478515625,-0.0828399658203125,-0.0434112548828125,-0.047210693359375
1783170063555189500,0.170189453125,-0.1556396484375,-0.0738525390625,-0.05255126953125
1783170063565138700,0.180138671875,-0.1907501220703125,-0.128143310546875,-0.0849609375
1783170063575117600,0.19011767578125,-0.213165283203125,-0.14605712890625,-0.11163330078125
1783170063585066500,0.20006640625,-0.2500152587890625,-0.1015167236328125,-0.1212921142578125
1783170063595014700,0.2100146484375,-0.30828857421875,-0.03680419921875,-0.143951416015625
1783170063604994600,0.21999462890625,-0.41351318359375,-0.0107421875,-0.17333984375
1783170063614942500,0.2299423828125,-0.5967864990234375,-0.0427093505859375,-0.1947479248046875
1783170063624891400,0.239891357421875,-0.9056854248046875,-0.1042633056640625,-0.1891632080078125
1783170063634840600,0.249840576171875,-1.25579833984375,-0.208709716796875,-0.13922119140625
1783170063644819500,0.2598193359375,-1.4889678955078125,-0.35577392578125,-0.0592498779296875
1783170063654768400,0.269768310546875,-1.558258056640625,-0.503631591796875,-0.0332489013671875
1783170063664716500,0.279716552734375,-1.8600616455078125,-0.6181488037109375,0.0525665283203125
1783170063674709800,0.289709716796875,-2.330474853515625,-0.736724853515625,0.1866607666015625
1783170063684689000,0.29968896484375,-2.7104339599609375,-0.7398529052734375,0.165618896484375
1783170063694637800,0.309637939453125,-2.88720703125,-0.6100616455078125,0.0755157470703125
1783170063704586800,0.319586669921875,-2.9236297607421875,-0.400482177734375,-0.0283660888671875
1783170063714565600,0.329565673828125,-2.91571044921875,-0.2070159912109375,-0.1312713623046875
1783170063724514800,0.339514892578125,-2.8564453125,-0.2229461669921875,-0.1567230224609375
1783170063734463700,0.349463623046875,-2.7721099853515625,-0.2991943359375,-0.1600494384765625
1783170063744411600,0.35941162109375,-2.5730438232421875,-0.3028564453125,-0.1652984619140625
1783170063754391600,0.3693916015625,-2.3145904541015625,-0.2260284423828125,-0.1424102783203125
1783170063764339700,0.379339599609375,-2.024505615234375,-0.1465606689453125,-0.255035400390625
1783170063774289000,0.389288818359375,-1.6546173095703125,-0.113067626953125,-0.462677001953125
1783170063784237800,0.39923779296875,-1.3140716552734375,-0.142181396484375,-0.394500732421875
1783170063794217000,0.409217041015625,-0.9613037109375,-0.1544647216796875,-0.34844970703125
1783170063804166000,0.419165771484375,-0.7599945068359375,-0.044189453125,-0.2650909423828125
1783170063814113800,0.42911376953125,-0.517730712890625,0.079132080078125,-0.1698455810546875
1783170063824093700,0.43909375,-0.384918212890625,0.1536407470703125,-0.1881103515625
1783170063834041900,0.449041748046875,-0.5362548828125,0.0717315673828125,-0.3122406005859375
1783170063843990800,0.45899072265625,-0.5404815673828125,-0.1547698974609375,-0.364288330078125
1783170063853939700,0.468939697265625,-0.495269775390625,-0.3593902587890625,-0.3385009765625
1783170063863918800,0.4789189453125,-0.4578399658203125,-0.41754150390625,-0.2785186767578125
1783170063873867800,0.48886767578125,-0.3809814453125,-0.400390625,-0.2295989990234375
1783170063883816700,0.498816650390625,-0.2704315185546875,-0.4451751708984375,-0.209930419921875
1783170063893764600,0.5087646484375,-0.2089080810546875,-0.5354461669921875,-0.158233642578125
1783170063903744800,0.518744873046875,-0.1053009033203125,-0.4949798583984375,-0.0947418212890625
1783170063913692700,0.528692626953125,-0.0740203857421875,-0.396575927734375,-0.004180908203125
1783170063923641600,0.5386416015625,-0.06622314453125,-0.335968017578125,0.0811767578125
1783170063933590800,0.5485908203125,-0.09796142578125,-0.3012847900390625,0.17919921875
1783170063943570000,0.55856982421875,-0.14501953125,-0.2826385498046875,0.2481842041015625
1783170063953518800,0.568518798828125,-0.1815032958984375,-0.2474212646484375,0.2780609130859375
1783170063963467000,0.578467041015625,-0.2143096923828125,-0.1997528076171875,0.269622802734375
1783170063973447000,0.588447021484375,-0.26239013671875,-0.162200927734375,0.2383270263671875
1783170063983394800,0.598394775390625,-0.3056793212890625,-0.1546173095703125,0.207855224609375
1783170063993343700,0.60834375,-0.325592041015625,-0.171295166015625,0.1837158203125
1783170064003292700,0.618292724609375,-0.3087310791015625,-0.1801910400390625,0.1401519775390625
1783170064013271800,0.628271728515625,-0.459564208984375,-0.149444580078125,0.0275115966796875
1783170064023220700,0.638220703125,-0.433258056640625,-0.21112060546875,-0.1176300048828125
1783170064033169700,0.648169677734375,-0.433868408203125,-0.13348388671875,-0.2960662841796875
1783170064043117800,0.658117919921875,-0.3972930908203125,-0.1099090576171875,-0.22845458984375
1783170064053097700,0.66809765625,-0.28448486328125,-0.0934906005859375,-0.0758056640625
1783170064063045600,0.678045654296875,-0.27362060546875,-0.0359649658203125,-0.0269775390625
1783170064072994800,0.687994873046875,-0.3282623291015625,-0.0198822021484375,-0.0185089111328125
1783170064082973700,0.6979736328125,-0.413787841796875,-0.020294189453125,-0.061187744140625
1783170064092922600,0.707922607421875,-0.411895751953125,-0.0088043212890625,-0.1625518798828125
1783170064102871800,0.717871826171875,-0.364288330078125,0.045379638671875,-0.2359466552734375
1783170064112820700,0.72782080078125,-0.40679931640625,0.0913848876953125,-0.2587738037109375
1783170064122799900,0.7377998046875,-0.9030303955078125,0.0367584228515625,-0.1979217529296875
1783170064132748800,0.747748779296875,-1.0838623046875,-0.0846405029296875,-0.08660888671875
1783170064142697000,0.757697021484375,-0.9983062744140625,-0.1695556640625,-0.144287109375
1783170064152646000,0.76764599609375,-1.546234130859375,-0.394073486328125,-0.2117919921875
1783170064162624800,0.777624755859375,-1.9040374755859375,-0.659210205078125,-0.141632080078125
1783170064172573700,0.78757373046875,-2.022369384765625,-0.8274383544921875,-0.1034088134765625
1783170064182523000,0.79752294921875,-2.0590972900390625,-0.8596343994140625,-0.1250762939453125
1783170064192501800,0.807501708984375,-2.1586456298828125,-0.8744049072265625,-0.2313995361328125
1783170064202450700,0.81745068359375,-2.3107452392578125,-0.7819061279296875,-0.4454345703125
1783170064212398800,0.82739892578125,-2.474273681640625,-0.6013031005859375,-0.689239501953125
1783170064222347800,0.83734765625,-2.6662750244140625,-0.4712371826171875,-0.857421875
1783170064232326700,0.84732666015625,-2.6859588623046875,-0.4032745361328125,-0.942291259765625
1783170064242275800,0.85727587890625,-2.6256256103515625,-0.4184722900390625,-0.9247589111328125
1783170064252224800,0.867224853515625,-2.4959716796875,-0.4222412109375,-0.8752593994140625
1783170064262174000,0.877174072265625,-2.2882843017578125,-0.3693084716796875,-0.7936248779296875
1783170064272152800,0.88715283203125,-2.0603485107421875,-0.35595703125,-0.703277587890625
1783170064282101800,0.897101806640625,-1.747711181640625,-0.365570068359375,-0.64715576171875
1783170064292050000,0.9070498046875,-1.4222259521484375,-0.3715972900390625,-0.468536376953125
1783170064301998800,0.916998779296875,-1.1710357666015625,-0.2407073974609375,-0.13922119140625
1783170064311978000,0.92697802734375,-0.9513092041015625,-0.0489654541015625,0.057281494140625
1783170064321927000,0.936927001953125,-1.0472869873046875,-0.2707366943359375,0.134368896484375
1783170064331875800,0.946875732421875,-1.18951416015625,-0.625396728515625,0.10589599609375
1783170064341854700,0.956854736328125,-1.08135986328125,-0.4743499755859375,-0.04339599609375
1783170064351804000,0.966803955078125,-0.963470458984375,-0.1034088134765625,-0.2215728759765625
1783170064361751800,0.976751708984375,-0.8216400146484375,0.0828399658203125,-0.2861480712890625
1783170064371700700,0.98670068359375,-0.5906219482421875,0.0870208740234375,-0.183441162109375
1783170064381679900,0.996679931640625,-0.3650665283203125,-0.0337982177734375,0.006256103515625
1783170064391628800,1.00662890625,-0.208892822265625,-0.0684661865234375,0.1154022216796875
1783170064401577700,1.01657763671875,-0.05035400390625,-0.0231170654296875,0.153778076171875
1783170064411526700,1.026526611328125,0.166412353515625,0.0108489990234375,0.1809234619140625
1783170064421505800,1.036505859375,0.3107757568359375,0.0347137451171875,0.1598358154296875
1783170064431455000,1.046455078125,0.353607177734375,0.0433349609375,0.134368896484375
1783170064441402600,1.056402587890625,0.4017486572265625,0.01239013671875,0.154205322265625
1783170064451382800,1.0663828125,0.4219207763671875,0.0123443603515625,0.17022705078125
1783170064461331000,1.0763310546875,0.392120361328125,0.0381317138671875,0.185943603515625
1783170064471279900,1.08627978515625,0.375,0.0643157958984375,0.2066650390625
1783170064481228800,1.096228759765625,0.36859130859375,0.0864105224609375,0.2165374755859375
1783170064491208000,1.1062080078125,0.355010986328125,0.1014404296875,0.1979522705078125
1783170064501156900,1.116156982421875,0.3057861328125,0.16119384765625,0.12164306640625
1783170064511104800,1.126104736328125,0.28179931640625,0.2110443115234375,0.0748443603515625
1783170064521053700,1.1360537109375,0.2712249755859375,0.2216339111328125,0.078155517578125
1783170064531032800,1.14603271484375,0.2408905029296875,0.2205810546875,0.0805511474609375
1783170064540981800,1.155981689453125,0.174407958984375,0.2108612060546875,0.055572509765625
1783170064550930700,1.1659306640625,0.1643218994140625,0.178955078125,0.0625762939453125
1783170064560879600,1.175879638671875,0.1656951904296875,0.139312744140625,0.0530853271484375
1783170064570858800,1.185858642578125,0.1330718994140625,0.12481689453125,0.031768798828125
1783170064580807700,1.1958076171875,0.086669921875,0.1107940673828125,0.0121307373046875
1783170064590755600,1.205755615234375,-0.004608154296875,0.0785064697265625,-0.0296478271484375
1783170064600735700,1.21573583984375,-0.1298065185546875,0.06060791015625,-0.077301025390625
1783170064610683600,1.22568359375,-0.3256072998046875,0.066650390625,-0.0845947265625
1783170064620632800,1.2356328125,-0.7917022705078125,0.0803375244140625,-0.122772216796875
1783170064630581800,1.245581787109375,-1.2783660888671875,0.0928497314453125,-0.128936767578125
1783170064640561000,1.255560791015625,-1.867431640625,0.19757080078125,-0.20892333984375
1783170064650509800,1.265509765625,-2.748321533203125,0.3631591796875,-0.283660888671875
1783170064660457700,1.275457763671875,-3.73187255859375,0.43572998046875,-0.450927734375
1783170064670408400,1.285408447265625,-4.5308074951171875,0.73114013671875,-0.8205718994140625
1783170064680387600,1.2953876953125,-4.864959716796875,1.3156890869140625,-1.106903076171875
1783170064690336500,1.30533642578125,-5.08447265625,1.643585205078125,-1.174346923828125
1783170064700285400,1.315285400390625,-5.28131103515625,1.61529541015625,-1.248321533203125
1783170064710264300,1.325264404296875,-5.049102783203125,1.5280303955078125,-1.16949462890625
1783170064720213500,1.335213623046875,-4.7364654541015625,1.2872314453125,-1.003326416015625
1783170064730162700,1.34516259765625,-4.3854217529296875,0.8921661376953125,-0.879150390625
1783170064740110600,1.355110595703125,-3.7871856689453125,0.55291748046875,-0.7990570068359375
1783170064750090500,1.365090576171875,-3.0763397216796875,0.269683837890625,-0.741363525390625
1783170064760038700,1.37503857421875,-2.441925048828125,0.0104217529296875,-0.6335906982421875
1783170064769987600,1.384987548828125,-1.8797607421875,-0.1838836669921875,-0.4794464111328125
1783170064779936500,1.3949365234375,-1.3282470703125,-0.2780303955078125,-0.3402862548828125
1783170064789915600,1.40491552734375,-0.81805419921875,-0.2660980224609375,-0.2159423828125
1783170064799864600,1.414864501953125,-0.34344482421875,-0.1891021728515625,-0.097900390625
1783170064809812500,1.4248125,0.1014862060546875,-0.10888671875,-0.008209228515625
1783170064819761400,1.434761474609375,0.470001220703125,-0.0518951416015625,0.0505218505859375
1783170064829740500,1.444740478515625,0.7608184814453125,0.0044708251953125,0.1028900146484375
1783170064839689500,1.454689453125,0.9730987548828125,0.0326080322265625,0.179107666015625
1783170064849638400,1.464638427734375,1.0704803466796875,0.0369415283203125,0.22052001953125
1783170064859617500,1.474617431640625,1.1294708251953125,0.0688323974609375,0.237060546875
1783170064869566500,1.48456640625,1.1652679443359375,0.0512847900390625,0.2610931396484375
1783170064879515600,1.494515625,1.1519012451171875,0.0433197021484375,0.311981201171875
1783170064889463600,1.504463623046875,1.0627899169921875,0.1310272216796875,0.2895050048828125
1783170064899443700,1.514443603515625,0.9649658203125,0.1551971435546875,0.2676239013671875
1783170064909391600,1.5243916015625,0.8724212646484375,0.190887451171875,0.275970458984375
1783170064919340500,1.534340576171875,0.7864837646484375,0.2349090576171875,0.2892608642578125
1783170064929289500,1.54428955078125,0.6910858154296875,0.2606048583984375,0.26824951171875
1783170064939268600,1.5542685546875,0.578369140625,0.3043212890625,0.187591552734375
1783170064949217500,1.564217529296875,0.5007781982421875,0.3438873291015625,0.1197662353515625
1783170064959166500,1.57416650390625,0.476409912109375,0.4006195068359375,0.173614501953125
1783170064969145600,1.5841455078125,0.3453216552734375,0.421875,0.0699310302734375
1783170064979093500,1.594093505859375,0.27044677734375,0.3961944580078125,0.092498779296875
1783170064989042400,1.60404248046875,0.192718505859375,0.3469696044921875,0.1183929443359375
1783170064998991600,1.61399169921875,0.1156005859375,0.361083984375,0.0534210205078125
1783170065008970500,1.623970458984375,0.0259552001953125,0.322021484375,0.0568084716796875
1783170065018919400,1.63391943359375,0.006317138671875,0.2236328125,-0.010986328125
1783170065028868400,1.643868408203125,0.0015716552734375,0.155914306640625,-0.0609893798828125
1783170065038816500,1.65381640625,-0.0433807373046875,0.148223876953125,-0.1147613525390625
1783170065048796400,1.66379638671875,-0.063507080078125,0.13861083984375,-0.1333465576171875
1783170065058744300,1.673744384765625,-0.0760650634765625,0.090789794921875,-0.1169891357421875
1783170065068693800,1.68369384765625,-0.1576690673828125,0.04132080078125,-0.0782623291015625
1783170065078672600,1.693672607421875,-0.3267669677734375,0.018585205078125,-0.0379791259765625
1783170065088621600,1.70362158203125,-0.646331787109375,-0.009368896484375,-0.038482666015625
1783170065098570500,1.713570556640625,-1.19873046875,0.0112762451171875,-0.1430816650390625
1783170065108519700,1.723519775390625,-1.8924407958984375,0.1519317626953125,-0.3793792724609375
1783170065118498600,1.73349853515625,-2.6116485595703125,0.284881591796875,-0.6566619873046875
1783170065128447500,1.743447509765625,-3.3424835205078125,0.34991455078125,-0.9692840576171875
1783170065138395600,1.753395751953125,-3.9373321533203125,0.4827117919921875,-1.24102783203125
1783170065148344600,1.763344482421875,-4.334228515625,0.5675506591796875,-1.4397125244140625
1783170065158323500,1.773323486328125,-4.644073486328125,0.601531982421875,-1.52496337890625
1783170065168272400,1.7832724609375,-4.7330322265625,0.5741119384765625,-1.50201416015625
1783170065178221600,1.7932216796875,-4.6270904541015625,0.53192138671875,-1.401885986328125
1783170065188169500,1.80316943359375,-4.428619384765625,0.4551544189453125,-1.2234649658203125
1783170065198149400,1.8131494140625,-4.1676025390625,0.3543243408203125,-1.06298828125
1783170065208097500,1.82309765625,-3.8232574462890625,0.2645111083984375,-0.9719390869140625
1783170065218046500,1.83304638671875,-3.3933563232421875,0.12060546875,-0.89117431640625
1783170065228025300,1.843025390625,-2.89630126953125,-0.0772705078125,-0.8028106689453125
1783170065237974500,1.852974609375,-2.35504150390625,-0.250640869140625,-0.7013092041015625
1783170065247923700,1.862923828125,-1.836029052734375,-0.3866729736328125,-0.592132568359375
1783170065257872600,1.87287255859375,-1.333953857421875,-0.41461181640625,-0.4799041748046875
1783170065267851500,1.8828515625,-0.8506317138671875,-0.3850555419921875,-0.353057861328125
1783170065277800400,1.892800537109375,-0.43157958984375,-0.3659820556640625,-0.2267303466796875
1783170065287748600,1.90274853515625,-0.035675048828125,-0.297149658203125,-0.1257171630859375
1783170065297697500,1.912697509765625,0.2996826171875,-0.1927032470703125,-0.0418701171875
1783170065307676700,1.9226767578125,0.533843994140625,-0.1099700927734375,0.0429534912109375
1783170065317625600,1.93262548828125,0.6933135986328125,-0.019561767578125,0.0924224853515625
1783170065327574500,1.942574462890625,0.800323486328125,0.0700531005859375,0.124786376953125
1783170065337553400,1.952553466796875,0.8672332763671875,0.1264801025390625,0.15447998046875
1783170065347502600,1.962502685546875,0.9152984619140625,0.1473846435546875,0.1771392822265625
1783170065357450500,1.972450439453125,0.9498443603515625,0.153961181640625,0.1959228515625
1783170065367399400,1.9823994140625,0.9522705078125,0.1431427001953125,0.221710205078125
1783170065377378600,1.992378662109375,0.959136962890625,0.1088104248046875,0.2764434814453125
1783170065387327500,2.002327392578125,0.9270782470703125,0.167449951171875,0.301605224609375
1783170065397276700,2.012276611328125,0.8444366455078125,0.1906585693359375,0.299591064453125
1783170065407225600,2.0222255859375,0.7819671630859375,0.1979827880859375,0.3087310791015625
1783170065417204700,2.032204833984375,0.6947479248046875,0.2366485595703125,0.29107666015625
1783170065427153700,2.042153564453125,0.569915771484375,0.259429931640625,0.26361083984375
1783170065437101600,2.0521015625,0.460357666015625,0.2454833984375,0.2494659423828125
1783170065447050500,2.062050537109375,0.3445281982421875,0.2598419189453125,0.2408599853515625
1783170065457029600,2.072029541015625,0.2823944091796875,0.268707275390625,0.173309326171875
1783170065466978600,2.081978515625,0.19580078125,0.28131103515625,0.1592559814453125
1783170065476927500,2.091927490234375,0.09344482421875,0.2704620361328125,0.1376800537109375
1783170065486906600,2.10190673828125,0.0283355712890625,0.2083587646484375,0.09844970703125
1783170065496855600,2.11185546875,-0.0411529541015625,0.155670166015625,0.0701141357421875
1783170065506803500,2.121803466796875,-0.104644775390625,0.11102294921875,0.01727294921875
1783170065516752400,2.13175244140625,-0.178009033203125,0.0592193603515625,-0.0671234130859375
1783170065526731500,2.1417314453125,-0.2437744140625,0.1824798583984375,-0.191009521484375
1783170065536680400,2.151680419921875,-0.2930908203125,0.1754913330078125,-0.202850341796875
1783170065546629400,2.16162939453125,-0.4102020263671875,0.040618896484375,-0.198944091796875
1783170065556578600,2.17157861328125,-0.62506103515625,0.1337738037109375,-0.1998138427734375
1783170065566557700,2.1815576171875,-0.8132781982421875,0.1355743408203125,-0.2416839599609375
1783170065576506600,2.191506591796875,-1.1378631591796875,0.1269683837890625,-0.428863525390625
1783170065586454500,2.20145458984375,-1.4754486083984375,0.0682373046875,-0.7065582275390625
1783170065596434700,2.2114345703125,-1.847900390625,0.0764923095703125,-0.8412322998046875
1783170065606382600,2.221382568359375,-2.4116973876953125,0.1073150634765625,-0.96282958984375
1783170065616331500,2.23133154296875,-2.9780731201171875,0.1595916748046875,-1.2664337158203125
1783170065626280400,2.241280517578125,-3.477081298828125,0.450408935546875,-1.8144683837890625
1783170065636259600,2.251259521484375,-3.7628173828125,0.8712310791015625,-2.3502197265625
1783170065646208500,2.26120849609375,-3.8565216064453125,1.14227294921875,-2.537811279296875
1783170065656156400,2.271156494140625,-3.95257568359375,1.2728729248046875,-2.409027099609375
1783170065666105600,2.281105712890625,-3.8718109130859375,1.2953643798828125,-2.1507568359375
1783170065676111000,2.291111083984375,-3.7366790771484375,1.1288299560546875,-1.8501434326171875
1783170065686060300,2.301060302734375,-3.58465576171875,0.8234405517578125,-1.636199951171875
1783170065696009200,2.31100927734375,-3.2948455810546875,0.5305328369140625,-1.5289459228515625
1783170065705958100,2.320958251953125,-2.901031494140625,0.3253173828125,-1.3637847900390625
1783170065715937000,2.33093701171875,-2.45989990234375,0.1859130859375,-1.1181640625
1783170065725886200,2.34088623046875,-1.9574432373046875,0.06048583984375,-0.8905792236328125
1783170065735834000,2.350834228515625,-1.427947998046875,-0.0216064453125,-0.645965576171875
1783170065745814000,2.36081396484375,-0.974212646484375,-0.0479583740234375,-0.4011993408203125
1783170065755762200,2.37076220703125,-0.58416748046875,-0.043792724609375,-0.21331787109375
1783170065765711000,2.380711181640625,-0.2388763427734375,0.01788330078125,-0.074554443359375
1783170065775660000,2.390659912109375,0.028717041015625,0.0912322998046875,0.036529541015625
1783170065785639200,2.40063916015625,0.214324951171875,0.1766815185546875,0.1221771240234375
1783170065795588400,2.41058837890625,0.378936767578125,0.2366943359375,0.2076568603515625
1783170065805537300,2.420537353515625,0.499481201171875,0.2551727294921875,0.2741851806640625
1783170065815485200,2.430485107421875,0.57196044921875,0.244720458984375,0.2954559326171875
1783170065825464300,2.44046435546875,0.636260986328125,0.193328857421875,0.317108154296875
1783170065835413200,2.450413330078125,0.68499755859375,0.115814208984375,0.3441619873046875
1783170065845362200,2.460362060546875,0.7232818603515625,0.078399658203125,0.346221923828125
1783170065855341300,2.47034130859375,0.7252044677734375,0.0997772216796875,0.3133697509765625
1783170065865290200,2.480290283203125,0.7335968017578125,0.106658935546875,0.2810516357421875
1783170065875239200,2.4902392578125,0.7375946044921875,0.0941619873046875,0.25762939453125
1783170065885187000,2.50018701171875,0.7324676513671875,0.087127685546875,0.2718963623046875
1783170065895167200,2.510167236328125,0.688934326171875,0.1240081787109375,0.2765960693359375
1783170065905115100,2.520115234375,0.6056976318359375,0.1540985107421875,0.2484283447265625
1783170065915064000,2.53006396484375,0.5226287841796875,0.1592254638671875,0.2010650634765625
1783170065925013000,2.540012939453125,0.4499664306640625,0.1410980224609375,0.14544677734375
1783170065934992100,2.5499921875,0.38433837890625,0.12445068359375,0.0718841552734375
1783170065944941000,2.559941162109375,0.329498291015625,0.115692138671875,-0.0168609619140625
1783170065954890200,2.56989013671875,0.260101318359375,0.0839080810546875,-0.08514404296875
1783170065964838100,2.579838134765625,0.158782958984375,0.01641845703125,-0.1244964599609375
1783170065974818300,2.589818359375,0.1575469970703125,-0.0002288818359375,-0.199920654296875
1783170065984766200,2.59976611328125,0.070159912109375,0.0393829345703125,-0.2031097412109375
1783170065994715100,2.609715087890625,-0.01611328125,0.0179901123046875,-0.1791534423828125
1783170066004694300,2.6196943359375,-0.0294952392578125,0.0267791748046875,-0.20794677734375
1783170066014643200,2.629643310546875,-0.03509521484375,0.0662689208984375,-0.22760009765625
1783170066024592100,2.639592041015625,-0.0355072021484375,0.07501220703125,-0.2251434326171875
1783170066034540300,2.649540283203125,-0.0594024658203125,0.040069580078125,-0.177520751953125
1783170066044520200,2.659520263671875,-0.093658447265625,-0.026458740234375,-0.11260986328125
1783170066054468000,2.669468017578125,-0.21142578125,-0.0786895751953125,-0.0394287109375
1783170066064417000,2.6794169921875,-0.4996795654296875,-0.1756134033203125,0.060150146484375
1783170066074366200,2.6893662109375,-0.91131591796875,-0.3012542724609375,0.128662109375
1783170066084345000,2.699344970703125,-1.59527587890625,-0.3358306884765625,0.1324615478515625
1783170066094294000,2.7092939453125,-2.4255218505859375,-0.3449249267578125,0.0564117431640625
1783170066104243000,2.719242919921875,-3.26556396484375,-0.294403076171875,-0.1034393310546875
1783170066114222000,2.72922216796875,-4.031524658203125,-0.0901031494140625,-0.318603515625
1783170066124171300,2.739171142578125,-4.574066162109375,0.2315826416015625,-0.5531463623046875
1783170066134119200,2.749119140625,-5.0315093994140625,0.496185302734375,-0.754425048828125
1783170066144068400,2.759068359375,-5.3910064697265625,0.6837310791015625,-0.9510345458984375
1783170066154047200,2.769047119140625,-5.4251251220703125,0.836700439453125,-1.182708740234375
1783170066163996200,2.77899609375,-5.1480560302734375,0.8636627197265625,-1.2988433837890625
1783170066173945000,2.788945068359375,-4.6181640625,0.768646240234375,-1.1982421875
1783170066183893200,2.798893310546875,-4.00054931640625,0.5680694580078125,-0.923919677734375
1783170066193873200,2.808873046875,-3.362640380859375,0.3113555908203125,-0.558563232421875
1783170066203821000,2.818821044921875,-2.7405242919921875,0.0612335205078125,-0.26025390625
1783170066213770200,2.828770263671875,-2.179351806640625,-0.073394775390625,-0.0978546142578125
1783170066223719200,2.83871923828125,-1.636077880859375,-0.138031005859375,-0.0233154296875
1783170066233698000,2.848697998046875,-1.131011962890625,-0.1964874267578125,0.0025482177734375
1783170066243647000,2.85864697265625,-0.7132568359375,-0.2272491455078125,0.0070648193359375
1783170066253596200,2.86859619140625,-0.4008636474609375,-0.1817474365234375,-0.026458740234375
1783170066263575000,2.878574951171875,-0.1311187744140625,-0.0833282470703125,-0.08135986328125
1783170066273524000,2.88852392578125,0.114410400390625,0.019805908203125,-0.115020751953125
1783170066283472100,2.89847216796875,0.316314697265625,0.096527099609375,-0.09796142578125
1783170066293421300,2.90842138671875,0.469390869140625,0.1618194580078125,-0.035247802734375
1783170066303400000,2.91839990234375,0.584381103515625,0.2013702392578125,0.0325469970703125
1783170066313349000,2.92834912109375,0.673065185546875,0.1695404052734375,0.0977630615234375
1783170066323298300,2.93829833984375,0.740325927734375,0.12908935546875,0.193695068359375
1783170066333246200,2.94824609375,0.7437744140625,0.1178131103515625,0.2168731689453125
1783170066343226000,2.95822607421875,0.764801025390625,0.0692901611328125,0.207183837890625
1783170066353174300,2.96817431640625,0.7681427001953125,0.0610809326171875,0.1868133544921875
1783170066363123200,2.978123291015625,0.7583770751953125,0.06768798828125,0.161651611328125
1783170066373102000,2.98810205078125,0.7416839599609375,0.062774658203125,0.1289215087890625
1783170066383051300,2.99805126953125,0.7045135498046875,0.0635986328125,0.102081298828125
1783170066393000200,3.008000244140625,0.649505615234375,0.06854248046875,0.102264404296875
1783170066402949000,3.01794921875,0.5831451416015625,0.0817108154296875,0.1047515869140625
1783170066412928000,3.027927978515625,0.5079803466796875,0.0903167724609375,0.0965728759765625
1783170066422877200,3.037877197265625,0.437042236328125,0.0957489013671875,0.0771942138671875
1783170066432825000,3.0478251953125,0.3411102294921875,0.126434326171875,0.0516357421875
1783170066442774000,3.05777392578125,0.2513580322265625,0.12945556640625,0.011993408203125
1783170066452753200,3.067753173828125,0.2040557861328125,0.1340789794921875,-0.0364990234375
1783170066462702300,3.077702392578125,0.10821533203125,0.1539306640625,-0.05572509765625
1783170066472651300,3.0876513671875,0.0576171875,0.157684326171875,-0.1016693115234375
1783170066482600200,3.09760009765625,0.0053558349609375,0.134033203125,-0.1150360107421875
1783170066492579300,3.107579345703125,-0.0383758544921875,0.1392364501953125,-0.136810302734375
1783170066502527200,3.11752734375,-0.0727691650390625,0.129669189453125,-0.1445159912109375
1783170066512476200,3.12747607421875,-0.1010589599609375,0.0968780517578125,-0.127044677734375
1783170066522455300,3.137455322265625,-0.128662109375,0.071868896484375,-0.106689453125
1783170066532404200,3.147404296875,-0.1979522705078125,0.0561370849609375,-0.096099853515625
1783170066542353200,3.157353271484375,-0.3404541015625,0.0736083984375,-0.114013671875
1783170066552302000,3.167302001953125,-0.6117095947265625,0.093292236328125,-0.1638336181640625
1783170066562281200,3.17728125,-1.035491943359375,0.075286865234375,-0.224151611328125
1783170066572230100,3.187230224609375,-1.48712158203125,0.0576171875,-0.2913665771484375
1783170066582178000,3.197177978515625,-1.97833251953125,0.0002288818359375,-0.3911590576171875
1783170066592127000,3.207126953125,-2.5579833984375,0.0078277587890625,-0.549652099609375
1783170066602106000,3.217106201171875,-3.0945281982421875,0.108123779296875,-0.8533782958984375
1783170066612055000,3.227054931640625,-3.5963287353515625,0.3018951416015625,-1.2960052490234375
1783170066622004200,3.237004150390625,-4.0349884033203125,0.540130615234375,-1.5961761474609375
1783170066631983000,3.246983154296875,-4.4290771484375,0.6260223388671875,-1.6459808349609375
1783170066641932300,3.256932373046875,-4.6653594970703125,0.627471923828125,-1.5480499267578125
1783170066651881200,3.266881103515625,-4.6664581298828125,0.647979736328125,-1.3941192626953125
1783170066661829000,3.2768291015625,-4.587493896484375,0.5419464111328125,-1.25201416015625
1783170066671840500,3.286840576171875,-4.396942138671875,0.3827972412109375,-1.097625732421875
1783170066681789400,3.29678955078125,-4.027740478515625,0.2767333984375,-0.958953857421875
1783170066691738400,3.30673828125,-3.4700469970703125,0.1462249755859375,-0.83782958984375
1783170066701687300,3.316687255859375,-2.7925262451171875,-0.0450439453125,-0.700439453125
1783170066711666400,3.32666650390625,-2.071868896484375,-0.1956939697265625,-0.5573272705078125
1783170066721615400,3.336615478515625,-1.38287353515625,-0.2747650146484375,-0.40899658203125
1783170066731563300,3.346563232421875,-0.8101959228515625,-0.261962890625,-0.261444091796875
1783170066741512200,3.35651220703125,-0.3445892333984375,-0.17364501953125,-0.1282806396484375
1783170066751491300,3.3664912109375,0.018524169921875,-0.1015472412109375,-0.005584716796875
1783170066761440300,3.376440185546875,0.2965850830078125,-0.007537841796875,0.10870361328125
1783170066771389200,3.38638916015625,0.5044708251953125,0.0793914794921875,0.2071685791015625
1783170066781368300,3.396368408203125,0.6561737060546875,0.1372528076171875,0.2886199951171875
1783170066791317200,3.406317138671875,0.770660400390625,0.168243408203125,0.3513946533203125
1783170066801266400,3.416266357421875,0.8567657470703125,0.1824798583984375,0.3962554931640625
1783170066811214300,3.42621435546875,0.910125732421875,0.1800384521484375,0.4309539794921875
1783170066821194500,3.436194580078125,0.934173583984375,0.150726318359375,0.4455413818359375
1783170066831142400,3.446142333984375,0.9389495849609375,0.12506103515625,0.444305419921875
1783170066841091300,3.45609130859375,0.9037017822265625,0.117584228515625,0.430908203125
1783170066851040300,3.466040283203125,0.84173583984375,0.1302947998046875,0.4000701904296875
1783170066861019400,3.476019287109375,0.76263427734375,0.1610107421875,0.355926513671875
1783170066870968300,3.48596826171875,0.6603851318359375,0.1772613525390625,0.307342529296875
1783170066880916500,3.49591650390625,0.5619354248046875,0.1834716796875,0.2555389404296875
1783170066890896400,3.505896484375,0.4641265869140625,0.19866943359375,0.20916748046875
1783170066900844300,3.51584423828125,0.3736419677734375,0.2075347900390625,0.1754913330078125
1783170066910793200,3.525793212890625,0.285858154296875,0.2071380615234375,0.1436309814453125
1783170066920742400,3.535742431640625,0.2017669677734375,0.208282470703125,0.106781005859375
1783170066930721300,3.54572119140625,0.137054443359375,0.188446044921875,0.0809326171875
1783170066940670200,3.555670166015625,0.077362060546875,0.1699981689453125,0.0518341064453125
1783170066950619100,3.565619140625,0.0224456787109375,0.1585235595703125,0.0253448486328125
1783170066960567300,3.5755673828125,-0.0366668701171875,0.131011962890625,0.00396728515625
1783170066970547500,3.58554736328125,-0.1109619140625,0.095184326171875,-0.019866943359375
1783170066980495000,3.5954951171875,-0.202484130859375,0.0802154541015625,-0.0429534912109375
1783170066990444500,3.605444580078125,-0.3663177490234375,0.0785369873046875,-0.0755157470703125
1783170067000423400,3.61542333984375,-0.585906982421875,0.050140380859375,-0.1300048828125
1783170067010372400,3.625372314453125,-0.865692138671875,0.01953125,-0.20556640625
1783170067020321300,3.6353212890625,-1.2479095458984375,0.037933349609375,-0.3486785888671875
1783170067030269400,3.64526953125,-1.64312744140625,-0.082611083984375,-0.4616851806640625
1783170067040249300,3.655249267578125,-2.0789642333984375,-0.3564453125,-0.510772705078125
1783170067050197200,3.665197265625,-2.6880340576171875,-0.6271820068359375,-0.5530242919921875
1783170067060146400,3.675146484375,-3.324737548828125,-0.8093414306640625,-0.7271575927734375
1783170067070095400,3.685095458984375,-3.8607940673828125,-0.8283843994140625,-1.1854705810546875
1783170067080074200,3.69507421875,-4.1973876953125,-0.7092742919921875,-1.845916748046875
1783170067090023200,3.705023193359375,-4.2093505859375,-0.558807373046875,-2.29449462890625
1783170067099972400,3.714972412109375,-4.0183258056640625,-0.4956817626953125,-2.296417236328125
1783170067109920300,3.724920166015625,-3.733123779296875,-0.50982666015625,-1.91375732421875
1783170067119900200,3.734900146484375,-3.3593597412109375,-0.5649566650390625,-1.3047027587890625
1783170067129848300,3.744848388671875,-2.9922332763671875,-0.655364990234375,-0.7586212158203125
1783170067139797200,3.75479736328125,-2.648193359375,-0.7202911376953125,-0.40643310546875
1783170067149776100,3.764776123046875,-2.3025360107421875,-0.7277374267578125,-0.2740936279296875
1783170067159725300,3.774725341796875,-1.9460296630859375,-0.6994171142578125,-0.28656005859375
1783170067169674500,3.784674560546875,-1.5570220947265625,-0.6306304931640625,-0.3433685302734375
1783170067179622400,3.794622314453125,-1.1445465087890625,-0.5410003662109375,-0.364654541015625
1783170067189602300,3.804602294921875,-0.7542572021484375,-0.456329345703125,-0.3205108642578125
1783170067199550500,3.814550537109375,-0.4233551025390625,-0.377044677734375,-0.20654296875
1783170067209499400,3.82449951171875,-0.1399993896484375,-0.2927703857421875,-0.065582275390625
1783170067219448300,3.8344482421875,0.066925048828125,-0.1259765625,0.002349853515625
1783170067229427500,3.844427490234375,0.2380218505859375,0.0426025390625,0.0908966064453125
1783170067239376400,3.85437646484375,0.4120330810546875,0.1045379638671875,0.1826934814453125
1783170067249325300,3.8643251953125,0.516937255859375,0.15155029296875,0.26287841796875
1783170067259304200,3.87430419921875,0.5817413330078125,0.1687164306640625,0.333404541015625
1783170067269253400,3.88425341796875,0.6181182861328125,0.155303955078125,0.3805694580078125
1783170067279201300,3.894201171875,0.6435546875,0.1390838623046875,0.3940887451171875
1783170067289150200,3.904150146484375,0.671478271484375,0.126800537109375,0.3839569091796875
1783170067299129300,3.91412939453125,0.673004150390625,0.1053314208984375,0.347137451171875
1783170067309078300,3.924078369140625,0.65704345703125,0.0656585693359375,0.2999267578125
1783170067319027500,3.93402734375,0.6304473876953125,0.0290679931640625,0.256988525390625
1783170067328975400,3.943975341796875,0.5689849853515625,-0.002655029296875,0.22174072265625
1783170067338955500,3.95395556640625,0.48724365234375,-0.0054168701171875,0.1682891845703125
1783170067348903400,3.9639033203125,0.394287109375,0.0028076171875,0.1161346435546875
1783170067358852400,3.973852294921875,0.3009796142578125,0.0083465576171875,0.071441650390625
1783170067368801300,3.98380126953125,0.210540771484375,0.019622802734375,0.0264739990234375
1783170067378780400,3.993780517578125,0.1011199951171875,0.038360595703125,-0.0173187255859375
1783170067388729300,4.003729248046875,0.020111083984375,0.043731689453125,-0.0442657470703125
1783170067398678300,4.01367822265625,-0.0447845458984375,0.035125732421875,-0.0622406005859375
1783170067408657400,4.023657470703125,-0.098541259765625,0.0312957763671875,-0.073516845703125
1783170067418606300,4.0336064453125,-0.1542205810546875,0.02294921875,-0.0807952880859375
1783170067428554200,4.04355419921875,-0.2040863037109375,-0.018829345703125,-0.0809173583984375
1783170067438503200,4.053503173828125,-0.257049560546875,-0.0521087646484375,-0.094268798828125
1783170067448482300,4.063482421875,-0.3226470947265625,-0.0906219482421875,-0.13287353515625
1783170067458431200,4.07343115234375,-0.4197845458984375,-0.0994110107421875,-0.1754302978515625
1783170067468380200,4.083380126953125,-0.5286712646484375,-0.1079559326171875,-0.19183349609375
1783170067478329300,4.093329345703125,-0.674163818359375,-0.1338958740234375,-0.1910552978515625
1783170067488308500,4.10330859375,-0.94696044921875,-0.131134033203125,-0.1537628173828125
1783170067498257400,4.11325732421875,-1.26470947265625,-0.1523284912109375,-0.1489715576171875
1783170067508205300,4.123205322265625,-1.634063720703125,-0.1887359619140625,-0.156890869140625
1783170067518184400,4.133184326171875,-2.05584716796875,-0.2236328125,-0.1644134521484375
1783170067528133400,4.14313330078125,-2.4769439697265625,-0.255279541015625,-0.2091522216796875
1783170067538082300,4.153082275390625,-3.0192413330078125,-0.236602783203125,-0.311981201171875
1783170067548031200,4.16303125,-3.52276611328125,-0.1595001220703125,-0.478912353515625
1783170067558010400,4.17301025390625,-3.8081817626953125,-0.0556793212890625,-0.7356719970703125
1783170067567959300,4.182959228515625,-3.9268951416015625,0.0777130126953125,-0.9103851318359375
1783170067577907200,4.1929072265625,-3.979827880859375,0.0997772216796875,-0.8792572021484375
1783170067587856400,4.2028564453125,-3.9305419921875,0.105682373046875,-0.845703125
1783170067597835300,4.212835205078125,-3.7796478271484375,0.138671875,-0.767913818359375
1783170067607784200,4.2227841796875,-3.60186767578125,0.1160430908203125,-0.6290283203125
1783170067617733000,4.232733154296875,-3.394775390625,0.061492919921875,-0.5121612548828125
1783170067627682300,4.242682373046875,-3.070709228515625,-0.0036468505859375,-0.4559783935546875
1783170067637661200,4.2526611328125,-2.611114501953125,-0.075408935546875,-0.4472198486328125
1783170067647610400,4.2626103515625,-2.076202392578125,-0.156097412109375,-0.4310302734375
1783170067657558500,4.27255859375,-1.5564422607421875,-0.2107086181640625,-0.3691253662109375
1783170067667538400,4.282538330078125,-1.0688018798828125,-0.227142333984375,-0.2679901123046875
1783170067677512000,4.292511962890625,-0.6670684814453125,-0.2448272705078125,-0.16265869140625
1783170067687460900,4.3024609375,-0.327117919921875,-0.287322998046875,-0.074615478515625
1783170067697409800,4.312409912109375,0.0014495849609375,-0.317108154296875,-0.055755615234375
1783170067707389000,4.322388916015625,0.29718017578125,-0.282073974609375,-0.05767822265625
1783170067717337900,4.332337890625,0.50811767578125,-0.20947265625,-0.0412445068359375
1783170067727285800,4.34228564453125,0.6521148681640625,-0.15618896484375,-0.005035400390625
1783170067737235000,4.35223486328125,0.7415618896484375,-0.146728515625,0.049224853515625
1783170067747213800,4.3622138671875,0.7883758544921875,-0.12066650390625,0.0985565185546875
1783170067757162800,4.372162841796875,0.8018798828125,-0.0854339599609375,0.1345367431640625
1783170067767112000,4.38211181640625,0.796173095703125,-0.0550994873046875,0.1683349609375
1783170067777090800,4.3920908203125,0.773956298828125,-0.0289306640625,0.1918792724609375
1783170067787040000,4.4020400390625,0.73114013671875,-0.0086822509765625,0.204193115234375
1783170067796989000,4.411989013671875,0.6775054931640625,0.00616455078125,0.2028656005859375
1783170067806937000,4.42193701171875,0.603759765625,0.0308685302734375,0.18145751953125
1783170067816917000,4.4319169921875,0.5225982666015625,0.059173583984375,0.1501617431640625
1783170067826865000,4.441864990234375,0.4315643310546875,0.09423828125,0.1004638671875
1783170067836813800,4.451813720703125,0.326934814453125,0.1168670654296875,0.0421295166015625
1783170067846763000,4.461762939453125,0.2397003173828125,0.12060546875,-0.0081024169921875
1783170067856742000,4.471741943359375,0.153228759765625,0.121734619140625,-0.047332763671875
1783170067866690800,4.48169091796875,0.070892333984375,0.123870849609375,-0.07464599609375
1783170067876639000,4.491638916015625,-0.007293701171875,0.117095947265625,-0.092926025390625
1783170067886588000,4.501587890625,-0.0957794189453125,0.10357666015625,-0.1089324951171875
1783170067896566800,4.51156689453125,-0.1506805419921875,0.089019775390625,-0.1286468505859375
1783170067906515700,4.521515625,-0.2062225341796875,0.0731048583984375,-0.1533966064453125
1783170067916465000,4.53146484375,-0.2593231201171875,0.0686187744140625,-0.1792755126953125
1783170067926443800,4.54144384765625,-0.320220947265625,0.0661163330078125,-0.2003936767578125
1783170067936393000,4.55139306640625,-0.389862060546875,0.0645904541015625,-0.2159881591796875
1783170067946342000,4.561341796875,-0.493743896484375,0.057769775390625,-0.2028350830078125
1783170067956290000,4.5712900390625,-0.6878204345703125,0.0445556640625,-0.18841552734375
1783170067966270000,4.58127001953125,-0.979034423828125,0.0458984375,-0.2031707763671875
1783170067976218000,4.591218017578125,-1.363006591796875,0.0048980712890625,-0.2185516357421875
1783170067986167000,4.6011669921875,-1.7799530029296875,-0.1307373046875,-0.2145843505859375
1783170067996116000,4.611115966796875,-2.1035919189453125,-0.3920440673828125,-0.195953369140625
1783170068006094800,4.6210947265625,-2.4986114501953125,-0.6481475830078125,-0.247161865234375
1783170068016043800,4.631043701171875,-3.04193115234375,-0.7270965576171875,-0.5299835205078125
1783170068025992000,4.640991943359375,-3.438751220703125,-0.6173248291015625,-1.0829925537109375
1783170068035971800,4.650971923828125,-3.635406494140625,-0.456085205078125,-1.567657470703125
1783170068045920000,4.660919921875,-3.7451629638671875,-0.316741943359375,-1.787139892578125
1783170068055869000,4.670868896484375,-3.7109222412109375,-0.19189453125,-1.689422607421875
1783170068065817900,4.68081787109375,-3.5747528076171875,-0.21051025390625,-1.219940185546875
1783170068075796700,4.690796630859375,-3.4974517822265625,-0.370635986328125,-0.6436614990234375
1783170068085746000,4.700745849609375,-3.42950439453125,-0.4329986572265625,-0.2554473876953125
1783170068095695000,4.710695068359375,-3.20770263671875,-0.44915771484375,-0.15557861328125
1783170068105642800,4.720642822265625,-2.81134033203125,-0.4683685302734375,-0.208587646484375
1783170068115623000,4.730622802734375,-2.3373565673828125,-0.349395751953125,-0.335662841796875
1783170068125571000,4.740571044921875,-1.8182830810546875,-0.289276123046875,-0.4051666259765625
1783170068135520000,4.75052001953125,-1.2884368896484375,-0.34515380859375,-0.3791656494140625
1783170068145499000,4.760498779296875,-0.85394287109375,-0.3199615478515625,-0.3038787841796875
1783170068155448000,4.770447998046875,-0.502105712890625,-0.2385406494140625,-0.2107391357421875
1783170068165397000,4.78039697265625,-0.176239013671875,-0.1649322509765625,-0.1270904541015625
1783170068175345000,4.790344970703125,0.10797119140625,-0.1021270751953125,-0.0374755859375
1783170068185324800,4.80032470703125,0.32012939453125,-0.069183349609375,0.047210693359375
1783170068195273000,4.81027294921875,0.4757080078125,-0.073699951171875,0.134033203125
1783170068205222000,4.820221923828125,0.58331298828125,-0.0974884033203125,0.1952667236328125
1783170068215170800,4.8301708984375,0.6505279541015625,-0.1239776611328125,0.2308349609375
1783170068225150000,4.84014990234375,0.6922607421875,-0.132904052734375,0.246307373046875
1783170068235099000,4.850098876953125,0.7061614990234375,-0.1143951416015625,0.23590087890625
1783170068245047800,4.8600478515625,0.6710205078125,-0.1285552978515625,0.194488525390625
1783170068254995700,4.86999560546875,0.6515350341796875,-0.14141845703125,0.166168212890625
1783170068264976100,4.87997607421875,0.5679473876953125,-0.106781005859375,0.13580322265625
1783170068274923800,4.889923828125,0.4843292236328125,-0.0997161865234375,0.1292877197265625
1783170068284873000,4.899873046875,0.4378204345703125,-0.11810302734375,0.1019134521484375
1783170068294852000,4.90985205078125,0.3504486083984375,-0.1042327880859375,0.0514984130859375
1783170068304801000,4.919801025390625,0.247528076171875,-0.0908355712890625,0.0093231201171875
1783170068314750000,4.92975,0.1667022705078125,-0.0965576171875,-0.022491455078125
1783170068324699000,4.939698974609375,0.07037353515625,-0.0791168212890625,-0.0664520263671875
1783170068334678000,4.949677978515625,-0.0209503173828125,-0.04852294921875,-0.1087646484375
1783170068344626000,4.9596259765625,-0.086090087890625,-0.0315704345703125,-0.143524169921875
1783170068354574800,4.969574951171875,-0.1531982421875,-0.0234832763671875,-0.175567626953125
1783170068364523800,4.979523681640625,-0.2198486328125,-0.0277862548828125,-0.194488525390625
1783170068374503000,4.9895029296875,-0.2758941650390625,-0.045745849609375,-0.191558837890625
1783170068384451800,4.999451904296875,-0.3594512939453125,0.013702392578125,-0.203582763671875
1783170068394400800,5.00940087890625,-0.514862060546875,0.0616607666015625,-0.177703857421875
1783170068404380000,5.0193798828125,-0.623565673828125,0.02313232421875,-0.1597442626953125
1783170068414328800,5.029328857421875,-0.77508544921875,-0.013092041015625,-0.1567840576171875
1783170068424276700,5.03927685546875,-0.99969482421875,-0.0518035888671875,-0.145660400390625
1783170068434226000,5.049225830078125,-1.291229248046875,-0.096527099609375,-0.1855926513671875
1783170068444204800,5.059204833984375,-1.5734405517578125,-0.1559600830078125,-0.2815704345703125
1783170068454154000,5.069154052734375,-1.9092864990234375,-0.2643585205078125,-0.376678466796875
1783170068464103000,5.07910302734375,-2.273345947265625,-0.38433837890625,-0.5218963623046875
1783170068474051800,5.0890517578125,-2.6692657470703125,-0.5431671142578125,-0.7041168212890625
1783170068484031000,5.099031005859375,-3.0320587158203125,-0.6395721435546875,-0.894287109375
1783170068493980000,5.10897998046875,-3.3501739501953125,-0.6383056640625,-1.1431121826171875
1783170068503928000,5.118927978515625,-3.5454559326171875,-0.685821533203125,-1.3295745849609375
1783170068513877000,5.128876953125,-3.59130859375,-0.75299072265625,-1.3761444091796875
1783170068523856000,5.13885595703125,-3.582061767578125,-0.805267333984375,-1.2936553955078125
1783170068533804800,5.1488046875,-3.568878173828125,-0.8138275146484375,-1.0888519287109375
1783170068543754000,5.15875390625,-3.448394775390625,-0.7768707275390625,-0.8466949462890625
1783170068553732900,5.16873291015625,-3.1930999755859375,-0.692230224609375,-0.6638946533203125
1783170068563681800,5.178681884765625,-2.850341796875,-0.5462646484375,-0.4766082763671875
1783170068573630000,5.1886298828125,-2.3975372314453125,-0.409698486328125,-0.317108154296875
1783170068583579000,5.198578857421875,-1.8897857666015625,-0.325225830078125,-0.1778717041015625
1783170068593557800,5.208557861328125,-1.391937255859375,-0.2651214599609375,-0.0357818603515625
1783170068603506700,5.218506591796875,-0.9214019775390625,-0.2151641845703125,0.056732177734375
1783170068613456100,5.2284560546875,-0.472991943359375,-0.2649993896484375,0.100921630859375
1783170068623405000,5.238405029296875,-0.034698486328125,-0.3616943359375,0.080291748046875
1783170068633384000,5.248384033203125,0.3425445556640625,-0.4193267822265625,0.019927978515625
1783170068643332900,5.258332763671875,0.6414642333984375,-0.316558837890625,-0.083709716796875
1783170068653281000,5.268281005859375,0.881134033203125,-0.2182769775390625,-0.1207427978515625
1783170068663261000,5.278260986328125,1.085723876953125,-0.2611541748046875,-0.15814208984375
1783170068673224700,5.288224609375,1.16998291015625,-0.1627960205078125,-0.1454925537109375
1783170068683174000,5.298173828125,1.1605987548828125,-0.067047119140625,-0.0507965087890625
1783170068693122800,5.308122802734375,1.1706085205078125,-0.0322265625,0.01226806640625
1783170068703102000,5.31810205078125,1.1307525634765625,-0.0203704833984375,0.0999298095703125
1783170068713051000,5.32805078125,1.038909912109375,-0.00872802734375,0.16839599609375
1783170068722998800,5.337998779296875,0.902435302734375,0.0365753173828125,0.159576416015625
1783170068732947700,5.34794775390625,0.7310638427734375,0.076629638671875,0.1171722412109375
1783170068742926800,5.3579267578125,0.528778076171875,0.124969482421875,0.049072265625
1783170068752875800,5.367875732421875,0.296173095703125,0.1702117919921875,-0.0082550048828125
1783170068762824700,5.37782470703125,0.1514434814453125,0.1604156494140625,-0.0284271240234375
1783170068772773600,5.387773681640625,0.020538330078125,0.268218994140625,-0.076019287109375
1783170068782752800,5.397752685546875,-0.143463134765625,0.33489990234375,-0.0377349853515625
1783170068792701700,5.40770166015625,-0.2035064697265625,0.3076934814453125,-0.030426025390625
1783170068802649900,5.41764990234375,-0.27093505859375,0.2856292724609375,-0.00286865234375
1783170068812629800,5.427629638671875,-0.29449462890625,0.2537384033203125,0.023040771484375
1783170068822577700,5.43757763671875,-0.2960662841796875,0.208099365234375,0.0232391357421875
1783170068832526600,5.447526611328125,-0.314483642578125,0.17095947265625,0.0153350830078125
1783170068842475800,5.457475830078125,-0.3569488525390625,0.121612548828125,0.0063629150390625
1783170068852455000,5.467454833984375,-0.4293212890625,0.0829620361328125,-0.0065155029296875
1783170068862403800,5.47740380859375,-0.4858551025390625,0.014434814453125,-0.0183563232421875
1783170068872352000,5.48735205078125,-0.5556640625,-0.0805511474609375,-0.0082550048828125
1783170068882301000,5.497301025390625,-0.65948486328125,-0.1801605224609375,0.014007568359375
1783170068892279800,5.50727978515625,-0.8186492919921875,-0.2716217041015625,0.040130615234375
1783170068902228700,5.517228759765625,-1.0789794921875,-0.33270263671875,0.0657196044921875
1783170068912178000,5.527177978515625,-1.54168701171875,-0.4354705810546875,0.081817626953125
1783170068922156800,5.53715673828125,-2.1812744140625,-0.5043792724609375,0.0461578369140625
1783170068932105700,5.547105712890625,-2.8491668701171875,-0.4550323486328125,-0.1293792724609375
1783170068942054700,5.5570546875,-3.4665069580078125,-0.1879119873046875,-0.520538330078125
1783170068952002800,5.5670029296875,-3.9294281005859375,0.17724609375,-0.9926300048828125
1783170068961982700,5.576982666015625,-4.2728729248046875,0.4045867919921875,-1.354095458984375
1783170068971930600,5.5869306640625,-4.45391845703125,0.5020904541015625,-1.5126495361328125
1783170068981879800,5.5968798828125,-4.4389495849609375,0.5162353515625,-1.5198211669921875
1783170068991828700,5.606828857421875,-4.3028564453125,0.4677886962890625,-1.37841796875
1783170069001807600,5.6168076171875,-4.0834808349609375,0.3741607666015625,-1.103912353515625
1783170069011756800,5.6267568359375,-3.768524169921875,0.298614501953125,-0.8505096435546875
1783170069021704700,5.63670458984375,-3.334014892578125,0.2615509033203125,-0.649444580078125
1783170069031684900,5.646684814453125,-2.841400146484375,0.232574462890625,-0.4886627197265625
1783170069041632800,5.6566328125,-2.3407745361328125,0.1793670654296875,-0.383056640625
1783170069051582000,5.66658203125,-1.8128814697265625,0.069488525390625,-0.3331451416015625
1783170069061531000,5.67653076171875,-1.202301025390625,-0.0520477294921875,-0.3482818603515625
1783170069071509800,5.686509765625,-0.56866455078125,-0.1773223876953125,-0.3823394775390625
1783170069081458700,5.696458740234375,-0.0289459228515625,-0.3162384033203125,-0.3579864501953125
1783170069091408000,5.706407958984375,0.4430694580078125,-0.414794921875,-0.2954559326171875
1783170069101355800,5.716355712890625,0.7696380615234375,-0.4403228759765625,-0.19921875
1783170069111335700,5.726335693359375,0.951171875,-0.39141845703125,-0.0953216552734375
1783170069121283800,5.736283935546875,1.061065673828125,-0.33062744140625,-0.00823974609375
1783170069131232800,5.746232666015625,1.1026763916015625,-0.264801025390625,0.06402587890625
1783170069141181700,5.756181640625,1.1011810302734375,-0.15936279296875,0.1181640625
1783170069151160800,5.766160888671875,1.1057586669921875,-0.059051513671875,0.173828125
1783170069161109800,5.77610986328125,1.0799713134765625,0.0234832763671875,0.248809814453125
1783170069171059000,5.786058837890625,1.0209503173828125,0.078521728515625,0.307373046875
1783170069181037600,5.79603759765625,0.9485931396484375,0.1430511474609375,0.3308563232421875
1783170069190985700,5.80598583984375,0.8565216064453125,0.2412567138671875,0.29937744140625
1783170069200935000,5.815934814453125,0.7268524169921875,0.33843994140625,0.231292724609375
1783170069210883800,5.8258837890625,0.5886993408203125,0.410247802734375,0.1761627197265625
1783170069220863000,5.835863037109375,0.4878997802734375,0.41815185546875,0.1500244140625
1783170069230812000,5.84581201171875,0.40460205078125,0.395172119140625,0.1439666748046875
1783170069240760800,5.8557607421875,0.3333892822265625,0.36810302734375,0.1420135498046875
1783170069250708700,5.865708740234375,0.2602386474609375,0.3341217041015625,0.1345062255859375
1783170069260689000,5.87568896484375,0.194427490234375,0.3011932373046875,0.10797119140625
1783170069270636800,5.88563671875,0.113067626953125,0.2824249267578125,0.0585784912109375
1783170069280585700,5.895585693359375,0.010955810546875,0.252410888671875,0.021514892578125
1783170069290564900,5.90556494140625,-0.0525360107421875,0.1862335205078125,-0.0201416015625
1783170069300513800,5.915513671875,-0.0844268798828125,0.139892578125,-0.0616607666015625
1783170069310462700,5.925462646484375,-0.10821533203125,0.1075897216796875,-0.0977935791015625
1783170069320411600,5.93541162109375,-0.1555328369140625,0.078765869140625,-0.1368865966796875
1783170069330390800,5.945390869140625,-0.2183990478515625,0.04730224609375,-0.1381072998046875
1783170069340340000,5.955340087890625,-0.3402252197265625,0.0114593505859375,-0.1277008056640625
1783170069350287600,5.96528759765625,-0.590118408203125,0.0022430419921875,-0.1033782958984375
1783170069360236800,5.97523681640625,-0.9244842529296875,-0.027069091796875,-0.101806640625
1783170069370216000,5.9852158203125,-1.3691253662109375,-0.0639495849609375,-0.14019775390625
1783170069380164900,5.995164794921875,-1.9720611572265625,-0.0512847900390625,-0.2390899658203125
1783170069390113800,6.00511376953125,-2.746307373046875,-0.000885009765625,-0.4217529296875
1783170069400062000,6.01506201171875,-3.6324462890625,0.159454345703125,-0.8085784912109375
1783170069410041900,6.025041748046875,-4.311676025390625,0.4853515625,-1.36029052734375
1783170069419989800,6.03498974609375,-4.8701629638671875,0.8207244873046875,-1.8931884765625
1783170069429938700,6.044938720703125,-5.1748504638671875,0.875030517578125,-2.2493896484375
1783170069439917800,6.054917724609375,-4.9912109375,0.6487274169921875,-2.339141845703125
1783170069449866800,6.06486669921875,-4.729736328125,0.23651123046875,-2.0340728759765625
1783170069459815700,6.074815673828125,-4.4056396484375,-0.1644439697265625,-1.580780029296875
1783170069469764600,6.0847646484375,-4.0231475830078125,-0.4456329345703125,-1.29541015625
1783170069479743700,6.09474365234375,-3.627899169921875,-0.5414886474609375,-1.1905059814453125
1783170069489692700,6.104692626953125,-3.1415557861328125,-0.52667236328125,-1.18731689453125
1783170069499640600,6.114640625,-2.582366943359375,-0.532562255859375,-1.16412353515625
1783170069509589800,6.12458984375,-1.93017578125,-0.546234130859375,-1.0823516845703125
1783170069519568600,6.134568603515625,-1.1949005126953125,-0.5477294921875,-0.9329833984375
1783170069529517800,6.144517822265625,-0.5596771240234375,-0.4876251220703125,-0.705322265625
1783170069539466800,6.154466796875,-0.0485382080078125,-0.3917388916015625,-0.46441650390625
1783170069549446000,6.16444580078125,0.3994903564453125,-0.293212890625,-0.2470550537109375
1783170069559394800,6.174394775390625,0.7288360595703125,-0.1514129638671875,-0.080047607421875
1783170069569343000,6.184343017578125,0.9245452880859375,0.00103759765625,0.0147857666015625
1783170069579292000,6.1942919921875,1.07806396484375,0.1108245849609375,0.0680999755859375
1783170069589270800,6.204270751953125,1.2019500732421875,0.1840362548828125,0.1199798583984375
1783170069599219700,6.2142197265625,1.247344970703125,0.213531494140625,0.159271240234375
1783170069609168600,6.224168701171875,1.285675048828125,0.21563720703125,0.1823883056640625
1783170069619117800,6.234117919921875,1.311279296875,0.2064666748046875,0.2103271484375
1783170069629096700,6.2440966796875,1.3011016845703125,0.196929931640625,0.2116546630859375
1783170069639045600,6.254045654296875,1.266876220703125,0.196136474609375,0.1925048828125
1783170069648993800,6.263993896484375,1.183380126953125,0.204193115234375,0.1369171142578125
1783170069658942700,6.273942626953125,1.078338623046875,0.225616455078125,0.0531158447265625
1783170069668921600,6.283921630859375,0.9613189697265625,0.27288818359375,-0.0291290283203125
1783170069678887400,6.293887451171875,0.8286895751953125,0.3079986572265625,-0.0844879150390625
1783170069688836400,6.30383642578125,0.6878204345703125,0.34698486328125,-0.1201019287109375
1783170069698815200,6.313815185546875,0.5659942626953125,0.3774871826171875,-0.1450653076171875
1783170069708764400,6.323764404296875,0.447662353515625,0.4048309326171875,-0.17913818359375
1783170069718712300,6.33371240234375,0.342071533203125,0.4280853271484375,-0.2005767822265625
1783170069728661200,6.3436611328125,0.2346649169921875,0.4253082275390625,-0.1937255859375
1783170069738640400,6.353640380859375,0.1387481689453125,0.404571533203125,-0.173736572265625
1783170069748589600,6.363589599609375,0.05548095703125,0.3693084716796875,-0.1569671630859375
1783170069758538500,6.37353857421875,-0.01812744140625,0.3282318115234375,-0.1398162841796875
1783170069768487400,6.3834873046875,-0.0793304443359375,0.3096923828125,-0.12353515625
1783170069778466600,6.393466552734375,-0.147491455078125,0.3020172119140625,-0.0913848876953125
1783170069788415500,6.40341552734375,-0.2581787109375,0.3072662353515625,-0.0467529296875
1783170069798363400,6.41336328125,-0.4689788818359375,0.34490966796875,0.0170440673828125
1783170069808343300,6.42334326171875,-0.7284698486328125,0.34716796875,0.055633544921875
1783170069818291500,6.43329150390625,-1.0655517578125,0.348175048828125,0.065155029296875
1783170069828240400,6.443240478515625,-1.5764312744140625,0.373260498046875,0.1112060546875
1783170069838189300,6.453189208984375,-2.087615966796875,0.3508758544921875,0.1057891845703125
1783170069848168400,6.46316845703125,-2.541839599609375,0.3042144775390625,-0.0032501220703125
1783170069858117400,6.473117431640625,-3.0030517578125,0.1881561279296875,-0.0956878662109375
1783170069868065300,6.483065185546875,-3.4601898193359375,0.1015472412109375,-0.2467193603515625
1783170069878014200,6.49301416015625,-3.9248809814453125,0.1548309326171875,-0.5767669677734375
1783170069887993300,6.502993408203125,-4.2462005615234375,0.277191162109375,-0.8937225341796875
1783170069897942300,6.5129423828125,-4.4365692138671875,0.3408203125,-1.0483551025390625
1783170069907891500,6.522891357421875,-4.49285888671875,0.3221893310546875,-1.0733184814453125
1783170069917840400,6.53284033203125,-4.3848419189453125,0.2496185302734375,-0.9475250244140625
1783170069927819500,6.542819580078125,-4.1922454833984375,0.14215087890625,-0.7566680908203125
1783170069937768400,6.5527685546875,-3.901123046875,0.0273895263671875,-0.5902862548828125
1783170069947716400,6.56271630859375,-3.5487060546875,-0.0523834228515625,-0.4847564697265625
1783170069957696500,6.572696533203125,-3.087554931640625,-0.100067138671875,-0.440765380859375
1783170069967644400,6.58264453125,-2.537506103515625,-0.1266326904296875,-0.3979034423828125
1783170069977593300,6.59259326171875,-1.9783782958984375,-0.1650390625,-0.3202667236328125
1783170069987542300,6.602542236328125,-1.4346771240234375,-0.2249908447265625,-0.2264862060546875
1783170069997521400,6.612521484375,-0.989776611328125,-0.3151092529296875,-0.1610870361328125
1783170070007470300,6.62247021484375,-0.6536865234375,-0.45489501953125,-0.1703948974609375
1783170070017419300,6.632419189453125,-0.25885009765625,-0.4738922119140625,-0.2139129638671875
1783170070027367400,6.642367431640625,0.0481109619140625,-0.3267822265625,-0.2261810302734375
1783170070037346300,6.65234619140625,0.3487548828125,-0.108612060546875,-0.2553253173828125
1783170070047295200,6.662295166015625,0.6830596923828125,-0.0351409912109375,-0.2628021240234375
1783170070057244400,6.672244384765625,0.9849090576171875,-0.010498046875,-0.2485504150390625
1783170070067223300,6.682223388671875,1.15264892578125,-0.006011962890625,-0.2128753662109375
1783170070077172500,6.69217236328125,1.198455810546875,-0.049652099609375,-0.134002685546875
1783170070087121400,6.702121337890625,1.18389892578125,0.0959625244140625,-0.1002197265625
1783170070097069600,6.712069580078125,1.166412353515625,0.0896759033203125,-0.041351318359375
1783170070107049500,6.722049560546875,1.1909027099609375,0.0158843994140625,0.0358428955078125
1783170070116997400,6.731997314453125,1.12744140625,-0.0062103271484375,0.0777435302734375
1783170070126946600,6.741946533203125,0.9914703369140625,0.03704833984375,0.0795135498046875
1783170070136895500,6.7518955078125,0.839813232421875,0.0904541015625,0.064056396484375
1783170070146874400,6.761874267578125,0.6864776611328125,0.1429290771484375,0.0418701171875
1783170070156823300,6.7718232421875,0.5538177490234375,0.201629638671875,0.0345001220703125
1783170070166772500,6.7817724609375,0.42547607421875,0.2496795654296875,0.02862548828125
1783170070176751400,6.79175146484375,0.3170623779296875,0.2969512939453125,0.0135040283203125
1783170070186700300,6.8017001953125,0.2259674072265625,0.331695556640625,0.01385498046875
1783170070196648400,6.8116484375,0.161529541015625,0.3614654541015625,0.0120849609375
1783170070206597400,6.821597412109375,0.1166534423828125,0.37591552734375,-0.0113983154296875
1783170070216576300,6.831576171875,0.0880584716796875,0.3767852783203125,-0.0345306396484375
1783170070226525200,6.841525146484375,0.060943603515625,0.3568878173828125,-0.0087127685546875
1783170070236474600,6.851474609375,0.0186004638671875,0.3299560546875,0.0314788818359375
1783170070246422300,6.86142236328125,-0.0395660400390625,0.3089599609375,0.0362701416015625
1783170070256402400,6.87140234375,-0.1116790771484375,0.2908935546875,0.03240966796875
1783170070266350600,6.8813505859375,-0.19073486328125,0.2531890869140625,0.02532958984375
1783170070276299500,6.891299560546875,-0.387115478515625,0.24078369140625,0.018646240234375
1783170070286248400,6.90124853515625,-0.7636260986328125,0.282012939453125,-0.00091552734375
1783170070296227300,6.911227294921875,-1.166229248046875,0.3473052978515625,-0.0131988525390625
1783170070306176500,6.921176513671875,-1.672027587890625,0.4437713623046875,-0.0294647216796875
1783170070316125400,6.93112548828125,-2.3597564697265625,0.5744171142578125,-0.0922088623046875
1783170070326104300,6.941104248046875,-3.29852294921875,0.679962158203125,-0.281646728515625
1783170070336053200,6.95105322265625,-4.18463134765625,0.891448974609375,-0.64898681640625
1783170070346001400,6.96100146484375,-4.596405029296875,1.082122802734375,-0.9751739501953125
1783170070355950300,6.970950439453125,-4.861602783203125,1.064208984375,-1.0403900146484375
1783170070365929500,6.980929443359375,-5.031402587890625,0.9185943603515625,-0.86370849609375
1783170070375878400,6.99087841796875,-4.9172515869140625,0.746826171875,-0.6203460693359375
1783170070385827300,7.000827392578125,-4.7381744384765625,0.59246826171875,-0.4364776611328125
1783170070395775200,7.010775146484375,-4.5418853759765625,0.458831787109375,-0.345001220703125
1783170070405755400,7.02075537109375,-4.2651519775390625,0.343292236328125,-0.3584136962890625
1783170070415703300,7.030703369140625,-3.81365966796875,0.216094970703125,-0.431854248046875
1783170070425652500,7.040652587890625,-3.179840087890625,0.045989990234375,-0.5070953369140625
1783170070435631600,7.050631591796875,-2.44830322265625,-0.144195556640625,-0.5095367431640625
1783170070445580500,7.06058056640625,-1.7292022705078125,-0.313232421875,-0.437164306640625
1783170070455529500,7.070529541015625,-1.1057891845703125,-0.4051666259765625,-0.36163330078125
1783170070465478400,7.080478515625,-0.5578460693359375,-0.4305419921875,-0.3308868408203125
1783170070475457500,7.09045751953125,-0.082855224609375,-0.4120025634765625,-0.3220977783203125
1783170070485406500,7.100406494140625,0.297607421875,-0.3684844970703125,-0.3158416748046875
1783170070495354400,7.110354248046875,0.5733795166015625,-0.308013916015625,-0.3251953125
1783170070505303300,7.12030322265625,0.8074493408203125,-0.25970458984375,-0.3287506103515625
1783170070515282400,7.130282470703125,0.9888763427734375,-0.2295074462890625,-0.2920989990234375
1783170070525231400,7.1402314453125,1.0942840576171875,-0.22589111328125,-0.2291412353515625
1783170070535180300,7.15018017578125,1.143951416015625,-0.214202880859375,-0.15618896484375
1783170070545128400,7.16012841796875,1.1545562744140625,-0.1835784912109375,-0.0944366455078125
1783170070555108400,7.1701083984375,1.147216796875,-0.143218994140625,-0.043975830078125
1783170070565056300,7.18005615234375,1.084381103515625,-0.1049957275390625,-0.01226806640625
1783170070575005200,7.190005126953125,0.9860992431640625,-0.0410003662109375,0.002471923828125
1783170070584984300,7.199984375,0.84918212890625,0.049530029296875,0.0174102783203125
1783170070594933500,7.20993359375,0.68121337890625,0.1268768310546875,0.03857421875
1783170070604882400,7.21988232421875,0.5114288330078125,0.216094970703125,0.056793212890625
1783170070614831400,7.229831298828125,0.341064453125,0.302459716796875,0.08599853515625
1783170070624810500,7.239810546875,0.188201904296875,0.34906005859375,0.130859375
1783170070634759400,7.249759521484375,0.040435791015625,0.3825531005859375,0.1661376953125
1783170070644707300,7.259707275390625,-0.0626373291015625,0.399658203125,0.1754302978515625
1783170070654656500,7.269656494140625,-0.138397216796875,0.40423583984375,0.143890380859375
1783170070664635400,7.279635498046875,-0.1665802001953125,0.4100494384765625,0.092529296875
1783170070674615600,7.289615478515625,-0.1564788818359375,0.4036712646484375,0.0411529541015625
1783170070684564500,7.299564453125,-0.1326751708984375,0.3844146728515625,-0.003875732421875
1783170070694543600,7.309543701171875,-0.09326171875,0.354949951171875,-0.039825439453125
1783170070704492500,7.319492431640625,-0.0484619140625,0.341705322265625,-0.075927734375
1783170070714440700,7.329440673828125,-0.003448486328125,0.338134765625,-0.079254150390625
1783170070724389600,7.3393896484375,0.0272216796875,0.324920654296875,-0.0609893798828125
1783170070734368500,7.349368408203125,0.0403900146484375,0.28814697265625,-0.0254669189453125
1783170070744317700,7.359317626953125,-0.010894775390625,0.2752532958984375,0.0074462890625
1783170070754266600,7.3692666015625,-0.11614990234375,0.2681121826171875,0.032501220703125
1783170070764215800,7.3792158203125,-0.2978363037109375,0.25677490234375,0.0306854248046875
1783170070774194700,7.389194580078125,-0.5888671875,0.2391204833984375,-0.00634765625
1783170070784143600,7.3991435546875,-0.94927978515625,0.2215728759765625,-0.0779876708984375
1783170070794091800,7.409091796875,-1.367584228515625,0.15618896484375,-0.167572021484375
1783170070804040700,7.419040771484375,-2.098846435546875,0.1755218505859375,-0.3396759033203125
1783170070814019600,7.42901953125,-2.940521240234375,0.3052825927734375,-0.634033203125
1783170070823968800,7.43896875,-3.8197479248046875,0.5981903076171875,-1.015045166015625
1783170070833917700,7.448917724609375,-4.741424560546875,0.9403076171875,-1.28070068359375
1783170070843896600,7.458896484375,-5.5174102783203125,1.126953125,-1.341522216796875
1783170070853845500,7.468845458984375,-5.94110107421875,1.210174560546875,-1.2033843994140625
1783170070863793700,7.478793701171875,-6.009918212890625,1.178131103515625,-0.9241790771484375
1783170070873742600,7.48874267578125,-5.7537384033203125,1.01068115234375,-0.57708740234375
1783170070883721500,7.498721435546875,-5.2266387939453125,0.7951507568359375,-0.25921630859375
1783170070893670700,7.508670654296875,-4.509613037109375,0.582427978515625,-0.0141754150390625
1783170070903619800,7.518619873046875,-3.6831512451171875,0.319122314453125,0.133270263671875
1783170070913568800,7.52856884765625,-2.80029296875,0.0146942138671875,0.173797607421875
1783170070923547600,7.538547607421875,-1.9051971435546875,-0.2444610595703125,0.09088134765625
1783170070933496800,7.548496826171875,-1.0595245361328125,-0.4190216064453125,-0.0614471435546875
1783170070943444700,7.55844482421875,-0.3167266845703125,-0.5014801025390625,-0.2577972412109375
1783170070953424600,7.568424560546875,0.2988433837890625,-0.4762420654296875,-0.3888702392578125
1783170070963372800,7.578372802734375,0.78839111328125,-0.371978759765625,-0.4397430419921875
1783170070973321700,7.58832177734375,1.129791259765625,-0.2802734375,-0.421600341796875
1783170070983270700,7.598270751953125,1.3465423583984375,-0.25677490234375,-0.3388214111328125
1783170070993249500,7.60824951171875,1.4586334228515625,-0.2539520263671875,-0.230224609375
1783170071003198700,7.61819873046875,1.4736785888671875,-0.2350921630859375,-0.1477508544921875
1783170071013147600,7.628147705078125,1.4022674560546875,-0.1725616455078125,-0.0966033935546875
1783170071023095600,7.638095458984375,1.2658233642578125,-0.07647705078125,-0.070526123046875
1783170071033075500,7.648075439453125,1.09716796875,-0.004058837890625,-0.0556640625
1783170071043023600,7.658023681640625,0.926239013671875,0.0806732177734375,-0.0458526611328125
1783170071052972500,7.66797265625,0.790191650390625,0.169097900390625,-0.028472900390625
1783170071062921700,7.677921630859375,0.6594085693359375,0.23687744140625,-0.0035247802734375
1783170071072900900,7.68790087890625,0.54669189453125,0.29229736328125,0.0333404541015625
1783170071082849800,7.697849853515625,0.4499359130859375,0.3511962890625,0.0648956298828125
1783170071092797700,7.707797607421875,0.35955810546875,0.4191741943359375,0.0661163330078125
1783170071102777600,7.717777587890625,0.2918701171875,0.477020263671875,0.054046630859375
1783170071112725800,7.727725830078125,0.221466064453125,0.525299072265625,0.027679443359375
1783170071122674700,7.7376748046875,0.1733551025390625,0.5493316650390625,0.011260986328125
1783170071132623600,7.74762353515625,0.15985107421875,0.5586700439453125,-0.0108184814453125
1783170071142602800,7.757602783203125,0.1515960693359375,0.5517730712890625,-0.02691650390625
1783170071152551700,7.7675517578125,0.166107177734375,0.5098114013671875,-0.0337066650390625
1783170071162500600,7.77750048828125,0.194122314453125,0.4632568359375,-0.0493927001953125
1783170071172448500,7.787448486328125,0.2144622802734375,0.420257568359375,-0.0768585205078125
1783170071182428700,7.7974287109375,0.2223968505859375,0.3739471435546875,-0.10015869140625
1783170071192376600,7.80737646484375,0.19378662109375,0.3536224365234375,-0.1305694580078125
1783170071202325500,7.817325439453125,0.1307830810546875,0.3372955322265625,-0.1624603271484375
1783170071212304600,7.8273046875,0.033538818359375,0.30303955078125,-0.17486572265625
1783170071222253600,7.837253662109375,-0.113922119140625,0.2458953857421875,-0.1454925537109375
1783170071232202800,7.84720263671875,-0.3179931640625,0.164703369140625,-0.1294708251953125
1783170071242150700,7.857150634765625,-0.5902099609375,0.095245361328125,-0.1375732421875
1783170071252130800,7.867130859375,-1.0389556884765625,0.078369140625,-0.1666412353515625
1783170071262078700,7.87707861328125,-1.7618408203125,0.166168212890625,-0.2622528076171875
1783170071272027600,7.887027587890625,-2.61737060546875,0.3802337646484375,-0.4816131591796875
1783170071281976600,7.8969765625,-3.497772216796875,0.6882781982421875,-0.838531494140625
1783170071291955700,7.906955810546875,-4.2970428466796875,1.0243988037109375,-1.128692626953125
1783170071301904600,7.916904541015625,-4.887542724609375,1.1326751708984375,-1.1939544677734375
1783170071311853600,7.926853515625,-5.3003692626953125,1.08929443359375,-1.1323089599609375
1783170071321832700,7.936832763671875,-5.44464111328125,1.030120849609375,-1.08331298828125
1783170071331781600,7.94678173828125,-5.363800048828125,0.943634033203125,-1.10516357421875
1783170071341729500,7.9567294921875,-5.1841583251953125,0.8281097412109375,-1.123626708984375
1783170071351678700,7.9666787109375,-4.798492431640625,0.664306640625,-1.0779876708984375
1783170071361657600,7.97665771484375,-4.2014923095703125,0.4136505126953125,-0.994415283203125
1783170071371606500,7.9866064453125,-3.46270751953125,0.1211700439453125,-0.9074554443359375
1783170071381555500,7.996555419921875,-2.7108001708984375,-0.141998291015625,-0.8196258544921875
1783170071391503600,8.006503662109376,-2.0487060546875,-0.3399200439453125,-0.754608154296875
1783170071401483800,8.01648388671875,-1.4642333984375,-0.4626922607421875,-0.70550537109375
1783170071411431400,8.026431396484375,-0.9471435546875,-0.5061798095703125,-0.6590423583984375
1783170071421380900,8.036380859375,-0.5084228515625,-0.4853973388671875,-0.6151275634765625
1783170071431329800,8.046329833984375,-0.1393585205078125,-0.4109039306640625,-0.571502685546875
1783170071441308700,8.05630859375,0.1590576171875,-0.31036376953125,-0.5194091796875
1783170071451257600,8.066257568359376,0.3870391845703125,-0.2146453857421875,-0.4331207275390625
1783170071461206800,8.076206787109374,0.55426025390625,-0.1361083984375,-0.31866455078125
1783170071471185700,8.086185546875,0.6849212646484375,-0.063873291015625,-0.2039337158203125
1783170071481134600,8.096134521484375,0.782073974609375,-0.0066070556640625,-0.0907745361328125
1783170071491082800,8.106082763671875,0.851287841796875,0.043121337890625,-0.005767822265625
1783170071501031700,8.11603173828125,0.9100799560546875,0.0921173095703125,0.0594329833984375
1783170071511010600,8.126010498046876,0.9413299560546875,0.135650634765625,0.10137939453125
1783170071520959500,8.13595947265625,0.946868896484375,0.1712646484375,0.1421051025390625
1783170071530908700,8.14590869140625,0.9161376953125,0.193756103515625,0.178680419921875
1783170071540856600,8.155856689453126,0.851470947265625,0.2261962890625,0.201416015625
1783170071550836500,8.16583642578125,0.7730560302734375,0.2914276123046875,0.1989593505859375
1783170071560784600,8.17578466796875,0.6778106689453125,0.372833251953125,0.1741943359375
1783170071570733600,8.185733642578125,0.5936431884765625,0.461944580078125,0.129547119140625
1783170071580712400,8.19571240234375,0.5322265625,0.5578460693359375,0.0607452392578125
1783170071590662000,8.205661865234376,0.4774017333984375,0.6334228515625,-0.0063323974609375
1783170071600610800,8.21561083984375,0.4361419677734375,0.6723785400390625,-0.0833587646484375
1783170071610559700,8.225559814453124,0.4068450927734375,0.6884613037109375,-0.1534881591796875
1783170071620538600,8.23553857421875,0.3875274658203125,0.6818389892578125,-0.229736328125
1783170071630487800,8.24548779296875,0.364288330078125,0.6597137451171875,-0.2916717529296875
1783170071640435700,8.255435791015625,0.3508758544921875,0.6444244384765625,-0.3600921630859375
1783170071650384600,8.265384521484375,0.3503265380859375,0.619415283203125,-0.40081787109375
1783170071660363800,8.27536376953125,0.34967041015625,0.577728271484375,-0.421539306640625
1783170071670312700,8.285312744140626,0.3619384765625,0.5256500244140625,-0.4215545654296875
1783170071680291800,8.295291748046875,0.3603363037109375,0.4630126953125,-0.415771484375
1783170071690240800,8.30524072265625,0.3333587646484375,0.385162353515625,-0.3963623046875
1783170071700220000,8.315219970703126,0.2428131103515625,0.2947845458984375,-0.346832275390625
1783170071710167800,8.325167724609376,0.006256103515625,0.22540283203125,-0.298736572265625
1783170071720116700,8.33511669921875,-0.343109130859375,0.12347412109375,-0.2770538330078125
1783170071730095900,8.345095947265625,-0.7652587890625,0.0735015869140625,-0.302581787109375
1783170071740044800,8.355044921875,-1.2368011474609375,0.0937042236328125,-0.3138885498046875
1783170071749993700,8.36499365234375,-1.786712646484375,0.063568115234375,-0.1912384033203125
1783170071759943000,8.37494287109375,-2.57574462890625,0.01763916015625,-0.1029510498046875
1783170071769922000,8.384922119140626,-3.623626708984375,0.2010345458984375,-0.1779022216796875
1783170071779871000,8.39487109375,-4.4320068359375,0.4738311767578125,-0.44854736328125
1783170071789819000,8.40481884765625,-4.88714599609375,1.25677490234375,-0.86639404296875
1783170071799768000,8.41476806640625,-5.279571533203125,1.9022216796875,-1.03436279296875
1783170071809747000,8.424746826171875,-5.6246795654296875,1.9468231201171875,-0.8246307373046875
1783170071819695900,8.43469580078125,-5.5683746337890625,1.8537750244140625,-0.5357208251953125
1783170071829644800,8.444644775390625,-5.26708984375,1.694366455078125,-0.324127197265625
1783170071839624000,8.4546240234375,-4.7947540283203125,1.49407958984375,-0.1223602294921875
1783170071849572900,8.46457275390625,-4.152374267578125,1.249542236328125,-0.0031890869140625
1783170071859521800,8.474521728515626,-3.4512939453125,0.947998046875,0.128509521484375
1783170071869470000,8.484469970703126,-2.7706146240234375,0.6685791015625,0.156829833984375
1783170071879448800,8.49444873046875,-2.0766143798828125,0.4231414794921875,0.1043853759765625
1783170071889397800,8.504397705078125,-1.431793212890625,0.202056884765625,0.020416259765625
1783170071899347000,8.514346923828125,-0.891082763671875,0.026519775390625,-0.05230712890625
1783170071909295900,8.5242958984375,-0.42523193359375,-0.0923004150390625,-0.1160125732421875
1783170071919274800,8.534274658203126,-0.0162506103515625,-0.1862640380859375,-0.1522979736328125
1783170071929224000,8.544223876953126,0.3006439208984375,-0.2335662841796875,-0.13623046875
1783170071939171800,8.554171875,0.529449462890625,-0.241973876953125,-0.0997314453125
1783170071949121000,8.56412109375,0.6889801025390625,-0.2176055908203125,-0.0878448486328125
1783170071959100000,8.574099853515625,0.8047943115234375,-0.1920623779296875,-0.065887451171875
1783170071969049000,8.584049072265625,0.8854827880859375,-0.17340087890625,-0.04376220703125
1783170071978998000,8.593998046875,0.9320526123046875,-0.13616943359375,-0.0357818603515625
1783170071988977000,8.603976806640626,0.9578399658203125,-0.1006317138671875,-0.0261383056640625
1783170071998925800,8.61392578125,0.9648284912109375,-0.0803680419921875,-0.034149169921875
1783170072008875000,8.623875,0.933502197265625,-0.0214080810546875,-0.0284271240234375
1783170072018823000,8.633822998046876,0.8612213134765625,0.0710601806640625,-0.019683837890625
1783170072028802800,8.643802734375,0.7910919189453125,0.1686553955078125,-0.01885986328125
1783170072038751000,8.6537509765625,0.73126220703125,0.273529052734375,-0.0233306884765625
1783170072048700000,8.663699951171875,0.6803741455078125,0.3739013671875,-0.022308349609375
1783170072058648800,8.67364892578125,0.6717071533203125,0.447296142578125,-0.0131072998046875
1783170072068627700,8.683627685546876,0.697265625,0.4999542236328125,-0.004150390625
1783170072078577000,8.693576904296876,0.68377685546875,0.5319671630859375,-0.001922607421875
1783170072088524800,8.70352490234375,0.6334381103515625,0.5828704833984375,-0.007568359375
1783170072098505000,8.7135048828125,0.571533203125,0.618804931640625,-0.0222015380859375
1783170072108452900,8.723452880859375,0.5054779052734375,0.6109771728515625,-0.021942138671875
1783170072118402000,8.733402099609375,0.4321441650390625,0.5789031982421875,-0.0040283203125
1783170072128351000,8.74335107421875,0.314544677734375,0.534515380859375,0.00091552734375
1783170072138329900,8.753329833984376,0.158935546875,0.4669342041015625,-0.0172882080078125
1783170072148279000,8.763279052734376,0.0190277099609375,0.3948211669921875,-0.0325164794921875
1783170072158228000,8.77322802734375,-0.1657562255859375,0.343414306640625,-0.0457763671875
1783170072168175900,8.78317578125,-0.41973876953125,0.3336181640625,-0.0594024658203125
1783170072178155800,8.79315576171875,-0.6782684326171875,0.3258056640625,-0.09368896484375
1783170072188104000,8.80310400390625,-0.958160400390625,0.3515777587890625,-0.1409759521484375
1783170072198052900,8.813052978515625,-1.41290283203125,0.4499969482421875,-0.2203369140625
1783170072208032000,8.823031982421876,-1.992889404296875,0.554595947265625,-0.30047607421875
1783170072217981000,8.83298095703125,-2.470916748046875,0.7136993408203125,-0.3882293701171875
1783170072227929900,8.842929931640626,-3.030242919921875,0.971160888671875,-0.4190521240234375
1783170072237877800,8.852877685546876,-3.61041259765625,1.0673675537109375,-0.3267364501953125
1783170072247858000,8.86285791015625,-3.941436767578125,1.1226348876953125,-0.2620697021484375
1783170072257805800,8.872805908203125,-4.1610260009765625,1.29913330078125,-0.2414093017578125
1783170072267754800,8.882754638671875,-4.2821197509765625,1.3464508056640625,-0.1974334716796875
1783170072277704000,8.892703857421875,-4.2845306396484375,1.323974609375,-0.2167205810546875
1783170072287683000,8.90268310546875,-4.20294189453125,1.3058624267578125,-0.249664306640625
1783170072297632000,8.912632080078126,-4.1061553955078125,1.2490234375,-0.22100830078125
1783170072307581000,8.922580810546876,-3.94970703125,1.12030029296875,-0.174713134765625
1783170072317529000,8.932529052734376,-3.6561279296875,0.944854736328125,-0.16455078125
1783170072327509000,8.942509033203125,-3.3035430908203125,0.7082672119140625,-0.1801910400390625
1783170072337457000,8.952456787109375,-2.8702850341796875,0.4101715087890625,-0.2103424072265625
1783170072347405800,8.96240576171875,-2.3608856201171875,0.099578857421875,-0.24627685546875
1783170072357385000,8.972385009765626,-1.8247528076171875,-0.17462158203125,-0.2666168212890625
1783170072367334000,8.982333984375,-1.28631591796875,-0.3136749267578125,-0.2850494384765625
1783170072377282800,8.99228271484375,-0.770111083984375,-0.380340576171875,-0.28564453125
1783170072387231000,9.00223095703125,-0.302093505859375,-0.4170684814453125,-0.255706787109375
1783170072397211000,9.0122109375,0.0469512939453125,-0.3759307861328125,-0.178955078125
1783170072407158800,9.02215869140625,0.28399658203125,-0.291595458984375,-0.0854949951171875
1783170072417107700,9.032107666015625,0.4526519775390625,-0.1973419189453125,0.0104217529296875
1783170072427057000,9.042056884765625,0.59051513671875,-0.1143951416015625,0.0886993408203125
1783170072437035800,9.052035888671876,0.6894378662109375,-0.0514678955078125,0.145477294921875
1783170072446985000,9.06198486328125,0.7514801025390625,-0.0243682861328125,0.1945953369140625
1783170072456934000,9.071933837890626,0.806396484375,-0.0283660888671875,0.2344818115234375
1783170072466913000,9.0819130859375,0.810455322265625,-0.0118560791015625,0.2473602294921875
1783170072476862000,9.091862060546875,0.80560302734375,0.0205230712890625,0.23187255859375
1783170072486809900,9.101809814453125,0.781097412109375,0.0374298095703125,0.2338104248046875
1783170072496759000,9.111759033203125,0.7243499755859375,0.055023193359375,0.2353515625
1783170072506738000,9.121738037109376,0.6549835205078125,0.08221435546875,0.218658447265625
1783170072516686800,9.131686767578126,0.5440521240234375,0.11846923828125,0.1861114501953125
1783170072526635800,9.1416357421875,0.419769287109375,0.1572418212890625,0.1334075927734375
1783170072536585000,9.1515849609375,0.31231689453125,0.193695068359375,0.0669708251953125
1783170072546563800,9.161563720703125,0.2050018310546875,0.22430419921875,0.0026092529296875
1783170072556512000,9.171511962890625,0.1145782470703125,0.2369537353515625,-0.0242156982421875
1783170072566461000,9.1814609375,0.0406036376953125,0.2337493896484375,-0.0273590087890625
1783170072576409900,9.191409912109375,-0.012237548828125,0.2266693115234375,-0.0261077880859375
1783170072586388700,9.201388671875,-0.0376129150390625,0.213958740234375,-0.0225677490234375
1783170072596338000,9.211337890625,-0.0532379150390625,0.1932525634765625,-0.033660888671875
1783170072606287000,9.221287109375,-0.0690155029296875,0.172332763671875,-0.0674285888671875
1783170072616266000,9.231265869140625,-0.0906219482421875,0.1499481201171875,-0.0847320556640625
1783170072626215000,9.24121484375,-0.1053924560546875,0.114227294921875,-0.0865020751953125
1783170072636163000,9.2511630859375,-0.181182861328125,0.0812530517578125,-0.0626068115234375
1783170072646112000,9.261112060546875,-0.3482513427734375,0.05609130859375,-0.0487060546875
1783170072656091000,9.2710908203125,-0.5649261474609375,-0.0131988525390625,-0.096954345703125
1783170072666040000,9.2810400390625,-0.9320220947265625,-0.0853424072265625,-0.166900634765625
1783170072676001300,9.291001220703125,-1.246826171875,-0.1636962890625,-0.268463134765625
1783170072685950200,9.3009501953125,-1.4021759033203125,-0.346466064453125,-0.3291168212890625
1783170072695929300,9.310929443359376,-1.825408935546875,-0.4603729248046875,-0.2183837890625
1783170072705878300,9.320878173828126,-2.3170928955078125,-0.49359130859375,-0.0962982177734375
1783170072715826200,9.330826171875,-2.633087158203125,-0.4592742919921875,-0.067626953125
1783170072725805300,9.340805419921875,-2.8724517822265625,-0.38916015625,-0.072174072265625
1783170072735754200,9.350754150390625,-2.994476318359375,-0.3121490478515625,-0.08807373046875
1783170072745703200,9.360703125,-3.090728759765625,-0.2812957763671875,-0.12774658203125
1783170072755652000,9.370652099609375,-3.1707611083984375,-0.3007659912109375,-0.204925537109375
1783170072765631200,9.38063134765625,-3.1747894287109375,-0.3162689208984375,-0.3529815673828125
1783170072775580200,9.390580078125,-3.11651611328125,-0.3168487548828125,-0.5369873046875
1783170072785528000,9.400528076171875,-3.0202178955078125,-0.2927703857421875,-0.718841552734375
1783170072795477500,9.4104775390625,-2.874237060546875,-0.2788238525390625,-0.8137664794921875
1783170072805456400,9.420456298828125,-2.6830902099609375,-0.2954254150390625,-0.815521240234375
1783170072815405300,9.4304052734375,-2.4230804443359375,-0.3339691162109375,-0.7027587890625
1783170072825354200,9.440354248046875,-2.105712890625,-0.3370819091796875,-0.502655029296875
1783170072835303400,9.450303466796875,-1.793121337890625,-0.3310699462890625,-0.276824951171875
1783170072845282300,9.4602822265625,-1.5048980712890625,-0.3308258056640625,-0.0945281982421875
1783170072855231200,9.470231201171876,-1.224151611328125,-0.324981689453125,0.033355712890625
1783170072865179400,9.480179443359376,-0.9378662109375,-0.31646728515625,0.096893310546875
1783170072875159300,9.4901591796875,-0.6656951904296875,-0.30389404296875,0.094390869140625
1783170072885107200,9.500107177734375,-0.422393798828125,-0.277008056640625,0.05230712890625
1783170072895056100,9.51005615234375,-0.188323974609375,-0.2668304443359375,0.0076446533203125
1783170072905005300,9.52000537109375,0.0077362060546875,-0.2831878662109375,-0.00628662109375
1783170072914984200,9.529984130859376,0.1406707763671875,-0.2873077392578125,0.0052642822265625
1783170072924933000,9.53993310546875,0.230743408203125,-0.2662811279296875,0.02728271484375
1783170072934881300,9.54988134765625,0.275238037109375,-0.2569122314453125,0.0525970458984375
1783170072944830200,9.559830322265626,0.2888031005859375,-0.257904052734375,0.0803070068359375
1783170072954809000,9.56980908203125,0.2833099365234375,-0.2520294189453125,0.0973052978515625
1783170072964758300,9.57975830078125,0.266143798828125,-0.236785888671875,0.0931854248046875
1783170072974707500,9.58970751953125,0.241424560546875,-0.2106170654296875,0.0740814208984375
1783170072984686300,9.599686279296876,0.2108154296875,-0.1836395263671875,0.0528717041015625
1783170072994635300,9.60963525390625,0.1698760986328125,-0.160400390625,0.0177459716796875
1783170073004584200,9.619584228515626,0.1423187255859375,-0.1340179443359375,-0.003326416015625
1783170073014532400,9.629532470703126,0.0998077392578125,-0.11285400390625,-0.0106201171875
1783170073024512300,9.63951220703125,0.0603790283203125,-0.08953857421875,-0.0288848876953125
1783170073034460400,9.64946044921875,0.0403594970703125,-0.0610809326171875,-0.04571533203125
1783170073044409300,9.659409423828125,0.0206756591796875,-0.0256500244140625,-0.056304931640625
1783170073054358300,9.669358154296875,0.00494384765625,0.0283050537109375,-0.0709228515625
1783170073064337200,9.679337158203126,-0.010772705078125,0.087646484375,-0.0827178955078125
1783170073074286300,9.689286376953126,-0.005157470703125,0.1284637451171875,-0.083251953125
1783170073084234200,9.699234130859375,0.010406494140625,0.147552490234375,-0.0797576904296875
1783170073094214100,9.709214111328125,-0.0173187255859375,0.15289306640625,-0.088623046875
1783170073104162300,9.719162353515625,-0.048492431640625,0.1446075439453125,-0.07891845703125
1783170073114111200,9.729111328125,-0.1267242431640625,0.08624267578125,-0.054412841796875
1783170073124060400,9.739060302734375,-0.3502197265625,-0.003173828125,-0.0130157470703125
1783170073134039000,9.7490390625,-0.540618896484375,-0.11102294921875,0.059783935546875
1783170073143988500,9.758988525390626,-0.7031097412109375,-0.269378662109375,0.1258392333984375
1783170073153937400,9.7689375,-0.9206085205078125,-0.435455322265625,0.223480224609375
1783170073163885300,9.77888525390625,-1.26129150390625,-0.5211029052734375,0.229705810546875
1783170073173865200,9.788865234375,-1.712738037109375,-0.6348724365234375,0.090545654296875
1783170073183813400,9.7988134765625,-2.1876983642578125,-0.8627166748046875,0.00927734375
1783170073193762300,9.80876220703125,-2.61065673828125,-0.95751953125,-0.1388702392578125
1783170073203711200,9.818711181640625,-2.867034912109375,-0.907562255859375,-0.26092529296875
1783170073213690400,9.8286904296875,-3.1089324951171875,-0.89251708984375,-0.26397705078125
1783170073223639300,9.838639404296876,-3.28399658203125,-0.8603363037109375,-0.121124267578125
1783170073233587200,9.848587158203125,-3.253509521484375,-0.738433837890625,0.044464111328125
1783170073243567000,9.858567138671875,-3.1593017578125,-0.6731414794921875,0.1607818603515625
1783170073253515300,9.868515380859375,-3.0252532958984375,-0.6886749267578125,0.2655029296875
1783170073263464200,9.878464111328125,-2.865264892578125,-0.658782958984375,0.217987060546875
1783170073273413000,9.8884130859375,-2.6851654052734375,-0.6408843994140625,-0.0003204345703125
1783170073283392300,9.898392333984376,-2.453765869140625,-0.6550140380859375,-0.29779052734375
1783170073293341400,9.908341552734376,-2.12451171875,-0.6279754638671875,-0.5261993408203125
1783170073303290400,9.918290283203126,-1.7733917236328125,-0.578582763671875,-0.5467987060546875
1783170073313238300,9.92823828125,-1.5151519775390625,-0.5465087890625,-0.3870086669921875
1783170073323218400,9.938218505859375,-1.303436279296875,-0.511077880859375,-0.19415283203125
1783170073333166300,9.948166259765625,-1.1068115234375,-0.44305419921875,-0.09991455078125
1783170073343115300,9.958115234375,-0.925048828125,-0.4073944091796875,-0.101470947265625
1783170073353094400,9.968094482421876,-0.70806884765625,-0.3964385986328125,-0.1601715087890625
1783170073363043300,9.978043212890626,-0.4641876220703125,-0.38311767578125,-0.2180328369140625
1783170073372992300,9.9879921875,-0.222259521484375,-0.38165283203125,-0.2198333740234375
1783170073382941200,9.997941162109376,-0.0025482177734375,-0.37799072265625,-0.1619873046875
1783170073392920300,10.00792041015625,0.200653076171875,-0.3614654541015625,-0.076385498046875
1783170073402868200,10.0178681640625,0.36669921875,-0.3521881103515625,0.021484375
1783170073412817200,10.027817138671875,0.4541015625,-0.3361053466796875,0.1136322021484375
1783170073422766300,10.037766357421875,0.4869537353515625,-0.2969512939453125,0.1820068359375
1783170073432745200,10.0477451171875,0.4890289306640625,-0.2509307861328125,0.2071533203125
1783170073442694100,10.057694091796876,0.4691925048828125,-0.1890411376953125,0.2025146484375
1783170073452643300,10.067643310546876,0.4148101806640625,-0.1112518310546875,0.1804046630859375
1783170073462591200,10.07759130859375,0.352569580078125,-0.0358123779296875,0.155731201171875
1783170073472571400,10.0875712890625,0.2884521484375,0.013336181640625,0.1360321044921875
1783170073482519300,10.097519287109375,0.2231292724609375,0.0398101806640625,0.12811279296875
1783170073492468500,10.107468505859375,0.1627960205078125,0.05230712890625,0.1361236572265625
1783170073502447400,10.117447265625,0.1078338623046875,0.0518646240234375,0.1403961181640625
1783170073512396300,10.127396240234376,0.0536651611328125,0.0486907958984375,0.1164398193359375
1783170073522345200,10.13734521484375,-0.01177978515625,0.049835205078125,0.0758056640625
1783170073532294400,10.14729443359375,-0.072479248046875,0.0480499267578125,0.04071044921875
1783170073542273300,10.157273193359375,-0.1166229248046875,0.039031982421875,-0.0019989013671875
1783170073552222200,10.16722216796875,-0.1404571533203125,0.0314178466796875,-0.0394134521484375
1783170073562170400,10.17717041015625,-0.1699981689453125,0.0268096923828125,-0.06768798828125
1783170073572119300,10.187119384765625,-0.2146453857421875,0.023712158203125,-0.0803680419921875
1783170073582098200,10.19709814453125,-0.237579345703125,0.0108184814453125,-0.0652313232421875
1783170073592047000,10.207047119140626,-0.282440185546875,-0.002410888671875,-0.062286376953125
1783170073601996300,10.216996337890626,-0.3988494873046875,-0.0117034912109375,-0.090484619140625
1783170073611975200,10.22697509765625,-0.64324951171875,-0.0111541748046875,-0.1053009033203125
1783170073621924400,10.23692431640625,-0.9925689697265625,-0.058868408203125,-0.1217193603515625
1783170073631872300,10.246872314453125,-1.249298095703125,-0.1435546875,-0.1905059814453125
1783170073641821400,10.256821533203125,-1.5453643798828125,-0.2136993408203125,-0.297637939453125
1783170073651800300,10.26680029296875,-1.8989410400390625,-0.4024505615234375,-0.3069915771484375
1783170073661749200,10.276749267578126,-2.1475677490234375,-0.6535797119140625,-0.24224853515625
1783170073671698400,10.286698486328126,-2.392333984375,-0.8567352294921875,-0.1356658935546875
1783170073681666800,10.296666748046874,-2.612457275390625,-0.95648193359375,-0.150421142578125
1783170073691646000,10.30664599609375,-2.724517822265625,-0.9808197021484375,-0.3167266845703125
1783170073701595000,10.316594970703125,-2.72119140625,-0.9110565185546875,-0.465850830078125
1783170073711542800,10.326542724609375,-2.6855621337890625,-0.8368682861328125,-0.5525970458984375
1783170073721491700,10.33649169921875,-2.643646240234375,-0.91357421875,-0.5121917724609375
1783170073731470800,10.346470947265624,-2.52734375,-0.9747161865234375,-0.449432373046875
1783170073741419800,10.356419677734374,-2.3376007080078125,-0.9947357177734375,-0.4268646240234375
1783170073751368700,10.36636865234375,-2.1969757080078125,-0.9881439208984375,-0.4317169189453125
1783170073761347800,10.376347900390625,-2.0693817138671875,-0.9597015380859375,-0.440704345703125
1783170073771296800,10.386296875,-1.9317779541015625,-0.9043426513671875,-0.439666748046875
1783170073781244700,10.39624462890625,-1.77850341796875,-0.81842041015625,-0.4372711181640625
1783170073791193600,10.406193603515625,-1.541107177734375,-0.7376556396484375,-0.4171600341796875
1783170073801172700,10.4161728515625,-1.2535400390625,-0.6743621826171875,-0.35858154296875
1783170073811122000,10.426121826171874,-1.001922607421875,-0.618316650390625,-0.269561767578125
1783170073821070800,10.43607080078125,-0.8521881103515625,-0.5047454833984375,-0.1940460205078125
1783170073831019800,10.446019775390624,-0.7327117919921875,-0.4529266357421875,-0.1198883056640625
1783170073840999000,10.4559990234375,-0.625946044921875,-0.482940673828125,-0.0760498046875
1783170073850947800,10.46594775390625,-0.52197265625,-0.4786376953125,-0.0787353515625
1783170073860896000,10.47589599609375,-0.401611328125,-0.427978515625,-0.110687255859375
1783170073870876000,10.4858759765625,-0.2764739990234375,-0.3779144287109375,-0.160400390625
1783170073880823800,10.49582373046875,-0.1510009765625,-0.3461151123046875,-0.1718597412109375
1783170073890772700,10.505772705078124,-0.0234222412109375,-0.334869384765625,-0.1225128173828125
1783170073900721700,10.5157216796875,0.0725250244140625,-0.3387908935546875,-0.05511474609375
1783170073910700800,10.52570068359375,0.1357269287109375,-0.3356170654296875,0.0235748291015625
1783170073920649700,10.535649658203125,0.167022705078125,-0.307708740234375,0.103240966796875
1783170073930598000,10.545597900390625,0.184234619140625,-0.266448974609375,0.1602630615234375
1783170073940546800,10.555546875,0.202850341796875,-0.2120361328125,0.2017822265625
1783170073950525700,10.565525634765624,0.2052764892578125,-0.1624603271484375,0.209747314453125
1783170073960474600,10.575474609375,0.1957550048828125,-0.1236419677734375,0.2002105712890625
1783170073970424000,10.585424072265624,0.1926727294921875,-0.086151123046875,0.1931610107421875
1783170073980373000,10.595373046875,0.1842498779296875,-0.073211669921875,0.19940185546875
1783170073990352000,10.605351806640625,0.1663360595703125,-0.076751708984375,0.1988983154296875
1783170074000300800,10.61530078125,0.1554718017578125,-0.0749969482421875,0.191162109375
1783170074010249000,10.6252490234375,0.1364593505859375,-0.05560302734375,0.1650238037109375
1783170074020228900,10.635228759765624,0.0950469970703125,-0.0108795166015625,0.1226348876953125
1783170074030176800,10.6451767578125,0.0447998046875,0.0152130126953125,0.086181640625
1783170074040126000,10.6551259765625,0.0010223388671875,0.0426177978515625,0.047637939453125
1783170074050075000,10.665074951171874,-0.05670166015625,0.0700225830078125,0.0132904052734375
1783170074060053800,10.6750537109375,-0.1287078857421875,0.0877685546875,-0.0141448974609375
1783170074070002700,10.685002685546875,-0.198394775390625,0.1037139892578125,-0.0214996337890625
1783170074079950800,10.694950927734375,-0.27081298828125,0.096160888671875,-0.0161590576171875
1783170074089899800,10.704899658203125,-0.4014739990234375,0.0760040283203125,-0.0168914794921875
1783170074099879000,10.71487890625,-0.531524658203125,0.0429534912109375,-0.0483856201171875
1783170074109827800,10.724827880859374,-0.65771484375,-0.02569580078125,-0.09619140625
1783170074119776800,10.73477685546875,-0.9450225830078125,-0.0977325439453125,-0.0883636474609375
1783170074129755600,10.744755615234375,-1.2166900634765625,-0.2039794921875,-0.0429534912109375
1783170074139704800,10.754704833984375,-1.5359954833984375,-0.4145050048828125,0.022308349609375
1783170074149654000,10.764654052734375,-2.017852783203125,-0.57037353515625,0.06878662109375
1783170074159602000,10.774601806640625,-2.5695648193359375,-0.611480712890625,-0.0031280517578125
1783170074169581800,10.784581787109374,-3.223052978515625,-0.604827880859375,-0.2423553466796875
1783170074179530000,10.794530029296874,-3.63592529296875,-0.46490478515625,-0.6355743408203125
1783170074189479000,10.80447900390625,-3.7982635498046875,-0.2397918701171875,-1.03961181640625
1783170074199427800,10.814427734375,-4.002197265625,-0.0774688720703125,-1.3428955078125
1783170074209407000,10.824406982421875,-4.0137786865234375,-0.058441162109375,-1.3883209228515625
1783170074219356000,10.83435595703125,-3.832672119140625,-0.122161865234375,-1.223541259765625
1783170074229303800,10.8443037109375,-3.5797576904296875,-0.172821044921875,-0.9671173095703125
1783170074239252700,10.854252685546875,-3.2689361572265625,-0.1983184814453125,-0.737579345703125
1783170074249232000,10.86423193359375,-2.8721771240234375,-0.214385986328125,-0.568145751953125
1783170074259180800,10.874180908203124,-2.3943328857421875,-0.255767822265625,-0.409088134765625
1783170074269129700,10.884129638671874,-1.919708251953125,-0.3182373046875,-0.24359130859375
1783170074279108900,10.89410888671875,-1.5287628173828125,-0.349273681640625,-0.1170501708984375
1783170074289057800,10.904057861328125,-1.16845703125,-0.406005859375,-0.043121337890625
1783170074299007000,10.914007080078125,-0.819732666015625,-0.4391937255859375,-0.024139404296875
1783170074308954600,10.92395458984375,-0.5063629150390625,-0.383331298828125,-0.0408172607421875
1783170074318935000,10.93393505859375,-0.224456787109375,-0.29815673828125,-0.0721282958984375
1783170074328883000,10.943883056640624,0.000030517578125,-0.244384765625,-0.086669921875
1783170074338832000,10.953831787109374,0.165924072265625,-0.2251434326171875,-0.0649871826171875
1783170074348780800,10.96378076171875,0.308990478515625,-0.206573486328125,-0.01898193359375
1783170074358760000,10.973760009765625,0.4138336181640625,-0.185211181640625,0.0428314208984375
1783170074368708900,10.983708984375,0.4846343994140625,-0.2077789306640625,0.1039276123046875
1783170074378657800,10.99365771484375,0.5427093505859375,-0.24761962890625,0.15496826171875
1783170074388637000,11.003636962890624,0.59136962890625,-0.2513275146484375,0.181549072265625
1783170074398585900,11.0135859375,0.6363372802734375,-0.24639892578125,0.18414306640625
1783170074408533800,11.02353369140625,0.66156005859375,-0.228851318359375,0.1566314697265625
1783170074418482700,11.033482666015624,0.6697540283203125,-0.1907501220703125,0.119384765625
1783170074428461800,11.0434619140625,0.6298675537109375,-0.1437835693359375,0.0868988037109375
1783170074438410800,11.05341064453125,0.549957275390625,-0.0908660888671875,0.0547027587890625
1783170074448359700,11.063359619140625,0.4599151611328125,-0.041961669921875,0.0401153564453125
1783170074458307800,11.073307861328125,0.3603515625,-0.0290985107421875,0.0593109130859375
1783170074468287700,11.083287841796874,0.2733612060546875,-0.0142669677734375,0.0978851318359375
1783170074478235600,11.093235595703124,0.1773834228515625,0.025848388671875,0.1013031005859375
1783170074488184800,11.103184814453124,0.0904083251953125,0.0648193359375,0.079803466796875
1783170074498134000,11.113134033203124,0.0200347900390625,0.0875091552734375,0.0576171875
1783170074508113000,11.12311279296875,-0.0352783203125,0.1070098876953125,0.01910400390625
1783170074518061800,11.133061767578125,-0.0774688720703125,0.1338043212890625,-0.0245513916015625
1783170074528010800,11.1430107421875,-0.1208038330078125,0.145355224609375,-0.0531005859375
1783170074537990000,11.152989990234374,-0.1507720947265625,0.1252288818359375,-0.07830810546875
1783170074547938800,11.162938720703124,-0.184967041015625,0.1033477783203125,-0.0897216796875
1783170074557886700,11.17288671875,-0.24298095703125,0.0867767333984375,-0.1143951416015625
1783170074567836000,11.1828359375,-0.326263427734375,0.0629730224609375,-0.1738433837890625
1783170074577814800,11.192814697265625,-0.377777099609375,0.0128936767578125,-0.209014892578125
1783170074587763700,11.202763671875,-0.4985809326171875,-0.0872802734375,-0.23333740234375
1783170074597712600,11.212712646484375,-0.792144775390625,-0.1854095458984375,-0.23956298828125
1783170074607660800,11.222660888671875,-1.1819915771484375,-0.3039398193359375,-0.24090576171875
1783170074617640700,11.232640625,-1.6800384521484375,-0.4776763916015625,-0.3099365234375
1783170074627588900,11.2425888671875,-2.364990234375,-0.553009033203125,-0.47119140625
1783170074637537800,11.252537841796874,-3.14410400390625,-0.492828369140625,-0.758941650390625
1783170074647516700,11.2625166015625,-3.79107666015625,-0.330810546875,-1.1864166259765625
1783170074657465900,11.2724658203125,-4.019287109375,-0.0631866455078125,-1.7384490966796875
1783170074667414800,11.282414794921875,-4.1319580078125,0.1473541259765625,-2.040618896484375
1783170074677373700,11.292373779296875,-4.221435546875,0.078826904296875,-1.90460205078125
1783170074687352300,11.302352294921874,-3.939971923828125,-0.0992279052734375,-1.514739990234375
1783170074697301500,11.312301513671875,-3.503753662109375,-0.373931884765625,-0.997314453125
1783170074707249700,11.322249755859374,-3.1875152587890625,-0.696502685546875,-0.4952239990234375
1783170074717198600,11.332198486328124,-2.841400146484375,-0.8313140869140625,-0.2274017333984375
1783170074727177700,11.342177734375,-2.412750244140625,-0.814727783203125,-0.2108612060546875
1783170074737126700,11.352126708984375,-1.9752197265625,-0.8020782470703125,-0.2642364501953125
1783170074747075600,11.36207568359375,-1.5849609375,-0.84246826171875,-0.3131866455078125
1783170074757054500,11.372054443359374,-1.210540771484375,-0.8199615478515625,-0.3418426513671875
1783170074767003600,11.382003662109375,-0.885498046875,-0.75445556640625,-0.298095703125
1783170074776951600,11.39195166015625,-0.6474456787109375,-0.6542510986328125,-0.204559326171875
1783170074786900500,11.401900390625,-0.4534759521484375,-0.5431365966796875,-0.1438140869140625
1783170074796879600,11.411879638671875,-0.286102294921875,-0.409759521484375,-0.1007232666015625
1783170074806828500,11.42182861328125,-0.1321563720703125,-0.268585205078125,-0.011993408203125
1783170074816777500,11.431777587890625,0.03399658203125,-0.1893157958984375,0.084228515625
1783170074826726400,11.441726318359375,0.20489501953125,-0.161407470703125,0.180999755859375
1783170074836705500,11.45170556640625,0.340728759765625,-0.168121337890625,0.255218505859375
1783170074846654500,11.461654541015625,0.442169189453125,-0.1641998291015625,0.2797088623046875
1783170074856602400,11.471602294921874,0.5094146728515625,-0.146270751953125,0.2703399658203125
1783170074866551600,11.481551513671874,0.5449981689453125,-0.1309661865234375,0.240386962890625
1783170074876530700,11.49153076171875,0.5553436279296875,-0.1172027587890625,0.198577880859375
1783170074886479600,11.501479736328125,0.5122833251953125,-0.0786895751953125,0.1591796875
1783170074896428500,11.511428466796875,0.425048828125,-0.0330352783203125,0.1278228759765625
1783170074906407700,11.52140771484375,0.3042144775390625,0.019256591796875,0.0841827392578125
1783170074916356600,11.531356689453125,0.1877288818359375,0.0793304443359375,0.0415802001953125
1783170074926304500,11.541304443359374,0.0823974609375,0.1251373291015625,0.004364013671875
1783170074936253400,11.55125341796875,-0.0110321044921875,0.1696319580078125,-0.0306854248046875
1783170074946232600,11.561232666015625,-0.0950164794921875,0.211181640625,-0.0723114013671875
1783170074956181500,11.571181396484375,-0.1706085205078125,0.23187255859375,-0.097381591796875
1783170074966130400,11.58113037109375,-0.2044219970703125,0.2274322509765625,-0.1181640625
1783170074976079400,11.591079345703125,-0.2081146240234375,0.2209625244140625,-0.1566009521484375
1783170074986058500,11.60105859375,-0.1996612548828125,0.21002197265625,-0.18853759765625
1783170074996007400,11.61100732421875,-0.1843109130859375,0.1652069091796875,-0.197998046875
1783170075005955600,11.62095556640625,-0.1873321533203125,0.109710693359375,-0.2123870849609375
1783170075015935500,11.630935546875,-0.20355224609375,0.0833892822265625,-0.252716064453125
1783170075025883400,11.64088330078125,-0.256683349609375,0.082061767578125,-0.2840728759765625
1783170075035832600,11.65083251953125,-0.3368377685546875,0.054779052734375,-0.3022918701171875
1783170075045781500,11.660781494140625,-0.427398681640625,-0.0195770263671875,-0.3108367919921875
1783170075055760600,11.6707607421875,-0.594573974609375,-0.131561279296875,-0.335968017578125
1783170075065709600,11.68070947265625,-0.8868255615234375,-0.2351837158203125,-0.387237548828125
1783170075075657700,11.69065771484375,-1.1608734130859375,-0.3448638916015625,-0.403717041015625
1783170075085606700,11.700606689453124,-1.35675048828125,-0.4873809814453125,-0.394775390625
1783170075095585500,11.71058544921875,-1.5437164306640625,-0.6277313232421875,-0.324920654296875
1783170075105534500,11.720534423828125,-1.7414703369140625,-0.6999359130859375,-0.2405853271484375
1783170075115483600,11.730483642578125,-1.9346466064453125,-0.68994140625,-0.2240447998046875
1783170075125432600,11.7404326171875,-2.097442626953125,-0.6933441162109375,-0.3068084716796875
1783170075135411500,11.750411376953124,-2.26080322265625,-0.716461181640625,-0.4790496826171875
1783170075145360400,11.7603603515625,-2.35394287109375,-0.6921539306640625,-0.769073486328125
1783170075155308500,11.77030859375,-2.3438720703125,-0.5753021240234375,-1.09771728515625
1783170075165288400,11.780288330078125,-2.241485595703125,-0.475189208984375,-1.2557220458984375
1783170075175236400,11.790236328125,-2.060333251953125,-0.500640869140625,-1.1277618408203125
1783170075185185500,11.800185546875,-1.833221435546875,-0.6934814453125,-0.79510498046875
1783170075195134700,11.810134765625,-1.653533935546875,-0.8543853759765625,-0.4885101318359375
1783170075205113600,11.820113525390624,-1.51995849609375,-0.91009521484375,-0.28094482421875
1783170075215062500,11.8300625,-1.376861572265625,-0.893463134765625,-0.196502685546875
1783170075225011700,11.84001171875,-1.214996337890625,-0.8115692138671875,-0.2211456298828125
1783170075234959600,11.849959716796874,-1.0754852294921875,-0.7248687744140625,-0.2770843505859375
1783170075244938500,11.8599384765625,-1.0245819091796875,-0.6560821533203125,-0.3604736328125
1783170075254887700,11.8698876953125,-0.96075439453125,-0.589508056640625,-0.45977783203125
1783170075264836600,11.879836669921875,-0.9184417724609375,-0.574615478515625,-0.52935791015625
1783170075274815500,11.8898154296875,-0.990020751953125,-0.7625579833984375,-0.6040191650390625
1783170075284764400,11.899764404296874,-0.9867706298828125,-0.971038818359375,-0.6677093505859375
1783170075294713600,11.909713623046875,-0.765045166015625,-0.8714599609375,-0.5941162109375
1783170075304661500,11.91966162109375,-0.5980377197265625,-0.5975799560546875,-0.506988525390625
1783170075314641400,11.929641357421875,-0.579620361328125,-0.3321533203125,-0.4568939208984375
1783170075324589600,11.939589599609375,-0.5855865478515625,-0.1746063232421875,-0.433837890625
1783170075334538500,11.94953857421875,-0.550567626953125,-0.1352386474609375,-0.4319000244140625
1783170075344487400,11.9594873046875,-0.4608612060546875,-0.0896759033203125,-0.3776397705078125
1783170075354466600,11.969466552734374,-0.371185302734375,0.0213470458984375,-0.308624267578125
1783170075364415700,11.979415771484375,-0.4728240966796875,0.0601043701171875,-0.3462677001953125
1783170075374364700,11.98936474609375,-0.555145263671875,0.0288848876953125,-0.35797119140625
1783170075384312600,11.9993125,-0.467071533203125,-0.028167724609375,-0.2940826416015625
1783170075394292500,12.00929248046875,-0.4134979248046875,-0.0913543701171875,-0.173858642578125
1783170075404240600,12.01924072265625,-0.418853759765625,-0.2012176513671875,-0.067535400390625
1783170075414189600,12.029189453125,-0.3691253662109375,-0.2942352294921875,0.0151519775390625
1783170075424168700,12.039168701171874,-0.2941741943359375,-0.348724365234375,-0.0194549560546875
1783170075434117600,12.04911767578125,-0.229888916015625,-0.337799072265625,-0.09320068359375
1783170075444066600,12.059066650390625,-0.0722808837890625,-0.14849853515625,-0.003814697265625
1783170075454014500,12.069014404296874,0.029083251953125,0.1831207275390625,0.0114288330078125
1783170075463994600,12.07899462890625,-0.2387847900390625,0.4939117431640625,-0.0335540771484375
1783170075473942500,12.088942626953125,-0.4235076904296875,0.427764892578125,-0.0760040283203125
1783170075483891500,12.098891357421875,-0.4528961181640625,0.16015625,-0.126220703125
1783170075493840400,12.10884033203125,-0.40216064453125,-0.069244384765625,0.0025482177734375
1783170075503819500,12.118819580078124,-0.4183807373046875,-0.1045379638671875,0.179595947265625
1783170075513768400,12.1287685546875,-0.4461669921875,-0.0524749755859375,0.20391845703125
1783170075523717600,12.138717529296875,-0.5193939208984375,0.0052337646484375,0.058380126953125
1783170075533696500,12.148696533203125,-0.6332244873046875,-0.0206756591796875,-0.0932769775390625
1783170075543645700,12.158645751953125,-0.7483062744140625,-0.1657867431640625,-0.27069091796875
1783170075553593600,12.168593505859375,-0.8915557861328125,-0.3884124755859375,-0.3697967529296875
1783170075563542500,12.17854248046875,-1.1227569580078125,-0.5317230224609375,-0.3255462646484375
1783170075573521700,12.188521728515624,-1.3605194091796875,-0.44586181640625,-0.4060516357421875
1783170075583470600,12.198470703125,-1.531341552734375,-0.4515380859375,-0.4904327392578125
1783170075593419500,12.20841943359375,-1.559478759765625,-0.537445068359375,-0.62493896484375
1783170075603367700,12.21836767578125,-1.3961334228515625,-0.4327850341796875,-0.763519287109375
1783170075613347600,12.22834765625,-1.37042236328125,-0.369476318359375,-0.8312225341796875
1783170075623295500,12.23829541015625,-1.33880615234375,-0.36181640625,-0.8484649658203125
1783170075633244400,12.248244384765625,-0.934906005859375,-0.3643951416015625,-0.908477783203125
1783170075643193600,12.258193603515625,-0.6187591552734375,-0.28253173828125,-0.845184326171875
1783170075653172500,12.26817236328125,-0.87054443359375,-0.144287109375,-0.6143798828125
1783170075663121400,12.278121337890624,-1.1828460693359375,-0.2576446533203125,-0.508026123046875
1783170075673070300,12.2880703125,-1.5933990478515625,-0.390655517578125,-0.4163818359375
1783170075683062800,12.298062744140625,-1.6079864501953125,-0.4044342041015625,-0.257904052734375
1783170075693012000,12.308011962890625,-1.3043365478515625,-0.39642333984375,-0.1739654541015625
1783170075702960000,12.317960205078125,-1.2579193115234375,-0.3973541259765625,-0.1896209716796875
1783170075712909000,12.327908935546875,-1.3255462646484375,-0.3861846923828125,-0.24346923828125
1783170075722888000,12.337887939453125,-1.263336181640625,-0.34539794921875,-0.252593994140625
1783170075732836900,12.3478369140625,-1.2110748291015625,-0.35638427734375,-0.2218017578125
1783170075742786000,12.3577861328125,-1.2165374755859375,-0.435455322265625,-0.1939544677734375
1783170075752734000,12.36773388671875,-1.250823974609375,-0.498199462890625,-0.2161865234375
1783170075762713900,12.3777138671875,-1.163543701171875,-0.434539794921875,-0.3086700439453125
1783170075772662000,12.387662109375,-1.0536651611328125,-0.354461669921875,-0.363311767578125
1783170075782611000,12.39761083984375,-0.9980621337890625,-0.3423614501953125,-0.3175506591796875
1783170075792589800,12.40758984375,-1.063385009765625,-0.334381103515625,-0.1790313720703125
1783170075802538800,12.417538818359375,-1.13836669921875,-0.3805999755859375,-0.1837005615234375
1783170075812488000,12.427488037109375,-1.1075592041015625,-0.3764495849609375,-0.19659423828125
1783170075822436900,12.437436767578125,-1.0933380126953125,-0.3654327392578125,-0.1428375244140625
1783170075832415700,12.447415771484375,-1.0847930908203125,-0.344207763671875,-0.1064605712890625
1783170075842364700,12.45736474609375,-1.1151885986328125,-0.323272705078125,-0.0767822265625
1783170075852312800,12.467312744140624,-1.0840606689453125,-0.2878875732421875,-0.01910400390625
1783170075862262000,12.477261962890625,-1.0569305419921875,-0.262054443359375,0.07879638671875
1783170075872241000,12.487240966796875,-1.00823974609375,-0.2293548583984375,0.137847900390625
1783170075882190000,12.497190185546875,-0.9951171875,-0.2864227294921875,0.133880615234375
1783170075892139000,12.507138916015625,-0.9697723388671875,-0.3078460693359375,0.1175537109375
1783170075902088000,12.517087890625,-0.85858154296875,-0.3031768798828125,0.03973388671875
1783170075912066800,12.52706689453125,-0.7916259765625,-0.259521484375,-0.0260467529296875
1783170075922015000,12.537014892578124,-0.7891845703125,-0.184783935546875,-0.0563507080078125
1783170075931964000,12.5469638671875,-0.79083251953125,-0.1596527099609375,-0.0691986083984375
1783170075941943000,12.556943115234375,-0.764678955078125,-0.222412109375,-0.0484466552734375
1783170075951892000,12.56689208984375,-0.7363433837890625,-0.30322265625,-0.0064544677734375
1783170075961841000,12.5768408203125,-0.7320556640625,-0.3487701416015625,0.044677734375
1783170075971789800,12.586789794921875,-0.72808837890625,-0.39373779296875,0.089385986328125
1783170075981769000,12.59676904296875,-0.72161865234375,-0.4364776611328125,0.136993408203125
1783170075991718000,12.6067177734375,-0.730377197265625,-0.4714202880859375,0.1686248779296875
1783170076001665800,12.616665771484374,-0.790191650390625,-0.4981842041015625,0.161346435546875
1783170076011614700,12.62661474609375,-0.8407135009765625,-0.5024261474609375,0.139801025390625
1783170076021593900,12.63659375,-0.88134765625,-0.4798431396484375,0.122406005859375
1783170076031543000,12.64654296875,-0.9310760498046875,-0.4421234130859375,0.106231689453125
1783170076041492000,12.656491943359375,-0.9638519287109375,-0.4068145751953125,0.09527587890625
1783170076051471000,12.66647119140625,-0.9820098876953125,-0.3825836181640625,0.0920562744140625
1783170076061420000,12.676419921875,-0.9981231689453125,-0.36431884765625,0.09478759765625
1783170076071369000,12.686368896484375,-1.0031280517578125,-0.3555908203125,0.1070556640625
1783170076081316900,12.69631689453125,-0.9768829345703125,-0.3509521484375,0.1189727783203125
1783170076091296000,12.7062958984375,-0.948516845703125,-0.35760498046875,0.128143310546875
1783170076101245000,12.716244873046875,-0.9251861572265625,-0.3651885986328125,0.1561126708984375
1783170076111193900,12.72619384765625,-0.8771209716796875,-0.37823486328125,0.1967926025390625
1783170076121142800,12.736142822265625,-0.8310394287109375,-0.3993072509765625,0.2374725341796875
1783170076131122000,12.746121826171875,-0.805145263671875,-0.4364013671875,0.274932861328125
1783170076141070800,12.75607080078125,-0.7806396484375,-0.4722900390625,0.3062591552734375
1783170076151018800,12.766018798828124,-0.758087158203125,-0.4990081787109375,0.31549072265625
1783170076160999000,12.7759990234375,-0.7576904296875,-0.5223541259765625,0.3176727294921875
1783170076170946800,12.78594677734375,-0.7500762939453125,-0.5358734130859375,0.304595947265625
1783170076180895700,12.795895751953125,-0.7258148193359375,-0.534027099609375,0.260955810546875
1783170076190845000,12.805844970703125,-0.718902587890625,-0.516937255859375,0.223876953125
1783170076200824000,12.815823974609375,-0.6888275146484375,-0.496917724609375,0.2359161376953125
1783170076210773000,12.82577294921875,-0.687530517578125,-0.4924774169921875,0.3664093017578125
1783170076220722000,12.835721923828125,-0.87091064453125,-0.5719146728515625,0.412841796875
1783170076230670000,12.845670166015625,-0.795623779296875,-0.5576934814453125,0.2404327392578125
1783170076240650000,12.85564990234375,-0.791351318359375,-0.487335205078125,0.22772216796875
1783170076250598000,12.865597900390625,-0.8360443115234375,-0.47943115234375,0.236907958984375
1783170076260546800,12.875546875,-0.8463287353515625,-0.47149658203125,0.204559326171875
1783170076270496000,12.88549609375,-0.8541412353515625,-0.4957427978515625,0.192535400390625
1783170076280475000,12.895474853515625,-0.8420257568359375,-0.509185791015625,0.19964599609375
