time,seconds_elapsed,z,y,x
1783170063520356400,0.1353564453125,9.363668332335353,0.9297587840445339,0.4772195258963853
1783170063530305500,0.145305419921875,9.404650331065058,1.2373486693143845,0.2491679453089833
1783170063540254700,0.155254638671875,9.287270152309537,1.520898338305205,0.07100815755054354
1783170063550202600,0.16520263671875,8.77142257039845,1.6176764585368335,-0.08139295610580592
1783170063560182500,0.1751826171875,8.067975610601902,1.2816450532890855,-0.20454755354430526
1783170063570130700,0.185130615234375,7.734374939632415,0.7051900040715933,-0.5770083722513168
1783170063580079600,0.19507958984375,7.523947059345245,0.48872269748970865,-0.8860472872857004
1783170063590058500,0.20505859375,7.169816226044297,0.893640884219855,-1.0293068073809146
1783170063600007400,0.21500732421875,6.602192279666662,1.5122317783772945,-1.3022063414111733
1783170063609956600,0.22495654296875,5.569321057802439,1.774917815298587,-1.6366950472615658
1783170063619905500,0.234905517578125,3.7666824380159376,1.4892328878447412,-1.8718189773879945
1783170063629884400,0.244884521484375,0.7297820090144872,0.9236951000913977,-1.8168267196148633
1783170063639833300,0.254833251953125,-2.713311448958516,-0.05334127569571137,-1.3342919169798493
1783170063649781500,0.264781494140625,-5.0165059735000135,-1.4172829193994403,-0.6122468588929623
1783170063659730400,0.27473046875,-5.722160087952018,-2.753094008770585,-0.4504670549839735
1783170063669753900,0.28475390625,-8.711491541048884,-3.752780169391632,0.3511684032987803
1783170063679702800,0.294702880859375,-13.349624220395087,-4.811494857564568,1.7290658724449575
1783170063689651700,0.304651611328125,-17.096334714484215,-4.760628885941207,1.6548108419276772
1783170063699630800,0.314630859375,-18.851859700918197,-3.411321186137199,0.9130077018603682
1783170063709579800,0.324579833984375,-19.235329441428185,-1.2702680653586982,0.0010502397052943706
1783170063719527700,0.334527587890625,-19.186917000436782,0.7235282093167305,-0.9606690322235226
1783170063729476600,0.3444765625,-18.635196141111848,0.6646180474475025,-1.1979757132165134
1783170063739455700,0.354455810546875,-17.8386365978539,0.007801905922591686,-1.1707729412533343
1783170063749404700,0.36440478515625,-15.920702204370498,0.04970657245516777,-1.0431426597055047
1783170063759353900,0.374353759765625,-13.423009774601459,0.8459937285125255,-0.5256251718208194
1783170063769302800,0.384302734375,-10.609472110784052,1.6094819000348448,-1.3037749059021473
1783170063779282000,0.394281982421875,-6.991261739879846,1.8405679529473185,-3.0586382135570047
1783170063789230800,0.40423095703125,-3.6247874112069605,1.367168935187161,-2.206617041448504
1783170063799178800,0.4141787109375,-0.10334639270603656,0.965599474363029,-1.6608710187494753
1783170063809127700,0.424127685546875,1.9550152931213378,1.6920169753804801,-0.8269608190014958
1783170063819106800,0.43410693359375,4.415657802912593,2.51570680988729,0.07491612477451562
1783170063829055700,0.4440556640625,5.782042601984739,2.8552696041315793,-0.10711670502498745
1783170063839004700,0.454004638671875,4.337568601059913,1.6719567686483263,-1.289787589342892
1783170063848983800,0.46398388671875,4.313899556180835,-0.8806107222549617,-1.7472578010872006
1783170063858932700,0.4739326171875,4.756861350101232,-3.142652713805437,-1.4223217903494834
1783170063868880600,0.483880615234375,5.109944135653972,-3.885554901155829,-0.738825001039356
1783170063878829800,0.493829833984375,5.833724273905157,-3.8125712057486174,-0.11269918133243918
1783170063888808700,0.50380859375,6.8807035160988566,-4.2857872681573035,0.24151421568542716
1783170063898757600,0.513757568359375,7.450033097350597,-5.156775444933772,0.8846098748937249
1783170063908706600,0.52370654296875,8.44569833189249,-4.720193122917413,1.583544910223782
1783170063918656000,0.533656005859375,8.75126065685749,-3.7078599544301625,2.473184303717315
1783170063928635000,0.543634765625,8.837292342147231,-3.0663889738142487,3.2700185722634196
1783170063938583800,0.553583740234375,8.535752112305163,-2.6880866990700363,4.189887976586818
1783170063948532000,0.563531982421875,8.080580825152992,-2.486246614386141,4.839449324677885
1783170063958511900,0.573511962890625,7.727537202566862,-2.1490788985848424,5.114603944158554
1783170063968459800,0.583459716796875,7.411262344929575,-1.7199414857469497,5.014242120221257
1783170063978408700,0.59340869140625,6.943916051337123,-1.4155264311209321,4.696178625601529
1783170063988358000,0.60335791015625,6.519561927253007,-1.4221242219507693,4.4012925929516555
1783170063998336800,0.613336669921875,6.324602249732613,-1.674206301140785,4.165157439956069
1783170064008285700,0.62328564453125,6.494003707626462,-1.8508669363826513,3.7200741238370534
1783170064018233900,0.63323388671875,5.023234989494085,-1.6157180179454385,2.577727504992485
1783170064028182800,0.643182861328125,5.29915387134552,-2.252821012610197,1.0765746083818375
1783170064038161700,0.65316162109375,5.31761716427505,-1.4943632364705204,-0.7809303047105669
1783170064048110800,0.66311083984375,5.703652955880761,-1.2253943929526954,-0.24210589796826243
1783170064058059800,0.673059814453125,6.831249457100033,-0.9816935539431869,1.1541636056274176
1783170064068038700,0.68303857421875,6.9444602412164205,-0.2893180597918108,1.5989251424461601
1783170064077987600,0.692987548828125,6.394736693188547,0.04154785245154053,1.738790124732256
1783170064087936800,0.702936767578125,5.51963494361341,0.26221282991897316,1.4564071614332497
1783170064097885000,0.712885009765625,5.481901717546582,0.6583421820484101,0.6335146147839724
1783170064107864800,0.72286474609375,5.87825607407093,1.5287125191874802,0.0694679423712194
1783170064117813000,0.73281298828125,5.390246347156166,2.3067009252272546,-0.04687924007475376
1783170064127762000,0.742761962890625,0.4897112701356411,2.013869048628211,0.5288502713471651
1783170064137710800,0.7527109375,-1.282195526778698,1.0575751627489924,1.4405148880355059
1783170064147689700,0.762689697265625,-0.43882045633196826,0.47630233798623084,0.6220416191332042
1783170064157639000,0.772638916015625,-5.83155569769442,-1.4725639309860765,-0.24231997911036013
1783170064167586800,0.7825869140625,-9.38834918460548,-3.8279201660498976,0.35107641416639085
1783170064177535700,0.79253564453125,-10.6146837079525,-5.258042108756303,0.7295720195256173
1783170064187515000,0.802514892578125,-11.044372763323784,-5.404501082479953,0.5958809035688638
1783170064197463800,0.8124638671875,-12.085085930860043,-5.43610033583641,-0.32020255247503515
1783170064207412700,0.822412841796875,-13.63729783744812,-4.447156518504023,-2.2763138241395353
1783170064217391600,0.8323916015625,-15.299233855080603,-2.60466753436625,-4.532161783355474
1783170064227340800,0.8423408203125,-17.230647323340175,-1.2667778851553797,-6.081963706192374
1783170064237289700,0.852289794921875,-17.446367464816568,-0.579524519790709,-6.858117005759477
1783170064247237600,0.862237548828125,-16.83569055865407,-0.788945853383839,-6.672485713076591
1783170064257217800,0.8722177734375,-15.496984624624252,-0.9840119138881563,-6.224887491527199
1783170064267166000,0.882166015625,-13.348144210970402,-0.7232505614191294,-5.52440873388648
1783170064277115000,0.892114990234375,-10.967632053470611,-0.9399833870694041,-4.815239597050845
1783170064287063800,0.902063720703125,-7.736841037485003,-1.4623589094445109,-4.540742564696073
1783170064297043000,0.91204296875,-4.379682234168053,-2.0383678223297,-3.1618890369340775
1783170064306991900,0.921991943359375,-1.7782985437780618,-1.3596551985561847,-0.38081937213167544
1783170064316940800,0.93194091796875,0.4573334336221218,-0.13576890861149876,1.0874573099892586
1783170064326919700,0.941919677734375,-0.4688566981554031,-2.9354435033038255,1.4658414908632635
1783170064336868900,0.951868896484375,-1.8896137234061956,-6.905182123795151,0.9239947406250983
1783170064346816800,0.961816650390625,-0.8598954126149415,-5.718578137812018,-0.6988413656972349
1783170064356765700,0.971765625,0.28603578671813007,-2.1566174773961304,-2.4976199490547177
1783170064366744800,0.981744873046875,1.6931465639322996,-0.20311215044632552,-3.0578555387467143
1783170064376693800,0.99169384765625,3.9865889252662656,0.11506649498566984,-1.8624588822379706
1783170064386642700,1.001642578125,6.2169052606016395,-0.7145804943598807,0.26795698132785034
1783170064396590600,1.011590576171875,7.744992195236683,-0.6983198991063981,1.6380815331839025
1783170064406570800,1.02157080078125,9.277856427276134,0.05692594751575961,2.285598662096262
1783170064416518700,1.0315185546875,11.37470946406126,0.6416868153236805,2.7552923955976962
1783170064426467800,1.0414677734375,12.763545164394378,1.0723134438060224,2.6794308066666126
1783170064436416800,1.051416748046875,13.163241232562065,1.3146332767859101,2.4904852748692035
1783170064446396000,1.06139599609375,13.622629845148325,1.1421775458879768,2.6833833436846732
1783170064456344800,1.0713447265625,13.814403293848036,1.2467020424626767,2.7933509080961345
1783170064466293800,1.081293701171875,13.52026720278263,1.576340093411505,2.882409832252562
1783170064476273000,1.09127294921875,13.351899179589747,1.8809326965615152,3.033283115287125
1783170064486221800,1.101221923828125,13.28867027773857,2.1190952637314795,3.106575730513036
1783170064496169700,1.111169677734375,13.155783902293443,2.259861578771472,2.929987283724546
1783170064506118700,1.12111865234375,12.676554278683662,2.805522115144133,2.1980219393216074
1783170064516097800,1.131097900390625,12.450248445785045,3.220462221933901,1.7404656567290424
1783170064526046700,1.141046630859375,12.361564784681796,3.2206635897248983,1.7409899728640912
1783170064535995600,1.15099560546875,12.08287176194191,3.0801071180433035,1.7067973420135676
1783170064545943800,1.16094384765625,11.449557492035627,2.833964073513448,1.4002164876557885
1783170064555923700,1.170923828125,11.366156739771366,2.3590879689380526,1.4205427979782224
1783170064565871600,1.18087158203125,11.390124475336075,1.802125409567356,1.3086340363711118
1783170064575820800,1.19082080078125,11.075067176795006,1.4817103833854197,1.117500639140606
1783170064585799700,1.200799560546875,10.618789389705658,1.1515621909573674,0.976737246710062
1783170064595748600,1.21074853515625,9.716741181015967,0.6268877439901233,0.6337143020745366
1783170064605697800,1.22069775390625,8.477016430220008,0.22239092447720465,0.2267434205982834
1783170064615646700,1.230646728515625,6.534704551327228,0.011042933670431375,0.2320023640397936
1783170064625625900,1.2406259765625,1.9256939215689897,-0.17089089273400604,-0.03690342417918145
1783170064635574800,1.25057470703125,-2.898029133927822,-0.3822745393760502,0.00011573533415794372
1783170064645523000,1.26052294921875,-8.738363181361555,0.31762685676813124,-0.6821116185620427
1783170064655471900,1.270471923828125,-17.45688184456825,1.6370225256502626,-1.2608259910136461
1783170064665450800,1.28045068359375,-27.199066094398496,2.070841520433128,-2.6910923106268045
1783170064675401500,1.2904013671875,-35.12632390527725,4.733462646596133,-6.139947693127393
1783170064685350400,1.300350341796875,-38.469920047187806,10.288425800961255,-8.860722317573428
1783170064695329500,1.31032958984375,-40.6634810615778,13.381555482184886,-9.4975793746531
1783170064705278700,1.32027880859375,-42.59813628823757,13.069939848530291,-10.250095193523167
1783170064715226600,1.3302265625,-40.289602156233784,12.298992885434627,-9.50603097665608
1783170064725175600,1.340175537109375,-37.1767752563715,10.138804563814402,-7.832907794576883
1783170064735154700,1.35015478515625,-33.685788412845135,6.570158142024278,-6.48833793694973
1783170064745103600,1.360103515625,-27.772166426360606,3.6298522933810946,-5.553804924240708
1783170064755052500,1.370052490234375,-20.760859092795847,1.2816859698213636,-4.860467270526289
1783170064765001500,1.38000146484375,-14.51267665039897,-0.8321097261972725,-3.7056080838501453
1783170064774980600,1.389980712890625,-8.98339943369329,-2.3369600160211323,-2.138800081154704
1783170064784929500,1.399929443359375,-3.5604707141190763,-2.9002509016305207,-0.7776710106536746
1783170064794877400,1.40987744140625,1.4567740950495003,-2.4559657501518726,0.3908353008419275
1783170064804826600,1.41982666015625,6.118242641797662,-1.3909516695737838,1.4824490729235111
1783170064814805500,1.429805419921875,10.474943228828906,-0.2992223082885146,2.3100785849668086
1783170064824754400,1.43975439453125,14.066086729109287,0.5602776752680539,2.860467465035617
1783170064834703400,1.449703369140625,16.881560329425334,1.4036398862332105,3.3703403564512726
1783170064844682500,1.4596826171875,18.91654990749359,1.948462072085589,4.133696426026523
1783170064854631400,1.46963134765625,19.818011256206034,2.228847724087536,4.575118004767597
1783170064864579300,1.479579345703125,20.341502046346662,2.7460779925286767,4.781920680294931
1783170064874528800,1.48952880859375,20.6431176795125,2.7415146301358937,5.056287364268303
1783170064884507400,1.49950732421875,20.476423727011678,2.789194372938573,5.570528680026531
1783170064894456600,1.50945654296875,19.58415106240511,3.73164356559962,5.33837529014349
1783170064904405500,1.519405517578125,18.619068013131617,4.014347577546537,5.099637845695018
1783170064914354700,1.529354736328125,17.715569021111726,4.377487938994169,5.153063730934262
1783170064924333600,1.53933349609375,16.887523621743917,4.783199029667675,5.254580570125579
1783170064934282500,1.549282470703125,15.981420000183581,4.956950791725516,5.015412917566299
1783170064944230700,1.559230712890625,14.9187405000329,5.2491556224673985,4.192604834330082
1783170064954210600,1.56921044921875,14.217978249275683,5.445775926676392,3.46596463047266
1783170064964158500,1.579158447265625,14.059436039048432,5.756964859351515,3.8713860905498265
1783170064974107400,1.589107421875,12.858392024302482,5.687265884703398,2.698229322899878
1783170064984056600,1.599056640625,12.200442494833469,5.1495419865489005,2.7517683131247757
1783170064994035500,1.609035400390625,11.498953098845481,4.3857963331341745,2.8552257649898527
1783170065003984400,1.618984375,10.783003800350427,4.264371847423911,2.1167440244302154
1783170065013932500,1.6289326171875,9.926109907639026,3.653604632629454,2.101548793385923
1783170065023881500,1.638881591796875,9.744298465505242,2.496727968651056,1.41879873078987
1783170065033860400,1.6488603515625,9.70222750249505,1.6661390222802757,0.9241348066829145
1783170065043809500,1.6588095703125,9.261344852936267,1.44140701456964,0.40324455442950125
1783170065053758700,1.6687587890625,9.060749799877405,1.2102442431591451,0.2341309735663235
1783170065063707600,1.678707763671875,8.930498449110985,0.6086880704328418,0.420380690408498
1783170065073686500,1.6886865234375,8.11730925809145,-0.018861425401642918,0.8471385146334767
1783170065083635500,1.698635498046875,6.435586589971185,-0.4010364133933559,1.3302233523666858
1783170065093583600,1.70858349609375,3.260461931627989,-0.8494144967414439,1.4825446422524748
1783170065103563500,1.7185634765625,-2.217611167541146,-0.8157498352877796,0.680209730463475
1783170065113511700,1.72851171875,-9.091311526879668,0.4405324478816241,-1.3877606184475124
1783170065123460600,1.738460693359375,-16.212306146609784,1.6917492643550038,-3.8685225178122518
1783170065133409500,1.748409423828125,-23.43491814329624,2.350640458588302,-6.730831519061327
1783170065143388400,1.758388427734375,-29.306361030220984,3.7284140821591016,-9.243896874529122
1783170065153337600,1.768337646484375,-33.22659970674515,4.653436631461978,-11.075239026230573
1783170065163286500,1.77828662109375,-36.28404900277853,5.083462371441722,-11.827367891609669
1783170065173234400,1.788234375,-37.15699737371206,4.921126614150404,-11.574795983076095
1783170065183213600,1.798213623046875,-36.10282851227522,4.63139811039418,-10.612245082628727
1783170065193162500,1.80816259765625,-34.143850160741806,4.026387559430301,-8.87588130826056
1783170065203111700,1.818111572265625,-31.583630255389213,3.2115362804174423,-7.284229956209659
1783170065213090300,1.82809033203125,-28.212966073811053,2.5311419871672984,-6.362719506680965
1783170065223039700,1.838039794921875,-24.001240359425545,1.3415142694488167,-5.561859635880589
1783170065232988700,1.84798876953125,-19.123487023055553,-0.3628799569457769,-4.725684998331964
1783170065242936600,1.8579365234375,-13.80509302918911,-1.8217849265441297,-3.801446877405047
1783170065252916500,1.86791650390625,-8.7007392608881,-2.916613422888517,-2.8354060890153048
1783170065262864600,1.87786474609375,-3.7596833729088304,-2.959878271858394,-1.8692630092948674
1783170065272813600,1.8878134765625,0.9969038364261388,-2.4547388387054205,-0.7767799070328474
1783170065282762500,1.897762451171875,5.12115701906383,-2.0738759196929633,0.3036895168304443
1783170065292741600,1.90774169921875,9.016877924925089,-1.2295764278776944,1.1329998215675354
1783170065302690600,1.917690673828125,12.316896790915727,-0.06378127503693104,1.8004994158007204
1783170065312639500,1.927639404296875,14.620368963354824,0.8664107858583331,2.496549104952812
1783170065322587400,1.93758740234375,16.18509899073243,1.8582925563387571,2.873605471289158
1783170065332567600,1.947567626953125,17.22843666155338,2.837428242492676,3.111231155103445
1783170065342515500,1.957515380859375,17.872306227743625,3.490205630020797,3.3467589898556467
1783170065352464400,1.96746435546875,18.32704321513176,3.7928620044112202,3.530963464605808
1783170065362443500,1.977443603515625,18.648184217500685,3.9460198912516233,3.688604926601052
1783170065372392400,1.987392333984375,18.656498456859588,3.9091652015849947,3.926302214346826
1783170065382341600,1.997341552734375,18.714132315182685,3.613609306849539,4.455318197649717
1783170065392289500,2.00728955078125,18.39964901713729,4.1900741468086835,4.700517531588673
1783170065402269700,2.017269775390625,17.600724498313664,4.3746901249691845,4.6815500885292884
1783170065412217600,2.027217529296875,17.01170763529539,4.356538674467802,4.771830371174216
1783170065422166500,2.03716650390625,16.191303106069565,4.597530327583849,4.59712729974091
1783170065432115500,2.047115478515625,15.011235243856905,4.638971468257904,4.318021020025014
1783170065442094600,2.057094482421875,13.987054693448544,4.288329061594605,4.150642592391372
1783170065452043500,2.06704345703125,12.903930955684185,4.192622077725828,4.01598248527199
1783170065461992400,2.076992431640625,12.34723464603424,4.025577119830251,3.2810411937981843
1783170065471971600,2.0869716796875,11.545525464928149,3.8831051699161527,3.0645214263767
1783170065481920500,2.09692041015625,10.577674119985103,3.512483220541477,2.7958395100414752
1783170065491868400,2.106868408203125,9.959329455673695,2.653594646881521,2.403313771894574
1783170065501817300,2.1168173828125,9.281300430250168,1.908139121786505,2.1802488206133246
1783170065511796500,2.12679638671875,8.64903771522343,1.2628539897099136,1.7598527865052223
1783170065521745400,2.136745361328125,7.908142776042222,0.5722170097889379,1.0663204870015381
1783170065531694600,2.146694580078125,7.232970309093594,1.6198890200197695,0.005216419474035501
1783170065541642500,2.156642578125,6.712996587163209,1.4081065102532506,0.049690498103201385
1783170065551622700,2.16662255859375,5.513272422844171,-0.04060344774089753,0.29464418671801684
1783170065561570600,2.176570556640625,3.3333746076256037,0.7575031788285821,0.5529129917189478
1783170065571519500,2.18651953125,1.3904413819640875,0.662044543697685,0.4589078433319926
1783170065581468700,2.19646875,-1.9055086271524428,0.46604675530120726,-1.0524252326399088
1783170065591447600,2.206447509765625,-5.32737166557014,-0.22178864773511886,-3.4933623404860494
1783170065601396500,2.216396484375,-9.083611620026826,-0.2731975671287626,-4.584167864924669
1783170065611345400,2.226345458984375,-14.721296019959448,-0.13969116008915006,-5.5671413756757975
1783170065621324500,2.236324462890625,-20.39579945372343,0.16780644378736614,-8.343021216750145
1783170065631273500,2.2462734375,-25.39983289914131,2.7947721730709074,-13.566375458484888
1783170065641221600,2.2562216796875,-28.26537430644035,6.70413640435934,-18.779516933763027
1783170065651170600,2.266170654296875,-29.198294623255727,9.163041130572557,-20.68179198582172
1783170065661149400,2.2761494140625,-30.121299110734462,10.260563980567454,-19.552710799002647
1783170065671125200,2.286125244140625,-29.295559065699575,10.320948598903417,-17.18554795241952
1783170065681074200,2.29607421875,-27.937499611902236,8.569474933686852,-14.387500118678807
1783170065691022000,2.30602197265625,-26.40937935951948,5.530429309350252,-12.407572502619027
1783170065701002200,2.316002197265625,-23.50889990983009,2.717099735325575,-11.457173812258242
1783170065710950100,2.3259501953125,-19.56437668687701,0.8789835594445466,-9.926743529367446
1783170065720899000,2.335899169921875,-15.14384806305766,-0.20990151832550763,-7.588313440793752
1783170065730878200,2.345878173828125,-10.121395163851975,-1.089506424538791,-5.41828995385766
1783170065740827100,2.3558271484375,-4.842010407337546,-1.5231445097967982,-3.0912747010067103
1783170065750776000,2.365776123046875,-0.31312486917376514,-1.432101572216302,-0.7950017924219369
1783170065760725200,2.375725341796875,3.590641980499029,-1.0850324209298938,0.8896753415897488
1783170065770704400,2.385704345703125,7.059566045299172,-0.21602186436932533,2.0287451307207345
1783170065780653300,2.3956533203125,9.767065008586645,0.7348181034855544,2.8424080767318607
1783170065790601200,2.405601318359375,11.66613571164608,1.7878470011070369,3.3640240129113197
1783170065800550100,2.415550048828125,13.350230954116583,2.5852295511856673,3.8486511116504665
1783170065810529300,2.425529296875,14.585263747704028,2.9784961708277464,4.139781006637215
1783170065820478200,2.435478271484375,15.325764134609699,3.0975393143594263,4.023692913518846
1783170065830427100,2.44542724609375,15.96301457492113,2.826373472253978,3.981326474693417
1783170065840376000,2.4553759765625,16.428960354065893,2.308303245857358,4.070534451931715
1783170065850355200,2.465355224609375,16.778850481057166,2.1848855405032634,3.9859956355482336
1783170065860303000,2.47530322265625,16.763673954713344,2.629242880435288,3.6090149647966023
1783170065870252000,2.485251953125,16.80692623646259,2.9192390952169895,3.2614915669366717
1783170065880231200,2.495231201171875,16.80517500888109,3.0018197632700203,3.0065114282175895
1783170065890180000,2.50518017578125,16.71716939316988,3.1072242575496434,3.109064332458377
1783170065900129000,2.51512890625,16.261911012256146,3.5962434537678956,3.0940608245939014
1783170065910078000,2.525077880859375,15.43163741544485,3.958621890932321,2.730731954836845
1783170065920057000,2.53505712890625,14.618962603688239,4.011953668147325,2.15799388031587
1783170065930006300,2.54500634765625,13.922858992391824,3.775904147608578,1.4889697068639098
1783170065939954000,2.554953857421875,13.306056296825409,3.5032658948630093,0.6340240986760706
1783170065949903400,2.5649033203125,12.799974906647204,3.2715269309997557,-0.37439441711809485
1783170065959882200,2.57488232421875,12.150517311191559,2.7964368914127347,-1.1803881802082061
1783170065969831200,2.5848310546875,11.183628089278935,1.9723583498492836,-1.6898437229946255
1783170065979780000,2.594780029296875,11.192920818281173,1.6626019341953098,-2.5230855219617485
1783170065989759200,2.60475927734375,10.354517691028118,1.9256665951706469,-2.591460846790671
1783170065999708200,2.614708251953125,9.525935700565576,1.6122637858383357,-2.3311802635759116
1783170066009657000,2.624656982421875,9.411479300302267,1.6072110324934124,-2.547496909640729
1783170066019605200,2.634605224609375,9.372595735156535,1.902386403478682,-2.663432442545891
1783170066029584100,2.644584228515625,9.384546285191178,1.8811882787577807,-2.5706395925581456
1783170066039533000,2.654532958984375,9.166350693511962,1.4064780322685837,-2.0607218390874564
1783170066049482000,2.66448193359375,8.846734708753228,0.5940392212249338,-1.3916729695856571
1783170066059431200,2.67443115234375,7.708556023243069,-0.11048545080572367,-0.6033703094761819
1783170066069410000,2.68441015625,4.8960196454226965,-1.276122928866744,0.5134293783208355
1783170066079359000,2.69435888671875,0.8659995747089385,-2.7332226026088,1.4152677801847457
1783170066089307100,2.70430712890625,-5.848734211510419,-3.306842282269895,1.7646832754015922
1783170066099256000,2.714256103515625,-14.01676827918887,-3.623877895146608,1.3714393059827386
1783170066109235000,2.72423486328125,-22.295741094398497,-3.319868644842505,0.1429155289631337
1783170066119184100,2.73418408203125,-29.847394491314887,-1.446166484056413,-1.7138773634023963
1783170066129133300,2.74413330078125,-35.20017941508293,1.6402695447474718,-3.8331332245230674
1783170066139112200,2.7541123046875,-39.719772808766365,4.202332447618246,-5.626951408994198
1783170066149061000,2.76406103515625,-43.27837480640411,6.033169572407007,-7.386492060810327
1783170066159010000,2.774010009765625,-43.63019619371891,7.562645915573835,-9.56561596904695
1783170066168958200,2.783958251953125,-40.90029192187786,7.905783061173557,-10.741730709719658
1783170066178938000,2.793938232421875,-35.664977193236346,7.102208670717477,-9.916563496136664
1783170066188886300,2.80388623046875,-29.561752672350405,5.311571454370021,-7.45129566463232
1783170066198835200,2.813835205078125,-23.26884144591093,3.023972850628197,-4.086237632498145
1783170066208784100,2.8237841796875,-17.1511920938313,0.8523080992911011,-1.308238315051794
1783170066218763000,2.833762939453125,-11.654877820050716,-0.14738569664712994,0.2310046582393348
1783170066228712200,2.843712158203125,-6.35428017963767,-0.4480734378457069,0.9759765645358711
1783170066238660000,2.85366015625,-1.441269067403674,-0.7038484532695263,1.2694956196814775
1783170066248640000,2.863639892578125,2.6121874084770678,-0.7312370301283896,1.3487015506044029
1783170066258588200,2.873588134765625,5.639355548015237,-0.0696212332367897,1.0222533817380666
1783170066268537000,2.883537109375,8.26089530672729,1.0583522846013307,0.43205929163396356
1783170066278486300,2.893486328125,10.657155068457126,2.1946010249622163,-0.010208967064321041
1783170066288465200,2.903465087890625,12.632426383143663,3.047423284320533,0.0024951778165996073
1783170066298414300,2.913414306640625,14.129727134370803,3.7729298079729077,0.4518758988685906
1783170066308363300,2.92336328125,15.250049845194816,4.240695203760266,0.9674479517739265
1783170066318311200,2.933311279296875,16.10761126190424,4.007155912476778,1.496012757243216
1783170066328291000,2.943291015625,16.75203963102102,3.683539459905028,2.378023847815394
1783170066338239200,2.9532392578125,16.7694233120203,3.638620998509228,2.594656720222533
1783170066348188200,2.963188232421875,16.959406954693794,3.219431125320494,2.523043728646636
1783170066358137000,2.97313720703125,16.978090612375734,3.1821184627532957,2.3671419499255717
1783170066368116200,2.9831162109375,16.872027946448323,3.2731849273398517,2.1720554311551155
1783170066378065200,2.993065185546875,16.70373941823244,3.2299744389057157,1.9005719014026223
1783170066388013000,3.003012939453125,16.342255884081123,3.2161092874214052,1.6806942018553614
1783170066397993000,3.012992919921875,15.814661750274896,3.209979406364262,1.7228405681893229
1783170066407941000,3.022941162109375,15.18427944216728,3.248963217014074,1.7902772969938814
1783170066417890000,3.03289013671875,14.47470493940115,3.2078143372848626,1.7587796043157577
1783170066427839000,3.0428388671875,13.811971682786941,3.1031860880747435,1.6177908786967397
1783170066437818000,3.052818115234375,12.906881622183322,3.2227672840058803,1.4074084449864923
1783170066447767300,3.062767333984375,12.062733813798427,3.057132777430117,1.0438738235242664
1783170066457716200,3.07271630859375,11.632981630063057,2.901559646141529,0.5800047045230865
1783170066467664100,3.0826640625,10.723065756738185,2.9004028773218393,0.39418008122518655
1783170066477644300,3.092644287109375,10.251017569065093,2.7560058045640585,-0.05427592619732022
1783170066487592200,3.10259228515625,9.755409057584405,2.3664058907359835,-0.17014767315126955
1783170066497541000,3.112541015625,9.335501391515136,2.287327677845955,-0.34131036856397984
1783170066507520300,3.122520263671875,8.999241730469464,2.090623202484846,-0.3402279801547527
1783170066517469200,3.13246923828125,8.716217400527,1.6872618898078797,-0.06441504289582371
1783170066527418000,3.142418212890625,8.436562254756689,1.366217625811696,0.24824191650524735
1783170066537366300,3.1523662109375,7.7481696562290185,1.1272023873351513,0.45507717912793155
1783170066547346200,3.16234619140625,6.342753407973051,1.1946573824487625,0.3705386550053954
1783170066557294000,3.172294189453125,3.672017948937416,1.262928954642266,-0.017915888179838656
1783170066567243000,3.182242919921875,-0.5027700736731291,0.9508457765411585,-0.4761645369507372
1783170066577192200,3.192192138671875,-4.963648243537545,0.6430125109694897,-0.9548897181697189
1783170066587171000,3.202171142578125,-9.829062907338141,-0.06577647200871724,-1.7035096986450253
1783170066597120000,3.2121201171875,-15.57043096910715,-0.16978990922216325,-3.028499680402875
1783170066607069200,3.222069091796875,-20.883241609883306,0.5976435293272138,-5.840065167364478
1783170066617017300,3.232017333984375,-25.837819827258585,2.2613953642100095,-10.110547606623172
1783170066626997200,3.241997314453125,-30.156856746327875,4.363841690957546,-13.065114035809039
1783170066636945200,3.251945068359375,-34.02961120262146,4.99666788508594,-13.608808240544795
1783170066646894300,3.261894287109375,-36.34518064008951,4.850433952289819,-12.733135997605324
1783170066656873200,3.271873291015625,-36.34596857559681,4.959987382942438,-11.314105065494775
1783170066666822100,3.281822265625,-35.5567120488286,3.9208831119075414,-9.980345355695485
1783170066676803300,3.29180322265625,-33.667520934748644,2.476111004818976,-8.483267891830206
1783170066686752300,3.301752197265625,-30.020455056238173,1.6802150400362907,-7.109339253249764
1783170066696731400,3.3117314453125,-24.52684478071928,0.7679184090547263,-5.887007535803318
1783170066706679300,3.32167919921875,-17.873947565209864,-0.6505866725508124,-4.48979797487855
1783170066716628200,3.331628173828125,-10.82132154830694,-1.6301763130173086,-3.0368852314323185
1783170066726577400,3.341577392578125,-4.09892818724513,-1.9212148764587937,-1.5542986497342586
1783170066736556300,3.351556396484375,1.4743565134912728,-1.3647593898274004,-0.11640987241864204
1783170066746505200,3.361505126953125,6.000965923416614,-0.14149243735745548,1.1386033406630158
1783170066756454100,3.3714541015625,9.530997660130263,0.8554410635545849,2.2545693175822494
1783170066766433300,3.381433349609375,12.234835762822627,2.0174493913330136,3.260585850268602
1783170066776382200,3.39138232421875,14.253956740629672,3.076661069242656,4.098717759364843
1783170066786330000,3.401330078125,15.720812084710596,3.829689221549034,4.772771451416611
1783170066796279600,3.411279541015625,16.82036088757515,4.299648912510276,5.276428244796395
1783170066806258400,3.421258544921875,17.641045987308026,4.582389457075298,5.620965904843807
1783170066816207400,3.431207275390625,18.14158494092822,4.675787871740758,5.8877948867887255
1783170066826156300,3.44115625,18.35649142793417,4.48199080825895,5.979290682703256
1783170066836105500,3.45110546875,18.385626337003707,4.299767862714827,5.936779574710131
1783170066846084400,3.46108447265625,18.027942195135353,4.268277330429852,5.7932087236434215
1783170066856033300,3.471033203125,17.41680468572378,4.402593738678098,5.4917661089569325
1783170066865981400,3.4809814453125,16.647618302559852,4.679703291618824,5.068498026543855
1783170066875960300,3.490960205078125,15.661635088598727,4.7826104161247605,4.604582584182918
1783170066885909200,3.5009091796875,14.722387906849383,4.758126547731459,4.106065784040093
1783170066895858200,3.510858154296875,13.797860155326127,4.796410685679316,3.6524417263299225
1783170066905807400,3.520807373046875,12.951604561007022,4.751791207230091,3.3129268628805875
1783170066915786200,3.5307861328125,12.135393391817807,4.60151968948096,2.9823081303313375
1783170066925735200,3.540735107421875,11.35574289778471,4.460736131045222,2.5941128226041794
1783170066935683300,3.550683349609375,10.763774199223517,4.115973430070281,2.3087623878017065
1783170066945632300,3.56063232421875,10.216438423115015,3.7926615134030577,1.992537214525044
1783170066955611100,3.570611083984375,9.710271108219027,3.549361583344638,1.7073919469058512
1783170066965560300,3.580560302734375,9.15641499043107,3.1629429299011824,1.484164206278324
1783170066975509500,3.590509521484375,8.447721946674585,2.7066823862075804,1.2518432047434151
1783170066985458400,3.60045849609375,7.565368618535995,2.460226330205798,1.0439588714592158
1783170066995437300,3.610437255859375,5.969367254582047,2.347261337544024,0.7617026032797992
1783170067005386200,3.62038623046875,3.8224019871503114,1.9810504826098678,0.27494316868707536
1783170067015334400,3.63033447265625,1.080302835124731,1.6153011077076196,-0.4154828353643417
1783170067025314300,3.640314208984375,-2.674664615178108,1.7868837090328336,-1.7717367010444403
1783170067035262500,3.650262451171875,-6.574469575482606,0.6911579715877771,-2.8182135466739533
1783170067045211400,3.66021142578125,-10.906830086505412,-1.8109025902628897,-3.1526322560280557
1783170067055160300,3.670160400390625,-16.98496692788601,-4.23217375139147,-3.2814597114711996
1783170067065139200,3.68013916015625,-23.375287558197975,-5.795460301962494,-4.600078550761938
1783170067075088400,3.69008837890625,-28.78867804957628,-5.8067439125210045,-8.71226369446516
1783170067085036300,3.700036376953125,-32.20706026014089,-4.5001443045869465,-14.948761544287203
1783170067094985200,3.709985107421875,-32.36564338690042,-2.8980691736772655,-19.331957924056052
1783170067104964400,3.71996435546875,-30.469164453899857,-2.154993675586581,-19.52426562576294
1783170067114913300,3.729913330078125,-27.62762117730379,-2.1687916070535778,-16.031976467466354
1783170067124862500,3.739862548828125,-23.932039981949327,-2.5863971336603164,-10.299152946680783
1783170067134841300,3.74984130859375,-20.33140384618044,-3.3538743748188016,-5.093543620473146
1783170067144790500,3.75979052734375,-16.990925544029473,-3.866438697275519,-1.677892734568566
1783170067154739500,3.769739501953125,-13.667636861610411,-3.795327517741918,-0.3272865193866193
1783170067164687400,3.779687255859375,-10.26366779180169,-3.3482629646778106,-0.3511865965425968
1783170067174667300,3.789667236328125,-6.551538781750202,-2.487980890832841,-0.8158312299609184
1783170067184615400,3.799615478515625,-2.601425191444158,-1.4268372219473122,-0.9730708331570028
1783170067194564400,3.809564453125,1.1519985365480183,-0.43612814850807186,-0.5399611556872725
1783170067204513300,3.81951318359375,4.351167502823472,0.46710108665972944,0.5293909540951252
1783170067214492400,3.829492431640625,7.112436050221324,1.3802028965443371,1.8257620134815573
1783170067224441300,3.83944140625,9.149089177587628,3.0630089759871364,2.3824317273855207
1783170067234389200,3.84938916015625,10.850781451547146,4.735194000433385,3.127052993613481
1783170067244338200,3.859338134765625,12.585258973777293,5.3482408505976196,3.9061657275080677
1783170067254317300,3.8693173828125,13.636222317171097,5.81318592826724,4.5922886275380845
1783170067264266200,3.879266357421875,14.28173322082758,5.989976327368617,5.222253002494574
1783170067274215200,3.889215087890625,14.633671512520312,5.873804355359077,5.671642199113965
1783170067284194300,3.8991943359375,14.864759903520344,5.737159504163265,5.8346051483929156
1783170067294143500,3.9091435546875,15.111494776463507,5.64130609756112,5.796997010010481
1783170067304092400,3.919092529296875,15.096783529543876,5.450269146442413,5.516342331808805
1783170067314040300,3.929040283203125,14.914448940318822,5.068492765846848,5.140033568969368
1783170067324020500,3.9390205078125,14.63947932201624,4.694439672979712,4.802426292707025
1783170067333968400,3.948968505859375,14.041936622714996,4.334793875649571,4.529612098872661
1783170067343917300,3.958917236328125,13.271356739366054,4.215646979482472,4.061735643926262
1783170067353866200,3.9688662109375,12.421415150010585,4.154143293988705,3.579634848794341
1783170067363845400,3.978845458984375,11.599176391094922,4.0158027447909115,3.1324481306552885
1783170067373794300,3.988794189453125,10.827671794116496,3.8932191521734,2.643924024477601
1783170067383742200,3.9987421875,9.881106398308276,3.818799286483228,2.1315442648075518
1783170067393722400,4.008722412109375,9.21374489737153,3.6042256846934553,1.7544550191149115
1783170067403670300,4.018670166015625,8.696573373380303,3.2581793736487623,1.4435396426841616
1783170067413619200,4.028619140625,8.275593694165348,2.9724057449981567,1.1900132099047303
1783170067423568100,4.038568115234375,7.818932460716367,2.661426363420486,0.9855750715516507
1783170067433547300,4.04854736328125,7.401112122315168,2.04475518527925,0.8776486575789749
1783170067443496200,4.05849609375,6.934981049731373,1.5364311307407914,0.6776183987960219
1783170067453445400,4.0684453125,6.330586000317335,0.9985957350358367,0.26529695007205006
1783170067463393300,4.078393310546875,5.407819997769594,0.7690798540495336,-0.1670472959831357
1783170067473373400,4.08837353515625,4.365167971125245,0.5550055800840258,-0.3416509986951947
1783170067483321300,4.0983212890625,2.9607500862568616,0.1786556084513664,-0.35005803090408444
1783170067493270300,4.108270263671875,0.30644086136519905,0.08883782875165343,-0.006050824471563101
1783170067503219500,4.118219482421875,-2.788236049300432,-0.2303597844645381,0.001532324133813381
1783170067513198300,4.1281982421875,-6.388262528738379,-0.6915515740152448,-0.13656740204542875
1783170067523147300,4.138147216796875,-10.505078839373589,-1.1209507795944809,-0.2764589800775051
1783170067533095400,4.148095458984375,-14.623971956282853,-1.5011267392560839,-0.7382360952354967
1783170067543075300,4.158075439453125,-19.94275290364027,-1.3776672405868768,-1.698446131645143
1783170067553023200,4.168023193359375,-24.88951021813154,-0.6675747052960097,-3.244493085862696
1783170067562972400,4.177972412109375,-27.699671683514115,0.32345424774736165,-5.674258519092202
1783170067572921300,4.18792138671875,-28.872267017889023,1.6229617054633796,-7.331116210547089
1783170067582900200,4.197900146484375,-29.394703330540654,1.8475111962139605,-7.01018505153656
1783170067592849200,4.20784912109375,-28.910525144612787,1.9340826874688266,-6.702043815994262
1783170067602798300,4.21779833984375,-27.430695752668377,2.309117777110636,-5.969764144945144
1783170067612746200,4.227746337890625,-25.694011075782775,2.1612840079024433,-4.612973103648424
1783170067622726400,4.237726318359375,-23.68003389060497,1.7297588231451808,-3.4341835908085105
1783170067632674300,4.24767431640625,-20.52905641604662,1.2365502124130725,-2.8307272835493085
1783170067642623500,4.25762353515625,-16.0560213599205,0.7235137423999607,-2.705729615527391
1783170067652602400,4.267602294921875,-10.847314067697525,0.15469883267208934,-2.545571202275157
1783170067662551300,4.27755126953125,-5.785874727493524,-0.15072276864796877,-1.9841293055333196
1783170067672525800,4.28752587890625,-1.0371458304435015,-0.09476663427874446,-1.0697146594844757
1783170067682474800,4.297474853515625,2.872163455787301,-0.0805232971318066,-0.12370324429720639
1783170067692454000,4.307453857421875,6.179425717034936,-0.3411103159472346,0.6519431286610663
1783170067702402800,4.31740283203125,9.378266182008385,-0.4994605107337236,0.7459894858412445
1783170067712350700,4.327350830078125,12.257109553951024,-0.03655599898099899,0.6310822000052779
1783170067722300000,4.3372998046875,14.305273086369036,0.7823603375136852,0.6992168479461223
1783170067732278800,4.34727880859375,15.697676708316802,1.3980875128030776,0.9744080000448971
1783170067742227700,4.357227783203125,16.55767441226244,1.565484060615301,1.444315010970831
1783170067752177000,4.367177001953125,17.003517314577103,1.8754957662045955,1.8832529562026261
1783170067762156000,4.377156005859375,17.125946593415737,2.258992686982453,2.2092720860019326
1783170067772105000,4.38710498046875,17.061213132220505,2.584780930635333,2.5329446526750923
1783170067782053000,4.39705322265625,16.833793200600145,2.8653397472471,2.7787054198890924
1783170067792002000,4.407001953125,16.403701994168756,3.0823367767915126,2.9388591569662093
1783170067801981000,4.41698095703125,15.86916607840061,3.233903887309134,2.987937368389964
1783170067811929900,4.426929931640625,15.142268684911727,3.4618042959228155,2.854746164779365
1783170067821878800,4.436878662109375,14.350243862473963,3.6988361054971812,2.629652922540903
1783170067831828000,4.446827880859375,13.470636618173122,3.9732022049486635,2.22013133366853
1783170067841806800,4.456806884765625,12.467201918673515,4.09824751150459,1.7122604297250508
1783170067851755800,4.466755859375,11.643517052602768,4.013532754032314,1.2620859279468655
1783170067861704000,4.476703857421875,10.835631813210249,3.88066712911427,0.8948071515202521
1783170067871652900,4.48665283203125,10.07399628381729,3.7400469445466995,0.6214065361000597
1783170067881631700,4.4966318359375,9.354146470752358,3.501913895732164,0.42574192518070336
1783170067891581000,4.506580810546875,8.529891695839167,3.199354259714484,0.24972718662694096
1783170067901529900,4.51652978515625,8.028729641884565,2.8985572494551537,0.04062865524739027
1783170067911508700,4.5265087890625,7.513916079196333,2.603341254198551,-0.21149477886632084
1783170067921458000,4.5364580078125,7.01570469174087,2.4440571395628155,-0.4685656062543392
1783170067931406000,4.546406005859375,6.434888086313009,2.328905596642196,-0.6759680012404918
1783170067941355000,4.55635498046875,5.763289386197925,2.2482946212269366,-0.8293233103491365
1783170067951334000,4.566333984375,4.7504111510485405,2.139857188992202,-0.6925318902894854
1783170067961283000,4.576282958984375,2.8455080885738133,1.9943598999075591,-0.5199895040214061
1783170067971232000,4.58623193359375,-0.021935352954268454,2.0254675703547895,-0.6034558688677847
1783170067981181000,4.596180908203125,-3.8145068499863144,1.6899078742720186,-0.6487643524944782
1783170067991159800,4.606159912109375,-7.951321408033371,0.4847292439393699,-0.4546069312676787
1783170068001109000,4.61610888671875,-11.197676488375663,-1.9175220132902264,-0.04997428348064422
1783170068011057000,4.626056884765625,-15.168848064279555,-4.300037911827862,-0.22923867148011923
1783170068021036800,4.636036865234375,-20.6078312620759,-5.035601719114184,-2.6064935807496306
1783170068030985000,4.64598486328125,-24.58709963519573,-4.02837639515996,-7.6862863237679
1783170068040934000,4.655933837890625,-26.536190214443206,-2.614559398305416,-12.269409063553809
1783170068050882800,4.6658828125,-27.54794616756439,-1.493520940427482,-14.475363111048935
1783170068060862000,4.675862060546875,-27.087670250749586,-0.5624257932126522,-13.763243599975109
1783170068070811000,4.685810791015625,-25.624410885334015,-1.0462389452204108,-9.479121342420578
1783170068080758800,4.6957587890625,-24.777436329090595,-2.879341676853597,-4.0865740248456595
1783170068090708000,4.7057080078125,-24.071434424114226,-3.655333063857257,-0.40323680951446295
1783170068100686800,4.715686767578125,-21.89671839544773,-3.8279078910902142,0.5819371338903904
1783170068110636000,4.725635986328125,-18.04081804332137,-3.8767102081820366,0.1578741017073393
1783170068120585000,4.7355849609375,-13.444914147895574,-2.4689441819295284,-0.9581965046301484
1783170068130534000,4.745533935546875,-8.413174949428438,-1.5999378266200421,-1.5361049675263463
1783170068140513000,4.755512939453125,-3.264101749435067,-1.8879386298008263,-1.246224634209275
1783170068150462000,4.7654619140625,0.9733885208040475,-1.4409350131437182,-0.5486610333628952
1783170068160409900,4.775409912109375,4.423614899396896,-0.504905624397099,0.26316139934808014
1783170068170390000,4.78539013671875,7.63425393871367,0.3149459471210837,0.9396721291631459
1783170068180338000,4.795337890625,10.439649797129631,1.0159428834170103,1.6574653019592165
1783170068190286800,4.805286865234375,12.53153439785242,1.430394037646055,2.3367189007416367
1783170068200235800,4.81523583984375,14.05578511532545,1.4898602259628473,3.07220555113852
1783170068210215000,4.82521484375,15.096163936340808,1.3674803392238915,3.607754443341493
1783170068220163800,4.835163818359375,15.730980427503585,1.214199995047599,3.941600613504648
1783170068230111700,4.84511181640625,16.11247916020155,1.220334990671277,4.109459810392559
1783170068240061000,4.85506103515625,16.222705960071085,1.4807742715790866,4.031230615547299
1783170068250039800,4.865039794921875,15.855141060179472,1.4100781025871634,3.6444337764412165
1783170068259989000,4.874989013671875,15.644199969673156,1.3400374748945236,3.3853298357903956
1783170068269938000,4.88493798828125,14.808043744564056,1.7202131422951816,3.110624713642895
1783170068279917000,4.8949169921875,13.975640149986743,1.8152160695478319,3.070670304395258
1783170068289866000,4.904865966796875,13.510948754817246,1.6471031901597977,2.8270737294778225
1783170068299815000,4.91481494140625,12.647678897333144,1.7830568442210555,2.3649815570212898
1783170068309763000,4.92476318359375,11.632350346422195,1.9049401796147225,1.994986507373303
1783170068319743000,4.934742919921875,10.832523325800896,1.833043110400438,1.7400380789667367
1783170068329691000,4.94469091796875,9.87893665305376,1.9845707656905054,1.3771550532810388
1783170068339639800,4.954639892578125,8.974604717341064,2.2633964748993516,1.0294456313297151
1783170068349589000,4.964589111328125,8.33007054976225,2.4077310038149355,0.7415171627327799
1783170068359568000,4.97456787109375,7.670733365327119,2.4683771956965326,0.45585941554680465
1783170068369516800,4.984516845703125,7.019663658499717,2.423211481541395,0.263241771107912
1783170068379465000,4.99446484375,6.476432979622483,2.2582643727079033,0.2506545306049287
1783170068389414000,5.004413818359375,5.6646706065356724,2.8593568734452126,0.07587211032509804
1783170068399392800,5.014392822265625,4.146339926761389,3.3552807344853877,0.2695353182941675
1783170068409341700,5.024341796875,3.0814439196050167,3.012877748379111,0.391042367721349
1783170068419291100,5.034291015625,1.589984880143404,2.7037840344175694,0.37953620045334097
1783170068429269800,5.044269775390625,-0.6287310337692499,2.3803406003251673,0.48166211145371196
1783170068439219000,5.054218994140625,-3.51732656891942,2.009747292523086,0.1277044427625835
1783170068449168000,5.06416796875,-6.329889834746718,1.5052718762367963,-0.7251933660499751
1783170068459116000,5.074115966796875,-9.681810737410187,0.5245911525979637,-1.5263576266244052
1783170068469096000,5.084095947265625,-13.318634038847684,-0.5764893898785114,-2.7894799118816853
1783170068479043800,5.0940439453125,-17.26418952745795,-2.0800474479347466,-4.415107767814398
1783170068488993000,5.103992919921875,-20.865294449782372,-3.012801760533452,-6.145522278389334
1783170068498942000,5.11394189453125,-23.996204118824004,-3.0395278548955917,-8.500667354920505
1783170068508920800,5.1239208984375,-25.883606595921513,-3.5915965047448872,-10.318873546195029
1783170068518869800,5.133869873046875,-26.26648012410402,-4.375720637060701,-10.854082831180095
1783170068528819000,5.14381884765625,-26.07841838940382,-5.052286311933398,-10.199915158337355
1783170068538797800,5.1537978515625,-25.835437316036224,-5.332567480647564,-8.39972393170297
1783170068548746000,5.16374609375,-24.538523528075217,-5.181065252059698,-6.269655438536406
1783170068558695000,5.17369482421875,-21.928934903919696,-4.552748644310236,-4.749958731105924
1783170068568643800,5.183643798828125,-18.479481847786904,-3.285077025185525,-3.21001126280725
1783170068578622700,5.193622802734375,-13.975737180620431,-2.0468569798640908,-1.94820385954082
1783170068588572000,5.203572021484375,-8.96135360610187,-1.2461300877936183,-0.8566556269761174
1783170068598521000,5.21352099609375,-4.068634171268344,-0.6204619487263262,0.31603111200928685
1783170068608469000,5.223468994140625,0.5358429067134857,-0.03887947349250316,1.069242658058554
1783170068618449000,5.233448974609375,4.903489835172891,-0.37568653928786516,1.41327850606367
1783170068628397000,5.24339697265625,9.150473909944296,-1.109999177469313,1.1836742161415517
1783170068638346000,5.253345947265625,12.777576027834415,-1.4136431015923618,0.622841098947823
1783170068648295000,5.263294921875,15.61978215225339,-0.12303192090690135,-0.32232893351186065
1783170068658274000,5.273274169921875,17.870735032904147,1.1227563677117227,-0.6073755265295505
1783170068668223000,5.283222900390625,19.778939475011825,0.956746305821836,-0.911371844286844
1783170068678187800,5.293187744140625,20.523335115790367,2.1186755770146846,-0.7408744078498333
1783170068688167000,5.3031669921875,20.37647516005039,3.1829633891448377,0.21820509015992282
1783170068698115800,5.31311572265625,20.449538058173655,3.5785718957379458,0.8587501881025731
1783170068708063700,5.323063720703125,20.059000278973578,3.688064536114037,1.7496315444812178
1783170068718013000,5.333012939453125,19.1778195017457,3.745845693953335,2.474616966868937
1783170068727991800,5.34299169921875,17.873239124679564,4.092783693140745,2.4624729400888086
1783170068737940700,5.352940673828125,16.23786261267066,4.3525878910154105,2.1305681132517753
1783170068747889700,5.3628896484375,14.30774912109375,4.664431488206982,1.5441060492828487
1783170068757837800,5.372837890625,12.081943541181086,4.936882986208796,1.0444777077015488
1783170068767817700,5.382817626953125,10.719733981966971,4.663384609502554,0.880228883330524
1783170068777765600,5.392765625,9.493550849789381,5.537346541392803,0.42744785231575366
1783170068787714800,5.40271484375,7.9388167312473055,6.013861645346879,0.8035334008585662
1783170068797693700,5.412693603515625,7.396116213724016,5.584858818674087,0.8730459860891103
1783170068807642600,5.422642578125,6.772039143240451,5.226916318130493,1.1463968440834431
1783170068817591600,5.432591552734375,6.570699409294128,4.790344225247204,1.410854639917612
1783170068827541000,5.442541015625,6.579357347524166,4.2312630662873385,1.4316598197981714
1783170068837520000,5.452519775390625,6.418630194473266,3.7618110325872895,1.3838589348338544
1783170068847468800,5.46246875,6.0187757208734745,3.175833098873496,1.335635148282349
1783170068857417000,5.4724169921875,5.323094134381413,2.7000392949312926,1.2505990499012172
1783170068867366000,5.482365966796875,4.781150572705268,1.9384109259314835,1.169110999390483
1783170068877344800,5.4923447265625,4.108995992273092,0.9155515411242842,1.298365155813098
1783170068887293700,5.502293701171875,3.1052193474680183,-0.17099691039174794,1.548061216649413
1783170068897243000,5.512242919921875,1.5622136606425046,-1.2161952605180442,1.8423222492687403
1783170068907221800,5.5222216796875,-0.9721984342366456,-2.0231452648870647,2.1615496731013057
1783170068917170700,5.532170654296875,-5.497366997703909,-3.310195392090082,2.438360096964985
1783170068927118800,5.542118896484375,-11.769548155325651,-4.32287839692831,2.2441695041209457
1783170068937067800,5.55206787109375,-18.334882822716235,-4.190958820688724,0.6865833571486175
1783170068947046700,5.562046630859375,-24.41850247942209,-1.8825740340277552,-2.9921731062635777
1783170068956995800,5.571995849609375,-28.99589573564529,1.4665072612956165,-7.473595174723863
1783170068966944800,5.58194482421875,-32.400270463645455,3.5434023826792833,-10.892359662604331
1783170068976893700,5.591893798828125,-34.197691641044614,4.4103836619019505,-12.378393169885873
1783170068986872600,5.60187255859375,-34.05257122244835,4.495329890042544,-12.454094599819182
1783170068996821800,5.61182177734375,-32.70368174805641,3.9770439750686286,-11.133933207261562
1783170069006770000,5.62177001953125,-30.528322745311257,3.0208959274008866,-8.550207923159002
1783170069016718800,5.63171875,-27.406613450813293,2.2693471999973056,-6.211369253784418
1783170069026698000,5.641697998046875,-23.105591496384143,1.9591040237396955,-4.410131440706551
1783170069036647000,5.65164697265625,-18.237845174765585,1.8225418823912738,-2.979500379434228
1783170069046595800,5.661595947265625,-13.305726626479625,1.5561752572610974,-2.019335205079615
1783170069056574700,5.67157470703125,-8.125834509852528,0.8309992076721042,-1.5413355616562068
1783170069066524000,5.68152392578125,-2.1528777063459157,0.04853340048994869,-1.6911439919382332
1783170069076471800,5.691471923828125,4.034051518186927,-0.7625489909760653,-2.0610933027483522
1783170069086420700,5.701420654296875,9.294432299023866,-1.7384544630371033,-1.9076915241494774
1783170069096400000,5.71139990234375,13.889600865912437,-2.372211508274823,-1.4153190719805657
1783170069106348800,5.721348876953125,17.06131717711687,-2.360068212147057,-0.6026885377570986
1783170069116297700,5.731297607421875,18.81774583439231,-1.687399544712901,0.2835095561761409
1783170069126246700,5.74124658203125,19.879456197249887,-0.9546646772421896,1.0059600532587618
1783170069136225800,5.751225830078125,20.276760401844978,-0.20997385290935636,1.5877008608594536
1783170069146174700,5.7611748046875,20.25217774925232,0.904934577780962,2.0049992212131618
1783170069156122600,5.77112255859375,20.285764377033708,1.9597385222509502,2.462147069135308
1783170069166102800,5.781102783203125,20.02219878079891,2.822324489124119,3.148791947212815
1783170069176050700,5.79105078125,19.438630830836296,3.3813758374676106,3.7156332187801597
1783170069186000000,5.800999755859375,18.735134186679122,3.987910529258847,3.9612943250119685
1783170069195948800,5.81094873046875,17.850353923654556,4.878033322355151,3.672824589145183
1783170069205928000,5.820927978515625,16.606339366710184,5.719617417731881,3.021923809143901
1783170069215876900,5.830876953125,15.284482860672473,6.287317351955175,2.4883979472011326
1783170069225824800,5.84082470703125,14.332013793778419,6.210073953276872,2.2254773708716034
1783170069235773700,5.850773681640625,13.552808705425262,5.813100588071346,2.1485940376773476
1783170069245752800,5.8607529296875,12.891612741380928,5.3625744963765145,2.108226663714647
1783170069255701800,5.87070166015625,12.208416542452573,4.8398026681602,2.013169375926256
1783170069265650700,5.880650634765625,11.592608703142403,4.3301852128103375,1.7359549013063311
1783170069275599600,5.890599609375,10.816798517924546,3.975034681072831,1.2618208472698926
1783170069285578800,5.900578857421875,9.827131647014617,3.5428275054007767,0.958238663271442
1783170069295527700,5.910527587890625,9.206551770997047,2.795658308255672,0.6499934558980166
1783170069305475600,5.9204755859375,8.890514229246973,2.2672397063240406,0.3546216855578124
1783170069315455700,5.930455810546875,8.65388807786405,1.8754326378405093,0.09639102061018347
1783170069325403600,5.940403564453125,8.190410734659434,1.499088949818164,-0.2251806282609701
1783170069335352800,5.950352783203125,7.5778808941066265,1.0751733632817864,-0.20318879587911068
1783170069345301800,5.9603017578125,6.385344595465064,0.5925258940525353,-0.05809314639791846
1783170069355281000,5.970281005859375,3.928306247645616,0.36954416407532986,0.2749162806801498
1783170069365229800,5.980229736328125,0.6300877090752124,-0.04429744342062622,0.4526673415072262
1783170069375178800,5.9901787109375,-3.765989779576659,-0.5409984993783756,0.3094303985700011
1783170069385127000,6.000126953125,-9.738077399033308,-0.5677911561707034,-0.34906522047445177
1783170069395105800,6.010105712890625,-17.42760665024519,-0.22721445390982553,-1.7302192802637815
1783170069405054700,6.0200546875,-26.24770294291973,1.2329995341941713,-5.069180748111009
1783170069415004000,6.03000390625,-33.05121508278847,4.409609170398116,-10.050487982457875
1783170069424982800,6.039982666015625,-38.66195886882544,7.813011253973841,-14.913325489246844
1783170069434931700,6.049931640625,-41.74007218270302,8.603152746883033,-18.18237054030299
1783170069444880600,6.059880615234375,-39.98005339198112,6.717346599066257,-18.98480686663985
1783170069454828800,6.069828857421875,-37.436263227903844,2.999790887790918,-15.989452499991655
1783170069464808700,6.07980859375,-34.28900331256389,-0.6465556634690612,-11.533556794714928
1783170069474756600,6.089756591796875,-30.59575786668062,-3.135216426324844,-8.680710033816098
1783170069484705800,6.099705810546875,-26.80869198132753,-3.7660762888163326,-7.564712200453877
1783170069494655000,6.109655029296875,-22.159077538502213,-3.242243261109292,-7.440320097109675
1783170069504633600,6.119633544921875,-16.807153030955792,-2.8768320321202276,-7.158859363222121
1783170069514582800,6.129582763671875,-10.51577792804241,-2.59191034412384,-6.401016211849451
1783170069524532000,6.139531982421875,-3.3563919105976816,-2.2289383249804375,-5.102297420293093
1783170069534480000,6.14947998046875,2.8710172083616254,-1.3215890872731804,-3.13350845336318
1783170069544459800,6.159459716796875,7.912239105445146,-0.12169307351857422,-1.0946265440315008
1783170069554408000,6.169407958984375,12.346000135803221,1.0515361748456955,0.6936898281529545
1783170069564356900,6.17935693359375,15.613732350695132,2.602509771810472,2.0052941125065087
1783170069574335700,6.189335693359375,17.560239343190194,4.222603959013521,2.6520839500576256
1783170069584284700,6.19928466796875,19.0784157091856,5.405491262561083,2.9402053108781576
1783170069594233900,6.20923388671875,20.28893248567581,6.22302111313343,3.2666783219248052
1783170069604181800,6.219181640625,20.714910996091366,6.607797844588756,3.5218121899008747
1783170069614161700,6.22916162109375,21.06514949812889,6.714605191403627,3.6569010438263416
1783170069624109800,6.23910986328125,21.293024187779427,6.690902244254946,3.8706303037464616
1783170069634058800,6.249058837890625,21.18236717979908,6.630653819519281,3.847676713660359
1783170069644007700,6.259007568359375,20.858364358258246,6.6093748846471305,3.6401743654310703
1783170069653986800,6.26898681640625,20.081595557141302,6.6173530239194625,3.0806045461714264
1783170069663936000,6.27893603515625,19.12802758909464,6.694017161405086,2.232781556405127
1783170069673901300,6.2889013671875,18.090449796974656,6.961151848298311,1.3753728460393846
1783170069683880400,6.29888037109375,16.927283969724176,7.048177220800518,0.7516006037212908
1783170069693829400,6.308829345703125,15.699759944331644,7.121140165680647,0.291946179805696
1783170069703777300,6.31877734375,14.663643456935882,7.06979050219357,-0.0890523482851684
1783170069713726500,6.3287265625,13.65480777517557,6.962399802532792,-0.5817036904606968
1783170069723705300,6.338705322265625,12.755565271556376,6.804595258930325,-0.968042483600974
1783170069733654500,6.348654541015625,11.81624794718027,6.398374172908067,-1.0789192718118428
1783170069743603500,6.358603515625,10.96438912602663,5.836999934574961,-1.037732398159802
1783170069753551400,6.36855126953125,10.212457829046249,5.164105349430441,-0.9791345901753753
1783170069763531500,6.378531494140625,9.536109304055572,4.465127351741493,-0.8634325006999075
1783170069773479400,6.3884794921875,8.96750979064405,4.014254054044187,-0.7203975100755691
1783170069783428400,6.398428466796875,8.320796525460482,3.689244101287424,-0.4031219509631395
1783170069793407500,6.408407470703125,7.248814943957329,3.5062396499767896,0.05685578662268817
1783170069803356400,6.4183564453125,5.186872477033734,3.6694676799327133,0.7350336459323763
1783170069813305300,6.428305419921875,2.640059165742993,3.5286335603535175,1.201426072866097
1783170069823254300,6.438254150390625,-0.6764589996278285,3.4243583623647686,1.450183903004229
1783170069833233400,6.4482333984375,-5.710830884686112,3.621023090237379,2.154560837127268
1783170069843182300,6.458182373046875,-10.765866787588596,3.4321669902890917,2.434300446310639
1783170069853130200,6.468130126953125,-15.281155762076377,3.0699986887440085,1.7350136749334633
1783170069863079400,6.478079345703125,-19.87967831556797,2.0427958679050207,1.1929714751884342
1783170069873058300,6.488058349609375,-24.443531706738472,1.2596831045888364,0.040833530169725414
1783170069883007200,6.49800732421875,-29.06796260846853,1.7785232924446464,-2.9489056269451974
1783170069892956400,6.507956298828125,-32.25790431219339,2.9328274755865333,-5.921564469921589
1783170069902904600,6.517904541015625,-34.133660775160784,3.515310552921891,-7.406054839414358
1783170069912884500,6.527884521484375,-34.66709077551365,3.3200413710609076,-7.711434793549776
1783170069922832400,6.537832275390625,-33.57102104693651,2.612899356138706,-6.603918957328796
1783170069932781600,6.547781494140625,-31.636985413479803,1.5642206165507435,-4.896951373314857
1783170069942760400,6.557760498046875,-28.734906711900233,0.44663686570394784,-3.4500551136791704
1783170069952709400,6.56770947265625,-25.233300274682044,-0.30015100397337224,-2.612465348635614
1783170069962658300,6.577658203125,-20.668378377497195,-0.6740890556260943,-2.393651625058055
1783170069972607500,6.587607421875,-15.239178907090425,-0.7751762712284922,-2.1928129725016654
1783170069982586400,6.59758642578125,-9.732301738241315,-0.9454292313851416,-1.6479028161048888
1783170069992535300,6.607535400390625,-4.3898318722605705,-1.309515787641704,-0.9278623027734458
1783170070002483500,6.6174833984375,-0.032987492844462396,-1.9595272175878284,-0.43199769763983786
1783170070012432400,6.627432373046875,3.2322149113088843,-3.0513886808201667,-0.5746772989552468
1783170070022411300,6.637411376953125,7.037422018030285,-2.882277438044548,-0.9325505336549132
1783170070032360200,6.647360107421875,9.9331335226655,-1.0094327708706259,-0.8635404911190271
1783170070042309600,6.6573095703125,12.71165598720312,1.6160808599084615,-0.8763605174645781
1783170070052288300,6.667288330078125,15.777211432802677,2.832195018014312,-0.6652037383809686
1783170070062237400,6.677237548828125,18.51936377632022,3.514516479934752,-0.29917203940600157
1783170070072185600,6.687185546875,19.980449889349938,3.9015912591993804,0.19213453709706663
1783170070082134500,6.697134521484375,20.30228764181137,3.7061481820762157,1.0301201695904134
1783170070092113400,6.707113525390625,20.09358994631767,5.2595583585381505,1.3732678365841506
1783170070102062300,6.717062255859375,19.9110297316432,5.234417487540841,1.9230637191958724
1783170070112011500,6.727011474609375,20.18473327553272,4.476621974702179,2.6206749585762616
1783170070121960400,6.73696044921875,19.631088170146942,4.163923514246941,2.95246361168772
1783170070131939300,6.746939208984375,18.394398841524122,4.435558142907917,2.875980968248844
1783170070141888300,6.75688818359375,17.023960383147,4.7579286870718,2.6166803359821436
1783170070151836400,6.76683642578125,15.650169107210635,5.030294844877719,2.2735167407669126
1783170070161785300,6.776785400390625,14.483422498863934,5.332879615336656,2.0605226632535456
1783170070171764500,6.786764404296875,13.354033853530883,5.511528209525347,1.857966685385257
1783170070181713400,6.79671337890625,12.407578347837925,5.676080473822355,1.5722836576275527
1783170070191662300,6.806662353515625,11.615430775803327,5.720087957853078,1.452444979804009
1783170070201641200,6.81664111328125,11.068687704890966,5.7241866253435605,1.3278162912249565
1783170070211590400,6.82659033203125,10.69884901484847,5.591368054437637,1.004564141920954
1783170070221539600,6.83653955078125,10.476163710534571,5.336608280470967,0.6973864907138049
1783170070231487500,6.846487548828125,10.257416914713382,4.884145960016548,0.8857106757424771
1783170070241466600,6.856466552734375,9.879857859551906,4.362810594344139,1.2358657372802495
1783170070251415600,6.86641552734375,9.338108943665027,3.899555661718547,1.2593655630722642
1783170070261364500,6.876364501953125,8.650949686324596,3.467258469675481,1.2152166978094725
1783170070271313400,6.8863134765625,7.887541886562109,2.83718712721318,1.157293647281453
1783170070281292500,6.89629248046875,5.964522737160324,2.4343299646660683,1.1269336533963679
1783170070291241500,6.906241455078125,2.2654063534170388,2.547097681190073,0.981847794656828
1783170070301189400,6.916189453125,-1.698259376901388,2.917305789066851,0.9157686179410666
1783170070311169300,6.926169189453125,-6.68272712110579,3.6415070753395553,0.8507081167485564
1783170070321117400,6.936117431640625,-13.465333835589885,4.753678336150944,0.4271142364472151
1783170070331066400,6.94606640625,-22.72724216762781,5.656453982332349,-1.1501003017112612
1783170070341015300,6.956015380859375,-31.467041519272325,7.643873415452242,-4.526995778894424
1783170070350994400,6.965994384765625,-35.52139523625374,9.46813174637258,-7.670001543921232
1783170070360943400,6.975943359375,-38.10858731968403,9.253927854678034,-8.403782267183065
1783170070370892500,6.985892578125,-39.74664678716659,7.791039076140523,-6.847409149262309
1783170070380840200,6.995840087890625,-38.59927941755056,6.096193891596794,-4.644420965835452
1783170070390820600,7.005820556640625,-36.82089261096716,4.6129754417359825,-2.97023658426553
1783170070400768500,7.0157685546875,-34.87861288077831,3.388514895567298,-2.1261961817778645
1783170070410717400,7.025717529296875,-32.14642195930481,2.4165219207748767,-2.2670063359595836
1783170070420666400,7.035666259765625,-27.695432730770108,1.4090329774484038,-3.009286445888877
1783170070430645500,7.0456455078125,-21.45420726790428,0.034797830202057956,-3.816852244068682
1783170070440594400,7.055594482421875,-14.258406121253966,-1.5254378814309835,-3.9618747552484272
1783170070450542300,7.065542236328125,-7.1922419928640124,-2.904681577554345,-3.4046965073004363
1783170070460522500,7.0755224609375,-1.0728864213883875,-3.562803540980816,-2.821504697173834
1783170070470470400,7.085470458984375,4.297190413442253,-3.5842940727770327,-2.650124924944341
1783170070480419300,7.09541943359375,8.94192176040113,-3.1679929067671297,-2.648819687564671
1783170070490368300,7.1053681640625,12.649822923624514,-2.493936292105913,-2.62969617716074
1783170070500347400,7.115347412109375,15.322481459677219,-1.6449043649412691,-2.7456276184126733
1783170070510296300,7.12529638671875,17.57971444351077,-0.9168813284233212,-2.809051750575006
1783170070520245200,7.135245361328125,19.316250651836395,-0.378595266341418,-2.4817609934046865
1783170070530193400,7.145193359375,20.305560964393614,-0.12321852952018379,-1.8912283189959822
1783170070540173300,7.15517333984375,20.748815603780745,0.1851646980844438,-1.1918984391294418
1783170070550121200,7.165121337890625,20.811614297521114,0.6518240323260426,-0.592967354209721
1783170070560070400,7.1750703125,20.703629723620413,1.1826517412260174,-0.09565529021415858
1783170070570049500,7.185049560546875,20.06187145049572,1.6482900618568062,0.22168990006837994
1783170070579998500,7.19499853515625,19.088292960077524,2.3100033277735115,0.36627654058150944
1783170070589947400,7.204947509765625,17.75306610033512,3.1732100568935273,0.5008879862535744
1783170070599895600,7.2148955078125,16.128043809080122,3.856354525634646,0.6777184981696307
1783170070609875500,7.22487548828125,14.494833535194395,4.61888232769221,0.8064092485558241
1783170070619823400,7.2348232421875,12.858816387194395,5.335787027215957,1.034738769301772
1783170070629772500,7.2447724609375,11.392434505844115,5.660787043100595,1.4306079726576804
1783170070639721500,7.254721435546875,9.971288773536681,5.867531850960851,1.7605530437290668
1783170070649700400,7.264700439453125,8.98265183019638,5.931061781585216,1.8702894297331571
1783170070659649300,7.274649169921875,8.256253033879398,5.8909033741980785,1.6097455194070935
1783170070669598500,7.284598388671875,7.99272484704554,5.874807394921779,1.1692541341882199
1783170070679577600,7.29457763671875,8.103706849196552,5.738708487170935,0.7293658294290304
1783170070689557500,7.3045576171875,8.350068797174096,5.466172233495116,0.3463664098445326
1783170070699505700,7.314505615234375,8.751194605883956,5.080260360530018,0.03961008932199329
1783170070709454800,7.324454833984375,9.20697613388896,4.84024135183841,-0.2896084575731307
1783170070719433500,7.33443359375,9.666353056037426,4.680741987016797,-0.31411775266863406
1783170070729382700,7.344382568359375,9.984901119303702,4.4149546230793,-0.12642426675893365
1783170070739331800,7.354331787109375,10.129857871770858,3.9087268101677295,0.25158706221468746
1783170070749279700,7.36427978515625,9.638958853155374,3.6315944608733055,0.6392597343072295
1783170070759259600,7.374259765625,8.613015969249606,3.4120649902418254,0.9932730056431144
1783170070769207800,7.384207763671875,6.830310130423307,3.151423172499239,1.1289332297157495
1783170070779156700,7.39415673828125,3.9667549285054204,2.820362541401386,0.960595674726367
1783170070789105700,7.404105712890625,0.4138233777195215,2.4703657391652465,0.47764133150503035
1783170070799084500,7.41408447265625,-3.7193846802681683,1.5863003464117644,-0.1493801218673587
1783170070809033700,7.42403369140625,-10.937952369999884,1.4334266833402216,-1.579713223106414
1783170070818982700,7.433982666015625,-19.2513394959867,2.283807248634845,-4.271493954388797
1783170070828961500,7.44396142578125,-27.93758378305435,4.7122529775679105,-7.9090376790553325
1783170070838910500,7.453910400390625,-37.035664657938476,7.6751909292578695,-10.496890856742858
1783170070848858600,7.463858642578125,-44.68533769958019,9.21411899138093,-11.15076042342186
1783170070858807600,7.4738076171875,-48.84862993018627,9.850415491968393,-9.934744464993477
1783170070868786700,7.48378662109375,-49.500451332163806,9.453795177984237,-7.4169059037744995
1783170070878735600,7.493735595703125,-46.939726399898525,7.820815205723047,-4.306020201107859
1783170070888684800,7.503684814453125,-41.70423397660255,5.822427219343185,-1.524340149322152
1783170070898632700,7.5136328125,-34.597485908889766,3.9787826354295013,0.5638105255693197
1783170070908612600,7.523612548828125,-26.418757428717612,1.7752423710778356,1.7909950898744165
1783170070918560800,7.533560791015625,-17.70099455231428,-0.7158360473789275,2.1088117701262235
1783170070928509700,7.543509765625,-8.891105765399336,-2.692410407488048,1.3275368897616862
1783170070938488800,7.55348876953125,-0.6002268238186836,-3.83378087477684,-0.10528901467379181
1783170070948437800,7.563437744140625,6.6558613260120145,-4.128575137490034,-2.0251741403661665
1783170070958386700,7.57338671875,12.651686379408835,-3.4499960769683122,-3.3861467051312326
1783170070968335600,7.583335693359375,17.40785331750512,-2.0832496049769222,-4.012271063533425
1783170070978314800,7.593314697265625,20.71195565341711,-0.9159969468042254,-3.9692105049639936
1783170070988263700,7.603263671875,22.79812830623388,-0.48320203437209125,-3.269960412335396
1783170070998211600,7.613211669921875,23.864574465441702,-0.3061246350228786,-2.281414508279413
1783170071008160500,7.623160400390625,23.987174424672126,-0.01545271293669939,-1.5104798201434313
1783170071018139600,7.6331396484375,23.270272355496882,0.6656584964111447,-1.014489250542596
1783170071028088600,7.643088623046875,21.92308500884771,1.6448482508398592,-0.7436538825005292
1783170071038037500,7.65303759765625,20.26600987524986,2.3678261327974495,-0.5732855888685211
1783170071047986700,7.662986572265625,18.591096302622557,3.1936779676437377,-0.45425683918837456
1783170071057965800,7.6729658203125,17.262537668597698,4.0384862857639785,-0.2670394463578239
1783170071067913700,7.682913818359375,15.990883409577608,4.659135719886422,-0.01103939000647515
1783170071077862700,7.692862548828125,14.902427663135528,5.132471609282494,0.3560870088700205
1783170071087841800,7.702841796875,13.97629949067831,5.61217528014481,0.6644048430882394
1783170071097790700,7.712790771484375,13.116286589163542,6.1595274228662245,0.6635609396100044
1783170071107739600,7.72273974609375,12.479049008333682,6.598332681629062,0.5194471042403951
1783170071117688600,7.7326884765625,11.8121258988142,6.949556103050709,0.2267171901784837
1783170071127667700,7.742667724609375,11.358759030735492,7.0822039935648435,0.03282009125514887
1783170071137616600,7.75261669921875,11.239780769133567,7.0945268840432165,-0.19788838791605085
1783170071147564500,7.762564453125,11.16860704575777,6.968423885127901,-0.33214539412725713
1783170071157513700,7.772513671875,11.318569643688202,6.5100821512460705,-0.3347850584484637
1783170071167492600,7.78249267578125,11.60071017653346,6.00269026299119,-0.3979403105415404
1783170071177441500,7.792441650390625,11.808816335874795,5.512198071610928,-0.5639611860863865
1783170071187390500,7.802390380859375,11.897907993257045,4.95793337302208,-0.6899739494349807
1783170071197369600,7.81236962890625,11.631438492274283,4.621832409669459,-0.8989300766691565
1783170071207318500,7.822318603515625,11.02843168234825,4.295632078084349,-1.132607315118611
1783170071217267700,7.832267822265625,10.086714311093091,3.773063663485646,-1.1549369280874728
1783170071227216000,7.8422158203125,8.644576644161344,3.0112545310914514,-0.7067914479188621
1783170071237195800,7.85219580078125,6.633860506606101,1.992927529016882,-0.31041378358416255
1783170071247143700,7.862143798828125,3.93644922209084,1.0486826120454817,-0.08712050343975425
1783170071257092600,7.872092529296875,-0.5172878438472748,0.5489694782575593,-0.02594751120507717
1783170071267041800,7.882041748046875,-7.690365702036023,1.0061720155090093,-0.6061858783535659
1783170071277020700,7.892020751953125,-16.190148090815544,2.6887001547932625,-2.428290684501827
1783170071286969600,7.901969482421875,-24.937808092832565,5.352950927984714,-5.665435161167383
1783170071296917800,7.911917724609375,-32.87073810412883,8.383385960364341,-8.331053715580701
1783170071306866700,7.92186669921875,-38.734748210704325,9.249189135718344,-8.85286634337604
1783170071316845600,7.931845458984375,-42.837500340151784,8.667926540088652,-8.180465679228305
1783170071326794800,7.941794677734375,-44.27841226468086,7.978720871612429,-7.695594834861159
1783170071336743700,7.95174365234375,-43.48199885189533,7.09595487101972,-7.9467311576336614
1783170071346722600,7.96172265625,-41.690200775074956,6.034332770967483,-8.17092686651051
1783170071356671500,7.97167138671875,-37.85498431453705,4.616466206461191,-7.762927080377936
1783170071366620400,7.981620361328125,-31.928612736594676,2.4438660009048876,-7.001697793698311
1783170071376568600,7.991568603515625,-24.601598116147517,-0.08329729188978671,-6.249669466084241
1783170071386548700,8.001548828125,-17.149444373381137,-2.3062943902529773,-5.522417852330207
1783170071396497000,8.011496826171875,-10.591134490060806,-3.8966640319302677,-5.032298001393675
1783170071406445800,8.02144580078125,-4.807890111070871,-4.760724163009226,-4.706733337363601
1783170071416394800,8.031394775390625,0.3012555676817894,-4.855594111531973,-4.413859229058027
1783170071426373600,8.04137353515625,4.629303476202487,-4.325549661964178,-4.153800179639458
1783170071436322800,8.05132275390625,8.262447212344407,-3.2754511187061666,-3.906780936796963
1783170071446270700,8.061270751953124,11.191459513556957,-1.976279614946246,-3.5894267594903706
1783170071456250600,8.071250732421875,13.418374516016245,-0.7330708214268088,-2.9475685331225394
1783170071466198800,8.08119873046875,15.038145462614297,0.3284209302440286,-2.033165139120072
1783170071476147700,8.091147705078125,16.288581577038762,1.3146025893867015,-1.114673014499247
1783170071486096600,8.1010966796875,17.20126691507697,2.137188846565783,-0.20640132818482815
1783170071496075500,8.111075439453124,17.833937041860818,2.864120726846158,0.42619668321087956
1783170071506024700,8.121024658203124,18.361981257522107,3.5547654882147905,0.8669584828689694
1783170071515973600,8.1309736328125,18.621209701335427,4.157187776251137,1.0860157328788191
1783170071525921500,8.140921630859374,18.63457888599634,4.639107369597256,1.3034276998996734
1783170071535901400,8.1509013671875,18.305165729844568,4.936930332481861,1.4906766569122671
1783170071545849600,8.160849609375,17.660816855704784,5.267890133553743,1.5508755434177814
1783170071555798800,8.170798828125,16.900864749354124,5.853764022371172,1.3704779136046767
1783170071565747700,8.180747802734375,15.992448759198188,6.536106234818696,0.973177946793288
1783170071575726800,8.190726806640624,15.202677853167057,7.244415832215547,0.3763572781562805
1783170071585675800,8.20067578125,14.63824247369766,7.989477827948331,-0.4580024919901043
1783170071595623700,8.210623779296874,14.135050959742069,8.527458915734291,-1.2630549191094935
1783170071605603600,8.220603515625,13.759671002185344,8.718982773587108,-2.1345073523968456
1783170071615551700,8.2305517578125,13.497208983278274,8.715656259512901,-2.891359739166498
1783170071625500700,8.240500732421875,13.331293613934516,8.521488024631141,-3.6545366527825593
1783170071635449600,8.25044970703125,13.128153552567959,8.197996075221896,-4.228333150315285
1783170071645428700,8.2604287109375,13.023219013887642,7.950214323574304,-4.831724867905676
1783170071655377700,8.270377685546874,13.045876251375674,7.60525230063498,-5.142327817386389
1783170071665326600,8.28032666015625,13.068404894047974,7.0879662103533745,-5.243353073668479
1783170071675305000,8.290304931640625,13.218058864420652,6.454781704306602,-5.132897141218185
1783170071685284900,8.300284912109374,13.23206517794132,5.696667334777117,-4.957934542065859
1783170071695232800,8.310232666015626,12.997677745395897,4.756363921973109,-4.639942943638563
1783170071705182000,8.320181884765624,12.14057342480421,3.6412849570214747,-4.002525622327625
1783170071715160800,8.330160888671875,9.848694659525156,2.672079274860024,-3.336051717880368
1783170071725109800,8.34010986328125,6.439646094495058,1.3299685008227824,-2.8901576699003577
1783170071735059000,8.350058837890625,2.298164129158854,0.45521004825998096,-2.8953894330739973
1783170071745006800,8.3600068359375,-2.3511995537757873,0.23535255125053225,-2.7617186292529103
1783170071754987000,8.369987060546874,-7.799720395246148,-0.5148351899981498,-1.2765659964591265
1783170071764935000,8.379934814453126,-15.641313600581883,-1.4708455827608704,-0.02974259263910353
1783170071774884000,8.389884033203124,-26.075409270715713,-0.2017300484381616,-0.3476289040610194
1783170071784833000,8.3998330078125,-34.17715154184103,1.976734665237367,-2.7218133198440073
1783170071794812000,8.40981201171875,-38.78837458695173,9.223862971282005,-6.750290252768993
1783170071804760800,8.4197607421875,-42.75878628439903,15.195254425168036,-8.436563423800468
1783170071814710000,8.4297099609375,-46.241377055501935,15.353459950786828,-6.453944668960571
1783170071824658000,8.439657958984375,-45.74913480558395,14.262281501382589,-3.716216571626067
1783170071834637800,8.449637939453124,-42.80563688290119,12.630728931576012,-1.7571936502985654
1783170071844586000,8.4595859375,-38.13438577780723,10.708466738021373,0.0873044817045331
1783170071854535000,8.469534912109374,-31.748435033142563,8.464346333739162,1.1112971813905983
1783170071864513800,8.479513671875,-24.754586199378966,5.7610968445897095,2.27162420501858
1783170071874462700,8.489462646484375,-17.945020750820635,3.3574238839939237,2.4477311519004403
1783170071884412000,8.499411865234375,-11.002288356310128,1.35427409003973,1.862172320381552
1783170071894361000,8.509361083984375,-4.553687970986962,-0.3707527361474931,0.991667543207854
1783170071904339700,8.519339599609374,0.8521826462805271,-1.6432587896913289,0.23925766893029213
1783170071914287900,8.529287841796876,5.500207774087786,-2.377924917485565,-0.44021169149465855
1783170071924237000,8.539237060546874,9.569239420241116,-2.896495933011174,-0.8770628935802728
1783170071934186000,8.54918603515625,12.716249160212278,-2.992635170817375,-0.821420282139629
1783170071944164900,8.559164794921875,14.983362902069091,-2.744855464996397,-0.5733832040240988
1783170071954114000,8.569114013671875,16.55845533350706,-2.215180579393357,-0.566215467819199
1783170071964063000,8.57906298828125,17.695577203440664,-1.7100788479022682,-0.45439036590754983
1783170071974041900,8.589041748046874,18.481901768410204,-1.3076947096943854,-0.3303338511932641
1783170071983990800,8.59899072265625,18.930078082108498,-0.7602896677419543,-0.3366821973066777
1783170071993939000,8.60893896484375,19.17288146082163,-0.26306224982254206,-0.3224352068979293
1783170072003887900,8.618887939453124,19.231352354490756,0.05092997677028179,-0.47960240244492885
1783170072013867000,8.628866943359375,18.91599344265461,0.7034056048728525,-0.502371502809599
1783170072023816000,8.63881591796875,18.20253303836584,1.6353858643591404,-0.4991318633012473
1783170072033764900,8.648764892578125,17.513793233835695,2.5664295736476777,-0.586838569131121
1783170072043713800,8.6587138671875,16.928128019332885,3.522018526127934,-0.7468767900697887
1783170072053693000,8.66869287109375,16.428974382591246,4.40239470897466,-0.8778161961656064
1783170072063642000,8.67864208984375,16.339313400888443,5.012200969782471,-0.9501752568684517
1783170072073589800,8.68858984375,16.5801995478034,5.429725540107488,-1.0302709762379527
1783170072083569000,8.69856884765625,16.435930193078516,5.659327491942047,-1.156608149235323
1783170072093518000,8.70851806640625,15.93240900877714,6.0852241692930455,-1.3175529636248946
1783170072103467000,8.718467041015625,15.321132383155822,6.367199866965413,-1.5117441409908234
1783170072113416000,8.728416015625,14.676444486320017,6.212515501210093,-1.5015968409858642
1783170072123395000,8.73839501953125,13.968010970282554,5.79947888995409,-1.2560919482290744
1783170072133344000,8.748343994140624,12.831328660809993,5.230270889255404,-1.0736549946080893
1783170072143292000,8.7582919921875,11.321712033367156,4.3866661017060276,-1.072602051489055
1783170072153240800,8.76824072265625,9.958859500074386,3.4438115431144833,-1.0189303017299622
1783170072163220000,8.778219970703125,8.142482862314582,2.642972715102136,-0.9298906667958945
1783170072173169000,8.7881689453125,5.62884818252623,2.203934378235787,-0.8350108544662594
1783170072183117800,8.798117919921875,3.0501462795436383,1.7643242328308522,-0.943946080155298
1783170072193066800,8.808066650390625,0.24354338342547416,1.6565278749786316,-1.1972915303446352
1783170072203046000,8.8180458984375,-4.290267336180806,2.282095476280898,-1.8008480831079183
1783170072212994800,8.827994873046874,-10.050101028966903,3.0227760420590637,-2.4909829952582716
1783170072222942700,8.837942626953126,-14.795343252944946,4.366277101410925,-3.3603727969273924
1783170072232923000,8.8479228515625,-20.321752220737935,6.734198365145922,-3.7539018668979405
1783170072242870800,8.857870849609375,-26.038416049361228,7.574355058068036,-2.9835926171839238
1783170072252820000,8.867820068359375,-29.30103486676216,8.057685687255859,-2.4583938540816304
1783170072262769000,8.877768798828125,-31.463298241090772,9.759638073456287,-2.2899016199871896
1783170072272748000,8.887748046875,-32.65345962729454,10.215932227158547,-1.8406626454934476
1783170072282697000,8.897697021484374,-32.67266701658964,10.009502476596833,-2.027116506605595
1783170072292644900,8.907644775390626,-31.859248692989347,9.872964008384942,-2.3891741873830554
1783170072302594000,8.917593994140624,-30.884282547605036,9.398615142554045,-2.1651614338576795
1783170072312573000,8.927572998046875,-29.305514642524717,8.287538398981093,-1.7536738056093453
1783170072322521900,8.93752197265625,-26.362858431363104,6.800112560558318,-1.655185082067549
1783170072332470800,8.947470703125,-22.82959662668705,4.791424713960289,-1.7587632377028464
1783170072342450000,8.957449951171874,-18.50331865044832,2.249156352622807,-1.9712309532545507
1783170072352398800,8.96739892578125,-13.439974937927722,-0.3661588324859738,-2.2233935503348707
1783170072362347800,8.97734765625,-8.133260860460997,-2.600434134580195,-2.304856028012931
1783170072372296000,8.9872958984375,-2.8273540077239274,-3.51771819858551,-2.3616616188183426
1783170072382275800,8.99727587890625,2.2401322114288806,-3.7600071980357166,-2.272520569336414
1783170072392223700,9.0072236328125,6.822543003553152,-3.768302148172259,-1.9425538709551096
1783170072402173000,9.0171728515625,10.233387219828366,-3.080825495445728,-1.213839929563552
1783170072412122000,9.0271220703125,12.544711859333514,-2.0279203703343867,-0.3610996859328821
1783170072422101000,9.03710107421875,14.183919327807425,-0.9116926737390458,0.5012256207101047
1783170072432050000,9.0470498046875,15.518085864841938,0.08097074863836169,1.1969158289000392
1783170072441998000,9.056998046875,16.466030732309818,0.8763584716379642,1.7038702025204895
1783170072451947000,9.066947021484374,17.048714885175226,1.3168597206637263,2.158545522849262
1783170072461926000,9.07692578125,17.561015588259696,1.4344889057442545,2.539045307637751
1783170072471875000,9.086875,17.57730504428148,1.7242134639777242,2.663728502883017
1783170072481824000,9.096823974609375,17.510365597474575,2.1400509579986333,2.5136916706725954
1783170072491803000,9.106802978515624,17.255529251140356,2.3757002271734176,2.5390496915519236
1783170072501751800,9.116751708984374,16.690192538917064,2.5884707250639796,2.5664450634777545
1783170072511701000,9.126700927734374,16.007545790565015,2.863835480163991,2.421665421143174
1783170072521649000,9.13664892578125,14.923473958295583,3.1979826791003343,2.128063583084941
1783170072531628800,9.14662890625,13.713477406287193,3.532831888826191,1.633297659908235
1783170072541577000,9.156576904296875,12.672153997898102,3.8282057049930094,0.9891250921834259
1783170072551526000,9.16652587890625,11.634026755201816,4.057648666873574,0.3477030652757734
1783170072561474800,9.176474853515625,10.761167231595515,4.11193701416105,0.06342274392284453
1783170072571453700,9.18645361328125,10.047363128435611,4.019966001950204,0.012629581807367504
1783170072581403100,9.196403076171874,9.537440844920278,3.9053643479973075,0.01461365003036335
1783170072591350800,9.206350830078126,9.293612214812637,3.7515573495984076,0.0498921033562161
1783170072601331000,9.2163310546875,9.143113610309362,3.531157525873184,-0.051132586670294404
1783170072611279000,9.226279052734375,8.990244185021519,3.314069018653035,-0.37690190642699595
1783170072621228000,9.23622802734375,8.780306718599796,3.083804803517461,-0.5517280197180807
1783170072631177000,9.246177001953125,8.637785084325074,2.7205782250910997,-0.57539859896712
1783170072641155800,9.25615576171875,7.8969795769929885,2.3792221176892516,-0.3233810363806784
1783170072651105000,9.26610498046875,6.258886791762709,2.1175890969522295,-0.12307755014691502
1783170072661054000,9.276053955078124,4.129727814656496,1.4310582006432115,-0.4702074551772326
1783170072671001900,9.286001953125,0.5194242713540792,0.7290715226575731,-0.9938576005980372
1783170072680994300,9.295994384765624,-2.5819296328574417,-0.004967413149029016,-1.8722801651589571
1783170072690942200,9.305942138671876,-4.117513645249605,-1.7485479870282112,-2.419138533014059
1783170072700891100,9.31589111328125,-8.276722990456223,-2.8272710056155916,-1.3089176756180823
1783170072710840300,9.32584033203125,-13.107272092580795,-3.120669430056214,-0.07719656386189162
1783170072720819200,9.335819091796875,-16.21831035546064,-2.74165199277997,0.25243761462941766
1783170072730768100,9.34576806640625,-18.584404696029424,-1.9839293990470468,0.26465719086378814
1783170072740717000,9.355717041015625,-19.81004071571827,-1.1236005634509025,0.18707608466371892
1783170072750696200,9.3656962890625,-20.792603307580947,-0.6974810371294617,-0.09205416044965385
1783170072760644000,9.37564404296875,-21.61985375717878,-0.7710777498684823,-0.7231345338240266
1783170072770593300,9.38559326171875,-21.696648243045807,-0.830339647784829,-2.066026959758252
1783170072780542500,9.39554248046875,-21.14780556950569,-0.7831732613317668,-3.8061943641930815
1783170072790521300,9.405521240234375,-20.203307043099404,-0.5462197776906192,-5.591778388804197
1783170072800470300,9.41547021484375,-18.745180948919057,-0.4668324988514185,-6.606366350480914
1783170072810419200,9.425419189453125,-16.82357225083709,-0.7351321378707886,-6.787788501036167
1783170072820367400,9.435367431640625,-14.218720592075586,-1.2421123765848576,-5.913275365003943
1783170072830347300,9.44534716796875,-11.0569142649889,-1.396806386951357,-4.22250312898755
1783170072840295400,9.45529541015625,-7.9569018385142085,-1.4353323708310723,-2.2692130522236225
1783170072850244400,9.465244384765626,-5.112890125977993,-1.48864325138852,-0.6825159615792333
1783170072860223200,9.47522314453125,-2.3564824626147747,-1.4367112579688428,0.4551696066517383
1783170072870172200,9.485172119140625,0.44361061321794987,-1.3104321718342602,1.0379305510804056
1783170072880121300,9.495121337890625,3.0979385428100823,-1.1097532398842274,1.0182278525490314
1783170072890070300,9.5050703125,5.464846537849307,-0.7512137963607907,0.6192660169400275
1783170072900049200,9.515049072265626,7.73988639653027,-0.5539784289933741,0.1770830436387099
1783170072909998000,9.524998046875,9.64407751134336,-0.6289505217388272,0.0096013611265691
1783170072919946200,9.5349462890625,10.933244630700349,-0.6047749886423349,0.06759144444223493
1783170072929895400,9.5448955078125,11.806617364525794,-0.3566935233958065,0.21336342228241265
1783170072939874000,9.5548740234375,12.236465409851073,-0.24011340897679329,0.39375396476760505
1783170072949823500,9.564823486328125,12.364273459118603,-0.23091055021509527,0.6208909877933562
1783170072959772400,9.5747724609375,12.304335415506362,-0.14884411529451608,0.7797958938531577
1783170072969751300,9.584751220703126,12.127255678069591,0.03815452021881938,0.7683679794531315
1783170072979700200,9.5947001953125,11.87240530321002,0.34707711539715524,0.6362821067359298
1783170072989648400,9.6046484375,11.555760443216561,0.677191113294661,0.4986554414285347
1783170072999597300,9.614597412109376,11.134370429635048,0.9796274151936173,0.22784334466420111
1783170073009576400,9.624576416015625,10.842799220621584,1.3139742283552884,0.08769948150464334
1783170073019525400,9.634525390625,10.406142664325237,1.588586119261384,0.07063340595401824
1783170073029474300,9.644474365234375,10.003054031109809,1.8712252492785453,-0.06882036518268286
1783170073039423200,9.65442333984375,9.794408942586182,2.1902093658745287,-0.21022622023522852
1783170073049402000,9.664402099609376,9.592954642349481,2.5650325663313267,-0.30411709459275005
1783170073059351300,9.674351318359374,9.433208317029475,3.1120185060888526,-0.44400680946130305
1783170073069299200,9.68429931640625,9.274735664907098,3.708225572872162,-0.5587340990878641
1783170073079248100,9.694248046875,9.325573871740698,4.123105473907292,-0.5721775180287659
1783170073089227300,9.704227294921875,9.475127888870238,4.322216133627295,-0.5609013601243495
1783170073099176200,9.71417626953125,9.203089063322544,4.37815721655786,-0.6924816214069723
1783170073109125400,9.72412548828125,8.90178439580202,4.2860520565733315,-0.6692395697683096
1783170073119104500,9.7341044921875,8.145389689671992,3.6799917042955754,-0.5116418373169377
1783170073129053400,9.744053466796874,5.967230827075243,2.757325947251916,-0.1797835165027529
1783170073139001300,9.75400146484375,4.10605234003663,1.6782257659152149,0.4908665045853704
1783170073148950300,9.7639501953125,2.5014941601395604,0.16297200936824083,1.1489300888881087
1783170073158929400,9.773929443359375,0.3369657634884119,-1.3606845416039228,2.1897323960125443
1783170073168878300,9.78387841796875,-3.053248337212205,-2.050365134115517,2.4052852180980144
1783170073178827300,9.7938271484375,-7.536614817738532,-3.0131755622819063,1.2165670164398847
1783170073188776200,9.803776123046875,-12.235808407247065,-5.14515924142003,0.5436760480245575
1783170073198755300,9.81375537109375,-16.391906342434883,-6.053862816345691,-0.894853913271427
1783170073208704300,9.823704345703124,-18.880055867832898,-5.6251943361937995,-2.181612802442908
1783170073218652200,9.833652099609376,-21.207464211654663,-5.593126296281814,-2.3525623665615916
1783170073228632300,9.84363232421875,-22.883760763072967,-5.391155863216519,-1.101044740510732
1783170073238580200,9.853580322265625,-22.56611987777948,-4.252212330813705,0.4194347878605127
1783170073248529200,9.863529052734375,-21.651142044889927,-3.584338204179704,1.5535253272742031
1783170073258478000,9.87347802734375,-20.370059447789192,-3.6364030301988124,2.6998154230475424
1783170073268457200,9.883457275390626,-18.85061934546828,-3.2148125256091356,2.4695821875721213
1783170073278406400,9.893406494140624,-17.136175726485252,-2.935634934222698,0.613831278540194
1783170073288354300,9.903354248046876,-14.900339750945568,-3.0329978686049577,-2.073868613169342
1783170073298303500,9.913303466796876,-11.665740574848652,-2.806984881173074,-4.22453726516366
1783170073308282400,9.923282470703125,-8.174479590556025,-2.4423680174320936,-4.477741918642819
1783170073318231300,9.933231201171875,-5.5693724957287305,-2.307359243005514,-3.042792701910436
1783170073328180200,9.94318017578125,-3.418436571100354,-2.161988064518571,-1.2995982047393917
1783170073338129400,9.95312939453125,-1.4311603458434343,-1.6732479775026439,-0.4891788437593728
1783170073348108300,9.9631083984375,0.38498540576994417,-1.43516870470196,-0.5601427603093907
1783170073358057200,9.97305712890625,2.518686702480912,-1.3482044147372245,-1.1431558894008398
1783170073368005400,9.98300537109375,4.891671971607208,-1.1514312580540775,-1.6959503693066535
1783170073377985300,9.9929853515625,7.2272343957900995,-1.0091849335893988,-1.6984996153980492
1783170073387933200,10.00293310546875,9.335805342897773,-0.8199491866737604,-1.128259349042177
1783170073397882000,10.012882080078125,11.283598868072032,-0.5134238618955016,-0.3063210709104314
1783170073407831300,10.022831298828125,12.877745544070004,-0.31450258726775643,0.618331512568891
1783170073417810200,10.03281005859375,13.71743812661171,-0.10063742600828408,1.480123552585393
1783170073427759000,10.042759033203126,14.03981948443055,0.2868593780606985,2.1124612325444816
1783170073437707300,10.052707275390626,14.073735782557725,0.7015437565237284,2.329371314457804
1783170073447656400,10.062656494140626,13.900234488129614,1.2480401591986416,2.2629123446442185
1783170073457635000,10.072635009765625,13.389966752177475,1.9422870367124676,2.030974789468944
1783170073467584300,10.082584228515625,12.80041329806447,2.6183400858879087,1.7775664301112293
1783170073477533400,10.092533447265625,12.187842540979384,3.049239686092734,1.579695541319251
1783170073487512300,10.10251220703125,11.558844380706548,3.2710502533987165,1.506087576533854
1783170073497461200,10.112461181640626,10.975707807898521,3.364614380019903,1.5968319695591926
1783170073507410200,10.12241015625,10.444356367385387,3.333315570914745,1.6564727837905286
1783170073517358300,10.1323583984375,9.921758726692198,3.271227948053181,1.4424448331847786
1783170073527338200,10.142338134765625,9.289885887765884,3.2459991065114733,1.069150888121873
1783170073537286400,10.152286376953125,8.704294323021173,3.1915611216202375,0.7548661813884973
1783170073547235300,10.1622353515625,8.279347493740916,3.071616353073716,0.363871525266394
1783170073557184300,10.172184326171875,8.051179958623647,2.974596825301647,0.015744937348924577
1783170073567163100,10.1821630859375,7.764343961438536,2.9172601963594555,-0.2485075086388737
1783170073577112300,10.1921123046875,7.3258140124857425,2.8873011114254594,-0.36005372054390605
1783170073587061200,10.202061279296874,7.095877129608392,2.7759607973560687,-0.19504618676006794
1783170073597009200,10.212009033203126,6.645689476087689,2.6771900420024988,-0.1368992643482983
1783170073606988300,10.22198828125,5.4860828026235104,2.636127963773906,-0.34819914169702676
1783170073616937500,10.2319375,3.056979924955964,2.7210598711282015,-0.3589871872909367
1783170073626886400,10.241886474609375,-0.42408992018997665,2.381905657684803,-0.3315592282697558
1783170073636865300,10.251865234375,-3.023743425786495,1.7409373658940195,-0.8166958839662373
1783170073646814500,10.261814453125,-6.030117783620954,1.2891662425741552,-1.7136171050310134
1783170073656763400,10.271763427734374,-9.607793899562955,-0.3115758861660957,-1.7082935719206929
1783170073666711300,10.281711181640626,-12.146841837549209,-2.553186353453994,-1.0164335895434022
1783170073676711000,10.2917109375,-14.6279139719069,-4.382878107599914,0.08374240530878305
1783170073686658800,10.301658935546875,-16.842358784371612,-5.258971498560905,-0.008473521573841571
1783170073696607700,10.311607666015625,-17.976615328001976,-5.42977931612134,-1.620809349735081
1783170073706556700,10.321556640625,-17.969058629012107,-4.685536527816951,-3.1068086624860762
1783170073716535800,10.331535888671874,-17.64084841890931,-3.899744170027971,-4.002456356483697
1783170073726484700,10.341484619140624,-17.245067478358745,-4.606640978017449,-3.6518335313037036
1783170073736433700,10.35143359375,-16.10815136013031,-5.184299996197224,-3.0840958954185247
1783170073746412800,10.361412841796875,-14.234420850032567,-5.391137743037938,-2.914289948377013
1783170073756361700,10.37136181640625,-12.82204645320177,-5.380474894726276,-3.0066391462504862
1783170073766309600,10.3813095703125,-11.515635353577137,-5.205287254646421,-3.1284903329402205
1783170073776258800,10.3912587890625,-10.089954900449515,-4.817891572864354,-3.143977240407467
1783170073786237700,10.40123779296875,-8.490356388786434,-4.1853816050782795,-3.146487177401781
1783170073796187000,10.411186767578124,-6.051257602283358,-3.648857730363309,-2.9951904082581398
1783170073806135800,10.4211357421875,-3.11532456189692,-3.3108862969636914,-2.4993080482721326
1783170073816084000,10.431083984375,-0.539833437654376,-3.0466911706537005,-1.724325399919599
1783170073826064000,10.44106396484375,1.0194307255327701,-2.1985653985485434,-1.0775743600089103
1783170073836011800,10.45101171875,2.2593594744682313,-1.913415747015178,-0.41820086215138436
1783170073845961000,10.4609609375,3.3523680619090794,-2.3768584572978315,-0.01821019495129585
1783170073855910000,10.470909912109375,4.3994805750936266,-2.449426849902421,-0.04048910064622759
1783170073865888800,10.480888671875,5.593719585999846,-2.0216433358915147,-0.32680691917613147
1783170073875837700,10.490837646484374,6.825947843560576,-1.5665728787653148,-0.776669578526169
1783170073885787000,10.500786865234375,8.057174815124274,-1.270317895849794,-0.8570202225048095
1783170073895765800,10.510765869140625,9.308555516922473,-1.1668519684173166,-0.3587636076681316
1783170073905714700,10.520714599609375,10.251522595977782,-1.212103607290238,0.2960376869030297
1783170073915662800,10.530662841796875,10.875912385672331,-1.1929254440896213,1.045101538688317
1783170073925611800,10.54061181640625,11.189043100064993,-0.9353028280377388,1.7939568622894584
1783170073935590700,10.550590576171874,11.363437543940544,-0.5433502136036753,2.3174936835289
1783170073945539800,10.560539794921874,11.548413003063201,-0.010700549973547458,2.695779591660201
1783170073955489000,10.570489013671875,11.57019696484804,0.4890623047076165,2.7612112642526623
1783170073965437000,10.58043701171875,11.470594434845447,0.896192322268337,2.6734499786913393
1783170073975416800,10.590416748046875,11.430814213120936,1.298524291897565,2.6285253798156973
1783170073985365000,10.600364990234375,11.33668163896203,1.4611984873630106,2.732910467919707
1783170073995314000,10.61031396484375,11.149051281416416,1.4572361596032977,2.785483243460953
1783170074005292800,10.620292724609374,11.032364345622062,1.4934715483278036,2.7722786017119883
1783170074015242000,10.630241943359374,10.840163026899098,1.6840777068138122,2.5739590923696753
1783170074025191000,10.64019091796875,10.434337662196159,2.101897752954066,2.2025708347976205
1783170074035139800,10.650139892578125,9.948216525506973,2.3199631423823535,1.8646194212727247
1783170074045118700,10.66011865234375,9.53072176579833,2.5412773044735193,1.4762079865768551
1783170074055068000,10.67006787109375,8.978931932890415,2.7604265436157585,1.1070845321316272
1783170074065015800,10.680015869140625,8.286969659182429,2.887898200535774,0.7963822869949042
1783170074074964700,10.68996484375,7.615002125754952,3.00621215301007,0.6885381444782018
1783170074084944000,10.69994384765625,6.911063583049177,2.907192099070549,0.7293045276958495
1783170074094892800,10.709892822265624,5.630213041138648,2.702591317501664,0.7320194857429713
1783170074104841700,10.719841796875,4.351398973491787,2.393658639320731,0.4267189535193145
1783170074114789600,10.72978955078125,3.1083062075674532,1.750589575858414,-0.0493091706354171
1783170074124770000,10.73977001953125,0.2845920176506042,1.0812357320606707,0.009566066050902008
1783170074134718000,10.749718017578125,-2.388004559081793,0.08166632968708873,0.4472923704706132
1783170074144667000,10.7596669921875,-5.532676796016097,-1.9457725407406687,1.1424410191297532
1783170074154646000,10.76964599609375,-10.279066436463594,-3.4536706738278267,1.753797431989014
1783170074164595000,10.779594970703124,-15.724618491256235,-3.8542335879579186,1.3184785540372133
1783170074174544000,10.7895439453125,-22.186208706533908,-3.7840328012675046,-0.7029172368340194
1783170074184492800,10.799492919921875,-26.293501402020453,-2.378436812530458,-4.295376057496667
1783170074194472000,10.809471923828125,-27.931668421530723,-0.11632175574377178,-8.103315804052352
1783170074204420900,10.8194208984375,-29.953592766320703,1.5285335093587635,-11.03727432949543
1783170074214368800,10.82936865234375,-30.06337532955408,1.7515246647514402,-11.539399675524233
1783170074224317700,10.839317626953125,-28.267057729482648,1.138191691122204,-10.030088168507813
1783170074234296800,10.849296875,-25.761549073004723,0.6287007847614586,-7.623094246795773
1783170074244245800,10.859245849609374,-22.690269989061353,0.3564243510656059,-5.463135057756304
1783170074254194700,10.869194580078124,-18.781214385330674,0.1873614774763584,-3.8849052050754427
1783170074264173800,10.879173828125,-14.083838658899069,-0.2093099821731448,-2.4023428810358047
1783170074274122800,10.889122802734375,-9.428124145632982,-0.7954713096298277,-0.8252548918664455
1783170074284070700,10.899070556640625,-5.603786806505918,-1.0663593577072024,0.422767877805978
1783170074294019800,10.909019775390625,-2.0870605415672063,-1.5928566361874341,1.2012616030193866
1783170074303998700,10.918998779296874,1.3175170155286788,-1.9065194116301833,1.4564170983053744
1783170074313948000,10.928947998046874,4.386896987852454,-1.37666814654693,1.338233786473423
1783170074323896800,10.938896728515624,7.1644205044806,-0.5906738364450633,1.0281976770952344
1783170074333845800,10.948845703125,9.3922076135993,-0.1324273796312511,0.8340960777088999
1783170074343825000,10.958824951171875,11.049857916736602,-0.011232026501744985,0.9620005730882286
1783170074353773800,10.96877392578125,12.479158898448944,0.1263989131219685,1.3154798106126486
1783170074363721700,10.9787216796875,13.523136036217211,0.3273347424425185,1.8315879431560635
1783170074373702000,10.988701904296875,14.220208784806728,0.13573562739640474,2.3653172187164424
1783170074383649800,10.99864990234375,14.77944659563303,-0.194131263872236,2.838250080269575
1783170074393598700,11.0085986328125,15.234962166178226,-0.14765505164042114,3.111215665273368
1783170074403547600,11.018547607421874,15.646736794674396,-0.00811477126404643,3.1807623719692226
1783170074413526800,11.02852685546875,15.86375925092101,0.24810586903542278,2.9670298971787092
1783170074423475700,11.038475830078125,15.920589976167678,0.6814288969948887,2.649721897101402
1783170074433424000,11.048423828125,15.519071368747948,1.16364250485152,2.3589139275453985
1783170074443372800,11.058372802734375,14.741984587723016,1.6592022087544203,2.042217483495176
1783170074453351700,11.0683515625,13.88049401487112,2.0741610202446576,1.8732453569293022
1783170074463300600,11.078300537109374,12.934050199615955,2.1080084909193215,2.0232576392203567
1783170074473249800,11.088249755859374,12.113279759687185,2.1460290094949306,2.364344866552949
1783170074483199000,11.098198974609375,11.201750605946778,2.4281609206423163,2.3746347898989915
1783170074493177900,11.108177734375,10.372326903963089,2.7061621617257594,2.1626256317697465
1783170074503126800,11.118126708984375,9.698156892055273,2.8408512026786803,1.964099347808957
1783170074513075000,11.128074951171875,9.165008046731351,2.9664047510176896,1.6145684095188975
1783170074523054800,11.138054931640625,8.754908073449135,3.1877085378453134,1.2168999016560613
1783170074533002800,11.148002685546874,8.32792360086143,3.284866305044293,0.9703357091046869
1783170074542952000,11.157951904296874,8.025576146289707,3.0940269223242995,0.7682365350931882
1783170074552900900,11.16790087890625,7.6753183550298205,2.901658430340886,0.7200777766019105
1783170074562879700,11.177879638671875,7.086547575727105,2.7700007199078795,0.5570613435700535
1783170074572828700,11.18782861328125,6.249466636988521,2.5756653117656705,0.04224675796851515
1783170074582777900,11.19777783203125,5.726421252527833,2.1324445746481415,-0.2609454768642783
1783170074592725800,11.207725830078125,4.528292248445749,1.1905289043419063,-0.47461233907267447
1783170074602705700,11.21770556640625,1.6421248172253369,0.23786884492039678,-0.5089471548728645
1783170074612653800,11.22765380859375,-2.1848089681357146,-0.9544884438924491,-0.4699680203981697
1783170074622603000,11.23760302734375,-7.08042061727941,-2.719121304281056,-1.029561658924818
1783170074632581600,11.24758154296875,-13.830033409178256,-3.5246997280359267,-2.4054138129137455
1783170074642530800,11.25753076171875,-21.532233925914763,-2.9640193171858784,-4.958589206582308
1783170074652480000,11.26747998046875,-27.954212261772152,-1.3238110011063515,-8.912856409436463
1783170074662428000,11.277427978515625,-30.258481722068783,1.4267857840210199,-14.197559730625152
1783170074672407800,11.28740771484375,-31.39814041700363,3.6265363007009026,-17.149633758473396
1783170074682365400,11.297365478515625,-32.26154705260992,3.0384932511508462,-15.928090561056136
1783170074692314600,11.307314697265625,-29.44579521987438,1.3154856558315455,-12.317294265800713
1783170074702263600,11.317263671875,-25.107859539067743,-1.3947496005520224,-7.455772517785429
1783170074712242700,11.32724267578125,-21.979294971847533,-4.5672582311779255,-2.63417127674818
1783170074722191600,11.337191650390626,-18.610293170523644,-5.8355678559452295,0.04154796204939484
1783170074732140500,11.347140625,-14.484384621894359,-5.532040251678228,0.3652265200719237
1783170074742088400,11.35708837890625,-10.306720167064666,-5.208941100978851,0.047613399568200106
1783170074752068600,11.367068603515625,-6.596744535654783,-5.407464023938775,-0.2455561845526099
1783170074762016500,11.3770166015625,-3.0079794549435377,-5.050924375930428,-0.4078349509596824
1783170074771965400,11.38696533203125,0.15505729072093963,-4.367330117595196,0.05265548538863658
1783170074781944600,11.396944580078125,2.5208979487895964,-3.4303400671228763,0.9224752029076219
1783170074791893500,11.4068935546875,4.487448781403899,-2.4339506099596617,1.4143074107199907
1783170074801842400,11.416842529296876,6.200815126544237,-1.2218705296754837,1.7015882290631532
1783170074811790600,11.42679052734375,7.769225888261198,0.10126578703969716,2.4339754521399737
1783170074821770500,11.4367705078125,9.432726670992373,0.8711459976866841,3.2616017493128773
1783170074831718400,11.446718505859375,11.11532203029394,1.1893190901607273,4.134316311490536
1783170074841667300,11.456667236328125,12.430138554692268,1.2032777651473878,4.833403907033801
1783170074851616500,11.466616455078125,13.392688286095856,1.3334025669246912,5.085075067335367
1783170074861595600,11.476595703125,14.015485838162899,1.592231782287359,5.028591548091173
1783170074871544600,11.486544677734376,14.332465044677257,1.8057856856405734,4.7739796581625935
1783170074881493500,11.496493408203126,14.41069745439291,1.9806123834535478,4.398687963411212
1783170074891472600,11.50647265625,13.975427384018897,2.3722061014473437,4.0418317967996
1783170074901421600,11.516421630859375,13.118060028576851,2.806036202146113,3.7585812568858263
1783170074911369500,11.526369384765625,11.94370411427021,3.2789278549060223,3.3421684471949935
1783170074921318700,11.536318603515625,10.82494207689166,3.8069957437038418,2.9145535677492616
1783170074931297500,11.546297607421875,9.826219792866706,4.181092675712704,2.51610749964267
1783170074941246500,11.55624658203125,8.949216593584417,4.539539326386153,2.120302885955572
1783170074951195400,11.5661953125,8.161269395849109,4.878709029659628,1.6579918100513518
1783170074961143600,11.5761435546875,7.442631881183385,5.036976514598727,1.3772275339953601
1783170074971123500,11.58612353515625,7.116223752066492,4.981436413684487,1.1673055574037134
1783170074981071400,11.5960712890625,7.070346967032552,4.935966455885768,0.8068557502143084
1783170074991020500,11.6060205078125,7.134893965744972,4.8660234433487055,0.5203764575123787
1783170075000969700,11.6159697265625,7.265288524374365,4.470110108590125,0.4526669031158089
1783170075010948400,11.6259482421875,7.220783027693629,3.9640860015571113,0.32207930613234637
1783170075020897500,11.6358974609375,7.05611970423758,3.7312808697670694,-0.08289090304598212
1783170075030846700,11.6458466796875,6.537116288644075,3.731539228442311,-0.41439343269243833
1783170075040825600,11.65582568359375,5.755023077633977,3.475565694771707,-0.6226616507276892
1783170075050774500,11.6657744140625,4.868313892373442,2.7649790923535824,-0.7354229375109076
1783170075060722700,11.67572265625,3.2268454932302233,1.6897843940228223,-1.003503965343535
1783170075070671600,11.685671630859375,0.36158114930689333,0.6930167511969805,-1.5347513609603047
1783170075080650500,11.695650390625,-2.3141221612691876,-0.3673863284543156,-1.7648047098241746
1783170075090599400,11.705599365234375,-4.213865064501762,-1.7509271372497082,-1.7867841941811142
1783170075100548600,11.715548583984376,-6.02814560676515,-3.111877636313438,-1.2110096745736896
1783170075110496500,11.72549658203125,-7.96017983727157,-3.8013288039833304,-0.44732086591273545
1783170075120476400,11.735476318359375,-9.86325276170969,-3.681506785033643,-0.27890213544592257
1783170075130424600,11.745424560546875,-11.487978115844726,-3.691272099983692,-0.9970071506701409
1783170075140373500,11.75537353515625,-13.139743452596663,-3.885402340942621,-2.519658762383461
1783170075150352400,11.765352294921875,-14.114132090353966,-3.596425824597478,-5.1920829051584
1783170075160301600,11.775301513671875,-14.068382731091976,-2.3814415473043917,-8.310346443116664
1783170075170250500,11.78525048828125,-13.098240060341357,-1.3178902327552438,-9.846856922703981
1783170075180199700,11.79519970703125,-11.339171702212095,-1.4826049941375852,-8.646332547917961
1783170075190178600,11.805178466796875,-9.121119220644236,-3.3018767688170074,-5.45460162268877
1783170075200127500,11.81512744140625,-7.367903680196404,-4.833811611051857,-2.483654844327271
1783170075210075600,11.82507568359375,-6.071658585277199,-5.357825840544701,-0.43016281036287546
1783170075220024600,11.835024658203125,-4.685348019507527,-5.186770185703039,0.44964024877101183
1783170075230003700,11.845003662109375,-3.1111142507255076,-4.386047969807684,0.2596399472236633
1783170075239952600,11.85495263671875,-1.7450222971200942,-3.553502044150233,-0.25577596527189017
1783170075249901600,11.864901611328126,-1.2292132936537266,-2.9178201683297753,-1.077175058493018
1783170075259850500,11.8748505859375,-0.5622323164671659,-2.338105678924918,-2.095468304428458
1783170075269829600,11.88482958984375,-0.0834767401099205,-2.321863569176197,-2.831820924004912
1783170075279777500,11.894777587890625,-0.7116495554745197,-4.356114603836835,-3.5835613745883106
1783170075289726500,11.9047265625,-0.6084867026418447,-6.622683863553404,-4.1976147714465855
1783170075299705600,11.91470556640625,1.62837393977046,-5.866290910989045,-3.4565678565740585
1783170075309654500,11.924654541015625,3.31512291162014,-3.3860873761594292,-2.567932671687007
1783170075319603500,11.934603515625,3.531847846224904,-0.9825272282883525,-2.018602506890893
1783170075329552600,11.944552734375,3.5020682095110414,0.35622839010208845,-1.7193641242504119
1783170075339531500,11.954531494140625,3.8770033459097144,0.525794537038356,-1.6486089185476303
1783170075349480700,11.964480712890625,4.800315291902423,0.7638632884450256,-1.1322019491881132
1783170075359428600,11.9744287109375,5.729044586768746,1.6573372916653752,-0.5179603362813592
1783170075369377500,11.98437744140625,4.775431610536575,1.8580090632222592,-0.9522481176197528
1783170075379356700,11.994356689453125,4.001976464012265,1.4105024654790759,-1.1290965305186806
1783170075389305600,12.0043056640625,4.8859582701355215,0.7672201976574957,-0.545265253444761
1783170075399254500,12.014254638671876,5.4140030703186985,0.11449563629515469,0.6374529771462083
1783170075409233700,12.024233642578125,5.345478400146961,-0.959154974398762,1.7423174220755695
1783170075419182600,12.0341826171875,5.80147386316359,-1.8396974537231028,2.6615157952696085
1783170075429131500,12.044131591796875,6.499381893533468,-2.322177311300486,2.4362843136042356
1783170075439079400,12.054079345703125,7.092943998765945,-2.132945509907603,1.8072323773175476
1783170075449058600,12.06405859375,8.615270470178126,-0.15483283431529998,2.708082023872435
1783170075459007500,12.074007568359375,9.59754489274919,3.2408237497001884,2.825508087596297
1783170075468956400,12.083956298828125,6.967319138756394,6.429149834921955,2.316516070668399
1783170075478905300,12.0939052734375,5.156055898487567,5.91622720054686,1.813067659342289
1783170075488884500,12.103884521484375,4.868192311820388,3.4457594623118637,1.2087773854769766
1783170075498833400,12.11383349609375,5.363609684643149,1.3850278324827552,2.3230695839650926
1783170075508781300,12.12378125,5.195839042821526,1.2682520493611693,3.869270121309161
1783170075518730800,12.133730712890625,4.900104284387827,2.0403435063168405,3.8991204851716756
1783170075528709600,12.143709716796875,4.13607981403172,2.8828736503720283,2.2951029880225655
1783170075538658600,12.153658447265625,2.9527719469845293,2.892777204748988,0.7085720477253198
1783170075548607500,12.163607421875,1.7455208942919969,1.6978262461811302,-1.040072823806107
1783170075558586600,12.173586669921875,0.25600772820115086,-0.29910744973719117,-1.933671476319432
1783170075568535600,12.18353564453125,-2.088458133405447,-1.569320277777314,-1.381146899396181
1783170075578484500,12.193484375,-4.47610730317831,-0.6481207938939333,-2.0601427240252494
1783170075588432600,12.2034326171875,-6.175769532614946,-0.6885887056216597,-2.806151645219326
1783170075598412500,12.21341259765625,-6.457668073397874,-1.5462421845287084,-4.071303098216653
1783170075608360400,12.2233603515625,-4.862111530601978,-0.5338350740224123,-5.3786336507737635
1783170075618309400,12.233309326171875,-4.618608479186892,0.07722498623877763,-5.989898585957288
1783170075628258600,12.243258544921876,-4.3052217442065475,0.14322978254407642,-6.157030929875374
1783170075638237400,12.253237548828125,-0.31057635373473164,0.10686667578667401,-6.86801413039565
1783170075648186400,12.263186279296875,2.853497918283939,0.8870335949093103,-6.499815024253726
1783170075658134500,12.273134521484375,0.46070612492561336,2.2007436193704604,-4.5634939102083445
1783170075668114400,12.283114501953126,-2.5277421155959368,1.0084837995827198,-3.8107594801515337
1783170075678076000,12.293075927734375,-6.489340391990542,-0.4113602024763822,-3.0835850232869384
1783170075688025000,12.303025146484375,-6.580125993809103,-0.6629600511074065,-1.6210530953630804
1783170075697974000,12.31297412109375,-3.562692481821775,-0.680479048924148,-0.8574776839487254
1783170075707953000,12.322952880859376,-3.078693744114041,-0.7649363245040178,-1.0439954771425575
1783170075717901800,12.33290185546875,-3.722863170033693,-0.7072001748502255,-1.591199662760645
1783170075727851000,12.34285107421875,-3.103175858941674,-0.3335816740080714,-1.6912790164947509
1783170075737799000,12.352798828125,-2.5886644940704104,-0.4499482918068766,-1.379565475423634
1783170075747778800,12.36277880859375,-2.64211668279469,-1.2331900883302092,-1.0784554536923765
1783170075757727000,12.37272705078125,-2.9726509519308806,-1.8664707482278347,-1.2947205157004296
1783170075767676000,12.382676025390625,-2.101068608653545,-1.2715002375021576,-2.27459912917614
1783170075777624800,12.392624755859375,-1.0027835421144962,-0.5178264807686209,-2.956599396318197
1783170075787604000,12.40260400390625,-0.4476198488593101,-0.40341947260499,-2.6578335996255276
1783170075797553000,12.412552978515626,-1.0912567753374576,-0.30454788722544907,-1.3778830752946436
1783170075807500800,12.422500732421875,-1.837113136318326,-0.7218214053988457,-1.4492600661575794
1783170075817480700,12.432480712890625,-1.5457698908418416,-0.6446750373542308,-1.6052026152804493
1783170075827428900,12.442428955078125,-1.411434485632181,-0.5130705184131861,-1.165212092255801
1783170075837378000,12.4523779296875,-1.3258224870592354,-0.3025827246323228,-0.9586140724550932
1783170075847327000,12.462326904296875,-1.620363651794195,-0.10840338383466004,-0.8512364514715969
1783170075857306000,12.47230615234375,-1.3142489536434412,0.22537878118157387,-0.46041488689407706
1783170075867255000,12.482255126953126,-1.0521142669945955,0.47710021036565303,0.37591819261927156
1783170075877204000,12.492203857421876,-0.5823188266843558,0.8138119990929961,0.9015119829211383
1783170075887151900,12.50215185546875,-0.462387209880352,0.28222324269264937,0.8735966057091951
1783170075897132000,12.512132080078125,-0.22850188163816929,0.1217623393625021,0.7576831385053694
1783170075907080000,12.522079833984375,0.835841752332449,0.24785890853703021,0.03128638801500201
1783170075917028900,12.53202880859375,1.45545073749125,0.780685974560678,-0.6110484794212505
1783170075927008000,12.542008056640626,1.4348270516574382,1.6311653240546584,-0.9404428212746977
1783170075936957000,12.55195703125,1.3699164803296326,1.9976734083697198,-1.1273010254040359
1783170075946905900,12.56190576171875,1.5753022747963665,1.4999801995694637,-1.0024041874080896
1783170075956853800,12.571853759765625,1.8029601068258285,0.8168012440368533,-0.6718031366460024
1783170075966834000,12.581833984375,1.7985615796059369,0.4662736959248781,-0.24620916856862604
1783170075976781800,12.59178173828125,1.7964666531533002,0.10592121163010597,0.12186799169406294
1783170075986730800,12.601730712890625,1.823880729779601,-0.24497867692559955,0.5272132447298616
1783170075996680000,12.611679931640625,1.7082511940836906,-0.5312511950090527,0.795529981014505
1783170076006658800,12.621658935546876,1.100157874673605,-0.7514780002549291,0.704684977158904
1783170076016608000,12.63160791015625,0.5915653784573078,-0.7667427894040941,0.48546055388860404
1783170076026557000,12.641556884765626,0.1869920596420765,-0.5336679007619619,0.30879012790508564
1783170076036536000,12.6515361328125,-0.30233751769959927,-0.16202771425545215,0.14188910852484404
1783170076046485000,12.661485107421875,-0.6243763456910848,0.18256752119809389,0.020774200220406054
1783170076056433000,12.671432861328125,-0.803660899695754,0.41884792788326736,-0.02851677717119455
1783170076066381800,12.6813818359375,-0.9637450786679983,0.5979428045347333,-0.021206819484010337
1783170076076361000,12.69136083984375,-1.0168547375649213,0.6865940246731043,0.07543269599452615
1783170076086310000,12.701309814453126,-0.7674825018554925,0.7416179927587508,0.16125621842630206
1783170076096258800,12.7112587890625,-0.5020511117488146,0.694349168844521,0.2151534475043416
1783170076106207700,12.721207763671876,-0.2915910827577114,0.6489250960141419,0.45249417689740656
1783170076116187000,12.731186767578125,0.1556248614758253,0.5628752905458212,0.820681373405829
1783170076126134800,12.741134765625,0.5791641620457172,0.40909751824140544,1.2010768210370093
1783170076136084000,12.751083984375,0.801781077298522,0.10633154599666594,1.5620853580877183
1783170076146033000,12.761032958984375,1.0083283167600632,-0.17813246136009692,1.8738026985511183
1783170076156011800,12.77101171875,1.1946125203937292,-0.36968028461039065,1.9774412060715256
1783170076165960700,12.780960693359376,1.163303189894557,-0.5291530536860227,2.011072111386061
