time,seconds_elapsed,z,y,x
1782888969255566300,0.09556640625,-0.9862823486328125,-0.035003662109375,-0.0016326904296875
1782888969265515300,0.105515380859375,-0.986114501953125,-0.0346832275390625,0.00018310546875
1782888969275464200,0.115464111328125,-0.9858856201171875,-0.034698486328125,0.0000762939453125
1782888969285443300,0.125443359375,-0.9862823486328125,-0.034576416015625,-0.0006103515625
1782888969295392300,0.135392333984375,-0.9858245849609375,-0.0340423583984375,-0.000396728515625
1782888969305341200,0.145341064453125,-0.9862060546875,-0.0328369140625,-0.0010223388671875
1782888969315289300,0.155289306640625,-0.9852752685546875,-0.03173828125,-0.000732421875
1782888969325269200,0.165269287109375,-0.9849853515625,-0.0321197509765625,-0.0010986328125
1782888969335217200,0.175217041015625,-0.9860382080078125,-0.031158447265625,-0.0020751953125
1782888969345166000,0.185166015625,-0.98565673828125,-0.0317535400390625,-0.00115966796875
1782888969355115500,0.195115478515625,-0.98626708984375,-0.033233642578125,-0.001129150390625
1782888969365094400,0.205094482421875,-0.985076904296875,-0.0334625244140625,-0.00091552734375
1782888969375043300,0.215043212890625,-0.9841766357421875,-0.034332275390625,0.0005950927734375
1782888969384991500,0.224991455078125,-0.9842987060546875,-0.0353851318359375,0.0025177001953125
1782888969394940400,0.2349404296875,-0.9864349365234375,-0.0347747802734375,0.0025787353515625
1782888969404889300,0.244889404296875,-0.9864044189453125,-0.03533935546875,0.0015411376953125
1782888969414868500,0.254868408203125,-0.9863739013671875,-0.035308837890625,0.000030517578125
1782888969424817400,0.2648173828125,-0.985107421875,-0.035400390625,-0.001617431640625
1782888969434766300,0.274766357421875,-0.9863433837890625,-0.03631591796875,-0.003753662109375
1782888969444714200,0.28471435546875,-0.9854736328125,-0.0357666015625,-0.0040435791015625
1782888969454694100,0.294694091796875,-0.98565673828125,-0.034393310546875,-0.003814697265625
1782888969464642300,0.304642333984375,-0.985321044921875,-0.0338592529296875,-0.00238037109375
1782888969474591200,0.31459130859375,-0.9859466552734375,-0.03466796875,-0.000640869140625
1782888969484540200,0.3245400390625,-0.9854583740234375,-0.03436279296875,0.0005035400390625
1782888969494519300,0.334519287109375,-0.984893798828125,-0.0348358154296875,0.0000762939453125
1782888969504468200,0.34446826171875,-0.9854583740234375,-0.034423828125,0.001007080078125
1782888969514416000,0.354416015625,-0.9851837158203125,-0.0336151123046875,0.000274658203125
1782888969524365300,0.364365234375,-0.9851226806640625,-0.032501220703125,-0.00091552734375
1782888969534344200,0.37434423828125,-0.9863128662109375,-0.0326385498046875,-0.0010223388671875
1782888969544293400,0.38429345703125,-0.9861297607421875,-0.0326690673828125,-0.0009002685546875
1782888969554242300,0.3942421875,-0.9857177734375,-0.03277587890625,-0.0006256103515625
1782888969564191200,0.404191162109375,-0.9850921630859375,-0.03326416015625,-0.000244140625
1782888969574170400,0.41417041015625,-0.9860076904296875,-0.0336151123046875,0.0008392333984375
1782888969584119300,0.424119384765625,-0.9855499267578125,-0.033721923828125,0.001739501953125
1782888969594067500,0.4340673828125,-0.9857025146484375,-0.0342559814453125,0.0016326904296875
1782888969604016400,0.444016357421875,-0.9847869873046875,-0.034515380859375,0.0011749267578125
1782888969613995300,0.453995361328125,-0.9850006103515625,-0.0342864990234375,0.000213623046875
1782888969623944200,0.463944091796875,-0.984954833984375,-0.0348663330078125,-0.0010223388671875
1782888969633893400,0.473893310546875,-0.9859771728515625,-0.0348968505859375,-0.002105712890625
1782888969643842300,0.48384228515625,-0.984893798828125,-0.034515380859375,-0.0022125244140625
1782888969653821200,0.4938212890625,-0.9849090576171875,-0.03466796875,-0.0024566650390625
1782888969663770000,0.50377001953125,-0.986297607421875,-0.0350799560546875,-0.00250244140625
1782888969673718300,0.51371826171875,-0.9859466552734375,-0.0353240966796875,-0.0014190673828125
1782888969683667500,0.52366748046875,-0.9857635498046875,-0.0349884033203125,-0.000213623046875
1782888969693646300,0.533646240234375,-0.9854888916015625,-0.0343780517578125,-0.000152587890625
1782888969703595500,0.543595458984375,-0.98553466796875,-0.0346527099609375,0.000213623046875
1782888969713544400,0.55354443359375,-0.98626708984375,-0.0344085693359375,0.000457763671875
1782888969723492400,0.563492431640625,-0.9849090576171875,-0.034393310546875,0.00006103515625
1782888969733472300,0.57347216796875,-0.98480224609375,-0.033599853515625,0.0001220703125
1782888969743420400,0.58342041015625,-0.9850616455078125,-0.0325164794921875,-0.000091552734375
1782888969753369300,0.593369384765625,-0.9857177734375,-0.0324554443359375,-0.0010223388671875
1782888969763318300,0.603318359375,-0.9856414794921875,-0.032867431640625,-0.000396728515625
1782888969773297400,0.61329736328125,-0.9859466552734375,-0.0334014892578125,-0.0006561279296875
1782888969783246300,0.623246337890625,-0.985015869140625,-0.033050537109375,-0.000152587890625
1782888969793195300,0.6331953125,-0.984771728515625,-0.0340118408203125,0.0003509521484375
1782888969803143200,0.64314306640625,-0.9855804443359375,-0.033966064453125,0.0004730224609375
1782888969813123300,0.653123291015625,-0.9858245849609375,-0.0345001220703125,0.00042724609375
1782888969823071200,0.6630712890625,-0.9853363037109375,-0.0346832275390625,-0.0003509521484375
1782888969833020200,0.673020263671875,-0.9846954345703125,-0.0353240966796875,-0.001739501953125
1782888969842969300,0.68296923828125,-0.98516845703125,-0.035858154296875,-0.00189208984375
1782888969852948500,0.692948486328125,-0.984375,-0.0353546142578125,-0.0015716552734375
1782888969862897400,0.7028974609375,-0.9853515625,-0.034454345703125,-0.0021514892578125
1782888969872845300,0.71284521484375,-0.9850921630859375,-0.0344085693359375,-0.0015106201171875
1782888969882794500,0.72279443359375,-0.98486328125,-0.034027099609375,-0.0006256103515625
1782888969892743400,0.732743408203125,-0.9854278564453125,-0.03460693359375,0.0001068115234375
1782888969902722300,0.742722412109375,-0.985015869140625,-0.034515380859375,0.00079345703125
1782888969912671200,0.752671142578125,-0.9843902587890625,-0.0340728759765625,0.0003662109375
1782888969922620400,0.762620361328125,-0.98468017578125,-0.033355712890625,-0.00030517578125
1782888969932568300,0.772568359375,-0.984710693359375,-0.0339813232421875,-0.0011444091796875
1782888969942548200,0.78254833984375,-0.984771728515625,-0.033843994140625,-0.000640869140625
1782888969952496400,0.792496337890625,-0.985687255859375,-0.0339508056640625,-0.0005950927734375
1782888969962445300,0.8024453125,-0.9848175048828125,-0.0340728759765625,-0.0004119873046875
1782888969972394200,0.812394287109375,-0.9846038818359375,-0.034515380859375,-0.0001220703125
1782888969982373000,0.822373046875,-0.984344482421875,-0.033966064453125,-0.0003204345703125
1782888969992322300,0.832322265625,-0.986083984375,-0.0337982177734375,-0.0003204345703125
1782888970002271500,0.842271484375,-0.9849700927734375,-0.03369140625,0.0000762939453125
1782888970012219400,0.852219482421875,-0.98382568359375,-0.03375244140625,-0.000335693359375
1782888970022198300,0.8621982421875,-0.9849395751953125,-0.0335235595703125,-0.0000152587890625
1782888970032147500,0.8721474609375,-0.984527587890625,-0.0340118408203125,-0.001953125
1782888970042106400,0.8821064453125,-0.9851837158203125,-0.0343780517578125,-0.0012664794921875
1782888970052055300,0.89205517578125,-0.98541259765625,-0.0344085693359375,-0.0010986328125
1782888970062034400,0.902034423828125,-0.9852752685546875,-0.0346527099609375,-0.0012664794921875
1782888970071983400,0.9119833984375,-0.9856109619140625,-0.0352325439453125,-0.0008697509765625
1782888970081931300,0.92193115234375,-0.98541259765625,-0.0345916748046875,-0.0005340576171875
1782888970091880400,0.93188037109375,-0.9854278564453125,-0.0349578857421875,0.0009002685546875
1782888970101859300,0.941859375,-0.9855499267578125,-0.034515380859375,0.000091552734375
1782888970111808300,0.951808349609375,-0.984893798828125,-0.0342559814453125,0.00048828125
1782888970121757200,0.961757080078125,-0.98590087890625,-0.03375244140625,0.0010223388671875
1782888970131706000,0.9717060546875,-0.984710693359375,-0.0337982177734375,-0.001251220703125
1782888970141685200,0.981685302734375,-0.9843902587890625,-0.033233642578125,-0.0012969970703125
1782888970151634200,0.99163427734375,-0.9848480224609375,-0.0338592529296875,-0.001251220703125
1782888970161582300,1.001582275390625,-0.9845428466796875,-0.0337371826171875,-0.0009918212890625
1782888970171531300,1.01153125,-0.984710693359375,-0.0338134765625,-0.0004119873046875
1782888970181510100,1.02151025390625,-0.985137939453125,-0.0330047607421875,-0.000152587890625
1782888970191459300,1.031459228515625,-0.9858245849609375,-0.033660888671875,-0.0006561279296875
1782888970201408500,1.041408447265625,-0.9851837158203125,-0.034576416015625,-0.0001678466796875
1782888970211356400,1.0513564453125,-0.9850311279296875,-0.034027099609375,-0.0007171630859375
1782888970221336300,1.06133642578125,-0.9858245849609375,-0.0329742431640625,-0.001251220703125
1782888970231284500,1.071284423828125,-0.9851837158203125,-0.03424072265625,-0.0018768310546875
1782888970241233400,1.0812333984375,-0.98504638671875,-0.0343475341796875,-0.0015106201171875
1782888970251182300,1.091182373046875,-0.984100341796875,-0.0340423583984375,-0.001129150390625
1782888970261161200,1.1011611328125,-0.984130859375,-0.0344085693359375,-0.00079345703125
1782888970271110400,1.1111103515625,-0.984100341796875,-0.03436279296875,-0.0009613037109375
1782888970281059300,1.121059326171875,-0.98480224609375,-0.034423828125,-0.0000457763671875
1782888970291007200,1.13100732421875,-0.984466552734375,-0.0340576171875,0.0001068115234375
1782888970300987100,1.140987060546875,-0.9849090576171875,-0.035247802734375,0.0003204345703125
1782888970310935300,1.150935302734375,-0.9858245849609375,-0.0352935791015625,0.0002593994140625
1782888970320884200,1.16088427734375,-0.98651123046875,-0.034881591796875,-0.0003509521484375
1782888970330833200,1.170833251953125,-0.98504638671875,-0.0342254638671875,-0.000732421875
1782888970340781300,1.18078125,-0.985443115234375,-0.0345916748046875,-0.0009002685546875
1782888970350761500,1.190761474609375,-0.9854583740234375,-0.03338623046875,0.000091552734375
1782888970360709400,1.20070947265625,-0.985626220703125,-0.033477783203125,-0.000823974609375
1782888970370658300,1.210658203125,-0.985992431640625,-0.0346832275390625,-0.0016326904296875
1782888970380607500,1.220607421875,-0.9850921630859375,-0.0341644287109375,-0.001617431640625
1782888970390586400,1.23058642578125,-0.9857635498046875,-0.034271240234375,-0.0003509521484375
1782888970400535300,1.240535400390625,-0.985382080078125,-0.0339202880859375,0.00006103515625
1782888970410484200,1.250484130859375,-0.9843292236328125,-0.03466796875,-0.000640869140625
1782888970420432400,1.260432373046875,-0.9849090576171875,-0.0339813232421875,-0.0000457763671875
1782888970430412300,1.270412353515625,-0.986114501953125,-0.033782958984375,-0.0007781982421875
1782888970440360200,1.280360107421875,-0.985382080078125,-0.0341033935546875,-0.0009613037109375
1782888970450309400,1.290309326171875,-0.984954833984375,-0.0340423583984375,0.00042724609375
1782888970460258300,1.30025830078125,-0.9857330322265625,-0.0339813232421875,-0.00054931640625
1782888970470237200,1.3102373046875,-0.9854888916015625,-0.0341339111328125,-0.000823974609375
1782888970480186000,1.32018603515625,-0.98480224609375,-0.0344085693359375,-0.0009918212890625
1782888970490135600,1.330135498046875,-0.984588623046875,-0.034088134765625,0.0003814697265625
1782888970500083200,1.340083251953125,-0.984344482421875,-0.0343780517578125,0.0008392333984375
1782888970510062300,1.350062255859375,-0.984466552734375,-0.034515380859375,-0.00048828125
1782888970520011500,1.360011474609375,-0.9855499267578125,-0.0347900390625,-0.00042724609375
1782888970529960400,1.36996044921875,-0.98626708984375,-0.0354156494140625,-0.0012969970703125
1782888970539909400,1.379909423828125,-0.9850006103515625,-0.0353546142578125,-0.0013427734375
1782888970549888300,1.38988818359375,-0.9850921630859375,-0.034576416015625,-0.001251220703125
1782888970559837400,1.39983740234375,-0.986541748046875,-0.0347900390625,-0.0020599365234375
1782888970569785300,1.409785400390625,-0.986419677734375,-0.0347747802734375,-0.0015869140625
1782888970579734300,1.419734375,-0.9854736328125,-0.0342864990234375,-0.0008544921875
1782888970589713400,1.42971337890625,-0.9859161376953125,-0.0341949462890625,-0.0012359619140625
1782888970599662300,1.439662353515625,-0.9850616455078125,-0.0338897705078125,-0.0004425048828125
1782888970609611300,1.449611328125,-0.98529052734375,-0.0344390869140625,-0.0002593994140625
1782888970619560200,1.459560302734375,-0.98565673828125,-0.0339508056640625,-0.000579833984375
1782888970629539300,1.469539306640625,-0.986541748046875,-0.03399658203125,-0.00018310546875
1782888970639488300,1.47948828125,-0.9861602783203125,-0.0339508056640625,0.0000762939453125
1782888970649436200,1.489436279296875,-0.984832763671875,-0.033538818359375,-0.0005340576171875
1782888970659385000,1.499385009765625,-0.9849395751953125,-0.03387451171875,-0.0007781982421875
1782888970669364200,1.5093642578125,-0.9845733642578125,-0.03466796875,-0.001220703125
1782888970679313400,1.5193134765625,-0.9857177734375,-0.03460693359375,0.000091552734375
1782888970689262300,1.529262451171875,-0.9847259521484375,-0.0342254638671875,0.0004119873046875
1782888970699210500,1.53921044921875,-0.985107421875,-0.0337982177734375,0.0003509521484375
1782888970709190400,1.5491904296875,-0.98565673828125,-0.03448486328125,-0.000244140625
1782888970719138300,1.55913818359375,-0.9849700927734375,-0.0348358154296875,-0.0001220703125
1782888970729087200,1.569087158203125,-0.9851837158203125,-0.035247802734375,-0.001068115234375
1782888970739036400,1.579036376953125,-0.9848175048828125,-0.0345458984375,-0.000701904296875
1782888970749015300,1.589015380859375,-0.98468017578125,-0.034912109375,-0.000946044921875
1782888970758964200,1.598964111328125,-0.9855804443359375,-0.0342559814453125,-0.001434326171875
1782888970768913200,1.6089130859375,-0.9847564697265625,-0.0344085693359375,-0.0015869140625
1782888970778861300,1.618861328125,-0.9850616455078125,-0.0343475341796875,-0.0008544921875
1782888970788810200,1.628810302734375,-0.9848785400390625,-0.0347137451171875,-0.000885009765625
1782888970798789400,1.638789306640625,-0.9849853515625,-0.033721923828125,0.000274658203125
1782888970808738300,1.64873828125,-0.9857635498046875,-0.033477783203125,-0.0012054443359375
1782888970818687200,1.658687255859375,-0.9853363037109375,-0.0346221923828125,-0.0001678466796875
1782888970828635100,1.66863525390625,-0.985382080078125,-0.0341339111328125,-0.000457763671875
1782888970838615300,1.678615234375,-0.9850311279296875,-0.033843994140625,-0.0012664794921875
1782888970848563200,1.688563232421875,-0.985321044921875,-0.0346832275390625,-0.00018310546875
1782888970858512400,1.698512451171875,-0.9841766357421875,-0.0338897705078125,-0.0010223388671875
1782888970868461300,1.70846142578125,-0.984375,-0.03363037109375,-0.001434326171875
1782888970878440400,1.7184404296875,-0.98529052734375,-0.0341644287109375,-0.000457763671875
1782888970888389400,1.728389404296875,-0.98565673828125,-0.033538818359375,-0.0001983642578125
1782888970898338300,1.73833837890625,-0.9856719970703125,-0.0334625244140625,-0.00146484375
1782888970908286200,1.7482861328125,-0.9857025146484375,-0.0342254638671875,-0.00079345703125
1782888970918266400,1.758266357421875,-0.9853973388671875,-0.0347442626953125,-0.000518798828125
1782888970928214300,1.76821435546875,-0.98468017578125,-0.0348968505859375,-0.00030517578125
1782888970938163200,1.7781630859375,-0.985076904296875,-0.03424072265625,-0.00067138671875
1782888970948112100,1.788112060546875,-0.985107421875,-0.03314208984375,-0.0014190673828125
1782888970958091300,1.79809130859375,-0.98486328125,-0.0337066650390625,-0.0012664794921875
1782888970968040200,1.808040283203125,-0.985931396484375,-0.0341796875,-0.0009765625
1782888970977989000,1.817989013671875,-0.9857025146484375,-0.0342559814453125,-0.0008392333984375
1782888970987937300,1.827937255859375,-0.9853057861328125,-0.03411865234375,-0.000640869140625
1782888970997916200,1.837916259765625,-0.9853363037109375,-0.0343780517578125,-0.0007781982421875
1782888971007865300,1.847865234375,-0.9853973388671875,-0.0350799560546875,-0.00067138671875
1782888971017814300,1.857814208984375,-0.985015869140625,-0.034149169921875,-0.0001983642578125
1782888971027763500,1.867763427734375,-0.9849395751953125,-0.0340728759765625,-0.00115966796875
1782888971037742300,1.877742431640625,-0.9864501953125,-0.0333709716796875,-0.000732421875
1782888971047731700,1.887731689453125,-0.9864044189453125,-0.0339813232421875,-0.0008544921875
1782888971057679600,1.8976796875,-0.9860687255859375,-0.033538818359375,-0.0005950927734375
1782888971067628500,1.907628662109375,-0.98583984375,-0.034454345703125,-0.000152587890625
1782888971077607700,1.917607666015625,-0.9866485595703125,-0.034515380859375,-0.00079345703125
1782888971087556600,1.927556640625,-0.98516845703125,-0.0339508056640625,-0.000213623046875
1782888971097505500,1.937505615234375,-0.984405517578125,-0.0336761474609375,0.0007171630859375
1782888971107454700,1.947454833984375,-0.985015869140625,-0.0343475341796875,-0.0003509521484375
1782888971117433900,1.957433837890625,-0.985565185546875,-0.0347900390625,-0.0005035400390625
1782888971127382800,1.9673828125,-0.98583984375,-0.034393310546875,-0.0003662109375
1782888971137330700,1.97733056640625,-0.9856719970703125,-0.0352783203125,-0.0000762939453125
1782888971147279600,1.987279541015625,-0.98468017578125,-0.03472900390625,-0.0014495849609375
1782888971157258800,1.9972587890625,-0.98553466796875,-0.0338287353515625,-0.0017852783203125
1782888971167207700,2.007207763671875,-0.985015869140625,-0.0346221923828125,-0.001190185546875
1782888971177156600,2.017156494140625,-0.98486328125,-0.0352630615234375,-0.0012359619140625
1782888971187104800,2.027104736328125,-0.9846038818359375,-0.034393310546875,-0.0018157958984375
1782888971197053700,2.0370537109375,-0.9859619140625,-0.0348052978515625,-0.0010986328125
1782888971207032600,2.047032470703125,-0.9849395751953125,-0.03466796875,-0.00079345703125
1782888971216981800,2.056981689453125,-0.9853973388671875,-0.033721923828125,-0.0000457763671875
1782888971226930700,2.0669306640625,-0.98455810546875,-0.0347137451171875,-0.0003662109375
1782888971236879600,2.076879638671875,-0.98455810546875,-0.0337982177734375,-0.0011444091796875
1782888971246858500,2.0868583984375,-0.9857025146484375,-0.0341033935546875,-0.0001983642578125
1782888971256807700,2.0968076171875,-0.9854736328125,-0.0342254638671875,-0.001495361328125
1782888971266755600,2.106755615234375,-0.985198974609375,-0.0339202880859375,-0.0020599365234375
1782888971276704800,2.116704833984375,-0.98553466796875,-0.0335845947265625,-0.00067138671875
1782888971286684000,2.126683837890625,-0.9852752685546875,-0.0338897705078125,-0.000640869140625
1782888971296632800,2.1366328125,-0.98553466796875,-0.0338134765625,-0.0005950927734375
1782888971306581800,2.146581787109375,-0.9847564697265625,-0.03399658203125,-0.0014190673828125
1782888971316529700,2.15652978515625,-0.9850921630859375,-0.034423828125,-0.002471923828125
1782888971326509800,2.166509765625,-0.9842681884765625,-0.0344390869140625,-0.0018463134765625
1782888971336457700,2.176457763671875,-0.9849395751953125,-0.0338592529296875,-0.0009613037109375
1782888971346406700,2.18640673828125,-0.985748291015625,-0.0345458984375,-0.0009307861328125
1782888971356355600,2.19635546875,-0.9852752685546875,-0.0347747802734375,-0.0006866455078125
1782888971366334700,2.206334716796875,-0.9857940673828125,-0.034149169921875,-0.0009002685546875
1782888971376283600,2.21628369140625,-0.9849395751953125,-0.034393310546875,-0.0010986328125
1782888971386232600,2.226232666015625,-0.985565185546875,-0.0349273681640625,-0.0005950927734375
1782888971396180700,2.2361806640625,-0.9848785400390625,-0.0350799560546875,-0.0001678466796875
1782888971406160600,2.24616064453125,-0.985076904296875,-0.0347900390625,0.000030517578125
1782888971416108500,2.256108642578125,-0.9853973388671875,-0.033721923828125,-0.0001220703125
1782888971426057500,2.266057373046875,-0.98516845703125,-0.034393310546875,-0.00054931640625
1782888971436007000,2.2760068359375,-0.985504150390625,-0.034759521484375,-0.0009765625
1782888971445985800,2.28598583984375,-0.9853973388671875,-0.0350189208984375,-0.001220703125
1782888971455934700,2.295934814453125,-0.985504150390625,-0.0338897705078125,-0.0013580322265625
1782888971465883600,2.305883544921875,-0.9851837158203125,-0.033599853515625,-0.000701904296875
1782888971475831800,2.315831787109375,-0.985992431640625,-0.034210205078125,-0.0001373291015625
1782888971485810700,2.325810791015625,-0.9854888916015625,-0.03375244140625,-0.0006561279296875
1782888971495759600,2.335759521484375,-0.9847412109375,-0.0337677001953125,-0.000457763671875
1782888971505708800,2.345708740234375,-0.985443115234375,-0.034515380859375,-0.0012359619140625
1782888971515657700,2.35565771484375,-0.9852447509765625,-0.033447265625,-0.000457763671875
1782888971525636600,2.36563671875,-0.985015869140625,-0.0333099365234375,-0.0009002685546875
1782888971535585500,2.37558544921875,-0.986083984375,-0.033294677734375,-0.0010528564453125
1782888971545533700,2.38553369140625,-0.9861602783203125,-0.0335235595703125,-0.0010833740234375
1782888971555482600,2.395482666015625,-0.9852447509765625,-0.0351104736328125,-0.0000457763671875
1782888971565461800,2.405461669921875,-0.9854736328125,-0.0340118408203125,-0.00067138671875
1782888971575410700,2.41541064453125,-0.985809326171875,-0.03411865234375,0.000457763671875
1782888971585359600,2.425359619140625,-0.9859619140625,-0.034942626953125,-0.0002899169921875
1782888971595308800,2.435308837890625,-0.98590087890625,-0.0339508056640625,-0.0019683837890625
1782888971605287700,2.44528759765625,-0.9846343994140625,-0.03387451171875,-0.0011444091796875
1782888971615236900,2.45523681640625,-0.9853515625,-0.0340118408203125,-0.0000762939453125
1782888971625184800,2.465184814453125,-0.9854888916015625,-0.034515380859375,-0.000274658203125
1782888971635133700,2.4751337890625,-0.984649658203125,-0.034271240234375,-0.00079345703125
1782888971645082600,2.48508251953125,-0.9854278564453125,-0.0348358154296875,-0.0011444091796875
1782888971655061800,2.495061767578125,-0.9852294921875,-0.0346832275390625,-0.0011749267578125
1782888971665010700,2.5050107421875,-0.9847564697265625,-0.0347137451171875,-0.001251220703125
1782888971674958600,2.51495849609375,-0.98602294921875,-0.0346832275390625,-0.000762939453125
1782888971684907800,2.52490771484375,-0.984832763671875,-0.03424072265625,-0.0010223388671875
1782888971694886700,2.53488671875,-0.9859771728515625,-0.0343475341796875,-0.0007781982421875
1782888971704835600,2.544835693359375,-0.985443115234375,-0.0352935791015625,-0.000457763671875
1782888971714784500,2.554784423828125,-0.98553466796875,-0.0347137451171875,-0.00006103515625
1782888971724733700,2.564733642578125,-0.9854736328125,-0.03369140625,-0.0001068115234375
1782888971734712600,2.574712646484375,-0.98626708984375,-0.0343017578125,-0.000823974609375
1782888971744661500,2.58466162109375,-0.985443115234375,-0.034759521484375,-0.0006103515625
1782888971754609700,2.594609619140625,-0.98565673828125,-0.033843994140625,-0.0005950927734375
1782888971764558800,2.604558837890625,-0.985107421875,-0.0341796875,-0.0012969970703125
1782888971774537700,2.614537841796875,-0.9842987060546875,-0.034149169921875,-0.001068115234375
1782888971784486700,2.624486572265625,-0.984771728515625,-0.0334014892578125,-0.0013275146484375
1782888971794435800,2.634435791015625,-0.9852294921875,-0.034149169921875,-0.000732421875
1782888971804383700,2.6443837890625,-0.984649658203125,-0.0335845947265625,-0.000518798828125
1782888971814363600,2.65436376953125,-0.9850616455078125,-0.0345458984375,-0.0015716552734375
1782888971824311800,2.664311767578125,-0.985565185546875,-0.034393310546875,-0.0011749267578125
1782888971834260700,2.6742607421875,-0.9854278564453125,-0.034698486328125,-0.00146484375
1782888971844209700,2.684209716796875,-0.984466552734375,-0.034332275390625,-0.0009002685546875
1782888971854188800,2.694188720703125,-0.9853515625,-0.033905029296875,-0.0009307861328125
1782888971864137700,2.7041376953125,-0.985443115234375,-0.0341033935546875,-0.000701904296875
1782888971874086700,2.714086669921875,-0.9853515625,-0.0344390869140625,-0.0008087158203125
1782888971884034600,2.72403466796875,-0.9864501953125,-0.034423828125,-0.0004425048828125
1782888971894014700,2.7340146484375,-0.98602294921875,-0.0350494384765625,-0.0000762939453125
1782888971903962600,2.743962646484375,-0.98486328125,-0.034210205078125,-0.000732421875
1782888971913911600,2.75391162109375,-0.985137939453125,-0.034027099609375,-0.0003662109375
1782888971923860700,2.76386083984375,-0.9858551025390625,-0.035186767578125,-0.000823974609375
1782888971933840000,2.77383984375,-0.985595703125,-0.0337371826171875,-0.000579833984375
1782888971943788800,2.783788818359375,-0.9864349365234375,-0.03399658203125,-0.0006561279296875
1782888971953737700,2.79373779296875,-0.9852447509765625,-0.0352325439453125,-0.0004730224609375
1782888971963685600,2.803685546875,-0.9854736328125,-0.0338592529296875,-0.0007476806640625
1782888971973664800,2.813664794921875,-0.9857940673828125,-0.0333709716796875,-0.00042724609375
1782888971983613700,2.82361376953125,-0.9852752685546875,-0.032958984375,-0.0005340576171875
1782888971993562600,2.833562744140625,-0.984954833984375,-0.03387451171875,-0.0005950927734375
1782888972003511600,2.843511474609375,-0.985809326171875,-0.033935546875,-0.00054931640625
1782888972013490700,2.85349072265625,-0.985382080078125,-0.0338134765625,-0.00079345703125
1782888972023439600,2.863439697265625,-0.98516845703125,-0.03411865234375,-0.001220703125
1782888972033387800,2.8733876953125,-0.985260009765625,-0.033843994140625,-0.0002899169921875
1782888972043348200,2.88334814453125,-0.9857940673828125,-0.03448486328125,0.000030517578125
1782888972053297400,2.89329736328125,-0.9857025146484375,-0.0336151123046875,-0.0005645751953125
1782888972063276300,2.9032763671875,-0.98516845703125,-0.034027099609375,-0.0016021728515625
1782888972073225200,2.91322509765625,-0.9848175048828125,-0.033599853515625,-0.0009002685546875
1782888972083174100,2.923174072265625,-0.985076904296875,-0.0346221923828125,-0.0012054443359375
1782888972093122300,2.933122314453125,-0.9853668212890625,-0.0345916748046875,0.0001220703125
1782888972103102200,2.943102294921875,-0.985931396484375,-0.0341033935546875,-0.00006103515625
1782888972113050000,2.953050048828125,-0.9854583740234375,-0.033935546875,-0.0011749267578125
1782888972122999600,2.96299951171875,-0.9855804443359375,-0.0347900390625,-0.0011444091796875
1782888972132948500,2.972948486328125,-0.984954833984375,-0.0341949462890625,-0.0011749267578125
1782888972142927400,2.98292724609375,-0.98431396484375,-0.0342559814453125,-0.000640869140625
1782888972152876300,2.992876220703125,-0.9860382080078125,-0.034088134765625,-0.0002288818359375
1782888972162824400,3.002824462890625,-0.98626708984375,-0.0334320068359375,-0.0001220703125
1782888972172773400,3.0127734375,-0.9849700927734375,-0.0340728759765625,-0.0000762939453125
1782888972182752300,3.022752197265625,-0.984405517578125,-0.0340728759765625,0.0000762939453125
1782888972192701400,3.032701416015625,-0.9859466552734375,-0.033843994140625,-0.0004425048828125
1782888972202650400,3.042650390625,-0.985504150390625,-0.034210205078125,-0.00042724609375
1782888972212599300,3.052599365234375,-0.9852447509765625,-0.033905029296875,-0.0000152587890625
1782888972222578200,3.062578125,-0.986297607421875,-0.033721923828125,-0.00048828125
1782888972232527400,3.07252734375,-0.9852142333984375,-0.03485107421875,-0.0009918212890625
1782888972242475300,3.082475341796875,-0.985443115234375,-0.034454345703125,-0.000030517578125
1782888972252424200,3.092424072265625,-0.985382080078125,-0.0338897705078125,-0.000762939453125
1782888972262403300,3.1024033203125,-0.98553466796875,-0.0345306396484375,-0.0002899169921875
1782888972272352300,3.112352294921875,-0.98480224609375,-0.0343017578125,-0.0003662109375
1782888972282301400,3.122301513671875,-0.984527587890625,-0.0341796875,-0.0001983642578125
1782888972292249000,3.1322490234375,-0.9851531982421875,-0.0340118408203125,-0.0004119873046875
1782888972302229500,3.1422294921875,-0.9855194091796875,-0.03515625,-0.000823974609375
1782888972312177400,3.152177490234375,-0.98583984375,-0.0349273681640625,-0.0008697509765625
1782888972322126300,3.162126220703125,-0.985595703125,-0.033477783203125,-0.00146484375
1782888972332075300,3.1720751953125,-0.984710693359375,-0.03375244140625,-0.0007171630859375
1782888972342054400,3.182054443359375,-0.9854278564453125,-0.03472900390625,-0.0008087158203125
1782888972352003300,3.19200341796875,-0.98565673828125,-0.0347442626953125,-0.001495361328125
1782888972361952300,3.2019521484375,-0.9853973388671875,-0.0342559814453125,-0.0003662109375
1782888972371900400,3.211900390625,-0.9857025146484375,-0.0343170166015625,-0.000762939453125
1782888972381880300,3.22188037109375,-0.9846649169921875,-0.0340576171875,-0.0010833740234375
1782888972391828200,3.231828125,-0.985260009765625,-0.0339508056640625,-0.0007476806640625
1782888972401777200,3.241777099609375,-0.984588623046875,-0.03411865234375,-0.0009307861328125
1782888972411726300,3.251726318359375,-0.9849700927734375,-0.03448486328125,-0.0008392333984375
1782888972421705200,3.261705322265625,-0.9851531982421875,-0.034271240234375,-0.001312255859375
1782888972431654100,3.271654052734375,-0.986053466796875,-0.034088134765625,-0.000823974609375
1782888972441603300,3.281603271484375,-0.986358642578125,-0.03369140625,-0.0012359619140625
1782888972451551200,3.29155126953125,-0.9856414794921875,-0.0350189208984375,-0.000640869140625
1782888972461500400,3.30150048828125,-0.9848175048828125,-0.0350341796875,-0.000213623046875
1782888972471479300,3.311479248046875,-0.9857025146484375,-0.0340423583984375,-0.0009918212890625
1782888972481428500,3.321428466796875,-0.986724853515625,-0.0354461669921875,-0.001373291015625
1782888972491377400,3.33137744140625,-0.9854888916015625,-0.0352935791015625,-0.00018310546875
1782888972501325300,3.3413251953125,-0.9851531982421875,-0.034942626953125,0.000244140625
1782888972511305200,3.35130517578125,-0.9848175048828125,-0.0337982177734375,-0.00091552734375
1782888972521253400,3.36125341796875,-0.98529052734375,-0.034912109375,-0.00115966796875
1782888972531202300,3.371202392578125,-0.985565185546875,-0.0346832275390625,-0.0004119873046875
1782888972541151200,3.381151123046875,-0.9857635498046875,-0.0340728759765625,-0.000946044921875
1782888972551130400,3.39113037109375,-0.9855499267578125,-0.034332275390625,-0.001220703125
1782888972561079300,3.401079345703125,-0.98583984375,-0.0350189208984375,-0.0012054443359375
1782888972571028200,3.4110283203125,-0.9860687255859375,-0.034423828125,-0.0004730224609375
1782888972580976000,3.42097607421875,-0.985748291015625,-0.0345306396484375,-0.0014190673828125
1782888972590956300,3.430956298828125,-0.9844207763671875,-0.0342559814453125,-0.0001678466796875
1782888972600904200,3.440904296875,-0.985687255859375,-0.0344696044921875,0.000091552734375
1782888972610853000,3.45085302734375,-0.9856719970703125,-0.03515625,-0.0003662109375
1782888972620802300,3.46080224609375,-0.986083984375,-0.0338287353515625,-0.0006866455078125
1782888972630781400,3.470781494140625,-0.98553466796875,-0.033355712890625,-0.000762939453125
1782888972640730400,3.48073046875,-0.9854888916015625,-0.0349578857421875,-0.0009613037109375
1782888972650678300,3.49067822265625,-0.9855194091796875,-0.0340576171875,-0.001129150390625
1782888972660627500,3.50062744140625,-0.985107421875,-0.033416748046875,-0.0003662109375
1782888972670606300,3.5106064453125,-0.9852447509765625,-0.034759521484375,-0.000335693359375
1782888972680555300,3.52055517578125,-0.9853515625,-0.0339813232421875,-0.000274658203125
1782888972690504200,3.530504150390625,-0.9859619140625,-0.03363037109375,0.0001983642578125
1782888972700453400,3.540453369140625,-0.9849395751953125,-0.034881591796875,-0.00048828125
1782888972710432300,3.550432373046875,-0.9843292236328125,-0.0347442626953125,-0.0005035400390625
1782888972720381200,3.560381103515625,-0.9844207763671875,-0.0343475341796875,-0.0005035400390625
1782888972730329300,3.570329345703125,-0.9852294921875,-0.034454345703125,-0.000640869140625
1782888972740278300,3.5802783203125,-0.9858245849609375,-0.034942626953125,-0.00030517578125
1782888972750257200,3.590257080078125,-0.985198974609375,-0.0345001220703125,-0.001007080078125
1782888972760206300,3.600206298828125,-0.984954833984375,-0.034576416015625,-0.001312255859375
1782888972770155500,3.610155517578125,-0.985076904296875,-0.034027099609375,-0.00048828125
1782888972780103200,3.620103271484375,-0.9856719970703125,-0.032684326171875,-0.001220703125
1782888972790083300,3.630083251953125,-0.9853515625,-0.0331573486328125,-0.00006103515625
1782888972800031500,3.640031494140625,-0.9840850830078125,-0.033233642578125,0.0001068115234375
1782888972809980400,3.64998046875,-0.985626220703125,-0.0333099365234375,-0.0003204345703125
1782888972819929300,3.659929443359375,-0.986663818359375,-0.0345306396484375,-0.000518798828125
1782888972829908500,3.669908447265625,-0.98583984375,-0.0346221923828125,-0.0010223388671875
1782888972839857400,3.679857421875,-0.9846954345703125,-0.033935546875,-0.0003662109375
1782888972849806300,3.689806396484375,-0.985626220703125,-0.0350799560546875,-0.0001983642578125
1782888972859754200,3.699754150390625,-0.9861297607421875,-0.03521728515625,0.0003814697265625
1782888972869734400,3.709734375,-0.985992431640625,-0.03436279296875,0.000244140625
1782888972879682300,3.719682373046875,-0.986419677734375,-0.0348968505859375,-0.000030517578125
1782888972889631200,3.72963134765625,-0.9851226806640625,-0.0348052978515625,-0.0006256103515625
1782888972899580200,3.739580078125,-0.984619140625,-0.035186767578125,-0.000640869140625
1782888972909529000,3.749529052734375,-0.9854278564453125,-0.0345458984375,-0.0008544921875
1782888972919508200,3.75950830078125,-0.9861602783203125,-0.0343475341796875,-0.000640869140625
1782888972929457400,3.76945751953125,-0.985931396484375,-0.034210205078125,-0.0006103515625
1782888972939405300,3.7794052734375,-0.9844970703125,-0.0330963134765625,-0.0016021728515625
1782888972949354500,3.7893544921875,-0.9859771728515625,-0.0338134765625,-0.0012664794921875
1782888972959333400,3.79933349609375,-0.9849090576171875,-0.0346832275390625,-0.0010528564453125
1782888972969282300,3.8092822265625,-0.9842376708984375,-0.0341644287109375,-0.0003204345703125
1782888972979231200,3.819231201171875,-0.984527587890625,-0.0334625244140625,-0.0007171630859375
1782888972989179400,3.829179443359375,-0.9853668212890625,-0.0338897705078125,-0.0010833740234375
1782888972999159300,3.8391591796875,-0.9861602783203125,-0.0342254638671875,-0.000579833984375
1782888973009107500,3.849107421875,-0.9860687255859375,-0.0341644287109375,-0.0010986328125
1782888973019056400,3.859056396484375,-0.9853973388671875,-0.034271240234375,-0.0002593994140625
1782888973029005300,3.86900537109375,-0.9862060546875,-0.0347900390625,-0.000091552734375
1782888973038984200,3.878984130859375,-0.9854583740234375,-0.0351104736328125,-0.0011444091796875
1782888973048940000,3.88893994140625,-0.98626708984375,-0.0346221923828125,-0.0009613037109375
1782888973058889200,3.89888916015625,-0.9851837158203125,-0.0341033935546875,-0.0002593994140625
1782888973068837000,3.908837158203125,-0.9848175048828125,-0.03387451171875,0.0001678466796875
1782888973078817000,3.918817138671875,-0.985015869140625,-0.033905029296875,0.0001983642578125
1782888973088765200,3.92876513671875,-0.9852294921875,-0.0345611572265625,-0.000640869140625
1782888973098714000,3.938714111328125,-0.9855194091796875,-0.034515380859375,-0.0000152587890625
1782888973108663000,3.9486630859375,-0.9852447509765625,-0.0335845947265625,-0.000091552734375
1782888973118642200,3.95864208984375,-0.9853363037109375,-0.0344390869140625,-0.0008392333984375
1782888973128591000,3.968591064453125,-0.9849853515625,-0.0349273681640625,-0.0006103515625
1782888973138539000,3.9785390625,-0.9842529296875,-0.0342864990234375,-0.000823974609375
1782888973148488000,3.988488037109375,-0.9850006103515625,-0.0338592529296875,-0.0006561279296875
1782888973158467000,3.998467041015625,-0.985595703125,-0.034820556640625,-0.0005340576171875
1782888973168416000,4.008416015625,-0.9854583740234375,-0.0347747802734375,-0.0014190673828125
1782888973178365000,4.018364990234375,-0.9856719970703125,-0.0345916748046875,-0.0007171630859375
1782888973188313900,4.02831396484375,-0.9854736328125,-0.0341339111328125,-0.0003204345703125
1782888973198293000,4.03829296875,-0.985595703125,-0.0346527099609375,-0.0006561279296875
1782888973208242200,4.0482421875,-0.9859771728515625,-0.0340423583984375,-0.0001983642578125
1782888973218190000,4.058190185546875,-0.9865264892578125,-0.0348358154296875,-0.001190185546875
1782888973228139300,4.06813916015625,-0.985595703125,-0.0346832275390625,-0.000213623046875
1782888973238118100,4.0781181640625,-0.9854278564453125,-0.034210205078125,-0.0005035400390625
1782888973248067000,4.088067138671875,-0.9852294921875,-0.0343475341796875,-0.0012969970703125
1782888973258016000,4.09801611328125,-0.9857177734375,-0.0342559814453125,-0.0011749267578125
1782888973267965200,4.107965087890625,-0.9856719970703125,-0.033905029296875,-0.0009918212890625
1782888973277944000,4.117944091796875,-0.9858245849609375,-0.0345458984375,-0.000152587890625
1782888973287892200,4.127892333984375,-0.985687255859375,-0.0344390869140625,-0.0008392333984375
1782888973297841200,4.137841064453125,-0.9852752685546875,-0.0337371826171875,-0.001373291015625
1782888973307790000,4.1477900390625,-0.9848785400390625,-0.033538818359375,-0.00103759765625
1782888973317739000,4.157739013671875,-0.9848480224609375,-0.0341949462890625,-0.0004730224609375
1782888973327718100,4.16771826171875,-0.9852142333984375,-0.0331878662109375,-0.0008544921875
1782888973337667000,4.1776669921875,-0.986328125,-0.033935546875,-0.0009307861328125
1782888973347615000,4.187614990234375,-0.9851226806640625,-0.03515625,-0.0009613037109375
1782888973357564000,4.19756396484375,-0.9851531982421875,-0.033538818359375,-0.0005340576171875
1782888973367543000,4.20754296875,-0.986358642578125,-0.0334930419921875,-0.000274658203125
1782888973377492000,4.217491943359375,-0.9854583740234375,-0.0337066650390625,-0.000823974609375
1782888973387441200,4.227441162109375,-0.985992431640625,-0.0340118408203125,-0.0013275146484375
1782888973397390000,4.23739013671875,-0.985504150390625,-0.0344696044921875,-0.0002899169921875
1782888973407369200,4.247369140625,-0.9856719970703125,-0.0342559814453125,-0.0003509521484375
1782888973417318100,4.257318115234375,-0.9852447509765625,-0.0348052978515625,-0.000244140625
1782888973427266000,4.26726611328125,-0.9856109619140625,-0.0345306396484375,-0.0006256103515625
1782888973437215000,4.277215087890625,-0.9858856201171875,-0.0345001220703125,-0.0005340576171875
1782888973447194000,4.287194091796875,-0.9856109619140625,-0.0341796875,0.0000762939453125
1782888973457143000,4.29714306640625,-0.9858551025390625,-0.0344390869140625,0.0001068115234375
1782888973467092000,4.307092041015625,-0.9853057861328125,-0.034576416015625,-0.0005035400390625
1782888973477040000,4.3170400390625,-0.9852447509765625,-0.034759521484375,-0.00067138671875
1782888973487020000,4.32702001953125,-0.984893798828125,-0.0348358154296875,-0.000762939453125
1782888973496968000,4.336968017578125,-0.9849090576171875,-0.0333099365234375,-0.001190185546875
1782888973506917000,4.346917236328125,-0.98486328125,-0.0340118408203125,-0.0009307861328125
1782888973516866000,4.356865966796875,-0.98590087890625,-0.0339813232421875,-0.0014190673828125
1782888973526845000,4.366844970703125,-0.98590087890625,-0.035491943359375,-0.0006256103515625
1782888973536793900,4.3767939453125,-0.9841156005859375,-0.0337066650390625,0.0000152587890625
1782888973546743000,4.386742919921875,-0.986083984375,-0.033233642578125,-0.0004730224609375
1782888973556691200,4.396691162109375,-0.9847869873046875,-0.034393310546875,-0.000274658203125
1782888973566671000,4.406671142578125,-0.9850311279296875,-0.0345001220703125,-0.0001220703125
1782888973576619300,4.416619384765625,-0.986083984375,-0.033905029296875,-0.0000762939453125
1782888973586568200,4.426568115234375,-0.9852752685546875,-0.034942626953125,0.0003814697265625
1782888973596517000,4.43651708984375,-0.9854278564453125,-0.03436279296875,-0.0007781982421875
1782888973606496000,4.44649609375,-0.9849090576171875,-0.0345001220703125,-0.0011444091796875
1782888973616445200,4.456445068359375,-0.9850616455078125,-0.0343017578125,-0.000701904296875
1782888973626393000,4.46639306640625,-0.9857940673828125,-0.0343475341796875,-0.0001678466796875
1782888973636342000,4.476342041015625,-0.985321044921875,-0.034088134765625,-0.0005950927734375
1782888973646321200,4.486321044921875,-0.9850921630859375,-0.0348358154296875,-0.0008544921875
1782888973656270000,4.49627001953125,-0.9850006103515625,-0.0337066650390625,-0.00079345703125
1782888973666219000,4.506218994140625,-0.9853668212890625,-0.0346221923828125,-0.000701904296875
1782888973676168000,4.51616796875,-0.984466552734375,-0.0342254638671875,-0.000335693359375
1782888973686147000,4.52614697265625,-0.9853668212890625,-0.03497314453125,-0.0007171630859375
1782888973696096000,4.536095947265625,-0.98516845703125,-0.035003662109375,-0.00079345703125
1782888973706044000,4.5460439453125,-0.98565673828125,-0.034576416015625,-0.001007080078125
1782888973715993000,4.5559931640625,-0.9854888916015625,-0.0340728759765625,-0.000152587890625
1782888973725942000,4.56594189453125,-0.985931396484375,-0.0334625244140625,0.0000457763671875
1782888973735921200,4.575921142578125,-0.985382080078125,-0.034942626953125,-0.0001678466796875
1782888973745870000,4.5858701171875,-0.985992431640625,-0.034881591796875,0.000274658203125
1782888973755819000,4.595819091796875,-0.9857025146484375,-0.034637451171875,-0.0003814697265625
1782888973765767200,4.60576708984375,-0.98553466796875,-0.0337982177734375,-0.00018310546875
1782888973775746000,4.61574609375,-0.9851531982421875,-0.0337066650390625,-0.0002593994140625
1782888973785695000,4.625695068359375,-0.9857025146484375,-0.03448486328125,0.00006103515625
1782888973795644200,4.63564404296875,-0.98565673828125,-0.034698486328125,-0.0005035400390625
1782888973805593000,4.645593017578125,-0.9854278564453125,-0.033966064453125,-0.000885009765625
1782888973815572000,4.655572021484375,-0.984954833984375,-0.034149169921875,-0.0004730224609375
1782888973825521000,4.66552099609375,-0.986297607421875,-0.03509521484375,-0.00128173828125
1782888973835469000,4.675468994140625,-0.98626708984375,-0.0343017578125,-0.001861572265625
1782888973845418000,4.68541796875,-0.98583984375,-0.0342559814453125,-0.00048828125
1782888973855396900,4.69539697265625,-0.9852294921875,-0.0341033935546875,-0.0009307861328125
1782888973865346000,4.705345947265625,-0.985321044921875,-0.03472900390625,-0.0007171630859375
1782888973875295200,4.715295166015625,-0.985015869140625,-0.0340423583984375,0.00018310546875
1782888973885244200,4.725244140625,-0.9846343994140625,-0.0342864990234375,-0.0005950927734375
1782888973895223000,4.73522314453125,-0.9853515625,-0.0336761474609375,-0.0002288818359375
1782888973905172200,4.745172119140625,-0.9860382080078125,-0.0343017578125,-0.00042724609375
1782888973915120000,4.7551201171875,-0.985198974609375,-0.03582763671875,-0.00054931640625
1782888973925069000,4.765069091796875,-0.9858551025390625,-0.034942626953125,-0.0000152587890625
1782888973935048200,4.775048095703125,-0.98541259765625,-0.0343475341796875,0.000244140625
1782888973944997000,4.7849970703125,-0.9862060546875,-0.034149169921875,0.00054931640625
1782888973954946000,4.794946044921875,-0.985443115234375,-0.0343017578125,-0.00006103515625
1782888973964894000,4.80489404296875,-0.985595703125,-0.0341796875,-0.0001373291015625
1782888973974874000,4.8148740234375,-0.98529052734375,-0.0344085693359375,-0.0005645751953125
1782888973984822000,4.824822021484375,-0.98529052734375,-0.0347747802734375,-0.0001220703125
1782888973994771000,4.83477099609375,-0.9856414794921875,-0.0345611572265625,0.000457763671875
1782888974004719900,4.844719970703125,-0.985321044921875,-0.0339813232421875,0.0000457763671875
1782888974014699000,4.854698974609375,-0.9860382080078125,-0.034576416015625,-0.0011138916015625
1782888974024648000,4.86464794921875,-0.985198974609375,-0.0347747802734375,-0.0008544921875
1782888974034597000,4.87459716796875,-0.9859771728515625,-0.034698486328125,-0.000946044921875
1782888974044578600,4.88457861328125,-0.985076904296875,-0.0339508056640625,-0.00079345703125
1782888974054558500,4.894558349609375,-0.984466552734375,-0.03387451171875,-0.000701904296875
1782888974064506600,4.904506591796875,-0.9843597412109375,-0.03424072265625,-0.0006103515625
1782888974074455600,4.91445556640625,-0.98565673828125,-0.03369140625,0
1782888974084404500,4.924404541015625,-0.9849090576171875,-0.0333099365234375,-0.00030517578125
1782888974094383400,4.93438330078125,-0.984954833984375,-0.0339508056640625,-0.000335693359375
1782888974104332500,4.94433251953125,-0.986328125,-0.0341949462890625,-0.0004425048828125
1782888974114280400,4.954280517578125,-0.98468017578125,-0.0348968505859375,-0.00164794921875
1782888974124229400,4.9642294921875,-0.9847259521484375,-0.0340118408203125,-0.0004119873046875
1782888974134208500,4.97420849609375,-0.9854278564453125,-0.0344085693359375,-0.0003509521484375
1782888974144157400,4.984157470703125,-0.9843902587890625,-0.034423828125,-0.0006561279296875
1782888974154106400,4.9941064453125,-0.98443603515625,-0.033599853515625,-0.0003814697265625
1782888974164055300,5.00405517578125,-0.9854278564453125,-0.033477783203125,0.0004119873046875
1782888974174003500,5.01400341796875,-0.98553466796875,-0.0346832275390625,-0.0001678466796875
1782888974183983400,5.0239833984375,-0.9849700927734375,-0.0334320068359375,-0.0009918212890625
1782888974193931300,5.03393115234375,-0.9860992431640625,-0.033721923828125,-0.00018310546875
1782888974203880400,5.04388037109375,-0.98455810546875,-0.0343780517578125,-0.0005950927734375
1782888974213829600,5.05382958984375,-0.9846954345703125,-0.033843994140625,-0.000274658203125
1782888974223808500,5.06380859375,-0.9854583740234375,-0.0340728759765625,-0.0004119873046875
1782888974233757400,5.07375732421875,-0.9852752685546875,-0.0339202880859375,-0.0007781982421875
1782888974243706400,5.083706298828125,-0.98480224609375,-0.033905029296875,-0.0003662109375
1782888974253654500,5.093654541015625,-0.9854583740234375,-0.0340118408203125,-0.00091552734375
1782888974263633400,5.10363330078125,-0.985443115234375,-0.0348663330078125,-0.000579833984375
1782888974273582300,5.113582275390625,-0.9852447509765625,-0.0345611572265625,-0.0006256103515625
1782888974283531500,5.123531494140625,-0.9847564697265625,-0.0344696044921875,-0.0012359619140625
1782888974293480400,5.13348046875,-0.9853668212890625,-0.03399658203125,-0.0006103515625
1782888974303459300,5.143459228515625,-0.985076904296875,-0.0340423583984375,0.0000152587890625
1782888974313408300,5.153408203125,-0.98480224609375,-0.0349578857421875,-0.0009307861328125
1782888974323356400,5.1633564453125,-0.9850921630859375,-0.034027099609375,-0.00048828125
1782888974333305300,5.173305419921875,-0.9857025146484375,-0.033843994140625,-0.0008392333984375
1782888974343284500,5.183284423828125,-0.9852294921875,-0.03466796875,-0.0016326904296875
1782888974353233400,5.1932333984375,-0.9864959716796875,-0.0347442626953125,-0.00067138671875
1782888974363182600,5.2031826171875,-0.984893798828125,-0.0340576171875,0.0002288818359375
1782888974373131500,5.213131591796875,-0.985748291015625,-0.0342559814453125,-0.0004730224609375
1782888974383110400,5.2231103515625,-0.9857635498046875,-0.034423828125,-0.000274658203125
1782888974393059600,5.2330595703125,-0.985595703125,-0.0344085693359375,-0.0011138916015625
1782888974403007500,5.243007568359375,-0.985443115234375,-0.034149169921875,-0.00006103515625
1782888974412956400,5.252956298828125,-0.9854736328125,-0.0347747802734375,-0.000274658203125
1782888974422935600,5.262935546875,-0.985198974609375,-0.0345458984375,-0.0003662109375
1782888974432884500,5.272884521484375,-0.9849090576171875,-0.0337982177734375,-0.0010986328125
1782888974442833400,5.28283349609375,-0.9854583740234375,-0.03375244140625,-0.00103759765625
1782888974452781300,5.29278125,-0.985595703125,-0.0335693359375,-0.0006256103515625
1782888974462761500,5.302761474609375,-0.9850616455078125,-0.03369140625,-0.000335693359375
1782888974472709400,5.31270947265625,-0.9847869873046875,-0.033660888671875,-0.00128173828125
1782888974482658300,5.322658203125,-0.9857330322265625,-0.0337371826171875,-0.0003204345703125
1782888974492607200,5.332607177734375,-0.9859771728515625,-0.0340576171875,-0.00140380859375
1782888974502586400,5.34258642578125,-0.9856109619140625,-0.03411865234375,-0.0008392333984375
1782888974512535300,5.352535400390625,-0.985595703125,-0.0349578857421875,0.00030517578125
1782888974522484500,5.362484375,-0.9857940673828125,-0.033966064453125,0.000335693359375
1782888974532432600,5.3724326171875,-0.984649658203125,-0.0341339111328125,-0.001068115234375
1782888974542412500,5.38241259765625,-0.9844818115234375,-0.0340576171875,-0.0010986328125
1782888974552360400,5.3923603515625,-0.985198974609375,-0.0345306396484375,-0.001068115234375
1782888974562309400,5.402309326171875,-0.985107421875,-0.0336151123046875,-0.0001220703125
1782888974572258600,5.412258544921875,-0.9851531982421875,-0.033966064453125,-0.00006103515625
1782888974582206500,5.42220654296875,-0.9849853515625,-0.0342254638671875,0.0001373291015625
1782888974592186400,5.432186279296875,-0.984222412109375,-0.0337982177734375,0.00018310546875
1782888974602134500,5.442134521484375,-0.9851226806640625,-0.0341796875,-0.000030517578125
1782888974612083500,5.45208349609375,-0.9847869873046875,-0.0345611572265625,-0.0012664794921875
1782888974622032400,5.462032470703125,-0.9843597412109375,-0.0342559814453125,0.0000762939453125
1782888974632011500,5.472011474609375,-0.984527587890625,-0.03350830078125,0.00006103515625
1782888974641960400,5.48196044921875,-0.9846343994140625,-0.0346832275390625,-0.0007171630859375
1782888974651909400,5.491909423828125,-0.9858856201171875,-0.0346832275390625,-0.000701904296875
1782888974661857300,5.501857177734375,-0.986236572265625,-0.03509521484375,-0.0008087158203125
1782888974671837400,5.51183740234375,-0.9851226806640625,-0.0341796875,-0.0003509521484375
1782888974681785300,5.521785400390625,-0.9839630126953125,-0.0343780517578125,0.000030517578125
1782888974691734500,5.531734619140625,-0.985015869140625,-0.0348052978515625,-0.0000457763671875
1782888974701683500,5.541683349609375,-0.985626220703125,-0.034088134765625,-0.0005645751953125
1782888974711662600,5.55166259765625,-0.98486328125,-0.0334930419921875,-0.0005340576171875
1782888974721611500,5.561611572265625,-0.9860382080078125,-0.03424072265625,0.0001068115234375
1782888974731560400,5.571560546875,-0.985626220703125,-0.0342254638671875,-0.0001068115234375
1782888974741508600,5.581508544921875,-0.9847869873046875,-0.034576416015625,-0.000030517578125
1782888974751487500,5.591487548828125,-0.985443115234375,-0.0347137451171875,-0.0000457763671875
1782888974761436400,5.6014365234375,-0.984954833984375,-0.034271240234375,-0.000946044921875
1782888974771385300,5.61138525390625,-0.98541259765625,-0.0344390869140625,-0.000091552734375
1782888974781334500,5.62133447265625,-0.985809326171875,-0.0342559814453125,-0.00115966796875
1782888974791313400,5.6313134765625,-0.9854888916015625,-0.033935546875,-0.00103759765625
1782888974801262300,5.641262451171875,-0.9862518310546875,-0.0337677001953125,-0.000762939453125
1782888974811210500,5.65121044921875,-0.9854888916015625,-0.034210205078125,-0.000518798828125
1782888974821159400,5.661159423828125,-0.985198974609375,-0.0344085693359375,0.000213623046875
1782888974831138300,5.67113818359375,-0.9855804443359375,-0.035064697265625,-0.0001068115234375
1782888974841087200,5.681087158203125,-0.98577880859375,-0.035003662109375,-0.0001983642578125
1782888974851036700,5.69103662109375,-0.9853515625,-0.0340728759765625,0.0005340576171875
1782888974860985600,5.700985595703125,-0.9856414794921875,-0.0345916748046875,-0.00079345703125
1782888974870964500,5.710964599609375,-0.9859161376953125,-0.035064697265625,-0.0014801025390625
1782888974880913400,5.720913330078125,-0.98583984375,-0.0336456298828125,-0.0004425048828125
1782888974890861600,5.730861572265625,-0.98638916015625,-0.0350341796875,0.00030517578125
1782888974900810500,5.740810546875,-0.985931396484375,-0.0339202880859375,-0.0001220703125
1782888974910789400,5.750789306640625,-0.98614501953125,-0.0338897705078125,-0.0005950927734375
1782888974920738600,5.760738525390625,-0.9852447509765625,-0.0342559814453125,-0.0004730224609375
1782888974930687500,5.7706875,-0.9838714599609375,-0.0330047607421875,0.000091552734375
1782888974940635400,5.780635498046875,-0.9846038818359375,-0.034912109375,-0.000274658203125
1782888974950615300,5.790615234375,-0.984893798828125,-0.034454345703125,-0.0003814697265625
1782888974960563500,5.8005634765625,-0.98577880859375,-0.0340423583984375,-0.0011138916015625
1782888974970512400,5.810512451171875,-0.98480224609375,-0.03460693359375,-0.000946044921875
1782888974980461300,5.82046142578125,-0.984375,-0.03472900390625,-0.0011138916015625
1782888974990440400,5.8304404296875,-0.985565185546875,-0.03399658203125,-0.000701904296875
1782888975000389400,5.840389404296875,-0.9852142333984375,-0.034454345703125,-0.0006256103515625
1782888975010338600,5.850338623046875,-0.98583984375,-0.033721923828125,-0.0012054443359375
1782888975020286200,5.8602861328125,-0.98468017578125,-0.03350830078125,-0.0014801025390625
1782888975030235600,5.870235595703125,-0.98516845703125,-0.033660888671875,-0.0009765625
1782888975040214500,5.880214599609375,-0.985137939453125,-0.03350830078125,-0.0015411376953125
1782888975050153200,5.8901533203125,-0.984222412109375,-0.0343170166015625,-0.0013275146484375
1782888975060102100,5.90010205078125,-0.9849090576171875,-0.0334320068359375,-0.0005340576171875
1782888975070050300,5.91005029296875,-0.98553466796875,-0.034027099609375,0.000213623046875
1782888975080030200,5.9200302734375,-0.9841461181640625,-0.0351104736328125,-0.000244140625
1782888975089978000,5.92997802734375,-0.9852142333984375,-0.03466796875,-0.0007476806640625
1782888975099927600,5.939927490234375,-0.98590087890625,-0.0342559814453125,0.00030517578125
1782888975109876500,5.94987646484375,-0.9853973388671875,-0.0341644287109375,-0.0005950927734375
1782888975119855400,5.95985546875,-0.9852294921875,-0.0342864990234375,-0.001220703125
1782888975129804300,5.96980419921875,-0.98468017578125,-0.03424072265625,-0.001007080078125
1782888975139753200,5.979753173828125,-0.9854736328125,-0.0339508056640625,-0.0001678466796875
1782888975149701400,5.989701416015625,-0.985870361328125,-0.0343475341796875,-0.0004730224609375
1782888975159681300,5.999681396484375,-0.9857940673828125,-0.0355224609375,-0.00042724609375
1782888975169629400,6.00962939453125,-0.9849853515625,-0.03472900390625,-0.00091552734375
1782888975179578400,6.019578369140625,-0.985260009765625,-0.0357513427734375,-0.0008697509765625
1782888975189527300,6.02952734375,-0.9860992431640625,-0.0346221923828125,0.0004119873046875
1782888975199506200,6.039506103515625,-0.9859161376953125,-0.034912109375,-0.00006103515625
1782888975209455400,6.049455322265625,-0.985565185546875,-0.033843994140625,-0.0002593994140625
1782888975219404300,6.059404296875,-0.9847259521484375,-0.0340118408203125,-0.0008087158203125
1782888975229352200,6.069352294921875,-0.985198974609375,-0.0337982177734375,-0.0011749267578125
1782888975239331300,6.079331298828125,-0.984527587890625,-0.0336151123046875,-0.0005950927734375
1782888975249280300,6.0892802734375,-0.98516845703125,-0.034454345703125,-0.000823974609375
1782888975259229400,6.0992294921875,-0.9852142333984375,-0.0345306396484375,-0.000640869140625
1782888975269178400,6.109178466796875,-0.9854278564453125,-0.034332275390625,-0.00030517578125
1782888975279157500,6.119157470703125,-0.9856719970703125,-0.03436279296875,-0.0009765625
1782888975289106400,6.1291064453125,-0.985504150390625,-0.0341033935546875,-0.0009307861328125
1782888975299054300,6.139054443359375,-0.985504150390625,-0.03363037109375,-0.00048828125
1782888975309003300,6.149003173828125,-0.9856414794921875,-0.0333099365234375,-0.0000152587890625
1782888975318982400,6.158982421875,-0.98492431640625,-0.03411865234375,0.000244140625
1782888975328931300,6.168931396484375,-0.9854736328125,-0.03375244140625,-0.0009307861328125
1782888975338880300,6.17888037109375,-0.9856109619140625,-0.033050537109375,-0.001220703125
1782888975348829200,6.1888291015625,-0.98590087890625,-0.0344696044921875,-0.000152587890625
1782888975358808300,6.198808349609375,-0.985321044921875,-0.0340118408203125,-0.0006103515625
1782888975368757200,6.20875732421875,-0.9853515625,-0.03424072265625,-0.0007171630859375
1782888975378705200,6.218705078125,-0.9856414794921875,-0.0343017578125,-0.000244140625
1782888975388654300,6.228654296875,-0.9857025146484375,-0.034332275390625,-0.0001983642578125
1782888975398633200,6.23863330078125,-0.9847412109375,-0.032989501953125,-0.00091552734375
1782888975408582100,6.24858203125,-0.9854278564453125,-0.034423828125,-0.000640869140625
1782888975418531300,6.25853125,-0.985931396484375,-0.0342254638671875,-0.0009002685546875
1782888975428479200,6.268479248046875,-0.98583984375,-0.0345916748046875,-0.0009002685546875
1782888975438428400,6.278428466796875,-0.9858551025390625,-0.035491943359375,-0.000823974609375
1782888975448407300,6.2884072265625,-0.985504150390625,-0.0348358154296875,-0.0005645751953125
1782888975458356500,6.2983564453125,-0.9859771728515625,-0.0348052978515625,-0.0005035400390625
1782888975468305400,6.308305419921875,-0.985504150390625,-0.03485107421875,0.0005340576171875
1782888975478254300,6.31825439453125,-0.9844207763671875,-0.034027099609375,-0.0007476806640625
1782888975488233200,6.328233154296875,-0.9843597412109375,-0.0338897705078125,-0.00140380859375
1782888975498182400,6.338182373046875,-0.9850006103515625,-0.0335845947265625,-0.00079345703125
1782888975508130300,6.34813037109375,-0.9849090576171875,-0.0344085693359375,-0.001068115234375
1782888975518079200,6.358079345703125,-0.9855194091796875,-0.03472900390625,-0.0012969970703125
1782888975528058400,6.368058349609375,-0.98583984375,-0.0345458984375,-0.0010833740234375
1782888975538007300,6.37800732421875,-0.9847869873046875,-0.0342864990234375,-0.0008087158203125
1782888975547956200,6.387956298828125,-0.98626708984375,-0.033355712890625,-0.000640869140625
1782888975557904100,6.397904052734375,-0.986175537109375,-0.0340728759765625,-0.00018310546875
1782888975567884300,6.40788427734375,-0.9860076904296875,-0.0345001220703125,-0.0008392333984375
1782888975577832200,6.417832275390625,-0.9861602783203125,-0.0332794189453125,-0.0005035400390625
1782888975587781400,6.427781494140625,-0.9858856201171875,-0.034088134765625,0.000701904296875
1782888975597730300,6.437730224609375,-0.9851531982421875,-0.0346221923828125,0.0000457763671875
1782888975607709400,6.44770947265625,-0.985260009765625,-0.03375244140625,-0.0011749267578125
1782888975617658400,6.457658447265625,-0.9853668212890625,-0.0341339111328125,-0.0013580322265625
1782888975627607300,6.467607177734375,-0.9849853515625,-0.03411865234375,-0.0011444091796875
1782888975637555500,6.477555419921875,-0.9860382080078125,-0.0343170166015625,-0.0003509521484375
1782888975647535400,6.487535400390625,-0.98565673828125,-0.0344085693359375,-0.0006256103515625
1782888975657483300,6.497483154296875,-0.9854278564453125,-0.03485107421875,-0.0016632080078125
1782888975667432200,6.50743212890625,-0.98590087890625,-0.0350341796875,-0.0012969970703125
1782888975677381400,6.51738134765625,-0.985198974609375,-0.03375244140625,-0.0003662109375
1782888975687360300,6.5273603515625,-0.984954833984375,-0.0346832275390625,-0.000732421875
1782888975697309200,6.53730908203125,-0.9856719970703125,-0.0342864990234375,-0.0005645751953125
1782888975707258000,6.547258056640625,-0.98577880859375,-0.0345001220703125,-0.00030517578125
1782888975717206300,6.557206298828125,-0.9859619140625,-0.0348968505859375,-0.0001983642578125
1782888975727186200,6.567186279296875,-0.985992431640625,-0.0344390869140625,-0.000518798828125
1782888975737134300,6.57713427734375,-0.9851531982421875,-0.0347747802734375,-0.0004730224609375
1782888975747083500,6.58708349609375,-0.9860382080078125,-0.0344085693359375,-0.000946044921875
1782888975757032400,6.597032470703125,-0.9858856201171875,-0.0345916748046875,-0.0008697509765625
1782888975767011300,6.60701123046875,-0.9847412109375,-0.0342254638671875,-0.0001678466796875
1782888975776960300,6.616960205078125,-0.9851837158203125,-0.0349578857421875,-0.0008087158203125
1782888975786908400,6.626908447265625,-0.9856719970703125,-0.0343780517578125,-0.0014495849609375
1782888975796857300,6.636857421875,-0.9857940673828125,-0.0341644287109375,-0.0009765625
1782888975806836500,6.64683642578125,-0.9853057861328125,-0.0341033935546875,-0.0002288818359375
1782888975816785400,6.656785400390625,-0.9841461181640625,-0.034332275390625,-0.000091552734375
1782888975826734300,6.666734375,-0.9845428466796875,-0.034271240234375,0.000244140625
1782888975836683300,6.676683349609375,-0.985809326171875,-0.033843994140625,-0.000823974609375
1782888975846662400,6.686662353515625,-0.98492431640625,-0.033721923828125,-0.001251220703125
1782888975856611300,6.696611328125,-0.9854888916015625,-0.0346221923828125,-0.001129150390625
1782888975866559200,6.706559326171875,-0.98602294921875,-0.03369140625,-0.000823974609375
1782888975876508200,6.716508056640625,-0.9850616455078125,-0.0329132080078125,-0.000518798828125
1782888975886457000,6.72645703125,-0.9860076904296875,-0.03399658203125,-0.0007476806640625
1782888975896436200,6.736436279296875,-0.9857330322265625,-0.0346221923828125,-0.00042724609375
1782888975906385400,6.746385498046875,-0.985015869140625,-0.0336456298828125,0.000152587890625
1782888975916333300,6.756333251953125,-0.9852142333984375,-0.03466796875,-0.00103759765625
1782888975926282500,6.766282470703125,-0.9861297607421875,-0.034393310546875,-0.0015106201171875
1782888975936261400,6.776261474609375,-0.9856414794921875,-0.0350341796875,-0.0004730224609375
1782888975946210300,6.786210205078125,-0.9853363037109375,-0.0339813232421875,-0.000640869140625
1782888975956159200,6.7961591796875,-0.9864654541015625,-0.0340118408203125,-0.00189208984375
1782888975966108400,6.8061083984375,-0.9854736328125,-0.0336761474609375,-0.0010986328125
1782888975976087300,6.81608740234375,-0.9853057861328125,-0.0332489013671875,0.0000457763671875
1782888975986036200,6.8260361328125,-0.9850006103515625,-0.0342254638671875,-0.00030517578125
1782888975995984400,6.835984375,-0.9852294921875,-0.034423828125,-0.0008697509765625
1782888976005933300,6.845933349609375,-0.985076904296875,-0.0340423583984375,-0.0007781982421875
1782888976015912200,6.855912109375,-0.9856719970703125,-0.0346221923828125,-0.0011138916015625
1782888976025861400,6.865861328125,-0.985198974609375,-0.03570556640625,-0.0009765625
1782888976035810300,6.875810302734375,-0.985443115234375,-0.034149169921875,0.0001373291015625
1782888976045785000,6.88578515625,-0.9859161376953125,-0.033935546875,-0.0006866455078125
1782888976055765200,6.89576513671875,-0.985076904296875,-0.034393310546875,-0.0002899169921875
1782888976065713200,6.905713134765625,-0.9852142333984375,-0.0333099365234375,-0.000274658203125
1782888976075662000,6.915662109375,-0.9858551025390625,-0.0338897705078125,0.0001678466796875
1782888976085611300,6.925611328125,-0.9852294921875,-0.0341339111328125,-0.0002593994140625
1782888976095590100,6.935590087890625,-0.9848785400390625,-0.03448486328125,-0.0007781982421875
1782888976105539300,6.945539306640625,-0.98516845703125,-0.034332275390625,-0.0002899169921875
1782888976115488300,6.95548828125,-0.9854278564453125,-0.0342254638671875,-0.0002899169921875
1782888976125436400,6.9654365234375,-0.98504638671875,-0.0338287353515625,-0.001312255859375
1782888976135416300,6.975416259765625,-0.9852752685546875,-0.0342559814453125,-0.0005645751953125
1782888976145364200,6.9853642578125,-0.985687255859375,-0.0334625244140625,0.0003509521484375
1782888976155313200,6.995313232421875,-0.985687255859375,-0.0336151123046875,-0.0005035400390625
1782888976165262300,7.005262451171875,-0.9857025146484375,-0.0337677001953125,-0.000335693359375
1782888976175241200,7.0152412109375,-0.9862518310546875,-0.034515380859375,-0.000274658203125
1782888976185190100,7.025190185546875,-0.98614501953125,-0.0343475341796875,-0.0008697509765625
1782888976195139000,7.03513916015625,-0.9850616455078125,-0.03485107421875,-0.0002593994140625
1782888976205087200,7.045087158203125,-0.9846649169921875,-0.0343780517578125,-0.000091552734375
1782888976215067100,7.055067138671875,-0.98583984375,-0.034027099609375,-0.0010528564453125
1782888976225015000,7.06501513671875,-0.9854736328125,-0.03424072265625,-0.0002593994140625
1782888976234964200,7.074964111328125,-0.9855804443359375,-0.034759521484375,-0.00054931640625
1782888976244913400,7.084913330078125,-0.9854278564453125,-0.03472900390625,0.00030517578125
1782888976254892000,7.09489208984375,-0.9861297607421875,-0.0339813232421875,-0.0001678466796875
1782888976264841200,7.10484130859375,-0.9852752685546875,-0.033905029296875,-0.0005645751953125
1782888976274789400,7.114789306640625,-0.9855194091796875,-0.0341033935546875,-0.000244140625
1782888976284738300,7.12473828125,-0.9848785400390625,-0.0339813232421875,-0.0003814697265625
1782888976294687200,7.134687255859375,-0.9860382080078125,-0.0348358154296875,-0.0006561279296875
1782888976304666400,7.144666259765625,-0.9854736328125,-0.03436279296875,-0.00030517578125
1782888976314615300,7.154615234375,-0.9852294921875,-0.0342254638671875,-0.000640869140625
1782888976324564200,7.164564208984375,-0.9861297607421875,-0.033599853515625,-0.0011749267578125
1782888976334512000,7.17451220703125,-0.985809326171875,-0.034576416015625,-0.0009307861328125
1782888976344492300,7.1844921875,-0.9852142333984375,-0.0336456298828125,-0.0005645751953125
1782888976354440200,7.194440185546875,-0.9852447509765625,-0.0337371826171875,-0.000274658203125
1782888976364389000,7.20438916015625,-0.985198974609375,-0.034210205078125,-0.000396728515625
1782888976374338000,7.214338134765625,-0.98590087890625,-0.0340728759765625,0.0005035400390625
1782888976384317200,7.224317138671875,-0.98553466796875,-0.0348052978515625,-0.0001678466796875
1782888976394266000,7.23426611328125,-0.9862213134765625,-0.03472900390625,-0.0004730224609375
1782888976404214000,7.244214111328125,-0.9848785400390625,-0.034149169921875,-0.0002288818359375
1782888976414163200,7.2541630859375,-0.9854278564453125,-0.034149169921875,0.0000762939453125
1782888976424142000,7.26414208984375,-0.9850006103515625,-0.03363037109375,-0.0006256103515625
1782888976434091300,7.27409130859375,-0.9853973388671875,-0.0345001220703125,-0.0000152587890625
1782888976444040200,7.284040283203125,-0.985321044921875,-0.0338134765625,-0.00006103515625
1782888976453989400,7.2939892578125,-0.985260009765625,-0.0348663330078125,-0.0007781982421875
1782888976463968300,7.30396826171875,-0.9858856201171875,-0.0340423583984375,-0.00030517578125
1782888976473917200,7.313917236328125,-0.9849090576171875,-0.0342559814453125,-0.0000457763671875
1782888976483865300,7.323865234375,-0.986175537109375,-0.0346221923828125,-0.000823974609375
1782888976493814300,7.333814208984375,-0.986480712890625,-0.035186767578125,-0.0012359619140625
1782888976503793200,7.343793212890625,-0.985809326171875,-0.0348663330078125,-0.001373291015625
1782888976513742300,7.353742431640625,-0.9849700927734375,-0.0339508056640625,-0.0004425048828125
1782888976523691300,7.363691162109375,-0.9856414794921875,-0.034027099609375,-0.0011444091796875
1782888976533640200,7.37364013671875,-0.9854278564453125,-0.0340728759765625,-0.0015106201171875
1782888976543619000,7.383619140625,-0.9852447509765625,-0.033935546875,-0.000579833984375
1782888976553567200,7.393567138671875,-0.985687255859375,-0.034210205078125,-0.0004730224609375
1782888976563516200,7.40351611328125,-0.985809326171875,-0.0344696044921875,-0.000396728515625
1782888976573465300,7.41346533203125,-0.985107421875,-0.03509521484375,-0.0001373291015625
1782888976583444200,7.4234443359375,-0.9855499267578125,-0.0339508056640625,-0.0001220703125
1782888976593393400,7.433393310546875,-0.9858856201171875,-0.0342559814453125,0.000152587890625
1782888976603342300,7.44334228515625,-0.98626708984375,-0.0344085693359375,-0.0003814697265625
1782888976613290200,7.453290283203125,-0.9856719970703125,-0.03546142578125,-0.0011138916015625
1782888976623270400,7.4632705078125,-0.985321044921875,-0.03497314453125,-0.0003204345703125
1782888976633218300,7.47321826171875,-0.984100341796875,-0.034912109375,-0.0005645751953125
1782888976643167200,7.483167236328125,-0.9851531982421875,-0.0345916748046875,-0.001708984375
1782888976653116200,7.4931162109375,-0.9865570068359375,-0.0343475341796875,-0.0008697509765625
1782888976663095300,7.50309521484375,-0.9854888916015625,-0.0348968505859375,-0.0002593994140625
1782888976673044200,7.513044189453125,-0.985748291015625,-0.0350189208984375,0.00030517578125
1782888976682993200,7.5229931640625,-0.9853363037109375,-0.034515380859375,0.000091552734375
1782888976692941300,7.53294140625,-0.9848175048828125,-0.034515380859375,0.0003204345703125
1782888976702921200,7.542921142578125,-0.984619140625,-0.0340423583984375,-0.0009307861328125
1782888976712869000,7.552869140625,-0.9857025146484375,-0.0341339111328125,-0.00067138671875
1782888976722818000,7.562818115234375,-0.985809326171875,-0.0338897705078125,-0.000030517578125
1782888976732767200,7.572767333984375,-0.9861907958984375,-0.033111572265625,-0.0002899169921875
1782888976742715100,7.582715087890625,-0.9859161376953125,-0.0333099365234375,-0.0003509521484375
1782888976752695300,7.5926953125,-0.9849090576171875,-0.0341949462890625,-0.001434326171875
1782888976762643500,7.6026435546875,-0.9850006103515625,-0.0336761474609375,-0.0013427734375
1782888976772592400,7.61259228515625,-0.9847564697265625,-0.0345306396484375,-0.0006256103515625
1782888976782541300,7.622541259765625,-0.9856719970703125,-0.0341796875,-0.0011138916015625
1782888976792520200,7.632520263671875,-0.9856414794921875,-0.03460693359375,-0.0008087158203125
1782888976802469400,7.642469482421875,-0.9861907958984375,-0.0341033935546875,-0.0005035400390625
1782888976812418300,7.652418212890625,-0.9856109619140625,-0.034576416015625,-0.0000457763671875
1782888976822366200,7.6623662109375,-0.9849395751953125,-0.0345001220703125,-0.0010223388671875
1782888976832346000,7.67234619140625,-0.9853363037109375,-0.03411865234375,-0.0010986328125
1782888976842294300,7.682294189453125,-0.9852447509765625,-0.0343475341796875,-0.001220703125
1782888976852243200,7.6922431640625,-0.9860687255859375,-0.0340576171875,-0.0009002685546875
1782888976862192000,7.702192138671875,-0.9852752685546875,-0.03387451171875,-0.00128173828125
1782888976872171300,7.712171142578125,-0.984710693359375,-0.033843994140625,-0.0011749267578125
1782888976882120200,7.7221201171875,-0.984710693359375,-0.0345611572265625,-0.0011749267578125
1782888976892068000,7.732068115234375,-0.984893798828125,-0.03399658203125,-0.001190185546875
1782888976902017000,7.74201708984375,-0.9859771728515625,-0.0345916748046875,-0.000732421875
1782888976911996200,7.75199609375,-0.98614501953125,-0.0345001220703125,-0.00018310546875
1782888976921945300,7.7619453125,-0.985321044921875,-0.0344085693359375,-0.0004119873046875
1782888976931894300,7.771894287109375,-0.9847564697265625,-0.034454345703125,-0.00054931640625
1782888976941843200,7.78184326171875,-0.9845428466796875,-0.0341796875,-0.00067138671875
1782888976951822300,7.791822265625,-0.985870361328125,-0.0346832275390625,-0.0006561279296875
1782888976961771300,7.801771240234375,-0.9856414794921875,-0.0338897705078125,-0.00048828125
1782888976971719200,7.81171923828125,-0.9848480224609375,-0.033660888671875,-0.0005340576171875
1782888976981668400,7.82166845703125,-0.9850006103515625,-0.034332275390625,0.000274658203125
1782888976991647200,7.831647216796875,-0.98455810546875,-0.0338592529296875,0.0000762939453125
1782888977001596200,7.84159619140625,-0.9856109619140625,-0.033416748046875,-0.0006103515625
1782888977011545000,7.851545166015625,-0.985687255859375,-0.0340118408203125,-0.0008544921875
1782888977021494300,7.861494384765625,-0.9854278564453125,-0.0340118408203125,-0.0005950927734375
1782888977031473200,7.87147314453125,-0.98553466796875,-0.0339202880859375,0.0000152587890625
1782888977041421000,7.881421142578125,-0.9859771728515625,-0.034149169921875,0.000885009765625
1782888977051384600,7.891384521484375,-0.9855804443359375,-0.0341644287109375,0.0005340576171875
1782888977061333500,7.90133349609375,-0.9860382080078125,-0.0338287353515625,-0.0004730224609375
1782888977071312400,7.9113125,-0.9860382080078125,-0.0341796875,0.0000457763671875
1782888977081261300,7.92126123046875,-0.9852142333984375,-0.033538818359375,-0.00054931640625
1782888977091210200,7.931210205078125,-0.985198974609375,-0.033477783203125,-0.000732421875
1782888977101158400,7.941158447265625,-0.9857330322265625,-0.0347442626953125,-0.00018310546875
1782888977111138300,7.95113818359375,-0.9848785400390625,-0.0342254638671875,-0.00091552734375
1782888977121086500,7.96108642578125,-0.9846954345703125,-0.0348358154296875,-0.0010223388671875
1782888977131035400,7.971035400390625,-0.985504150390625,-0.0345001220703125,-0.0009918212890625
1782888977140984300,7.980984375,-0.9857177734375,-0.0337677001953125,-0.0005950927734375
1782888977150933200,7.990933349609375,-0.9854736328125,-0.033843994140625,-0.0006561279296875
1782888977160912400,8.000912353515625,-0.9852294921875,-0.034515380859375,-0.00067138671875
1782888977170861300,8.010861328125,-0.9852447509765625,-0.0337066650390625,-0.0007476806640625
1782888977180809200,8.020809326171875,-0.9857177734375,-0.0341033935546875,-0.0003509521484375
1782888977190758400,8.03075830078125,-0.986114501953125,-0.034759521484375,-0.0008392333984375
1782888977200737300,8.0407373046875,-0.9844207763671875,-0.034515380859375,-0.0016326904296875
1782888977210686500,8.0506865234375,-0.984832763671875,-0.0343017578125,-0.0009307861328125
1782888977220635400,8.060635498046874,-0.9863128662109375,-0.034576416015625,-0.000732421875
1782888977230583600,8.07058349609375,-0.986083984375,-0.03436279296875,-0.0001373291015625
1782888977240563500,8.0805634765625,-0.9852142333984375,-0.033843994140625,0.0000762939453125
1782888977250511400,8.090511474609375,-0.9853973388671875,-0.03466796875,-0.0003814697265625
1782888977260460300,8.100460205078125,-0.9860382080078125,-0.0346832275390625,0.0000457763671875
1782888977270409500,8.110409423828125,-0.9862060546875,-0.03424072265625,0.0003509521484375
1782888977280388400,8.120388427734374,-0.9859771728515625,-0.0334930419921875,0.0003662109375
1782888977290337300,8.130337158203124,-0.985076904296875,-0.0336151123046875,-0.0013580322265625
1782888977300286200,8.1402861328125,-0.9853363037109375,-0.0336151123046875,-0.001251220703125
1782888977310234400,8.150234375,-0.9869384765625,-0.033966064453125,-0.0003204345703125
1782888977320214300,8.16021435546875,-0.9852294921875,-0.034088134765625,-0.000335693359375
1782888977330162200,8.170162109375,-0.98486328125,-0.0348968505859375,-0.000732421875
1782888977340111400,8.180111328125,-0.98529052734375,-0.033721923828125,0
1782888977350060500,8.190060546875,-0.98480224609375,-0.034515380859375,0.0003509521484375
1782888977360039400,8.200039306640624,-0.9850006103515625,-0.034271240234375,-0.0012359619140625
1782888977369988400,8.20998828125,-0.98577880859375,-0.0336151123046875,-0.0005645751953125
1782888977379936500,8.2199365234375,-0.9856414794921875,-0.0343017578125,-0.000213623046875
1782888977389885400,8.229885498046874,-0.9859161376953125,-0.0349578857421875,-0.000762939453125
1782888977399864300,8.2398642578125,-0.9859619140625,-0.03466796875,-0.00048828125
1782888977409813500,8.2498134765625,-0.9858245849609375,-0.03369140625,-0.0007476806640625
1782888977419762400,8.259762451171875,-0.985748291015625,-0.03363037109375,-0.0007781982421875
1782888977429711400,8.26971142578125,-0.985107421875,-0.0344390869140625,-0.0004119873046875
1782888977439690200,8.279690185546874,-0.9861602783203125,-0.034149169921875,0.00079345703125
1782888977449639400,8.289639404296874,-0.985504150390625,-0.0350189208984375,-0.0002899169921875
1782888977459587300,8.29958740234375,-0.9865875244140625,-0.035003662109375,-0.0010223388671875
1782888977469536300,8.309536376953124,-0.985565185546875,-0.0338134765625,-0.0004730224609375
1782888977479515400,8.319515380859375,-0.985992431640625,-0.0351104736328125,-0.00079345703125
1782888977489464300,8.32946435546875,-0.98583984375,-0.0347747802734375,-0.0004425048828125
1782888977499413200,8.339413330078125,-0.98486328125,-0.0349578857421875,-0.000823974609375
1782888977509362400,8.349362548828125,-0.9856109619140625,-0.03338623046875,-0.000640869140625
1782888977519341600,8.359341552734374,-0.985748291015625,-0.032867431640625,-0.00054931640625
1782888977529289200,8.369289306640624,-0.9859771728515625,-0.0343017578125,-0.000091552734375
1782888977539238400,8.37923828125,-0.985565185546875,-0.03460693359375,-0.000244140625
1782888977549187300,8.389187255859374,-0.98583984375,-0.03399658203125,-0.0001220703125
1782888977559136500,8.399136474609374,-0.9849090576171875,-0.034271240234375,-0.0006256103515625
1782888977569115400,8.409115478515625,-0.98590087890625,-0.0346527099609375,-0.00103759765625
1782888977579064300,8.419064208984375,-0.9859771728515625,-0.0348663330078125,-0.000335693359375
1782888977589012500,8.429012451171875,-0.9852142333984375,-0.0345916748046875,-0.0007476806640625
1782888977598961400,8.43896142578125,-0.9856109619140625,-0.0341949462890625,-0.0001068115234375
1782888977608940300,8.448940185546874,-0.9849853515625,-0.0344390869140625,-0.0008392333984375
1782888977618889200,8.45888916015625,-0.9860076904296875,-0.03466796875,-0.0008392333984375
1782888977628838400,8.46883837890625,-0.9855499267578125,-0.034423828125,-0.001068115234375
1782888977638787300,8.478787353515624,-0.98529052734375,-0.034393310546875,-0.00018310546875
1782888977648766200,8.48876611328125,-0.985443115234375,-0.0348663330078125,-0.000640869140625
1782888977658715100,8.498715087890625,-0.9857635498046875,-0.0340118408203125,0.000213623046875
1782888977668663300,8.508663330078125,-0.9865570068359375,-0.0340118408203125,-0.0005645751953125
1782888977678612500,8.518612548828125,-0.984893798828125,-0.0343017578125,-0.0001678466796875
1782888977688591400,8.52859130859375,-0.98486328125,-0.0329437255859375,0.000213623046875
1782888977698540500,8.53854052734375,-0.98504638671875,-0.03387451171875,-0.0003509521484375
1782888977708489500,8.548489501953124,-0.9857635498046875,-0.034393310546875,-0.0003204345703125
1782888977718437400,8.558437255859374,-0.9849700927734375,-0.0340423583984375,0.00048828125
1782888977728417300,8.568417236328125,-0.9851226806640625,-0.03369140625,-0.0003662109375
1782888977738365400,8.578365478515625,-0.9846343994140625,-0.0349884033203125,-0.0001678466796875
1782888977748314400,8.588314453125,-0.984710693359375,-0.0337982177734375,-0.000152587890625
1782888977758263300,8.59826318359375,-0.9852294921875,-0.0340576171875,-0.0018157958984375
1782888977768242400,8.608242431640624,-0.9869384765625,-0.034423828125,-0.0006561279296875
1782888977778191400,8.61819140625,-0.985443115234375,-0.03448486328125,-0.0002899169921875
1782888977788140300,8.628140380859374,-0.9851837158203125,-0.03436279296875,-0.0007476806640625
1782888977798088200,8.638088134765624,-0.985382080078125,-0.0345611572265625,-0.0015411376953125
1782888977808068400,8.648068359375,-0.98602294921875,-0.0345306396484375,-0.000396728515625
1782888977818016300,8.658016357421875,-0.9854583740234375,-0.0347137451171875,-0.000274658203125
1782888977827965200,8.667965087890625,-0.9856109619140625,-0.034515380859375,-0.0010833740234375
1782888977837914400,8.677914306640625,-0.986724853515625,-0.0344085693359375,0.0005035400390625
1782888977847893200,8.687893310546874,-0.9851531982421875,-0.0335540771484375,-0.00042724609375
1782888977857842400,8.697842529296874,-0.985595703125,-0.03369140625,-0.0008087158203125
1782888977867790300,8.707790283203124,-0.985870361328125,-0.033538818359375,-0.0003814697265625
1782888977877739500,8.717739501953124,-0.9851226806640625,-0.034423828125,-0.000732421875
1782888977887718400,8.727718505859375,-0.984832763671875,-0.03363037109375,-0.0005035400390625
1782888977897667300,8.737667236328125,-0.985443115234375,-0.03387451171875,-0.0007171630859375
1782888977907616300,8.7476162109375,-0.9855804443359375,-0.0341033935546875,-0.0013885498046875
1782888977917565400,8.7575654296875,-0.98583984375,-0.0343475341796875,-0.0001220703125
1782888977927544300,8.76754443359375,-0.985748291015625,-0.032989501953125,0.0001373291015625
1782888977937493200,8.7774931640625,-0.98486328125,-0.0342864990234375,-0.0006103515625
1782888977947441400,8.78744140625,-0.98468017578125,-0.0342559814453125,-0.0009765625
1782888977957390300,8.797390380859374,-0.985260009765625,-0.034210205078125,0.0001220703125
1782888977967339300,8.80733935546875,-0.984710693359375,-0.03363037109375,-0.000885009765625
1782888977977318400,8.817318359375,-0.9853973388671875,-0.033782958984375,-0.001068115234375
1782888977987267300,8.827267333984375,-0.9866180419921875,-0.0340728759765625,-0.0006561279296875
1782888977997216500,8.837216552734375,-0.984619140625,-0.0344696044921875,-0.0009613037109375
1782888978007164200,8.8471640625,-0.9859466552734375,-0.0340576171875,-0.00042724609375
1782888978017143300,8.857143310546874,-0.9852142333984375,-0.0332489013671875,0.00006103515625
1782888978027092500,8.867092529296874,-0.9849700927734375,-0.0338592529296875,0.0001220703125
1782888978037041400,8.87704150390625,-0.984344482421875,-0.034210205078125,-0.0000762939453125
1782888978046990300,8.886990234375,-0.98577880859375,-0.0338897705078125,-0.0008544921875
1782888978057001700,8.897001708984375,-0.9857940673828125,-0.0337982177734375,-0.0008544921875
1782888978066951000,8.906950927734375,-0.9859161376953125,-0.0345458984375,-0.0005035400390625
1782888978076899000,8.916899169921875,-0.9860382080078125,-0.034698486328125,-0.00091552734375
1782888978086848000,8.926847900390625,-0.9861907958984375,-0.0342864990234375,-0.0001983642578125
1782888978096827100,8.9368271484375,-0.98614501953125,-0.033843994140625,-0.00067138671875
1782888978106776000,8.946776123046876,-0.9849853515625,-0.0342254638671875,-0.001068115234375
1782888978116725000,8.95672509765625,-0.984588623046875,-0.0348663330078125,0.0000152587890625
1782888978126674000,8.966673828125,-0.9862518310546875,-0.0337371826171875,0.0000152587890625
1782888978136653000,8.976653076171875,-0.985137939453125,-0.0352630615234375,-0.0003662109375
1782888978146602000,8.98660205078125,-0.984649658203125,-0.0347747802734375,-0.0000762939453125
1782888978156550000,8.9965498046875,-0.9854888916015625,-0.0339508056640625,-0.0001373291015625
1782888978166498800,9.006498779296875,-0.9854583740234375,-0.034820556640625,0.0001068115234375
1782888978176478000,9.01647802734375,-0.98614501953125,-0.0343780517578125,-0.0006561279296875
1782888978186427000,9.026427001953126,-0.9854583740234375,-0.0340423583984375,-0.0007476806640625
1782888978196375800,9.036375732421876,-0.9850006103515625,-0.0341033935546875,0.0000457763671875
1782888978206324000,9.046323974609376,-0.98529052734375,-0.0343017578125,-0.000213623046875
1782888978216303900,9.056303955078125,-0.986114501953125,-0.0342864990234375,-0.0002899169921875
1782888978226251800,9.066251708984375,-0.9854888916015625,-0.0345306396484375,-0.0003509521484375
1782888978236201000,9.076200927734375,-0.9857025146484375,-0.034149169921875,-0.000457763671875
1782888978246150100,9.086150146484375,-0.98565673828125,-0.0335540771484375,-0.0004119873046875
1782888978256129000,9.09612890625,-0.9862823486328125,-0.03399658203125,0.00006103515625
1782888978266078000,9.106077880859376,-0.985626220703125,-0.034332275390625,-0.0004119873046875
1782888978276027000,9.11602685546875,-0.985687255859375,-0.034637451171875,-0.0003509521484375
1782888978285975000,9.12597509765625,-0.98492431640625,-0.0336151123046875,-0.0001220703125
1782888978295955000,9.135954833984375,-0.9859161376953125,-0.0334930419921875,-0.0001220703125
1782888978305902800,9.14590283203125,-0.9857177734375,-0.0345306396484375,-0.0009002685546875
1782888978315852000,9.15585205078125,-0.985260009765625,-0.0344696044921875,-0.0009002685546875
1782888978325801000,9.165801025390625,-0.986175537109375,-0.034149169921875,0.0001220703125
1782888978335779800,9.17577978515625,-0.985687255859375,-0.0340423583984375,0.0005950927734375
1782888978345728800,9.185728759765626,-0.9857177734375,-0.035308837890625,-0.0000762939453125
1782888978355677000,9.195677001953126,-0.98583984375,-0.034576416015625,0.000640869140625
1782888978365625900,9.2056259765625,-0.985626220703125,-0.0341796875,-0.0014495849609375
1782888978375574800,9.21557470703125,-0.986328125,-0.0347747802734375,-0.00054931640625
1782888978385554000,9.225553955078125,-0.9859161376953125,-0.0352630615234375,-0.0006561279296875
1782888978395503000,9.235503173828125,-0.9857635498046875,-0.0345001220703125,0.0000457763671875
1782888978405452000,9.2454521484375,-0.985626220703125,-0.0340423583984375,-0.0008544921875
1782888978415400000,9.25539990234375,-0.9853057861328125,-0.0347747802734375,-0.0012969970703125
1782888978425380000,9.265380126953126,-0.985321044921875,-0.0341796875,-0.0010833740234375
1782888978435328000,9.275327880859376,-0.9862213134765625,-0.0344696044921875,-0.0001068115234375
1782888978445277000,9.28527685546875,-0.985260009765625,-0.0347137451171875,-0.000579833984375
1782888978455225900,9.295225830078126,-0.9849700927734375,-0.0343170166015625,-0.0000762939453125
1782888978465205000,9.305205078125,-0.9859466552734375,-0.03399658203125,-0.001190185546875
1782888978475154000,9.31515380859375,-0.984222412109375,-0.0342864990234375,-0.000579833984375
1782888978485102800,9.325102783203125,-0.98541259765625,-0.034637451171875,-0.000091552734375
1782888978495051000,9.335051025390625,-0.98565673828125,-0.0345458984375,-0.0003814697265625
1782888978505030000,9.34502978515625,-0.9858856201171875,-0.0335235595703125,-0.00018310546875
1782888978514978800,9.354978759765626,-0.9861602783203125,-0.0341644287109375,-0.001007080078125
1782888978524927700,9.364927734375,-0.9862518310546875,-0.0345458984375,-0.0004425048828125
1782888978534877000,9.374876953125,-0.9856414794921875,-0.033843994140625,-0.00079345703125
1782888978544855800,9.384855712890625,-0.9862518310546875,-0.03387451171875,-0.0002899169921875
1782888978554805000,9.394804931640625,-0.9862823486328125,-0.0343780517578125,-0.0008392333984375
1782888978564753200,9.404753173828125,-0.9863739013671875,-0.0336456298828125,-0.0001983642578125
1782888978574702000,9.4147021484375,-0.9855804443359375,-0.034515380859375,-0.0001373291015625
1782888978584681000,9.424680908203126,-0.9854736328125,-0.033966064453125,-0.000579833984375
1782888978594630000,9.4346298828125,-0.986053466796875,-0.0347137451171875,0.000396728515625
1782888978604579000,9.4445791015625,-0.9861297607421875,-0.0341339111328125,-0.0010833740234375
1782888978614528000,9.454528076171876,-0.985931396484375,-0.0341033935546875,-0.0000762939453125
1782888978624507000,9.4645068359375,-0.985870361328125,-0.0351409912109375,0.000091552734375
1782888978634455800,9.474455810546875,-0.9857177734375,-0.03424072265625,-0.0001220703125
1782888978644404000,9.484404052734375,-0.9847869873046875,-0.0341644287109375,-0.000396728515625
1782888978654353000,9.494352783203125,-0.9851226806640625,-0.034942626953125,-0.0005035400390625
1782888978664332000,9.50433203125,-0.9861602783203125,-0.0337677001953125,0.000244140625
1782888978674281000,9.514281005859376,-0.9851531982421875,-0.0336151123046875,-0.00018310546875
1782888978684230000,9.52422998046875,-0.9852752685546875,-0.034637451171875,-0.00079345703125
1782888978694177800,9.534177734375,-0.98583984375,-0.0348052978515625,-0.000640869140625
1782888978704158000,9.544157958984375,-0.985015869140625,-0.0343017578125,-0.0011138916015625
1782888978714105900,9.55410595703125,-0.9850006103515625,-0.0348052978515625,-0.000091552734375
1782888978724055000,9.564054931640625,-0.98583984375,-0.0336761474609375,0.0005950927734375
1782888978734004000,9.57400390625,-0.986236572265625,-0.0338592529296875,-0.000701904296875
1782888978743983000,9.583983154296876,-0.985687255859375,-0.0345001220703125,-0.0012359619140625
1782888978753932000,9.59393212890625,-0.9860382080078125,-0.034332275390625,-0.00091552734375
1782888978763881000,9.603880859375,-0.98590087890625,-0.034088134765625,-0.0004730224609375
1782888978773828900,9.613828857421876,-0.985260009765625,-0.0338134765625,-0.00048828125
1782888978783778000,9.623778076171876,-0.9854278564453125,-0.034698486328125,-0.000213623046875
1782888978793757000,9.6337568359375,-0.985321044921875,-0.033203125,-0.00054931640625
1782888978803705900,9.643705810546875,-0.9857635498046875,-0.033660888671875,-0.000457763671875
1782888978813654800,9.65365478515625,-0.9853057861328125,-0.0348663330078125,-0.000396728515625
1782888978823603000,9.66360302734375,-0.984710693359375,-0.03509521484375,-0.0000762939453125
1782888978833582800,9.673582763671876,-0.9852752685546875,-0.034332275390625,-0.0000152587890625
1782888978843531000,9.683531005859376,-0.985748291015625,-0.0341949462890625,-0.0003662109375
1782888978853480000,9.69347998046875,-0.9856719970703125,-0.03460693359375,-0.0006561279296875
1782888978863428900,9.703428955078126,-0.9852752685546875,-0.034423828125,-0.0011749267578125
1782888978873407700,9.71340771484375,-0.9860687255859375,-0.0341796875,-0.000732421875
1782888978883357000,9.72335693359375,-0.9855804443359375,-0.0344696044921875,-0.000213623046875
1782888978893306000,9.73330615234375,-0.9862060546875,-0.034820556640625,0.00030517578125
1782888978903254000,9.74325390625,-0.9859161376953125,-0.0338592529296875,-0.000274658203125
1782888978913234000,9.75323388671875,-0.985931396484375,-0.033660888671875,-0.000640869140625
1782888978923182000,9.76318212890625,-0.9866485595703125,-0.03369140625,-0.0001373291015625
1782888978933131000,9.773131103515626,-0.98565673828125,-0.0335235595703125,0.000335693359375
1782888978943080000,9.783079833984376,-0.9858551025390625,-0.0339813232421875,-0.000152587890625
1782888978953059000,9.79305908203125,-0.985504150390625,-0.033477783203125,-0.000152587890625
1782888978963008000,9.803008056640625,-0.9859466552734375,-0.0341949462890625,-0.000518798828125
1782888978972957000,9.81295703125,-0.98602294921875,-0.033721923828125,-0.000579833984375
1782888978982904800,9.82290478515625,-0.98565673828125,-0.0347442626953125,0
1782888978992885000,9.832885009765626,-0.98614501953125,-0.034210205078125,-0.0007171630859375
1782888979002833000,9.8428330078125,-0.985748291015625,-0.0338287353515625,-0.000732421875
1782888979012781800,9.85278173828125,-0.9864044189453125,-0.0341339111328125,-0.0005950927734375
1782888979022730800,9.862730712890626,-0.9859161376953125,-0.034027099609375,-0.000396728515625
1782888979032710000,9.8727099609375,-0.98529052734375,-0.0343017578125,-0.00091552734375
1782888979042659000,9.8826591796875,-0.9849090576171875,-0.034149169921875,-0.000244140625
1782888979052623600,9.89262353515625,-0.98583984375,-0.03424072265625,-0.0001678466796875
1782888979062572500,9.902572509765625,-0.985748291015625,-0.034515380859375,-0.0001983642578125
1782888979072551400,9.912551513671875,-0.985076904296875,-0.034210205078125,-0.0000457763671875
1782888979082500400,9.922500244140625,-0.985565185546875,-0.0347747802734375,-0.00042724609375
1782888979092449500,9.932449462890625,-0.984222412109375,-0.034393310546875,-0.000335693359375
1782888979102398500,9.9423984375,-0.9850616455078125,-0.0342559814453125,0.0008697509765625
1782888979112377300,9.95237744140625,-0.985595703125,-0.0347442626953125,0.0000152587890625
1782888979122326300,9.962326171875,-0.9855804443359375,-0.03399658203125,-0.000762939453125
1782888979132274400,9.9722744140625,-0.9854278564453125,-0.0343780517578125,-0.0006256103515625
1782888979142223400,9.982223388671875,-0.98681640625,-0.0351104736328125,-0.0001220703125
1782888979152202200,9.9922021484375,-0.9858856201171875,-0.0347747802734375,0.00042724609375
1782888979162151400,10.0021513671875,-0.9856414794921875,-0.03289794921875,-0.00042724609375
1782888979172100600,10.0121005859375,-0.98516845703125,-0.03411865234375,0.000396728515625
1782888979182048300,10.02204833984375,-0.9866790771484375,-0.0341644287109375,-0.000701904296875
1782888979191997400,10.03199755859375,-0.9852142333984375,-0.03363037109375,-0.000274658203125
1782888979201976600,10.0419765625,-0.9852447509765625,-0.0341949462890625,0.0000762939453125
1782888979211925500,10.051925537109375,-0.98553466796875,-0.0340576171875,-0.000701904296875
1782888979221874400,10.06187451171875,-0.98577880859375,-0.0345916748046875,-0.0007171630859375
1782888979231823400,10.0718232421875,-0.98626708984375,-0.03460693359375,-0.0000762939453125
1782888979241802500,10.081802490234375,-0.9853668212890625,-0.0343475341796875,-0.000152587890625
1782888979251751400,10.09175146484375,-0.9865264892578125,-0.0346527099609375,-0.0006561279296875
1782888979261699300,10.10169921875,-0.986297607421875,-0.0332794189453125,-0.0001373291015625
1782888979271648500,10.1116484375,-0.9855804443359375,-0.033905029296875,-0.0002593994140625
1782888979281627400,10.12162744140625,-0.9849853515625,-0.034576416015625,-0.000396728515625
1782888979291576300,10.131576416015625,-0.9859619140625,-0.0348663330078125,-0.0004119873046875
1782888979301525200,10.141525146484375,-0.985931396484375,-0.0341339111328125,-0.0011749267578125
1782888979311473400,10.151473388671874,-0.985137939453125,-0.034423828125,-0.0008697509765625
1782888979321453300,10.161453369140625,-0.985748291015625,-0.0350341796875,-0.0006103515625
1782888979331401500,10.1714013671875,-0.984954833984375,-0.034332275390625,-0.0005950927734375
1782888979341350700,10.1813505859375,-0.985260009765625,-0.034332275390625,-0.0003662109375
1782888979351299600,10.191299560546875,-0.9853973388671875,-0.0346221923828125,-0.001007080078125
1782888979361278500,10.201278564453125,-0.9860382080078125,-0.0348968505859375,-0.000579833984375
1782888979371227400,10.211227294921875,-0.9855194091796875,-0.0348358154296875,-0.000885009765625
1782888979381176600,10.221176513671875,-0.9848480224609375,-0.033843994140625,-0.0008087158203125
1782888979391124500,10.23112451171875,-0.9862060546875,-0.03436279296875,-0.0004119873046875
1782888979401104400,10.2411044921875,-0.9866180419921875,-0.0342254638671875,-0.000091552734375
1782888979411052500,10.251052490234375,-0.9858856201171875,-0.034271240234375,-0.000396728515625
1782888979421001500,10.26100146484375,-0.98577880859375,-0.034393310546875,-0.000732421875
1782888979430950400,10.270950439453125,-0.9853057861328125,-0.034820556640625,-0.0008392333984375
1782888979440929500,10.280929443359375,-0.9853363037109375,-0.034423828125,-0.000732421875
1782888979450878500,10.29087841796875,-0.985076904296875,-0.0341644287109375,-0.0007171630859375
1782888979460827400,10.300827392578125,-0.985595703125,-0.034088134765625,-0.00042724609375
1782888979470775300,10.310775390625,-0.9853668212890625,-0.0338287353515625,-0.000152587890625
1782888979480755500,10.32075537109375,-0.985565185546875,-0.0343170166015625,-0.00006103515625
1782888979490703400,10.330703369140625,-0.9861297607421875,-0.0335845947265625,-0.000701904296875
1782888979500652500,10.340652587890625,-0.985198974609375,-0.0340728759765625,-0.000701904296875
1782888979510601500,10.3506015625,-0.9858856201171875,-0.0335540771484375,-0.000579833984375
1782888979520580600,10.36058056640625,-0.9857177734375,-0.034027099609375,-0.0002899169921875
1782888979530529500,10.370529541015625,-0.985382080078125,-0.0341796875,0
1782888979540477400,10.3804775390625,-0.985595703125,-0.0339813232421875,-0.000244140625
1782888979550426400,10.39042626953125,-0.986572265625,-0.0340576171875,-0.0009918212890625
1782888979560405500,10.400405517578125,-0.9866485595703125,-0.03369140625,-0.0004730224609375
1782888979570354400,10.4103544921875,-0.9853973388671875,-0.0340728759765625,-0.0001220703125
1782888979580303400,10.420303466796875,-0.9850616455078125,-0.0328369140625,0.000091552734375
1782888979590252300,10.430252197265625,-0.9850616455078125,-0.033477783203125,-0.0007781982421875
1782888979600200400,10.440200439453125,-0.986328125,-0.034271240234375,-0.00067138671875
1782888979610180400,10.450180419921875,-0.985992431640625,-0.033966064453125,-0.0003509521484375
1782888979620128500,10.46012841796875,-0.9853363037109375,-0.0342559814453125,0.0004425048828125
1782888979630077400,10.470077392578125,-0.9863433837890625,-0.0336761474609375,-0.0001373291015625
1782888979640026400,10.4800263671875,-0.9853515625,-0.03387451171875,-0.0003204345703125
1782888979650005200,10.490005126953125,-0.9853057861328125,-0.0344696044921875,-0.0013580322265625
1782888979659954400,10.499954345703125,-0.9857330322265625,-0.0347900390625,-0.00006103515625
1782888979669902300,10.50990234375,-0.9850616455078125,-0.03485107421875,0.000274658203125
1782888979679851500,10.5198515625,-0.9854583740234375,-0.034454345703125,-0.001068115234375
1782888979689830700,10.52983056640625,-0.98590087890625,-0.03424072265625,-0.0005340576171875
1782888979699779600,10.539779541015625,-0.9859466552734375,-0.0339202880859375,0.00006103515625
1782888979709728500,10.549728515625,-0.985992431640625,-0.03466796875,-0.0002899169921875
1782888979719677400,10.559677490234375,-0.985687255859375,-0.034576416015625,-0.00030517578125
1782888979729656600,10.569656494140625,-0.98480224609375,-0.0350799560546875,-0.001373291015625
1782888979739605500,10.57960546875,-0.9845733642578125,-0.0342864990234375,-0.0011749267578125
1782888979749553400,10.589553466796875,-0.986419677734375,-0.034423828125,-0.0010833740234375
1782888979759502300,10.59950244140625,-0.9862518310546875,-0.034881591796875,-0.0004425048828125
1782888979769481500,10.6094814453125,-0.9852752685546875,-0.0341033935546875,-0.0002593994140625
1782888979779430400,10.619430419921875,-0.984893798828125,-0.034088134765625,0.000274658203125
1782888979789379300,10.62937939453125,-0.9857177734375,-0.0338897705078125,-0.0004119873046875
1782888979799328300,10.639328369140625,-0.986480712890625,-0.0344696044921875,-0.000335693359375
1782888979809307400,10.649307373046875,-0.9857177734375,-0.03515625,-0.0005645751953125
1782888979819255300,10.65925537109375,-0.9850311279296875,-0.0343017578125,-0.0006103515625
1782888979829204200,10.669204345703125,-0.9860076904296875,-0.034149169921875,-0.0007171630859375
1782888979839153400,10.6791533203125,-0.98638916015625,-0.03436279296875,-0.0008087158203125
1782888979849132500,10.689132568359375,-0.985687255859375,-0.0345001220703125,-0.000946044921875
1782888979859081500,10.69908154296875,-0.98602294921875,-0.0335540771484375,-0.000335693359375
1782888979869030400,10.709030517578125,-0.985137939453125,-0.034881591796875,0.0001068115234375
1782888979878978600,10.718978515625,-0.9853515625,-0.035919189453125,0.0002288818359375
1782888979888958500,10.72895849609375,-0.9853515625,-0.03448486328125,-0.0010833740234375
1782888979898906400,10.73890625,-0.9855499267578125,-0.0334320068359375,-0.001312255859375
1782888979908855600,10.74885546875,-0.985382080078125,-0.0344390869140625,-0.0001373291015625
1782888979918804500,10.758804443359375,-0.9856109619140625,-0.034210205078125,-0.000244140625
1782888979928783400,10.768783447265625,-0.9856719970703125,-0.0340576171875,-0.0009002685546875
1782888979938732300,10.778732177734375,-0.9858551025390625,-0.0338287353515625,-0.00042724609375
1782888979948681500,10.788681396484375,-0.985565185546875,-0.034423828125,-0.0004425048828125
1782888979958629400,10.79862939453125,-0.98583984375,-0.0345001220703125,-0.0002593994140625
1782888979968609300,10.808609375,-0.986297607421875,-0.03411865234375,-0.0009307861328125
1782888979978557400,10.818557373046875,-0.98565673828125,-0.0345916748046875,-0.0012054443359375
1782888979988506600,10.828506591796875,-0.985137939453125,-0.0346832275390625,-0.0012054443359375
1782888979998455600,10.83845556640625,-0.9857635498046875,-0.03399658203125,-0.0009918212890625
1782888980008403500,10.848403564453125,-0.9863739013671875,-0.03375244140625,-0.0006561279296875
1782888980018383600,10.858383544921875,-0.9853973388671875,-0.0337371826171875,-0.0003662109375
1782888980028331500,10.86833154296875,-0.986053466796875,-0.0343017578125,0.0001068115234375
1782888980038280400,10.878280517578125,-0.9866790771484375,-0.035369873046875,-0.000823974609375
1782888980048229400,10.8882294921875,-0.9857177734375,-0.0335845947265625,-0.0004730224609375
1782888980058210800,10.8982109375,-0.9854736328125,-0.03399658203125,-0.0001678466796875
1782888980068159700,10.90815966796875,-0.9858245849609375,-0.03411865234375,-0.0003509521484375
1782888980078109000,10.91810888671875,-0.9844970703125,-0.0333251953125,-0.000244140625
1782888980088057000,10.92805712890625,-0.98492431640625,-0.03375244140625,-0.000946044921875
1782888980098037000,10.938037109375,-0.9864044189453125,-0.034088134765625,-0.0008697509765625
1782888980107985000,10.94798486328125,-0.9855194091796875,-0.0338897705078125,0.0001220703125
1782888980117934000,10.95793408203125,-0.985443115234375,-0.0336151123046875,0.000030517578125
1782888980127883000,10.967883056640625,-0.9860076904296875,-0.034332275390625,0.000091552734375
1782888980137862000,10.97786181640625,-0.98614501953125,-0.0343017578125,0.0005645751953125
1782888980147810800,10.987810791015624,-0.9856719970703125,-0.0343170166015625,-0.00054931640625
1782888980157759000,10.997759033203126,-0.9857330322265625,-0.0344390869140625,-0.0007171630859375
1782888980167708000,11.0077080078125,-0.9864044189453125,-0.0346527099609375,-0.000579833984375
1782888980177687000,11.01768701171875,-0.986114501953125,-0.0343780517578125,-0.0007781982421875
1782888980187636000,11.027635986328125,-0.9863739013671875,-0.0345916748046875,-0.00042724609375
1782888980197585000,11.0375849609375,-0.9853363037109375,-0.03485107421875,0.000244140625
1782888980207533800,11.047533935546875,-0.9852294921875,-0.0346221923828125,-0.0000457763671875
1782888980217513000,11.057512939453124,-0.9864501953125,-0.0352630615234375,-0.001434326171875
1782888980227462100,11.067462158203124,-0.9857025146484375,-0.0342254638671875,-0.0018157958984375
1782888980237409800,11.077409912109376,-0.9859466552734375,-0.0341339111328125,-0.00152587890625
1782888980247359000,11.08735888671875,-0.9864349365234375,-0.0336456298828125,-0.001129150390625
1782888980257338000,11.097338134765625,-0.98602294921875,-0.03448486328125,-0.0009918212890625
1782888980267287000,11.107287109375,-0.9857025146484375,-0.03448486328125,-0.00128173828125
1782888980277236000,11.117236083984375,-0.9859466552734375,-0.03515625,-0.0013275146484375
1782888980287185000,11.127184814453125,-0.9864349365234375,-0.0340728759765625,-0.000518798828125
1782888980297164000,11.1371640625,-0.9856109619140625,-0.033843994140625,-0.0000762939453125
1782888980307112000,11.14711181640625,-0.986541748046875,-0.0342864990234375,0.00042724609375
1782888980317060900,11.157060791015626,-0.9866485595703125,-0.0338287353515625,0.0008697509765625
1782888980327009800,11.167009765625,-0.9867401123046875,-0.0352935791015625,-0.000244140625
1782888980336989000,11.176989013671875,-0.98626708984375,-0.034332275390625,-0.000946044921875
1782888980346937900,11.186937744140625,-0.98614501953125,-0.033416748046875,-0.00140380859375
1782888980356886800,11.19688671875,-0.986419677734375,-0.0344085693359375,-0.00018310546875
1782888980366835000,11.2068349609375,-0.9854888916015625,-0.0337066650390625,-0.0001220703125
1782888980376814800,11.21681494140625,-0.9849700927734375,-0.03436279296875,-0.0002899169921875
1782888980386762800,11.2267626953125,-0.985992431640625,-0.0347442626953125,0.0006103515625
1782888980396712000,11.2367119140625,-0.985626220703125,-0.034759521484375,0.0002899169921875
1782888980406661000,11.2466611328125,-0.985565185546875,-0.034423828125,0.0001373291015625
1782888980416610000,11.256610107421874,-0.9861602783203125,-0.034271240234375,-0.0002288818359375
1782888980426589000,11.2665888671875,-0.985504150390625,-0.0340576171875,-0.00128173828125
1782888980436537900,11.276537841796875,-0.9852142333984375,-0.034271240234375,-0.00103759765625
1782888980446486000,11.286486083984375,-0.986541748046875,-0.03485107421875,-0.000579833984375
1782888980456435000,11.29643505859375,-0.9860687255859375,-0.0348663330078125,-0.0010986328125
1782888980466414000,11.3064140625,-0.9858551025390625,-0.0349578857421875,-0.0019378662109375
1782888980476363000,11.316363037109374,-0.9867706298828125,-0.034942626953125,-0.001068115234375
1782888980486312000,11.32631201171875,-0.9857330322265625,-0.03375244140625,-0.00079345703125
1782888980496259800,11.336259765625,-0.985382080078125,-0.0331268310546875,-0.000579833984375
1782888980506240000,11.346239990234375,-0.984954833984375,-0.033782958984375,-0.0001983642578125
1782888980516188000,11.35618798828125,-0.9851837158203125,-0.03369140625,0.000335693359375
1782888980526136800,11.36613671875,-0.98577880859375,-0.034515380859375,-0.000579833984375
1782888980536085800,11.376085693359375,-0.9846649169921875,-0.0337982177734375,-0.000274658203125
1782888980546065000,11.38606494140625,-0.9852294921875,-0.033447265625,-0.0002593994140625
1782888980556013800,11.396013916015624,-0.985992431640625,-0.033660888671875,-0.0000457763671875
1782888980565963000,11.405962890625,-0.986541748046875,-0.0337066650390625,-0.00128173828125
1782888980575911200,11.4159111328125,-0.98663330078125,-0.034027099609375,-0.00067138671875
1782888980585891000,11.42589111328125,-0.9853363037109375,-0.034423828125,-0.000091552734375
1782888980595839000,11.4358388671875,-0.9863128662109375,-0.0350189208984375,0.0004425048828125
1782888980605788000,11.445787841796875,-0.986053466796875,-0.03546142578125,0.00018310546875
1782888980615737000,11.455737060546875,-0.986602783203125,-0.034881591796875,-0.000457763671875
1782888980625716000,11.465716064453124,-0.9921875,-0.0357818603515625,-0.0001068115234375
1782888980635665000,11.475664794921874,-0.9891357421875,-0.035247802734375,-0.0005035400390625
1782888980645613000,11.485613037109376,-0.9841766357421875,-0.0341033935546875,-0.002288818359375
1782888980655562000,11.49556201171875,-0.9818878173828125,-0.0333099365234375,-0.00262451171875
1782888980665540900,11.505540771484375,-0.983062744140625,-0.0330352783203125,-0.0020751953125
1782888980675489800,11.51548974609375,-0.9852447509765625,-0.03363037109375,-0.002593994140625
1782888980685439000,11.52543896484375,-0.9841766357421875,-0.03314208984375,-0.0016632080078125
1782888980695388000,11.535387939453125,-0.9843597412109375,-0.0332794189453125,-0.001678466796875
1782888980705366800,11.54536669921875,-0.9862823486328125,-0.0334014892578125,-0.0025634765625
1782888980715315700,11.555315673828124,-0.9864654541015625,-0.0319976806640625,-0.0029449462890625
1782888980725264000,11.565263916015626,-0.985809326171875,-0.0329132080078125,-0.0028228759765625
1782888980735213000,11.575213134765624,-0.985260009765625,-0.032867431640625,-0.00152587890625
1782888980745192000,11.58519189453125,-0.9840545654296875,-0.03277587890625,-0.0014801025390625
1782888980755141000,11.59514111328125,-0.986785888671875,-0.03253173828125,-0.000823974609375
1782888980765090000,11.605090087890625,-0.9858551025390625,-0.032928466796875,-0.0003662109375
1782888980775039000,11.6150390625,-0.98583984375,-0.03399658203125,-0.0009765625
1782888980784987000,11.62498681640625,-0.9871978759765625,-0.033782958984375,-0.001129150390625
1782888980794966000,11.634966064453126,-0.986236572265625,-0.03350830078125,-0.0014495849609375
1782888980804915000,11.6449150390625,-0.9857330322265625,-0.033477783203125,-0.0015411376953125
1782888980814864000,11.65486376953125,-0.9857330322265625,-0.032867431640625,-0.001312255859375
1782888980824812800,11.664812744140624,-0.986907958984375,-0.0333709716796875,-0.0017547607421875
1782888980834792000,11.6747919921875,-0.9860992431640625,-0.0332489013671875,-0.001068115234375
1782888980844740900,11.684740966796875,-0.9856109619140625,-0.034881591796875,-0.0019683837890625
1782888980854688800,11.694688720703125,-0.98565673828125,-0.0345001220703125,-0.0021514892578125
1782888980864638000,11.704637939453125,-0.985443115234375,-0.0341644287109375,-0.00274658203125
1782888980874616800,11.714616943359376,-0.98583984375,-0.0334930419921875,-0.00274658203125
1782888980884565800,11.724565673828126,-0.986541748046875,-0.034637451171875,-0.0018463134765625
1782888980894515000,11.734514892578124,-0.98583984375,-0.0334930419921875,-0.0021209716796875
1782888980904464100,11.744464111328124,-0.9856109619140625,-0.03387451171875,-0.001312255859375
1782888980914443000,11.754443115234375,-0.9852447509765625,-0.034271240234375,-0.0007476806640625
1782888980924392000,11.764391845703125,-0.986053466796875,-0.03314208984375,-0.001678466796875
1782888980934340000,11.774340087890625,-0.985870361328125,-0.0337982177734375,-0.0026397705078125
1782888980944289000,11.7842890625,-0.9847869873046875,-0.0330657958984375,-0.0031890869140625
1782888980954268000,11.794267822265626,-0.9844512939453125,-0.0328216552734375,-0.0027618408203125
1782888980964216800,11.804216796875,-0.984954833984375,-0.032684326171875,-0.0031585693359375
1782888980974166000,11.814166015625,-0.985748291015625,-0.0332183837890625,-0.0013580322265625
1782888980984114000,11.824114013671876,-0.9876861572265625,-0.0333099365234375,0.000640869140625
1782888980994093800,11.83409375,-0.986724853515625,-0.03399658203125,0.0007476806640625
1782888981004042000,11.8440419921875,-0.9840545654296875,-0.034454345703125,0.000152587890625
1782888981013991000,11.853990966796875,-0.98480224609375,-0.03399658203125,-0.00146484375
1782888981023939800,11.86393994140625,-0.9865875244140625,-0.0339813232421875,-0.001739501953125
1782888981033919000,11.8739189453125,-0.9854278564453125,-0.0332489013671875,-0.0031890869140625
1782888981043868000,11.883867919921874,-0.9864044189453125,-0.033233642578125,-0.0055084228515625
1782888981053832400,11.89383251953125,-0.9851226806640625,-0.032989501953125,-0.0055084228515625
1782888981063780600,11.903780517578125,-0.98565673828125,-0.033233642578125,-0.004150390625
1782888981073760500,11.913760498046875,-0.986083984375,-0.034942626953125,-0.0021514892578125
1782888981083708400,11.92370849609375,-0.98663330078125,-0.03485107421875,0.0002899169921875
1782888981093657600,11.93365771484375,-0.9856109619140625,-0.03436279296875,0.001129150390625
1782888981103606500,11.9436064453125,-0.9844818115234375,-0.03411865234375,0.0003662109375
1782888981113585400,11.95358544921875,-0.9858551025390625,-0.03326416015625,-0.0022125244140625
1782888981123534600,11.96353466796875,-0.9884185791015625,-0.033050537109375,-0.0023651123046875
1782888981133482500,11.973482421875,-0.985504150390625,-0.0325469970703125,-0.0035247802734375
1782888981143431700,11.983431640625,-0.9837188720703125,-0.032806396484375,-0.0055694580078125
1782888981153410600,11.99341064453125,-0.9822998046875,-0.032470703125,-0.0044097900390625
1782888981163359700,12.00335986328125,-0.9269256591796875,-0.02880859375,-0.0078887939453125
1782888981173308700,12.01330859375,-0.9689178466796875,-0.0297393798828125,-0.0081634521484375
1782888981183257600,12.023257568359375,-1.056243896484375,-0.0429534912109375,0.0201873779296875
1782888981193205500,12.03320556640625,-1.0071563720703125,-0.042877197265625,0.0173187255859375
1782888981203185700,12.043185546875,-0.9836273193359375,-0.0331268310546875,0.0006103515625
1782888981213133600,12.053133544921875,-0.9928436279296875,-0.036468505859375,0.004638671875
1782888981223082500,12.06308251953125,-1.0111846923828125,-0.03802490234375,0.00653076171875
1782888981233031400,12.073031494140626,-1.0030517578125,-0.0354461669921875,0.0025634765625
1782888981243010600,12.083010498046875,-0.94268798828125,-0.030426025390625,-0.010589599609375
1782888981252959500,12.09295947265625,-0.96380615234375,-0.0331573486328125,-0.0079193115234375
