time,seconds_elapsed,z,y,x
1783153425776975000,0.21697509765625,0.11545012891292572,-0.017714571207761765,0.0012216945178806782
1783153425786687200,0.226687255859375,0.1319430023431778,-0.0018325417768210173,0.01954711228609085
1783153425796399400,0.2363994140625,0.14110571146011353,0.006719320081174374,0.046424392610788345
1783153425806111500,0.246111572265625,0.14660334587097168,0.021379653364419937,0.07269082218408585
1783153425815823600,0.25582373046875,0.14721418917179108,0.03665083646774292,0.0916270911693573
1783153425825535700,0.26553564453125,0.14721418917179108,0.046424392610788345,0.09529217332601547
1783153425835247900,0.275247802734375,0.1459924876689911,0.053143709897994995,0.08796200156211853
1783153425844960000,0.2849599609375,0.14843589067459106,0.06169557198882103,0.07269082218408585
1783153425854672100,0.294672119140625,0.16126367449760437,0.08063183724880219,0.0525328628718853
1783153425864384300,0.30438427734375,0.17470231652259827,0.09529217332601547,0.029320668429136276
1783153425874096000,0.31409619140625,0.18814095854759216,0.10628741979598999,0.023212196305394173
1783153425883808300,0.323808349609375,0.1954711228609085,0.08918370306491852,0.029320668429136276
1783153425893520400,0.333520263671875,0.208298921585083,0.05925218388438225,0.03665083646774292
1783153425903232500,0.343232421875,0.22051586210727692,0.05741964280605316,0.04886778071522713
1783153425912944600,0.352944580078125,0.2241809368133545,0.08307522535324097,0.055587101727724075
1783153425922656800,0.36265673828125,0.22845686972141266,0.10689827054738998,0.056808795779943466
1783153425932369000,0.372368896484375,0.22906772792339325,0.12339114397764206,0.05619794875383377
1783153425942081000,0.3820810546875,0.2363978922367096,0.12155860662460327,0.055587101727724075
1783153425951793200,0.391793212890625,0.24128466844558716,0.12033691257238388,0.046424392610788345
1783153425961505300,0.40150537109375,0.2504473626613617,0.12033691257238388,0.04214845970273018
1783153425971217400,0.411217529296875,0.2583884000778198,0.12339114397764206,0.036039989441633224
1783153425980929500,0.420929443359375,0.26877278089523315,0.11361759155988693,0.03787253051996231
1783153425990641700,0.4306416015625,0.28282228112220764,0.09895725548267365,0.04337015375494957
1783153426000353800,0.440353759765625,0.29687178134918213,0.08918370306491852,0.05070032179355621
1783153426010066000,0.45006591796875,0.3176405727863312,0.08429691940546036,0.051922015845775604
1783153426019778000,0.459778076171875,0.3384093940258026,0.09345962852239609,0.05070032179355621
1783153426029490200,0.469490234375,0.3561239540576935,0.10201149433851242,0.04337015375494957
1783153426039202000,0.4792021484375,0.37567105889320374,0.11117420345544815,0.031153209507465363
1783153426048914200,0.4889140625,0.39766156673431396,0.10201149433851242,0.012827792204916477
1783153426058626300,0.498626220703125,0.41537612676620483,0.0781884491443634,0.006719320081174374
1783153426068338400,0.50833837890625,0.4349232614040375,0.06963659077882767,-0.004275931045413017
1783153426078050600,0.518050537109375,0.45324867963790894,0.07513421028852463,-0.012216945178806782
1783153426087762700,0.5277626953125,0.46241137385368347,0.07696675509214401,-0.015271181240677834
1783153426097474800,0.537474853515625,0.4727957844734192,0.07452336698770523,-0.022601349279284477
1783153426107187000,0.54718701171875,0.47890424728393555,0.07085828483104706,-0.024433890357613564
1783153426116899000,0.556899169921875,0.48806697130203247,0.07207997888326645,-0.030542362481355667
1783153426126611200,0.566611083984375,0.5051707029342651,0.06780404597520828,-0.026877280324697495
1783153426136323300,0.5763232421875,0.5326588153839111,0.04214845970273018,-0.012827792204916477
1783153426146035500,0.586035400390625,0.569309651851654,-0.007330167107284069,0.008551862090826035
1783153426155747600,0.59574755859375,0.6071822047233582,-0.08002099394798279,0.0397050715982914
1783153426165459700,0.605459716796875,0.6029062271118164,-0.20035789906978607,0.06291726976633072
1783153426175171800,0.615171875,0.5680879354476929,-0.2736595869064331,0.06658235192298889
1783153426184884000,0.624884033203125,0.5204418897628784,-0.2767138183116913,0.05497625470161438
1783153426194596000,0.63459619140625,0.4453076422214508,-0.20463383197784424,0.024433890357613564
1783153426204308200,0.64430810546875,0.342074453830719,-0.1423274129629135,0.0018325417768210173
1783153426214020400,0.654020263671875,0.29259583353996277,-0.1313321590423584,0.006719320081174374
1783153426223732500,0.663732421875,0.26694026589393616,-0.12522368133068085,0.018936265259981155
1783153426233444600,0.673444580078125,0.27915719151496887,-0.13927318155765533,0.033596597611904144
1783153426243156500,0.683156494140625,0.31092125177383423,-0.1447708010673523,0.02504473738372326
1783153426252868600,0.69286865234375,0.36039987206459045,-0.12278030067682266,0.0012216945178806782
1783153426262580700,0.702580810546875,0.4062134325504303,-0.038483377546072006,-0.03542914241552353
1783153426272292900,0.71229296875,0.4446968138217926,0.043981000781059265,-0.06658235192298889
1783153426282005000,0.7220048828125,0.48073679208755493,0.09345962852239609,-0.08918370306491852
1783153426291717000,0.731717041015625,0.5057815313339233,0.12278030067682266,-0.09834641218185425
1783153426301429200,0.74142919921875,0.5082249045372009,0.12583453953266144,-0.08918370306491852
1783153426311141400,0.751141357421875,0.4966188073158264,0.1178935244679451,-0.07085828483104706
1783153426320853500,0.760853515625,0.47768256068229675,0.1172826737165451,-0.051922015845775604
1783153426330565600,0.770565673828125,0.4581354558467865,0.11545012891292572,-0.02626643143594265
1783153426340277800,0.78027783203125,0.444085955619812,0.1185043677687645,-0.006108472589403391
1783153426349990000,0.789989990234375,0.43858832120895386,0.1185043677687645,0.010995250195264816
1783153426359702000,0.799701904296875,0.4471401870250702,0.13621893525123596,0.016492875292897224
1783153426369414100,0.8094140625,0.45385950803756714,0.1575985997915268,0.007941014133393764
1783153426379126300,0.819126220703125,0.45019441843032837,0.18814095854759216,-0.014660334214568138
1783153426388838400,0.82883837890625,0.43858832120895386,0.2235700935125351,-0.04459185153245926
1783153426398550500,0.838550537109375,0.42331716418266296,0.2602209448814392,-0.08307522535324097
1783153426408262700,0.8482626953125,0.4062134325504303,0.27976804971694946,-0.12400199472904205
1783153426417974800,0.857974853515625,0.38788801431655884,0.28221142292022705,-0.16492876410484314
1783153426427687000,0.86768701171875,0.3658975064754486,0.2773246467113495,-0.1948602795600891
1783153426437399000,0.87739892578125,0.34757208824157715,0.2742704153060913,-0.2229592502117157
1783153426447111200,0.887111083984375,0.33169007301330566,0.2895416021347046,-0.2376195788383484
1783153426456823300,0.8968232421875,0.3243598937988281,0.3176405727863312,-0.24617144465446472
1783153426466535400,0.906535400390625,0.32130566239356995,0.34879377484321594,-0.2498365342617035
1783153426476247600,0.91624755859375,0.3255815804004669,0.365286648273468,-0.24372805655002594
1783153426485959700,0.925959716796875,0.3280249834060669,0.3567348122596741,-0.24128466844558716
1783153426495671800,0.935671875,0.32374903559684753,0.3280249834060669,-0.2351761907339096
1783153426505384000,0.945384033203125,0.31825143098831177,0.29320669174194336,-0.22723518311977386
1783153426515095800,0.955095703125,0.3176405727863312,0.2089097648859024,-0.23090025782585144
1783153426524808000,0.964807861328125,0.31092125177383423,0.1172826737165451,-0.26816195249557495
1783153426534520000,0.97452001953125,0.3017585575580597,0.07696675509214401,-0.3292466700077057
1783153426544232200,0.984232177734375,0.2907632887363434,0.06291726976633072,-0.40254834294319153
1783153426553944300,0.9939443359375,0.27854636311531067,0.04153761267662048,-0.48073679208755493
1783153426563656400,1.003656494140625,0.2651077210903168,0.04886778071522713,-0.5442649126052856
1783153426573368600,1.01336865234375,0.2877090573310852,0.08551861345767975,-0.6035171151161194
1783153426583080700,1.023080810546875,0.3261924386024475,0.11422843486070633,-0.6487197875976562
1783153426592792800,1.032792724609375,0.3970507085323334,0.09773556143045425,-0.6774296164512634
1783153426602505000,1.0425048828125,0.48012593388557434,0.08490777015686035,-0.6957550048828125
1783153426612217000,1.052217041015625,0.550373375415802,0.09956810623407364,-0.7238540053367615
1783153426621929200,1.06192919921875,0.624285876750946,0.10078980028629303,-0.739736020565033
1783153426631641300,1.071641357421875,0.7091936469078064,0.09407047927379608,-0.7470661997795105
1783153426641353500,1.081353515625,0.7855495810508728,0.07269082218408585,-0.7427902817726135
1783153426651065600,1.091065673828125,0.8429692387580872,0.02993151545524597,-0.735460102558136
1783153426660777700,1.10077783203125,0.8863393664360046,-0.008551862090826035,-0.7336275577545166
1783153426670489900,1.11048974609375,0.9168817400932312,-0.038483377546072006,-0.7415685653686523
1783153426680202000,1.120201904296875,0.938872218132019,-0.06841489672660828,-0.7446228265762329
1783153426689914000,1.1299140625,0.948034942150116,-0.08735115826129913,-0.7366818189620972
1783153426699626200,1.139626220703125,0.9565867781639099,-0.09651386737823486,-0.7165238261222839
1783153426709338400,1.14933837890625,0.9565867781639099,-0.08674030750989914,-0.6786513328552246
1783153426719050500,1.159050537109375,0.9486457705497742,-0.08063183724880219,-0.6310052275657654
1783153426728762600,1.1687626953125,0.9339854717254639,-0.04214845970273018,-0.5760289430618286
1783153426738474800,1.178474853515625,0.8991671800613403,0.015271181240677834,-0.5106683373451233
1783153426748187000,1.188186767578125,0.841747522354126,0.09407047927379608,-0.4428642690181732
1783153426757899000,1.19789892578125,0.7666133046150208,0.19180603325366974,-0.3573456406593323
1783153426767611100,1.207611083984375,0.6700994372367859,0.2773246467113495,-0.2608317732810974
1783153426777323300,1.2173232421875,0.5625903010368347,0.33352261781692505,-0.16431790590286255
1783153426787035400,1.227035400390625,0.4703523814678192,0.34940463304519653,-0.07635590434074402
1783153426796747500,1.23674755859375,0.4330907166004181,0.3292466700077057,-0.007330167107284069
1783153426806459600,1.246459716796875,0.4679090082645416,0.29442837834358215,0.02870982140302658
1783153426816171500,1.256171630859375,0.5558710098266602,0.2754921019077301,0.03298575058579445
1783153426825884000,1.2658837890625,0.6688777208328247,0.284654825925827,0.007941014133393764
1783153426835596000,1.275595947265625,0.7800519466400146,0.3170297145843506,-0.033596597611904144
1783153426845308000,1.285307861328125,0.8729007244110107,0.3249707520008087,-0.07024743407964706
1783153426855020000,1.29502001953125,0.9382613897323608,0.2907632887363434,-0.0910162404179573
1783153426864732200,1.304732177734375,0.9914051294326782,0.22662433981895447,-0.08918370306491852
1783153426874444300,1.3144443359375,1.0237799882888794,0.16431790590286255,-0.07207997888326645
1783153426884156400,1.324156494140625,1.0274450778961182,0.12400199472904205,-0.05131116881966591
1783153426893868500,1.33386865234375,1.0066763162612915,0.09834641218185425,-0.03237490355968475
1783153426903580700,1.34358056640625,0.9840749502182007,0.09834641218185425,-0.012827792204916477
1783153426913292800,1.353292724609375,0.9718579649925232,0.12766708433628082,-0.0006108472589403391
1783153426923005000,1.3630048828125,0.9767447710037231,0.14782503247261047,0.01832541823387146
1783153426932717000,1.372717041015625,1.0054545402526855,0.1569877415895462,0.034818295389413834
1783153426942429200,1.38242919921875,1.035386085510254,0.15393351018428802,0.047646086663007736
1783153426952141300,1.392141357421875,1.0579874515533447,0.11667182296514511,0.05864133685827255
1783153426961853400,1.401853515625,1.0695935487747192,0.06719319522380829,0.05864133685827255
1783153426971565600,1.411565673828125,1.073258638381958,0.046424392610788345,0.04581354558467865
1783153426981277700,1.421277587890625,1.0598199367523193,0.05131116881966591,0.013438640162348747
1783153426990989800,1.43098974609375,1.0396620035171509,0.08368607610464096,-0.02870982140302658
1783153427000702000,1.440701904296875,1.0109522342681885,0.13805148005485535,-0.0647498071193695
1783153427010414000,1.4504140625,0.9822424054145813,0.1716480851173401,-0.08612946420907974
1783153427020126200,1.460126220703125,0.9492566585540771,0.182643324136734,-0.08307522535324097
1783153427029838300,1.46983837890625,0.92054682970047,0.16187451779842377,-0.05803048983216286
1783153427039550500,1.479550537109375,0.888171911239624,0.13805148005485535,-0.037261683493852615
1783153427049262600,1.4892626953125,0.8545753359794617,0.14782503247261047,-0.023212196305394173
1783153427058974700,1.498974609375,0.8264763355255127,0.182643324136734,-0.020157959312200546
1783153427068686800,1.508686767578125,0.8020424246788025,0.1973036676645279,-0.016492875292897224
1783153427078399000,1.51839892578125,0.786771297454834,0.2223484069108963,-0.02626643143594265
1783153427088111000,1.528111083984375,0.7690566778182983,0.26632940769195557,-0.03298575058579445
1783153427097823200,1.5378232421875,0.7372926473617554,0.3176405727863312,-0.04153761267662048
1783153427107535400,1.547535400390625,0.6853706240653992,0.30847787857055664,-0.04031591862440109
1783153427117247500,1.55724755859375,0.6163448691368103,0.288930743932724,-0.034818295389413834
1783153427126959600,1.566959716796875,0.5412106513977051,0.27060532569885254,-0.042759306728839874
1783153427136671700,1.576671630859375,0.4947862923145294,0.25777754187583923,-0.0787992998957634
1783153427146384000,1.5863837890625,0.46241137385368347,0.30786702036857605,-0.15515519678592682
1783153427156096000,1.596095947265625,0.4825693368911743,0.4056025743484497,-0.25411245226860046
1783153427165808000,1.60580810546875,0.5570927262306213,0.5033381581306458,-0.3640649616718292
1783153427175520300,1.615520263671875,0.6426113247871399,0.5796940326690674,-0.4715740978717804
1783153427185232400,1.625232421875,0.7098045349121094,0.5888567566871643,-0.5632011890411377
1783153427194944500,1.634944580078125,0.7415685653686523,0.5638120174407959,-0.5980194807052612
1783153427204656600,1.64465673828125,0.7391251921653748,0.46363306045532227,-0.569309651851654
1783153427214368800,1.65436865234375,0.7287407517433167,0.3432961702346802,-0.4837910234928131
1783153427224081000,1.664080810546875,0.7055285573005676,0.29259583353996277,-0.3646758198738098
1783153427233792800,1.673792724609375,0.6743753552436829,0.3005368411540985,-0.22967857122421265
1783153427243505200,1.683505126953125,0.6340594291687012,0.34451785683631897,-0.09651386737823486
1783153427253217300,1.69321728515625,0.5913001298904419,0.40132665634155273,0.012827792204916477
1783153427262929400,1.702929443359375,0.5491516590118408,0.45385950803756714,0.1185043677687645
1783153427272641300,1.712641357421875,0.5149442553520203,0.49417543411254883,0.21196399629116058
1783153427282353400,1.722353515625,0.4978405237197876,0.4831801950931549,0.2993151545524597
1783153427292065500,1.7320654296875,0.497229665517807,0.41232189536094666,0.37506023049354553
1783153427301777700,1.741777587890625,0.5015056133270264,0.31947311758995056,0.4422534108161926
1783153427311490000,1.751489990234375,0.5125008225440979,0.21685077250003815,0.49112120270729065
1783153427321202000,1.761201904296875,0.5369347333908081,0.12339114397764206,0.5137225389480591
1783153427330914000,1.7709140625,0.5870242118835449,0.07269082218408585,0.5118899941444397
1783153427340626200,1.780626220703125,0.6603258848190308,0.06841489672660828,0.4868452548980713
1783153427350338300,1.79033837890625,0.7458444833755493,0.10201149433851242,0.4343124032020569
1783153427360050400,1.800050537109375,0.8399149775505066,0.15393351018428802,0.35978904366493225
1783153427369762600,1.809762451171875,0.9284878373146057,0.2095206081867218,0.265718549489975
1783153427379474700,1.819474609375,1.0152281522750854,0.24678228795528412,0.16187451779842377
1783153427389186800,1.829186767578125,1.0891406536102295,0.2357870489358902,0.05375456064939499
1783153427398899000,1.83889892578125,1.13800847530365,0.20219044387340546,-0.04581354558467865
1783153427408611000,1.848611083984375,1.1667182445526123,0.15087927877902985,-0.12216944992542267
1783153427418323200,1.8583232421875,1.1740484237670898,0.09895725548267365,-0.183865025639534
1783153427428035300,1.868035400390625,1.159998893737793,0.08002099394798279,-0.22479179501533508
1783153427437747500,1.87774755859375,1.1245697736740112,0.0781884491443634,-0.2357870489358902
1783153427447459600,1.88745947265625,1.0830321311950684,0.07024743407964706,-0.21868331730365753
1783153427457171700,1.897171630859375,1.035386085510254,0.07207997888326645,-0.183865025639534
1783153427466883800,1.9068837890625,0.9859074950218201,0.07635590434074402,-0.13499724864959717
1783153427476596000,1.916595947265625,0.9284878373146057,0.08735115826129913,-0.08429691940546036
1783153427486308000,1.92630810546875,0.8741224408149719,0.10750912129878998,-0.033596597611904144
1783153427496020200,1.936020263671875,0.8167027831077576,0.1429382562637329,0.007941014133393764
1783153427505732400,1.945732421875,0.762948215007782,0.18814095854759216,0.03237490355968475
1783153427515444500,1.955444580078125,0.7232431769371033,0.2363978922367096,0.036039989441633224
1783153427525156600,1.965156494140625,0.6920899152755737,0.2870981991291046,0.02993151545524597
1783153427534868700,1.97486865234375,0.6694886088371277,0.2608317732810974,0.00916270911693573
1783153427544580900,1.984580810546875,0.6584933400154114,0.2107423096895218,-0.017714571207761765
1783153427554293000,1.99429296875,0.6548282504081726,0.183865025639534,-0.05131116881966591
1783153427564005000,2.004005126953125,0.6536065936088562,0.1557660549879074,-0.09407047927379608
1783153427573717200,2.01371728515625,0.6670452356338501,0.10995250940322876,-0.14049486815929413
1783153427583429400,2.023429443359375,0.7018635272979736,0.09590301662683487,-0.183865025639534
1783153427593141500,2.0331416015625,0.7440119385719299,0.0922379344701767,-0.2107423096895218
1783153427602853600,2.042853515625,0.7696675658226013,0.0781884491443634,-0.2107423096895218
1783153427612565800,2.052565673828125,0.7769976854324341,0.05619794875383377,-0.1832541823387146
1783153427622278000,2.06227783203125,0.7525638341903687,0.01954711228609085,-0.1447708010673523
1783153427631990000,2.071989990234375,0.6969767212867737,-0.009773556143045425,-0.1050657257437706
1783153427641702100,2.0817021484375,0.6230642199516296,-0.01832541823387146,-0.06963659077882767
1783153427651414300,2.091414306640625,0.5491516590118408,-0.04153761267662048,-0.0390942245721817
1783153427661126400,2.10112646484375,0.49417543411254883,-0.07757759839296341,-0.017714571207761765
1783153427670838500,2.110838623046875,0.4618005156517029,-0.12644538283348083,0.0036650835536420345
1783153427680550700,2.120550537109375,0.4349232614040375,-0.1832541823387146,0.03176405653357506
1783153427690262800,2.1302626953125,0.4086568057537079,-0.2113531529903412,0.04703523963689804
1783153427699975000,2.139974853515625,0.3836120665073395,-0.20524467527866364,0.05008947476744652
1783153427709687000,2.14968701171875,0.3432961702346802,-0.17714570462703705,0.04947862774133682
1783153427719399200,2.159399169921875,0.3029802441596985,-0.15515519678592682,0.05619794875383377
1783153427729111300,2.169111328125,0.2608317732810974,-0.15332266688346863,0.08124268800020218
1783153427738823400,2.178823486328125,0.2095206081867218,-0.1704263836145401,0.1185043677687645
1783153427748535600,2.18853564453125,0.15943112969398499,-0.20035789906978607,0.16004198789596558
1783153427758247700,2.19824755859375,0.11483928561210632,-0.24250635504722595,0.19913621246814728
1783153427767959800,2.207959716796875,0.08918370306491852,-0.24556060135364532,0.22906772792339325
1783153427777672000,2.217671875,0.07391251623630524,-0.21746163070201874,0.24250635504722595
1783153427787384000,2.227384033203125,0.07391251623630524,-0.16615045070648193,0.2376195788383484
1783153427797096200,2.23709619140625,0.08429691940546036,-0.09651386737823486,0.21501824259757996
1783153427806808300,2.246808349609375,0.09284878522157669,-0.03787253051996231,0.17348061501979828
1783153427816520400,2.2565205078125,0.0922379344701767,-0.028098974376916885,0.13499724864959717
1783153427826232600,2.266232666015625,0.08185353130102158,-0.06902574002742767,0.09956810623407364
1783153427835944700,2.27594482421875,0.0647498071193695,-0.15515519678592682,0.05864133685827255
1783153427845656800,2.28565673828125,0.0397050715982914,-0.2718270421028137,0.017714571207761765
1783153427855369000,2.295368896484375,0.01710372418165207,-0.3781144618988037,-0.013438640162348747
1783153427865081000,2.3050810546875,0.007330167107284069,-0.4086568057537079,-0.0390942245721817
1783153427874793200,2.314793212890625,0.01038440316915512,-0.36223241686820984,-0.0647498071193695
1783153427884505300,2.32450537109375,0.012827792204916477,-0.26755109429359436,-0.09040539711713791
1783153427894217500,2.334217529296875,0.0006108472589403391,-0.14171656966209412,-0.10262233763933182
1783153427903929600,2.3439296875,-0.02993151545524597,-0.038483377546072006,-0.11178504675626755
1783153427913641500,2.353641357421875,-0.06352811306715012,0.012827792204916477,-0.11483928561210632
1783153427923353600,2.363353515625,-0.10078980028629303,0.0525328628718853,-0.12705622613430023
1783153427933066000,2.37306591796875,-0.11361759155988693,0.04581354558467865,-0.13927318155765533
1783153427942778000,2.382778076171875,-0.11911521852016449,-0.02076880633831024,-0.13866232335567474
1783153427952490200,2.392490234375,-0.130721315741539,-0.0781884491443634,-0.11361759155988693
1783153427962202000,2.4022021484375,-0.14904673397541046,-0.16065283119678497,-0.046424392610788345
1783153427971914200,2.411914306640625,-0.17531315982341766,-0.26999449729919434,0.028098974376916885
1783153427981626400,2.42162646484375,-0.23273280262947083,-0.3396310806274414,0.1050657257437706
1783153427991338500,2.43133837890625,-0.2987042963504791,-0.4080459773540497,0.16431790590286255
1783153428001051000,2.44105078125,-0.3530697226524353,-0.469741553068161,0.1954711228609085
1783153428010762800,2.4507626953125,-0.3903313875198364,-0.546097457408905,0.1985253542661667
1783153428020475000,2.460474853515625,-0.42331716418266296,-0.5766398310661316,0.1710372269153595
1783153428030187000,2.47018701171875,-0.4618005156517029,-0.5699204802513123,0.1178935244679451
1783153428039899100,2.479899169921875,-0.5002838969230652,-0.5241069197654724,0.07391251623630524
1783153428049611300,2.489611328125,-0.5430431962013245,-0.4611896872520447,0.043981000781059265
1783153428059323400,2.499323486328125,-0.578472375869751,-0.416597843170166,0.04825693368911743
1783153428069035500,2.509035400390625,-0.5949652194976807,-0.3658975064754486,0.07452336698770523
1783153428078747600,2.51874755859375,-0.5919110178947449,-0.30603447556495667,0.11178504675626755
1783153428088459800,2.528459716796875,-0.569309651851654,-0.22906772792339325,0.16431790590286255
1783153428098172000,2.538171875,-0.550373375415802,-0.14843589067459106,0.20768806338310242
1783153428107884000,2.547884033203125,-0.5210527181625366,-0.04031591862440109,0.22723518311977386
1783153428117596200,2.55759619140625,-0.4825693368911743,0.06352811306715012,0.22051586210727692
1783153428127308300,2.567308349609375,-0.4599680006504059,0.1435490995645523,0.18569757044315338
1783153428137020400,2.5770205078125,-0.446529358625412,0.17775654792785645,0.12583453953266144
1783153428146732500,2.586732666015625,-0.4367557764053345,0.17653486132621765,0.04581354558467865
1783153428156444700,2.596444580078125,-0.42576053738594055,0.15210096538066864,-0.05131116881966591
1783153428166156800,2.60615673828125,-0.4062134325504303,0.0922379344701767,-0.1435490995645523
1783153428175869000,2.615868896484375,-0.37506023049354553,0.014049487188458443,-0.21746163070201874
1783153428185581000,2.6255810546875,-0.3426853120326996,-0.043981000781059265,-0.2608317732810974
1783153428195293200,2.635293212890625,-0.3115321099758148,-0.07391251623630524,-0.28160059452056885
1783153428205005300,2.64500537109375,-0.29442837834358215,-0.07452336698770523,-0.2718270421028137
1783153428214717400,2.654717529296875,-0.2877090573310852,-0.047646086663007736,-0.24189551174640656
1783153428224429600,2.6644296875,-0.28037887811660767,-0.01038440316915512,-0.1966928243637085
1783153428234141700,2.6741416015625,-0.27060532569885254,0.031153209507465363,-0.1582094430923462
1783153428243853800,2.683853759765625,-0.25411245226860046,0.08124268800020218,-0.14049486815929413
1783153428253566000,2.69356591796875,-0.22906772792339325,0.11483928561210632,-0.13988402485847473
1783153428263278000,2.703278076171875,-0.1954711228609085,0.1313321590423584,-0.16370706260204315
1783153428272990200,2.712990234375,-0.16431790590286255,0.13927318155765533,-0.20280128717422485
1783153428282702300,2.722702392578125,-0.1325538605451584,0.13866232335567474,-0.25411245226860046
1783153428292414500,2.73241455078125,-0.1050657257437706,0.11606097966432571,-0.2980934679508209
1783153428302126600,2.742126708984375,-0.07696675509214401,0.0922379344701767,-0.3292466700077057
1783153428311838700,2.751838623046875,-0.04947862774133682,0.07391251623630524,-0.3365768492221832
1783153428321550800,2.76155078125,-0.021379653364419937,0.0653606578707695,-0.3304683566093445
1783153428331263000,2.771262939453125,0.005497625097632408,0.0647498071193695,-0.3115321099758148
1783153428340975000,2.78097509765625,0.03298575058579445,0.08979454636573792,-0.291374146938324
1783153428350687200,2.790687255859375,0.07330167293548584,0.1453816443681717,-0.2754921019077301
1783153428360399400,2.8003994140625,0.12216944992542267,0.1979145109653473,-0.26694026589393616
1783153428370111500,2.810111572265625,0.17470231652259827,0.21990501880645752,-0.2608317732810974
1783153428379823600,2.81982373046875,0.2211267054080963,0.21929416060447693,-0.25472331047058105
1783153428389535700,2.82953564453125,0.25472331047058105,0.2376195788383484,-0.25716668367385864
1783153428399248000,2.839247802734375,0.27121618390083313,0.2510582208633423,-0.26938363909721375
1783153428408960000,2.8489599609375,0.2761029601097107,0.2718270421028137,-0.2761029601097107
1783153428418672000,2.858672119140625,0.26632940769195557,0.3115321099758148,-0.2724378705024719
1783153428428384300,2.86838427734375,0.24128466844558716,0.35856732726097107,-0.24067382514476776
1783153428438096400,2.878096435546875,0.208298921585083,0.37322768568992615,-0.1820324808359146
1783153428447808500,2.88780859375,0.17470231652259827,0.35856732726097107,-0.08612946420907974
1783153428457520600,2.897520751953125,0.13927318155765533,0.33169007301330566,0.028098974376916885
1783153428467232800,2.907232666015625,0.11117420345544815,0.31092125177383423,0.13682979345321655
1783153428476945000,2.91694482421875,0.09651386737823486,0.3170297145843506,0.2211267054080963
1783153428486657000,2.926656982421875,0.08857285231351852,0.3426853120326996,0.27976804971694946
1783153428496369200,2.936369140625,0.0781884491443634,0.37078428268432617,0.3139754831790924
1783153428506081300,2.946081298828125,0.06413896381855011,0.4037700295448303,0.3286358118057251
1783153428515793400,2.95579345703125,0.05497625470161438,0.4715740978717804,0.33535513281822205
1783153428525505500,2.965505615234375,0.056808795779943466,0.5045598149299622,0.3390202224254608
1783153428535217700,2.9752177734375,0.07452336698770523,0.497229665517807,0.3402419090270996
1783153428544929800,2.9849296875,0.10384403169155121,0.4752391576766968,0.3304683566093445
1783153428554642000,2.994641845703125,0.12583453953266144,0.4471401870250702,0.314586341381073
1783153428564354000,3.00435400390625,0.1313321590423584,0.40010493993759155,0.2919849753379822
1783153428574066200,3.014066162109375,0.12155860662460327,0.37444937229156494,0.25289076566696167
1783153428583778300,3.0237783203125,0.09529217332601547,0.3781144618988037,0.2113531529903412
1783153428593490400,3.033490478515625,0.047646086663007736,0.40254834294319153,0.16553960740566254
1783153428603202600,3.04320263671875,-0.014660334214568138,0.418430358171463,0.13499724864959717
1783153428612914700,3.052914794921875,-0.0916270911693573,0.4178195297718048,0.11239589750766754
1783153428622626800,3.062626708984375,-0.1557660549879074,0.4611896872520447,0.09345962852239609
1783153428632339000,3.0723388671875,-0.17714570462703705,0.5809157490730286,0.07391251623630524
1783153428642051000,3.082051025390625,-0.17348061501979828,0.70797199010849,0.03420744836330414
1783153428651763200,3.09176318359375,-0.182643324136734,0.81425940990448,-0.014049487188458443
1783153428661475300,3.101475341796875,-0.19180603325366974,0.9352071285247803,-0.07024743407964706
1783153428671187500,3.1111875,-0.13927318155765533,1.0811996459960938,-0.14049486815929413
1783153428680899600,3.120899658203125,-0.03787253051996231,1.1716049909591675,-0.22845686972141266
1783153428690611700,3.13061181640625,0.053143709897994995,1.1905412673950195,-0.33352261781692505
1783153428700323800,3.14032373046875,0.09956810623407364,1.136786699295044,-0.42576053738594055
1783153428710036000,3.150035888671875,0.1056765764951706,0.9584193229675293,-0.47829338908195496
1783153428719748000,3.159748046875,0.08185353130102158,0.6902574300765991,-0.4813476502895355
1783153428729460200,3.169460205078125,0.02870982140302658,0.41048935055732727,-0.4569137394428253
1783153428739172400,3.17917236328125,-0.07330167293548584,0.18019993603229523,-0.41048935055732727
1783153428748884500,3.188884521484375,-0.21257483959197998,0.04703523963689804,-0.34757208824157715
1783153428758596600,3.1985966796875,-0.3658975064754486,0.02626643143594265,-0.2602209448814392
1783153428768308700,3.208308837890625,-0.5063923597335815,0.09895725548267365,-0.13988402485847473
1783153428778020900,3.218020751953125,-0.6114581227302551,0.17836740612983704,0.007941014133393764
1783153428787733000,3.22773291015625,-0.679872989654541,0.20707722008228302,0.16492876410484314
1783153428797445000,3.237445068359375,-0.7098045349121094,0.20768806338310242,0.3170297145843506
1783153428807157200,3.2471572265625,-0.7043069005012512,0.19974705576896667,0.4294256269931793
1783153428816869400,3.256869384765625,-0.6768187880516052,0.18814095854759216,0.4868452548980713
1783153428826581500,3.26658154296875,-0.6267293095588684,0.19119518995285034,0.47707170248031616
1783153428836293600,3.276293701171875,-0.5729747414588928,0.1698155403137207,0.41293275356292725
1783153428846005800,3.286005859375,-0.5210527181625366,0.12278030067682266,0.30481278896331787
1783153428855718000,3.2957177734375,-0.45508119463920593,0.03542914241552353,0.1698155403137207
1783153428865430000,3.305429931640625,-0.37689274549484253,-0.08002099394798279,0.012827792204916477
1783153428875142100,3.31514208984375,-0.2919849753379822,-0.19913621246814728,-0.13866232335567474
1783153428884854300,3.324854248046875,-0.20157960057258606,-0.3017585575580597,-0.2919849753379822
1783153428894566400,3.33456640625,-0.11239589750766754,-0.40193748474121094,-0.4343124032020569
1783153428904278500,3.344278564453125,-0.023212196305394173,-0.5112791657447815,-0.5668662786483765
1783153428913990700,3.35399072265625,0.054365407675504684,-0.6108472347259521,-0.6878139972686768
1783153428923702800,3.363702880859375,0.0922379344701767,-0.684148907661438,-0.8026533126831055
1783153428933415000,3.373414794921875,0.08002099394798279,-0.7360709309577942,-0.8942803740501404
1783153428943127000,3.383126953125,0.022601349279284477,-0.7317950129508972,-0.9681929349899292
1783153428952839200,3.392839111328125,-0.061084724962711334,-0.6725428104400635,-1.0115630626678467
1783153428962551300,3.40255126953125,-0.1588202863931656,-0.550373375415802,-1.018282413482666
1783153428972263400,3.412263427734375,-0.2583884000778198,-0.3701734244823456,-0.9706363081932068
1783153428981975600,3.4219755859375,-0.34512871503829956,-0.18569757044315338,-0.8600729703903198
1783153428991687700,3.431687744140625,-0.41293275356292725,-0.03420744836330414,-0.6884248852729797
1783153429001399800,3.44139990234375,-0.4563029110431671,0.061084724962711334,-0.47829338908195496
1783153429011112000,3.45111181640625,-0.4721849262714386,0.11667182296514511,-0.2626643180847168
1783153429020824000,3.460823974609375,-0.4703523814678192,0.11911521852016449,-0.07513421028852463
1783153429030536200,3.4705361328125,-0.446529358625412,0.0647498071193695,0.04947862774133682
1783153429040248300,3.480248291015625,-0.40132665634155273,0.004275931045413017,0.12339114397764206
1783153429049960400,3.48996044921875,-0.3536805510520935,-0.08551861345767975,0.11667182296514511
1783153429059672600,3.499672607421875,-0.30908870697021484,-0.17470231652259827,0.04703523963689804
1783153429069384700,3.509384765625,-0.2852656841278076,-0.23151111602783203,-0.08002099394798279
1783153429079096800,3.519096923828125,-0.28221142292022705,-0.2522799074649811,-0.24006296694278717
1783153429088809000,3.52880908203125,-0.29442837834358215,-0.25777754187583923,-0.393385648727417
1783153429098521000,3.53852099609375,-0.3127537965774536,-0.25533416867256165,-0.5149442553520203
1783153429108233200,3.548233154296875,-0.32130566239356995,-0.25655585527420044,-0.5839699506759644
1783153429117945300,3.5579453125,-0.32069480419158936,-0.22784602642059326,-0.5955760478973389
1783153429127657500,3.567657470703125,-0.31947311758995056,-0.18753011524677277,-0.5405998229980469
1783153429137369600,3.57736962890625,-0.31886225938796997,-0.13988402485847473,-0.4459185004234314
1783153429147081700,3.587081787109375,-0.3274141252040863,-0.10262233763933182,-0.32252734899520874
1783153429156793900,3.5967939453125,-0.33291175961494446,-0.06413896381855011,-0.18569757044315338
1783153429166506000,3.606506103515625,-0.337798535823822,-0.03787253051996231,-0.04703523963689804
1783153429176218000,3.616218017578125,-0.33291175961494446,-0.045202698558568954,0.07024743407964706
1783153429185930200,3.62593017578125,-0.3158080279827118,-0.06658235192298889,0.15454435348510742
1783153429195642400,3.635642333984375,-0.3005368411540985,-0.08063183724880219,0.1979145109653473
1783153429205354500,3.6453544921875,-0.29259583353996277,-0.12339114397764206,0.20768806338310242
1783153429215066600,3.655066650390625,-0.29381752014160156,-0.17592400312423706,0.19119518995285034
1783153429224778800,3.66477880859375,-0.2919849753379822,-0.20402298867702484,0.15210096538066864
1783153429234491000,3.674490966796875,-0.29442837834358215,-0.21623992919921875,0.11056335270404816
1783153429244203000,3.684203125,-0.30969956517219543,-0.2223484069108963,0.0787992998957634
1783153429253915100,3.6939150390625,-0.3310792148113251,-0.22906772792339325,0.06841489672660828
1783153429263627300,3.703627197265625,-0.367730051279068,-0.24433889985084534,0.08735115826129913
1783153429273339400,3.71333935546875,-0.4056025743484497,-0.2602209448814392,0.11972606182098389
1783153429283051500,3.723051513671875,-0.4459185004234314,-0.265718549489975,0.15393351018428802
1783153429292763600,3.732763671875,-0.4862344264984131,-0.2626643180847168,0.18936264514923096
1783153429302475800,3.742475830078125,-0.5302154421806335,-0.2602209448814392,0.22906772792339325
1783153429312188000,3.75218798828125,-0.5607577562332153,-0.2748812735080719,0.2608317732810974
1783153429321900000,3.761900146484375,-0.5803049206733704,-0.3017585575580597,0.29565006494522095
1783153429331612200,3.771612060546875,-0.5894675850868225,-0.312142938375473,0.3164188861846924
1783153429341324300,3.78132421875,-0.5949652194976807,-0.3274141252040863,0.33169007301330566
1783153429351036400,3.791036376953125,-0.6108472347259521,-0.3561239540576935,0.3530697226524353
1783153429360748500,3.80074853515625,-0.6542174220085144,-0.40254834294319153,0.37444937229156494
1783153429370460700,3.810460693359375,-0.7275190949440002,-0.43981003761291504,0.40193748474121094
1783153429380172800,3.8201728515625,-0.8148702383041382,-0.4715740978717804,0.42881476879119873
1783153429389885000,3.829885009765625,-0.897334635257721,-0.5051707029342651,0.45019441843032837
1783153429399597000,3.83959716796875,-0.9663603901863098,-0.5259394645690918,0.4752391576766968
1783153429409309200,3.84930908203125,-1.012784719467163,-0.5448757410049438,0.5161659121513367
1783153429419021300,3.859021240234375,-1.0494356155395508,-0.5522059202194214,0.569309651851654
1783153429428733400,3.8687333984375,-1.0830321311950684,-0.5540384650230408,0.6328377723693848
1783153429438445600,3.878445556640625,-1.1202938556671143,-0.5277720093727112,0.6988092660903931
1783153429448157700,3.88815771484375,-1.166107416152954,-0.4868452548980713,0.7568397521972656
1783153429457869800,3.897869873046875,-1.216196894645691,-0.45263782143592834,0.8203678727149963
1783153429467582000,3.90758203125,-1.2754490375518799,-0.4172086715698242,0.8961129188537598
1783153429477294000,3.917294189453125,-1.3421077728271484,-0.3897205591201782,0.9828532338142395
1783153429487006200,3.927006103515625,-1.4154094457626343,-0.3805578351020813,1.0665392875671387
1783153429496718300,3.93671826171875,-1.502760648727417,-0.38483378291130066,1.1459494829177856
1783153429506430500,3.946430419921875,-1.5907225608825684,-0.4172086715698242,1.2143644094467163
1783153429516142600,3.956142578125,-1.6756303310394287,-0.4862344264984131,1.2754490375518799
1783153429525854700,3.965854736328125,-1.7544296979904175,-0.6016845703125,1.3194301128387451
1783153429535566800,3.97556689453125,-1.8204011917114258,-0.7372926473617554,1.3334795236587524
1783153429545279000,3.985279052734375,-1.8668255805969238,-0.8704573512077332,1.3029371500015259
1783153429554991000,3.9949912109375,-1.9022547006607056,-0.9694145917892456,1.2155860662460327
1783153429564703200,4.004703125,-1.936462163925171,-1.0366077423095703,1.077534556388855
1783153429574415400,4.014415283203125,-1.9547876119613647,-1.0427162647247314,0.896723747253418
1783153429584127500,4.02412744140625,-1.95967435836792,-1.0103414058685303,0.6981984376907349
1783153429593839600,4.033839599609375,-1.9670045375823975,-1.0030112266540527,0.49356457591056824
1783153429603551700,4.0435517578125,-1.95967435836792,-0.9718579649925232,0.3029802441596985
1783153429613264000,4.053263916015625,-1.9309645891189575,-0.8985562920570374,0.129499614238739
1783153429622976000,4.06297607421875,-1.8552194833755493,-0.7983773946762085,-0.034818295389413834
1783153429632688000,4.072688232421875,-1.753208041191101,-0.652384877204895,-0.1844758689403534
1783153429642400300,4.082400146484375,-1.6579158306121826,-0.46729815006256104,-0.31886225938796997
1783153429652112400,4.0921123046875,-1.6011070013046265,-0.2638860046863556,-0.4349232614040375
1783153429661824500,4.101824462890625,-1.593776822090149,-0.12033691257238388,-0.5234960913658142
1783153429671536600,4.11153662109375,-1.6243191957473755,-0.0781884491443634,-0.5754181146621704
1783153429681248800,4.121248779296875,-1.6652460098266602,-0.10873081535100937,-0.5888567566871643
1783153429690961000,4.1309609375,-1.7122812271118164,-0.19058434665203094,-0.5741963982582092
1783153429700673000,4.140673095703125,-1.780696153640747,-0.29626092314720154,-0.5375455617904663
1783153429710385200,4.15038525390625,-1.8637713193893433,-0.3915531039237976,-0.48806697130203247
1783153429720097300,4.16009716796875,-1.951122522354126,-0.4611896872520447,-0.43797749280929565
1783153429729809400,4.169809326171875,-2.026256799697876,-0.46424391865730286,-0.3830012381076813
1783153429739521500,4.179521484375,-2.09039568901062,-0.4031592011451721,-0.312142938375473
1783153429749233700,4.189233642578125,-2.144761085510254,-0.30603447556495667,-0.183865025639534
1783153429758945800,4.19894580078125,-2.176525115966797,-0.26877278089523315,-0.006108472589403391
1783153429768658000,4.208657958984375,-2.1636972427368164,-0.2993151545524597,0.1832541823387146
1783153429778370000,4.2183701171875,-2.1123862266540527,-0.3255815804004669,0.33718767762184143
1783153429788082200,4.228082275390625,-2.0396952629089355,-0.3390202224254608,0.4337015450000763
1783153429797794300,4.237794189453125,-1.9486790895462036,-0.3426853120326996,0.46546560525894165
1783153429807506400,4.24750634765625,-1.8350615501403809,-0.3011476993560791,0.4294256269931793
1783153429817218600,4.257218505859375,-1.7031185626983643,-0.21501824259757996,0.34879377484321594
1783153429826930700,4.2669306640625,-1.580949068069458,-0.15454435348510742,0.24067382514476776
1783153429836642800,4.276642822265625,-1.4771050214767456,-0.11239589750766754,0.12522368133068085
1783153429846355000,4.28635498046875,-1.364098310470581,-0.09529217332601547,0.0397050715982914
1783153429856067000,4.296067138671875,-1.2638429403305054,-0.11117420345544815,-0.026877280324697495
1783153429865779200,4.305779296875,-1.1764918565750122,-0.13988402485847473,-0.07085828483104706
1783153429875491300,4.3154912109375,-1.1044118404388428,-0.16615045070648193,-0.10811996459960938
1783153429885203500,4.325203369140625,-1.0335536003112793,-0.21257483959197998,-0.13988402485847473
1783153429894915600,4.33491552734375,-0.9584193229675293,-0.2638860046863556,-0.16370706260204315
1783153429904628000,4.3446279296875,-0.8765658140182495,-0.3023693859577179,-0.20035789906978607
1783153429914340000,4.354340087890625,-0.7941014170646667,-0.3286358118057251,-0.24006296694278717
1783153429924052200,4.36405224609375,-0.731184184551239,-0.3304683566093445,-0.2773246467113495
1783153429933764400,4.373764404296875,-0.6981984376907349,-0.33718767762184143,-0.29626092314720154
1783153429943476200,4.383476318359375,-0.7043069005012512,-0.34512871503829956,-0.2901524603366852
1783153429953188400,4.393188232421875,-0.7342383861541748,-0.35978904366493225,-0.2596100866794586
1783153429962900500,4.402900390625,-0.7751652002334595,-0.3787252902984619,-0.1985253542661667
1783153429972612900,4.41261279296875,-0.8313631415367126,-0.4062134325504303,-0.10995250940322876
1783153429982325000,4.422324951171875,-0.8955020904541016,-0.39949411153793335,-0.018936265259981155
1783153429992037000,4.432037109375,-0.9620844125747681,-0.38788801431655884,0.07269082218408585
1783153430001749200,4.441749267578125,-1.0292776823043823,-0.3939964771270752,0.16553960740566254
1783153430011461400,4.45146142578125,-1.0958600044250488,-0.3799470067024231,0.25350162386894226
1783153430021173500,4.461173583984375,-1.1563338041305542,-0.3512371778488159,0.3280249834060669
1783153430030885600,4.4708857421875,-1.216196894645691,-0.30481278896331787,0.3903313875198364
1783153430040597800,4.48059765625,-1.2791141271591187,-0.25533416867256165,0.43614494800567627
1783153430050310000,4.490309814453125,-1.3384426832199097,-0.21440738439559937,0.4709632396697998
1783153430060022000,4.50002197265625,-1.3885321617126465,-0.18691925704479218,0.49356457591056824
1783153430069734100,4.509734130859375,-1.4141877889633179,-0.18142163753509521,0.5094466209411621
1783153430079446300,4.5194462890625,-1.4093009233474731,-0.18691925704479218,0.518609344959259
1783153430089158400,4.529158447265625,-1.3818128108978271,-0.17225892841815948,0.5259394645690918
1783153430098870500,4.53887060546875,-1.35798978805542,-0.1563768982887268,0.5418215394020081
1783153430108582700,4.548582763671875,-1.3457728624343872,-0.13988402485847473,0.5540384650230408
1783153430118294800,4.558294677734375,-1.3402752876281738,-0.12216944992542267,0.5644228458404541
1783153430128007000,4.5680068359375,-1.3476054668426514,-0.10323318839073181,0.5674771070480347
1783153430137719000,4.577718994140625,-1.364098310470581,-0.0916270911693573,0.5650337338447571
1783153430147431200,4.58743115234375,-1.383034586906433,-0.09956810623407364,0.5485408306121826
1783153430157143300,4.597143310546875,-1.395862340927124,-0.10934165865182877,0.5161659121513367
1783153430166855400,4.60685546875,-1.391586422920227,-0.13927318155765533,0.46424391865730286
1783153430176567600,4.616567626953125,-1.3665416240692139,-0.17531315982341766,0.4068242609500885
1783153430186279700,4.62627978515625,-1.3353121280670166,-0.18081079423427582,0.3310792148113251
1783153430195991800,4.63599169921875,-1.3206517696380615,-0.22723518311977386,0.2504473626613617
1783153430205704000,4.645703857421875,-1.3273711204528809,-0.29381752014160156,0.17225892841815948
1783153430215416000,4.655416015625,-1.3340904712677002,-0.3292466700077057,0.09590301662683487
1783153430225128200,4.665128173828125,-1.3114891052246094,-0.3255815804004669,0.01588202826678753
1783153430234840300,4.67484033203125,-1.3249276876449585,-0.3365768492221832,-0.05986303091049194
1783153430244552400,4.684552490234375,-1.3506596088409424,-0.2907632887363434,-0.1429382562637329
1783153430254264600,4.6942646484375,-1.3457728624343872,-0.24006296694278717,-0.22967857122421265
1783153430263976700,4.703976806640625,-1.3169866800308228,-0.20280128717422485,-0.3042019307613373
1783153430273688800,4.713688720703125,-1.2827792167663574,-0.14782503247261047,-0.3665083646774292
1783153430283401000,4.72340087890625,-1.2675080299377441,-0.1563768982887268,-0.40987852215766907
1783153430293113000,4.733113037109375,-1.2809467315673828,-0.17714570462703705,-0.4434750974178314
1783153430302825200,4.7428251953125,-1.3151541948318481,-0.07146912813186646,-0.47768256068229675
1783153430312537300,4.752537353515625,-1.3524922132492065,0.11361759155988693,-0.53143709897995
1783153430322249500,4.76224951171875,-1.3463836908340454,0.3158080279827118,-0.6077930331230164
1783153430331961600,4.771961669921875,-1.2418525218963623,0.4691306948661804,-0.6908682584762573
1783153430341673700,4.781673828125,-1.032942771911621,0.5253286361694336,-0.7617265582084656
1783153430351385900,4.7913857421875,-0.7727217674255371,0.4220954477787018,-0.80937260389328
1783153430361098000,4.801097900390625,-0.5351021885871887,0.14171656966209412,-0.8551861643791199
1783153430370810000,4.81081005859375,-0.4043808877468109,-0.20463383197784424,-0.8851176500320435
1783153430380522200,4.820522216796875,-0.30603447556495667,-0.4856235682964325,-0.8991671800613403
1783153430390234400,4.830234375,-0.23945212364196777,-0.6120689511299133,-0.8619054555892944
1783153430399946500,4.839946533203125,-0.22845686972141266,-0.7275190949440002,-0.7745543122291565
1783153430409658600,4.84965869140625,-0.24311721324920654,-0.6957550048828125,-0.6627692580223083
1783153430419370800,4.859370849609375,-0.3127537965774536,-0.5913001298904419,-0.5405998229980469
1783153430429083000,4.869082763671875,-0.3830012381076813,-0.4080459773540497,-0.4422534108161926
1783153430438795000,4.878794921875,-0.45019441843032837,-0.20646637678146362,-0.3671191930770874
1783153430448507100,4.888507080078125,-0.5094466209411621,-0.03176405653357506,-0.3042019307613373
1783153430458219300,4.89821923828125,-0.5241069197654724,0.10078980028629303,-0.2583884000778198
1783153430467931400,4.907931396484375,-0.5033381581306458,0.19363857805728912,-0.2217375487089157
1783153430477643500,4.9176435546875,-0.46302223205566406,0.23823043704032898,-0.20524467527866364
1783153430487355600,4.927355712890625,-0.4196520745754242,0.258999228477478,-0.23090025782585144
1783153430497067800,4.93706787109375,-0.30786702036857605,0.3549022674560547,-0.288930743932724
1783153430506780000,4.94677978515625,-0.14782503247261047,0.4080459773540497,-0.33718767762184143
1783153430516492000,4.956491943359375,-0.05375456064939499,0.3298575282096863,-0.32069480419158936
1783153430526204200,4.9662041015625,-0.0647498071193695,0.20341213047504425,-0.22479179501533508
1783153430535916300,4.975916259765625,-0.10873081535100937,0.13744063675403595,-0.0525328628718853
1783153430545628400,4.98562841796875,-0.12705622613430023,0.17409147322177887,0.17531315982341766
1783153430555340500,4.995340576171875,-0.12400199472904205,0.29626092314720154,0.4300364851951599
1783153430565052700,5.005052734375,-0.14110571146011353,0.15149012207984924,0.6499415040016174
1783153430574764800,5.014764892578125,-0.261442631483078,-0.6474980711936951,0.6432221531867981
1783153430584477200,5.024477294921875,-0.38788801431655884,-0.3518480062484741,0.5717530250549316
1783153430594189300,5.034189208984375,-0.418430358171463,0,0.5668662786483765
1783153430603901400,5.0439013671875,-0.30603447556495667,-0.2602209448814392,0.6236750483512878
1783153430613613600,5.053613525390625,-0.182643324136734,-0.3176405727863312,0.7018635272979736
1783153430623325700,5.06332568359375,-0.07513421028852463,-0.19058434665203094,0.8197570443153381
1783153430633037800,5.073037841796875,-0.0024433890357613564,-0.21868331730365753,0.9364288449287415
1783153430642750000,5.08275,-0.05497625470161438,-0.13866232335567474,1.0518789291381836
1783153430652462000,5.092462158203125,-0.6713211536407471,0.07146912813186646,1.1276240348815918
1783153430662174200,5.10217431640625,-1.340886116027832,0.021379653364419937,1.096470832824707
1783153430671886300,5.11188623046875,-1.4178528785705566,-0.042759306728839874,1.0042328834533691
1783153430681598500,5.121598388671875,-1.2430741786956787,-0.09040539711713791,0.8338065147399902
1783153430691310600,5.131310546875,-1.045770525932312,-0.0787992998957634,0.6346703171730042
1783153430701022700,5.141022705078125,-0.8234221339225769,-0.11178504675626755,0.45385950803756714
1783153430710734800,5.15073486328125,-0.6285618543624878,-0.5851916670799255,0.3115321099758148
1783153430720447000,5.160447021484375,-0.8044858574867249,-1.3011046648025513,0.32069480419158936
1783153430730159000,5.1701591796875,-0.9199360013008118,-1.2870551347732544,0.41171106696128845
1783153430739871200,5.179871337890625,-0.9211576581001282,-1.3108782768249512,0.41232189536094666
1783153430749583400,5.189583251953125,-0.8197570443153381,-1.285833477973938,0.33413344621658325
1783153430759295500,5.19929541015625,-0.730573296546936,-1.226581335067749,0.25594499707221985
1783153430769007600,5.209007568359375,-0.6853706240653992,-1.1080769300460815,0.20157960057258606
1783153430778719700,5.2187197265625,-0.712247908115387,-0.8686248064041138,0.20280128717422485
1783153430788432000,5.228431884765625,-0.786160409450531,-0.3762819170951843,0.25716668367385864
1783153430798144000,5.23814404296875,-0.9364288449287415,0.23945212364196777,0.4080459773540497
1783153430807856000,5.247856201171875,-1.151447057723999,0.5522059202194214,0.6914790868759155
1783153430817568300,5.257568359375,-1.3543246984481812,0.47951510548591614,1.0928057432174683
1783153430827280400,5.2672802734375,-1.4581687450408936,0.26694026589393616,1.5137559175491333
1783153430836992500,5.276992431640625,-1.4264047145843506,0.09773556143045425,1.863160490989685
1783153430846704600,5.28670458984375,-1.2833900451660156,-0.053143709897994995,2.087341547012329
1783153430856416800,5.296416748046875,-1.0488247871398926,-0.284654825925827,2.159421443939209
1783153430866129000,5.30612890625,-0.5888567566871643,-0.7831062078475952,1.572397232055664
1783153430875841000,5.315841064453125,0.22051586210727692,-0.939483106136322,0.7165238261222839
1783153430885553200,5.32555322265625,0.7696675658226013,-0.8124268651008606,0.35795649886131287
1783153430895265300,5.335265380859375,1.063485026359558,-0.7165238261222839,0.12094775587320328
1783153430904977400,5.344977294921875,0.9376505613327026,-0.5674771070480347,0.1056765764951706
1783153430914689500,5.354689453125,0.6707102656364441,-0.7324058413505554,0.13927318155765533
1783153430924401700,5.364401611328125,0.5265503525733948,-0.7898254990577698,0.15087927877902985
1783153430934113800,5.37411376953125,0.43614494800567627,-0.7513421177864075,0.17409147322177887
1783153430943826000,5.383825927734375,0.33230090141296387,-0.8063184022903442,0.182643324136734
1783153430953538000,5.3935380859375,0.24006296694278717,-0.8576295375823975,0.182643324136734
1783153430963250200,5.403250244140625,0.08002099394798279,-0.9804098606109619,0.14843589067459106
1783153430972962300,5.41296240234375,-0.20280128717422485,-1.382423758506775,0.09773556143045425
1783153430982674400,5.42267431640625,-0.6395570635795593,-2.1111645698547363,0.0390942245721817
1783153430992386600,5.432386474609375,-0.8032641410827637,-2.5253188610076904,-0.10628741979598999
1783153431002098700,5.4420986328125,-0.601073682308197,-2.6994104385375977,-0.2211267054080963
1783153431011810800,5.451810791015625,-0.21868331730365753,-2.7916483879089355,-0.2602209448814392
1783153431021523000,5.46152294921875,0.05741964280605316,-2.949857711791992,-0.2345653474330902
1783153431031235000,5.471235107421875,0.1966928243637085,-2.3524491786956787,-0.16737215220928192
1783153431040947200,5.480947265625,0.1973036676645279,-1.955398440361023,0.004886778071522713
1783153431050659300,5.490659423828125,-0.07635590434074402,-1.2009257078170776,-0.08246438205242157
1783153431060371500,5.500371337890625,-0.3023693859577179,-0.656660795211792,-0.22662433981895447
1783153431070083600,5.51008349609375,-0.46729815006256104,-0.4428642690181732,-0.37200596928596497
1783153431079795700,5.519795654296875,-0.6120689511299133,0.1044548824429512,-0.6517740488052368
1783153431089507800,5.5295078125,-0.5027272701263428,0.7317950129508972,-0.7153021693229675
1783153431099220000,5.539219970703125,-0.365286648273468,0.8380824327468872,-0.5986303091049194
1783153431108932000,5.54893212890625,-0.38422292470932007,1.2259705066680908,-0.3939964771270752
1783153431118644200,5.558644287109375,-0.2522799074649811,1.2461284399032593,0.034818295389413834
1783153431128356600,5.568356689453125,-0.24372805655002594,1.3506596088409424,0.43919917941093445
1783153431138068700,5.57806884765625,-0.26999449729919434,1.3695958852767944,0.790436327457428
1783153431147780900,5.58778076171875,-0.1313321590423584,1.1606098413467407,1.184432864189148
1783153431157493000,5.597492919921875,-0.12888877093791962,1.0640959739685059,1.4801592826843262
1783153431167205000,5.607205078125,-0.11483928561210632,0.9999569654464722,1.7012859582901
1783153431176917200,5.616917236328125,-0.07085828483104706,0.8600729703903198,1.863160490989685
1783153431186629400,5.62662939453125,-0.06902574002742767,0.7562289237976074,1.9474574327468872
1783153431196341500,5.636341552734375,-0.03298575058579445,0.7507312893867493,1.9584527015686035
1783153431206053600,5.6460537109375,-0.022601349279284477,0.6627692580223083,1.8704906702041626
1783153431215765800,5.655765869140625,-0.026877280324697495,0.5980194807052612,1.7031185626983643
1783153431225478000,5.665477783203125,-0.0390942245721817,0.546097457408905,1.4685531854629517
1783153431235190000,5.67518994140625,-0.05925218388438225,0.4984513521194458,1.1728267669677734
1783153431244902100,5.684902099609375,-0.07269082218408585,0.45019441843032837,0.8386932611465454
1783153431254614300,5.6946142578125,-0.08185353130102158,0.6175665855407715,0.48989951610565186
1783153431264326400,5.704326416015625,-0.08979454636573792,1.0091196298599243,0.13560809195041656
1783153431274038500,5.71403857421875,-0.12583453953266144,1.054322361946106,-0.23090025782585144
1783153431283750700,5.723750732421875,-0.261442631483078,1.0726478099822998,-0.5430431962013245
1783153431293462800,5.733462890625,-0.42514967918395996,1.1392301321029663,-0.7788302302360535
1783153431303175000,5.7431748046875,-0.5931326746940613,1.1942063570022583,-0.9364288449287415
1783153431312887000,5.752886962890625,-0.7391251921653748,1.222305417060852,-1.0231691598892212
1783153431322599200,5.76259912109375,-0.8722898960113525,1.1233481168746948,-1.0323318243026733
1783153431332311300,5.772311279296875,-0.9834640622138977,0.9254335761070251,-0.9767447710037231
1783153431342023400,5.7820234375,-1.063485026359558,0.7440119385719299,-0.864959716796875
1783153431351735600,5.791735595703125,-1.0836430788040161,0.7128587365150452,-0.7550072073936462
1783153431361447700,5.80144775390625,-1.0237799882888794,0.8783983588218689,-0.6597150564193726
1783153431371159800,5.811159912109375,-0.9400939345359802,1.0866972208023071,-0.5796940326690674
1783153431380872000,5.820871826171875,-0.8594620823860168,1.220472812652588,-0.49112120270729065
1783153431390584000,5.830583984375,-0.7495095729827881,1.1318999528884888,-0.3512371778488159
1783153431400296200,5.840296142578125,-0.7324058413505554,0.8386932611465454,-0.24006296694278717
1783153431410008300,5.85000830078125,-0.9003888368606567,0.8900044560432434,-0.2241809368133545
1783153431419720400,5.859720458984375,-0.9724688529968262,0.7379034757614136,-0.1313321590423584
1783153431429432600,5.8694326171875,-0.9859074950218201,0.47707170248031616,0.020157959312200546
1783153431439144700,5.879144775390625,-1.0469921827316284,0.4349232614040375,0.20524467527866364
1783153431448856800,5.88885693359375,-1.0408837795257568,0.23884128034114838,0.3915531039237976
1783153431458569000,5.89856884765625,-0.9248227477073669,-0.005497625097632408,0.5919110178947449
1783153431468281000,5.908281005859375,-0.8319739699363708,-0.06352811306715012,0.7488987445831299
1783153431477993200,5.9179931640625,-0.726908266544342,-0.1710372269153595,0.8448017835617065
1783153431487705300,5.927705322265625,-0.6029062271118164,-0.31886225938796997,0.8875610828399658
1783153431497417500,5.93741748046875,-0.4868452548980713,-0.46302223205566406,0.893058717250824
1783153431507129600,5.947129638671875,-0.4031592011451721,-0.4734066128730774,0.8991671800613403
1783153431516841700,5.956841796875,-0.34635040163993835,-0.3439069986343384,0.9272661209106445
1783153431526553900,5.966553955078125,-0.30908870697021484,-0.20219044387340546,0.9681929349899292
1783153431536266000,5.976265869140625,-0.27854636311531067,-0.03298575058579445,0.9663603901863098
1783153431545978000,5.98597802734375,-0.2522799074649811,-0.008551862090826035,0.962695300579071
1783153431555690200,5.995690185546875,-0.23090025782585144,-0.08796200156211853,1.0256125926971436
1783153431565402400,6.00540234375,-0.26632940769195557,-0.02993151545524597,1.0830321311950684
1783153431575114500,6.015114501953125,-0.3023693859577179,0.04947862774133682,1.1606098413467407
1783153431584826600,6.02482666015625,-0.29626092314720154,0.14904673397541046,1.220472812652588
1783153431594539000,6.0345390625,-0.2754921019077301,0.07696675509214401,1.2785032987594604
1783153431604251100,6.044251220703125,-0.2748812735080719,0.23151111602783203,1.3285927772521973
1783153431613963300,6.05396337890625,-0.27854636311531067,0.2883199155330658,1.3267602920532227
1783153431623675400,6.06367529296875,-0.24678228795528412,0.1313321590423584,1.2088667154312134
1783153431633387500,6.073387451171875,-0.2107423096895218,-0.14660334587097168,0.9804098606109619
1783153431643099600,6.083099609375,-0.21501824259757996,-0.4086568057537079,0.6591041684150696
1783153431652811800,6.092811767578125,-0.24556060135364532,-0.6236750483512878,0.28343313932418823
1783153431662524000,6.10252392578125,-0.265718549489975,-0.7055285573005676,-0.08368607610464096
1783153431672236000,6.112236083984375,-0.28160059452056885,-0.6193991303443909,-0.3658975064754486
1783153431681948200,6.1219482421875,-0.3005368411540985,-0.4300364851951599,-0.5338805317878723
1783153431691660300,6.131660400390625,-0.3292466700077057,-0.19119518995285034,-0.5607577562332153
1783153431701372400,6.141372314453125,-0.3549022674560547,0.10750912129878998,-0.4746283292770386
1783153431711084500,6.15108447265625,-0.3255815804004669,0.43919917941093445,-0.27915719151496887
1783153431720796700,6.160796630859375,-0.2895416021347046,0.7238540053367615,-0.05131116881966591
1783153431730508800,6.1705087890625,-0.23945212364196777,0.8802309036254883,0.18081079423427582
1783153431740221000,6.180220947265625,-0.19180603325366974,0.8704573512077332,0.3787252902984619
1783153431749933000,6.18993310546875,-0.16248537600040436,0.6896465420722961,0.5351021885871887
1783153431759645200,6.199645263671875,-0.13805148005485535,0.43858832120895386,0.6536065936088562
1783153431769357300,6.209357421875,-0.10811996459960938,0.18142163753509521,0.7403468489646912
1783153431779069400,6.2190693359375,-0.0525328628718853,-0.028098974376916885,0.7879929542541504
1783153431788781600,6.228781494140625,0.01954711228609085,-0.15943112969398499,0.8020424246788025
1783153431798493700,6.23849365234375,0.09895725548267365,-0.21746163070201874,0.7886037826538086
1783153431808205800,6.248205810546875,0.18569757044315338,-0.17775654792785645,0.7605048418045044
1783153431817918000,6.25791796875,0.2516690790653229,-0.05619794875383377,0.7220214605331421
1783153431827630000,6.267630126953125,0.2767138183116913,0.07513421028852463,0.6511631608009338
1783153431837342200,6.27734228515625,0.2602209448814392,0.1575985997915268,0.5534276366233826
1783153431847054300,6.287054443359375,0.21807247400283813,0.16859383881092072,0.43981003761291504
1783153431856766500,6.296766357421875,0.1710372269153595,0.1301104724407196,0.33230090141296387
1783153431866478600,6.306478515625,0.1435490995645523,0.10201149433851242,0.2345653474330902
1783153431876190700,6.316190673828125,0.13805148005485535,0.09956810623407364,0.15026842057704926
1783153431885902800,6.32590283203125,0.14843589067459106,0.06963659077882767,0.09468132257461548
1783153431895615000,6.335614990234375,0.1557660549879074,-0.0012216945178806782,0.10017894953489304
1783153431905327000,6.3453271484375,0.12644538283348083,-0.0525328628718853,0.16309621930122375
1783153431915039200,6.355039306640625,0.06658235192298889,-0.10323318839073181,0.258999228477478
1783153431924751400,6.36475146484375,0.023212196305394173,-0.1820324808359146,0.3958290219306946
1783153431934463500,6.37446337890625,0.004275931045413017,-0.2773246467113495,0.5937435626983643
1783153431944175600,6.384175537109375,0.0030542362947016954,-0.3243598937988281,0.8441908955574036
1783153431953887700,6.3938876953125,0.009773556143045425,-0.3274141252040863,1.0915840864181519
1783153431963600000,6.403599853515625,0.034818295389413834,-0.39827242493629456,1.2363548278808594
1783153431973312000,6.41331201171875,-0.026877280324697495,-0.3775036036968231,1.271173119544983
1783153431983024000,6.423024169921875,-0.06291726976633072,-0.33291175961494446,1.2546802759170532
1783153431992736300,6.432736328125,-0.1313321590423584,-0.2742704153060913,1.2229162454605103
1783153432002448400,6.442448486328125,-0.21318569779396057,-0.24311721324920654,1.183211088180542
1783153432012160500,6.452160400390625,-0.2718270421028137,-0.21807247400283813,1.1373976469039917
1783153432021872600,6.46187255859375,-0.28282228112220764,-0.16553960740566254,1.0799779891967773
1783153432031584800,6.471584716796875,-0.28343313932418823,-0.11117420345544815,0.994459331035614
1783153432041297000,6.481296875,-0.2895416021347046,-0.09284878522157669,0.8955020904541016
1783153432051009000,6.491009033203125,-0.2907632887363434,-0.05375456064939499,0.786771297454834
1783153432060721200,6.50072119140625,-0.2870981991291046,0.014049487188458443,0.6762079000473022
1783153432070433500,6.51043359375,-0.28098973631858826,0.13805148005485535,0.5711421966552734
1783153432080145700,6.520145751953125,-0.25289076566696167,0.3799470067024231,0.5051707029342651
1783153432089857800,6.52985791015625,-0.24189551174640656,0.49173203110694885,0.47951510548591614
1783153432099569700,6.539569580078125,-0.25289076566696167,0.47768256068229675,0.45447036623954773
1783153432109281800,6.54928173828125,-0.26938363909721375,0.45080527663230896,0.4453076422214508
1783153432118994000,6.558993896484375,-0.2779355049133301,0.37689274549484253,0.4428642690181732
1783153432128706000,6.5687060546875,-0.25411245226860046,0.26694026589393616,0.44103172421455383
1783153432138418400,6.57841845703125,-0.18997350335121155,0.1050657257437706,0.42759308218955994
1783153432148130600,6.588130615234375,-0.10811996459960938,0.015271181240677834,0.42392799258232117
1783153432157842700,6.5978427734375,-0.012216945178806782,0.037261683493852615,0.4471401870250702
1783153432167554800,6.607554931640625,0.08551861345767975,0.06047387793660164,0.4831801950931549
1783153432177267000,6.617266845703125,0.18875180184841156,0.1185043677687645,0.5467082858085632
1783153432186979000,6.62697900390625,0.26755109429359436,0.23334364593029022,0.6322268843650818
1783153432196691200,6.636691162109375,0.30664533376693726,0.36284327507019043,0.7262973785400391
1783153432206403300,6.6464033203125,0.3011476993560791,0.499673068523407,0.8038749694824219
1783153432216115500,6.656115478515625,0.25655585527420044,0.6090146899223328,0.8356390595436096
1783153432225827600,6.66582763671875,0.17775654792785645,0.624285876750946,0.767224133014679
1783153432235539700,6.675539794921875,0.08674030750989914,0.5094466209411621,0.5650337338447571
1783153432245251800,6.685251953125,0.0018325417768210173,0.288930743932724,0.2608317732810974
1783153432254964000,6.6949638671875,-0.03298575058579445,0.04825693368911743,-0.10689827054738998
1783153432264676000,6.704676025390625,-0.009773556143045425,-0.12827792763710022,-0.48012593388557434
1783153432274388200,6.71438818359375,0.06291726976633072,-0.18081079423427582,-0.8087617754936218
1783153432284100400,6.724100341796875,0.18019993603229523,-0.09529217332601547,-1.0421054363250732
1783153432293812500,6.7338125,0.3011476993560791,0.08490777015686035,-1.1642749309539795
1783153432303524600,6.743524658203125,0.395218163728714,0.26938363909721375,-1.1874871253967285
1783153432313236700,6.75323681640625,0.45385950803756714,0.37139514088630676,-1.1172395944595337
1783153432322948900,6.762948974609375,0.4825693368911743,0.34818294644355774,-0.9852966070175171
1783153432332661000,6.772660888671875,0.49112120270729065,0.1850867122411728,-0.841747522354126
1783153432342373000,6.782373046875,0.4819584786891937,-0.11239589750766754,-0.7043069005012512
1783153432352085200,6.792085205078125,0.4746283292770386,-0.4343124032020569,-0.5766398310661316
1783153432361797400,6.80179736328125,0.4294256269931793,-0.7165238261222839,-0.49356457591056824
1783153432371509500,6.811509521484375,0.36162158846855164,-0.9553651213645935,-0.4703523814678192
1783153432381221600,6.8212216796875,0.2626643180847168,-1.1404517889022827,-0.5210527181625366
1783153432390933800,6.830933837890625,0.1692046970129013,-1.2546802759170532,-0.6762079000473022
1783153432400646000,6.84064599609375,0.13438639044761658,-1.2809467315673828,-0.8869501948356628
1783153432410358000,6.85035791015625,0.17592400312423706,-1.2565127611160278,-1.1435060501098633
1783153432420070100,6.860070068359375,0.12400199472904205,-0.9303203821182251,-1.4074684381484985
1783153432429782300,6.8697822265625,0.12216944992542267,-0.6804838180541992,-1.5595693588256836
1783153432439494400,6.879494384765625,0.047646086663007736,-0.5876350402832031,-1.6249300241470337
1783153432449206500,6.88920654296875,-0.12339114397764206,-0.5986303091049194,-1.6102697849273682
1783153432458918700,6.898918701171875,-0.3390202224254608,-0.6920899152755737,-1.5168100595474243
1783153432468630800,6.908630859375,-0.5253286361694336,-0.9083298444747925,-1.3720393180847168
1783153432478343000,6.918343017578125,-0.7000309824943542,-1.0250016450881958,-1.166107416152954
1783153432488055000,6.928054931640625,-0.8313631415367126,-1.0433270931243896,-0.9541434049606323
1783153432497767200,6.93776708984375,-0.9095515608787537,-0.9828532338142395,-0.7281299233436584
1783153432507479300,6.947479248046875,-0.9700254201889038,-0.8429692387580872,-0.5338805317878723
1783153432517191400,6.95719140625,-1.0677610635757446,-0.6878139972686768,-0.416597843170166
1783153432526903600,6.966903564453125,-1.1899304389953613,-0.40132665634155273,-0.342074453830719
1783153432536615700,6.97661572265625,-1.2180293798446655,-0.2095206081867218,-0.3365768492221832
1783153432546327800,6.986327880859375,-1.109298586845398,-0.16553960740566254,-0.3970507085323334
1783153432556040000,6.9960400390625,-1.0005677938461304,-0.10811996459960938,-0.47829338908195496
1783153432565752000,7.005751953125,-0.9046648144721985,0.022601349279284477,-0.5192201733589172
1783153432575464200,7.015464111328125,-0.7892146706581116,0.11300674080848694,-0.5253286361694336
1783153432585176300,7.02517626953125,-0.6591041684150696,0.13866232335567474,-0.5155550837516785
1783153432594888400,7.034888427734375,-0.5088357925415039,0.11545012891292572,-0.4837910234928131
1783153432604600800,7.044600830078125,-0.390942245721817,0.16004198789596558,-0.4428642690181732
1783153432614313000,7.05431298828125,-0.30786702036857605,0.1710372269153595,-0.3830012381076813
1783153432624025000,7.064025146484375,-0.2602209448814392,0.10140064358711243,-0.31031039357185364
1783153432633737200,7.0737373046875,-0.2516690790653229,-0.010995250195264816,-0.2363978922367096
1783153432643449300,7.083449462890625,-0.25289076566696167,-0.1832541823387146,-0.16492876410484314
1783153432653161500,7.093161376953125,-0.23884128034114838,-0.367730051279068,-0.10078980028629303
1783153432662873600,7.10287353515625,-0.22479179501533508,-0.5424323678016663,-0.05131116881966591
1783153432672585700,7.112585693359375,-0.21318569779396057,-0.6731536984443665,-0.01954711228609085
1783153432682297900,7.1222978515625,-0.19241689145565033,-0.6933116316795349,0.021379653364419937
1783153432692010000,7.132010009765625,-0.1850867122411728,-0.6499415040016174,0.06719319522380829
1783153432701722000,7.14172216796875,-0.2095206081867218,-0.6047387719154358,0.09895725548267365
1783153432711434200,7.151434326171875,-0.25716668367385864,-0.5839699506759644,0.10750912129878998
1783153432721146400,7.161146484375,-0.32008397579193115,-0.5748072862625122,0.09712471067905426
1783153432730858500,7.1708583984375,-0.3958290219306946,-0.5308262705802917,0.08674030750989914
1783153432740570600,7.180570556640625,-0.5015056133270264,-0.49417543411254883,0.08551861345767975
1783153432750282800,7.19028271484375,-0.6230642199516296,-0.4477510452270508,0.09345962852239609
1783153432759995000,7.199994873046875,-0.735460102558136,-0.33352261781692505,0.10078980028629303
1783153432769707000,7.20970703125,-0.7947123050689697,-0.14904673397541046,0.10995250940322876
1783153432779419100,7.219419189453125,-0.8081509470939636,-0.01832541823387146,0.09468132257461548
1783153432789131300,7.22913134765625,-0.8087617754936218,-0.0397050715982914,0.023823043331503868
1783153432798843400,7.238843505859375,-0.7989882230758667,-0.20157960057258606,-0.10201149433851242
1783153432808555500,7.248555419921875,-0.7855495810508728,-0.45263782143592834,-0.25350162386894226
1783153432818267600,7.258267578125,-0.7727217674255371,-0.70797199010849,-0.41293275356292725
1783153432827979800,7.267979736328125,-0.762948215007782,-0.8533536195755005,-0.5399889945983887
1783153432837692000,7.27769189453125,-0.7330167293548584,-0.8026533126831055,-0.5876350402832031
1783153432847404000,7.287404052734375,-0.6694886088371277,-0.5595360994338989,-0.5289937257766724
1783153432857116200,7.2971162109375,-0.5686988234519958,-0.1979145109653473,-0.35917818546295166
1783153432866828300,7.306828369140625,-0.42453885078430176,0.1954711228609085,-0.1056765764951706
1783153432876540400,7.31654052734375,-0.2651077210903168,0.4844018816947937,0.16309621930122375
1783153432886252500,7.32625244140625,-0.129499614238739,0.6053496599197388,0.3823903799057007
1783153432895964700,7.335964599609375,-0.054365407675504684,0.5491516590118408,0.5296045541763306
1783153432905676800,7.3456767578125,-0.030542362481355667,0.33474430441856384,0.6016845703125
1783153432915389000,7.355388916015625,-0.038483377546072006,0.054365407675504684,0.6139014959335327
1783153432925101000,7.36510107421875,-0.07513421028852463,-0.18569757044315338,0.5772506594657898
1783153432934813200,7.374813232421875,-0.11972606182098389,-0.3701734244823456,0.48806697130203247
1783153432944525300,7.384525390625,-0.1575985997915268,-0.4862344264984131,0.3500154912471771
1783153432954237400,7.394237548828125,-0.1948602795600891,-0.5613686442375183,0.16309621930122375
1783153432963949600,7.403949462890625,-0.2107423096895218,-0.5888567566871643,-0.06169557198882103
1783153432973661700,7.41366162109375,-0.18753011524677277,-0.5320479869842529,-0.2767138183116913
1783153432983373800,7.423373779296875,-0.1178935244679451,-0.3970507085323334,-0.4563029110431671
1783153432993086000,7.4330859375,-0.012827792204916477,-0.20646637678146362,-0.5638120174407959
1783153433002798000,7.442798095703125,0.11667182296514511,-0.0006108472589403391,-0.6004628539085388
1783153433012510200,7.45251025390625,0.2504473626613617,0.182643324136734,-0.5589252710342407
1783153433022222300,7.462222412109375,0.3897205591201782,0.29259583353996277,-0.4618005156517029
1783153433031934500,7.4719345703125,0.5033381581306458,0.3158080279827118,-0.3402419090270996
1783153433041646600,7.481646484375,0.5815265774726868,0.261442631483078,-0.21501824259757996
1783153433051358700,7.491358642578125,0.6218425035476685,0.14843589067459106,-0.10140064358711243
1783153433061070800,7.50107080078125,0.6389462351799011,-0.021379653364419937,0.008551862090826035
1783153433070783000,7.510782958984375,0.648108959197998,-0.1575985997915268,0.11606097966432571
1783153433080495400,7.520495361328125,0.6694886088371277,-0.18630841374397278,0.2095206081867218
1783153433090207500,7.53020751953125,0.6957550048828125,-0.16370706260204315,0.2864873707294464
1783153433099919600,7.539919677734375,0.7342383861541748,-0.13805148005485535,0.33596599102020264
1783153433109631700,7.5496318359375,0.7769976854324341,-0.10689827054738998,0.36162158846855164
1783153433119343900,7.55934375,0.8112051486968994,-0.07513421028852463,0.36101073026657104
1783153433129056000,7.569055908203125,0.8301414251327515,-0.04153761267662048,0.34879377484321594
1783153433138768100,7.57876806640625,0.8258655071258545,-0.01710372418165207,0.3255815804004669
1783153433148480300,7.588480224609375,0.7776085734367371,-0.00916270911693573,0.27976804971694946
1783153433158192400,7.5981923828125,0.6969767212867737,-0.004886778071522713,0.2351761907339096
1783153433167904500,7.607904541015625,0.6035171151161194,0.01710372418165207,0.20463383197784424
1783153433177616600,7.61761669921875,0.5137225389480591,0.022601349279284477,0.1979145109653473
1783153433187328800,7.627328857421875,0.43858832120895386,0.004886778071522713,0.2217375487089157
1783153433197041000,7.637041015625,0.38727715611457825,-0.011606098152697086,0.2742704153060913
1783153433206753000,7.6467529296875,0.3384093940258026,-0.04825693368911743,0.3170297145843506
1783153433216465200,7.656465087890625,0.2883199155330658,-0.08918370306491852,0.3414636254310608
1783153433226177300,7.66617724609375,0.2504473626613617,-0.08612946420907974,0.3402419090270996
1783153433235889400,7.675889404296875,0.22479179501533508,-0.051922015845775604,0.32008397579193115
1783153433245601500,7.6856015625,0.21685077250003815,-0.010995250195264816,0.27915719151496887
1783153433255313700,7.695313720703125,0.22479179501533508,0.023823043331503868,0.23212195932865143
1783153433265025800,7.70502587890625,0.24433889985084534,0.04459185153245926,0.1820324808359146
1783153433274738000,7.714738037109375,0.26816195249557495,0.046424392610788345,0.13499724864959717
1783153433284450000,7.724449951171875,0.284654825925827,0.02993151545524597,0.10201149433851242
1783153433294162200,7.734162109375,0.28160059452056885,0.004886778071522713,0.08551861345767975
1783153433303874300,7.743874267578125,0.265718549489975,-0.034818295389413834,0.07757759839296341
1783153433313586400,7.75358642578125,0.24067382514476776,-0.0794101431965828,0.07574506103992462
1783153433323298600,7.763298583984375,0.20707722008228302,-0.10384403169155121,0.055587101727724075
1783153433333010700,7.7730107421875,0.16676130890846252,-0.08857285231351852,0.0006108472589403391
1783153433342722800,7.782722900390625,0.1313321590423584,-0.01588202826678753,-0.0647498071193695
1783153433352435000,7.79243505859375,0.11483928561210632,0.11911521852016449,-0.13805148005485535
1783153433362147000,7.80214697265625,0.12094775587320328,0.26755109429359436,-0.1948602795600891
1783153433371859200,7.811859130859375,0.15026842057704926,0.3823903799057007,-0.23151111602783203
1783153433381571300,7.8215712890625,0.18691925704479218,0.43797749280929565,-0.2638860046863556
1783153433391283500,7.831283447265625,0.19058434665203094,0.4343124032020569,-0.32191649079322815
1783153433400995600,7.84099560546875,0.15087927877902985,0.3946073353290558,-0.418430358171463
1783153433410707700,7.850707763671875,0.0647498071193695,0.3017585575580597,-0.5564818382263184
1783153433420419800,7.860419921875,-0.029320668429136276,0.16370706260204315,-0.7501204609870911
1783153433430132000,7.870132080078125,-0.09834641218185425,0.025655584409832954,-0.9907942414283752
1783153433439844000,7.879843994140625,-0.12278030067682266,-0.04886778071522713,-1.2259705066680908
1783153433449556200,7.88955615234375,-0.11117420345544815,-0.0525328628718853,-1.42335045337677
1783153433459268400,7.899268310546875,-0.0647498071193695,-0.0006108472589403391,-1.543687343597412
1783153433468980500,7.90898046875,-0.006719320081174374,0.09284878522157669,-1.5717864036560059
1783153433478692900,7.91869287109375,0.051922015845775604,0.21318569779396057,-1.5003172159194946
1783153433488405000,7.928405029296875,0.09468132257461548,0.3506263196468353,-1.3421077728271484
1783153433498117000,7.9381171875,0.11361759155988693,0.47951510548591614,-1.1276240348815918
1783153433507829200,7.947829345703125,0.10628741979598999,0.5748072862625122,-0.9058864712715149
1783153433517541400,7.957541259765625,0.08002099394798279,0.5595360994338989,-0.7220214605331421
1783153433527253500,7.96725341796875,0.05070032179355621,0.41354358196258545,-0.6120689511299133
1783153433536965400,7.97696533203125,0.030542362481355667,0.1985253542661667,-0.5760289430618286
1783153433546677800,7.986677734375,0.012827792204916477,-0.009773556143045425,-0.5815265774726868
1783153433556390000,7.996389892578125,-0.004886778071522713,-0.16065283119678497,-0.5986303091049194
1783153433566102000,8.00610205078125,-0.02504473738372326,-0.21807247400283813,-0.6132906675338745
1783153433575814100,8.015814208984375,-0.05864133685827255,-0.20524467527866364,-0.6163448691368103
1783153433585526300,8.0255263671875,-0.11667182296514511,-0.1563768982887268,-0.6193991303443909
1783153433595238400,8.03523828125,-0.1850867122411728,-0.08307522535324097,-0.6187883019447327
1783153433604950500,8.044950439453125,-0.25594499707221985,0.023823043331503868,-0.6035171151161194
1783153433614662700,8.05466259765625,-0.2993151545524597,0.11178504675626755,-0.5650337338447571
1783153433624374800,8.064374755859374,-0.30725616216659546,0.1716480851173401,-0.4947862923145294
1783153433634087000,8.0740869140625,-0.28160059452056885,0.24678228795528412,-0.40254834294319153
1783153433643799000,8.083799072265625,-0.25594499707221985,0.30725616216659546,-0.3139754831790924
1783153433653511200,8.09351123046875,-0.22845686972141266,0.3042019307613373,-0.23273280262947083
1783153433663223300,8.103223388671875,-0.1960819661617279,0.27915719151496887,-0.14904673397541046
1783153433672935400,8.112935302734375,-0.17470231652259827,0.22479179501533508,-0.06047387793660164
1783153433682647600,8.1226474609375,-0.1563768982887268,0.1557660549879074,0.018936265259981155
1783153433692359700,8.132359619140624,-0.14721418917179108,0.08674030750989914,0.08612946420907974
1783153433702071800,8.14207177734375,-0.14110571146011353,0.005497625097632408,0.12278030067682266
1783153433711784000,8.151783935546876,-0.13805148005485535,-0.07574506103992462,0.12278030067682266
1783153433721496000,8.16149609375,-0.1313321590423584,-0.15210096538066864,0.10078980028629303
1783153433731208200,8.171208251953125,-0.10995250940322876,-0.21318569779396057,0.06352811306715012
1783153433740920300,8.18092041015625,-0.07513421028852463,-0.23884128034114838,0.033596597611904144
1783153433750632400,8.190632568359375,-0.03237490355968475,-0.22845686972141266,0.02748812735080719
1783153433760344600,8.200344482421874,-0.006108472589403391,-0.18630841374397278,0.03665083646774292
1783153433770056700,8.210056640625,0.0012216945178806782,-0.12094775587320328,0.07024743407964706
1783153433779768800,8.219768798828126,-0.007941014133393764,-0.04947862774133682,0.10384403169155121
1783153433789481000,8.22948095703125,-0.021990500390529633,-0.01832541823387146,0.11056335270404816
1783153433799193000,8.239193115234375,-0.034818295389413834,-0.033596597611904144,0.0910162404179573
1783153433808905200,8.2489052734375,-0.04153761267662048,-0.09284878522157669,0.0397050715982914
1783153433818617300,8.258617431640625,-0.0525328628718853,-0.16859383881092072,-0.03298575058579445
1783153433828329500,8.26832958984375,-0.0525328628718853,-0.23273280262947083,-0.10262233763933182
1783153433838041600,8.27804150390625,-0.025655584409832954,-0.24311721324920654,-0.15454435348510742
1783153433847753700,8.287753662109376,0.02504473738372326,-0.22479179501533508,-0.1832541823387146
1783153433857465900,8.2974658203125,0.1044548824429512,-0.16370706260204315,-0.16798299551010132
1783153433867178000,8.307177978515625,0.21440738439559937,-0.0659715011715889,-0.12339114397764206
1783153433876890000,8.31689013671875,0.33535513281822205,0.042759306728839874,-0.06780404597520828
1783153433886602200,8.326602294921875,0.4453076422214508,0.1459924876689911,-0.004275931045413017
1783153433896314400,8.336314453125,0.5277720093727112,0.21501824259757996,0.06047387793660164
1783153433906026500,8.346026611328124,0.5986303091049194,0.2235700935125351,0.13377554714679718
1783153433915738600,8.355738525390626,0.6902574300765991,0.17897824943065643,0.24494975805282593
1783153433925450800,8.36545068359375,0.81425940990448,0.12278030067682266,0.40132665634155273
1783153433944875000,8.384875,1.1019684076309204,0.046424392610788345,0.7886037826538086
1783153433954587400,8.39458740234375,1.23940908908844,0.07635590434074402,0.9791881442070007
1783153433964299500,8.404299560546875,1.3328686952590942,0.16065283119678497,1.1355650424957275
1783153433974011600,8.41401171875,1.3340904712677002,0.11239589750766754,1.1856545209884644
1783153433983723800,8.423723876953124,1.249793529510498,-0.18753011524677277,1.058598279953003
1783153433993436000,8.433435791015626,1.1496145725250244,-0.5485408306121826,0.8222004175186157
1783153434003148000,8.44314794921875,1.0787562131881714,-0.7470661997795105,0.6346703171730042
1783153434012860200,8.452860107421875,1.0201148986816406,-0.7623373866081238,0.53143709897995
1783153434022572300,8.462572265625,0.966971218585968,-0.6077930331230164,0.49417543411254883
1783153434032284400,8.472284423828125,0.938872218132019,-0.2498365342617035,0.5302154421806335
1783153434041996500,8.48199658203125,0.9352071285247803,0.23884128034114838,0.6444438695907593
1783153434051708700,8.491708740234374,0.9468132257461548,0.7440119385719299,0.8020424246788025
1783153434061420800,8.5014208984375,0.9700254201889038,1.100746750831604,0.9559759497642517
1783153434071133000,8.5111328125,1.0103414058685303,1.206423282623291,1.0640959739685059
1783153434080845000,8.520844970703125,1.0506572723388672,1.0793671607971191,1.096470832824707
1783153434090557200,8.53055712890625,1.0708152055740356,0.8283088803291321,1.0885298252105713
1783153434100269300,8.540269287109375,1.0653176307678223,0.5833591222763062,1.0573766231536865
1783153434109981400,8.5499814453125,1.0286667346954346,0.42392799258232117,0.9743013978004456
1783153434119693600,8.559693603515624,0.9779664874076843,0.3567348122596741,0.8215895891189575
1783153434129405700,8.56940576171875,0.9297095537185669,0.3274141252040863,0.6224533319473267
1783153434139117800,8.579117919921876,0.8875610828399658,0.33718767762184143,0.416597843170166
1783153434148830000,8.588829833984375,0.893058717250824,0.35856732726097107,0.21623992919921875
1783153434158542000,8.5985419921875,0.9700254201889038,0.3500154912471771,0.03176405653357506
1783153434168254200,8.608254150390625,1.0121738910675049,0.34635040163993835,-0.08674030750989914
1783153434177966300,8.61796630859375,1.0231691598892212,0.34696123003959656,-0.1423274129629135
1783153434187678500,8.627678466796874,1.0683718919754028,0.2993151545524597,-0.13438639044761658
1783153434197390600,8.637390625,1.0811996459960938,0.26694026589393616,-0.06780404597520828
1783153434207102700,8.647102783203126,1.0158389806747437,0.14782503247261047,-0.011606098152697086
1783153434216814800,8.65681494140625,0.8936695456504822,-0.0030542362947016954,0.014049487188458443
1783153434226527000,8.66652685546875,0.7440119385719299,-0.09834641218185425,0.0030542362947016954
1783153434236239000,8.676239013671875,0.6664343476295471,-0.22723518311977386,-0.04825693368911743
1783153434245951200,8.685951171875,0.6236750483512878,-0.3158080279827118,-0.15149012207984924
1783153434255663400,8.695663330078125,0.6029062271118164,-0.24372805655002594,-0.2754921019077301
1783153434265375500,8.70537548828125,0.605960488319397,0.012827792204916477,-0.37322768568992615
1783153434275087600,8.715087646484376,0.6224533319473267,0.39766156673431396,-0.4049917459487915
1783153434284800000,8.724800048828126,0.6493306159973145,0.7647807598114014,-0.39766156673431396
1783153434294512000,8.73451220703125,0.6255075931549072,1.1410627365112305,-0.3689517378807068
1783153434304224300,8.744224365234375,0.5974085927009583,1.43312406539917,-0.3017585575580597
1783153434313936400,8.753936279296875,0.5839699506759644,1.5375789403915405,-0.1948602795600891
1783153434323648500,8.7636484375,0.5845808386802673,1.4441193342208862,-0.061084724962711334
1783153434333360600,8.773360595703124,0.5900784730911255,1.2546802759170532,0.10017894953489304
1783153434343072800,8.78307275390625,0.5906893014907837,1.1080769300460815,0.2870981991291046
1783153434352785000,8.792784912109376,0.5839699506759644,1.0219475030899048,0.47707170248031616
1783153434362497000,8.8024970703125,0.5717530250549316,0.9608627557754517,0.6212316751480103
1783153434372209200,8.812209228515625,0.5454866290092468,0.8747332692146301,0.7195780873298645
1783153434381921300,8.82192138671875,0.517998456954956,0.7562289237976074,0.7519529461860657
1783153434391633400,8.83163330078125,0.4966188073158264,0.5986303091049194,0.7330167293548584
1783153434401345500,8.841345458984375,0.49112120270729065,0.44958359003067017,0.6804838180541992
1783153434411057700,8.8510576171875,0.5021164417266846,0.35917818546295166,0.6224533319473267
1783153434420769800,8.860769775390626,0.5088357925415039,0.3274141252040863,0.5851916670799255
1783153434430482000,8.87048193359375,0.47768256068229675,0.3011476993560791,0.5711421966552734
1783153434440194000,8.880194091796875,0.41354358196258545,0.31031039357185364,0.5674771070480347
1783153434449906200,8.88990625,0.3286358118057251,0.37383851408958435,0.5668662786483765
1783153434459618300,8.899618408203125,0.25472331047058105,0.43736663460731506,0.5570927262306213
1783153434469330400,8.909330322265625,0.21623992919921875,0.4416425824165344,0.5234960913658142
1783153434479042600,8.91904248046875,0.2101314514875412,0.38605546951293945,0.4715740978717804
1783153434488754700,8.928754638671874,0.20646637678146362,0.3035911023616791,0.3939964771270752
1783153434498466800,8.938466796875,0.20524467527866364,0.23028941452503204,0.31825143098831177
1783153434508179000,8.948178955078125,0.17775654792785645,0.09529217332601547,0.21196399629116058
1783153434517891000,8.95789111328125,0.1429382562637329,-0.0781884491443634,0.08307522535324097
1783153434527603200,8.967603271484375,0.12461283802986145,-0.1301104724407196,0.053143709897994995
1783153434537315300,8.9773154296875,0.09895725548267365,-0.11911521852016449,0.129499614238739
1783153434547027500,8.98702734375,0.04153761267662048,-0.12216944992542267,0.28160059452056885
1783153434556739600,8.996739501953124,-0.03420744836330414,-0.08674030750989914,0.4679090082645416
1783153434566451700,9.00645166015625,-0.11972606182098389,0.004275931045413017,0.6639909744262695
1783153434576163800,9.016163818359376,-0.17775654792785645,0.11117420345544815,0.8509102463722229
1783153434585876000,9.0258759765625,-0.20402298867702484,0.1948602795600891,1.0109522342681885
1783153434595588000,9.035588134765625,-0.2095206081867218,0.2718270421028137,1.1483927965164185
1783153434605300200,9.04530029296875,-0.21929416060447693,0.32130566239356995,1.222305417060852
1783153434615012400,9.055012451171875,-0.25716668367385864,0.3164188861846924,1.2143644094467163
1783153434624724700,9.064724853515624,-0.3817795515060425,0.21868331730365753,1.1264023780822754
1783153434634436900,9.074436767578124,-0.5405998229980469,0.10873081535100937,1.0048437118530273
1783153434644149000,9.08414892578125,-0.6230642199516296,0.05864133685827255,0.8680139780044556
1783153434653861000,9.093861083984375,-0.6261184215545654,0.03665083646774292,0.6878139972686768
1783153434663573200,9.1035732421875,-0.5595360994338989,0.005497625097632408,0.448361873626709
1783153434673285400,9.113285400390625,-0.43736663460731506,-0.05864133685827255,0.19119518995285034
1783153434682997500,9.12299755859375,-0.3390202224254608,-0.05497625470161438,-0.033596597611904144
1783153434692709600,9.132709716796874,-0.2644968628883362,0.0910162404179573,-0.14965757727622986
1783153434702421800,9.142421875,-0.18753011524677277,0.27121618390083313,-0.16004198789596558
1783153434712134000,9.1521337890625,-0.11422843486070633,0.38483378291130066,-0.08918370306491852
1783153434721846000,9.161845947265626,-0.05986303091049194,0.4227063059806824,0.037261683493852615
1783153434731558100,9.17155810546875,-0.03420744836330414,0.39766156673431396,0.1960819661617279
1783153434741270300,9.181270263671875,-0.04337015375494957,0.29503923654556274,0.3530697226524353
1783153434750982400,9.190982421875,-0.06902574002742767,0.1301104724407196,0.4709632396697998
1783153434760694500,9.200694580078125,-0.09712471067905426,-0.0397050715982914,0.5393781065940857
1783153434770406700,9.21040673828125,-0.13499724864959717,-0.16248537600040436,0.554649293422699
1783153434780118800,9.220118896484376,-0.17897824943065643,-0.20646637678146362,0.5277720093727112
1783153434789831000,9.229830810546876,-0.2211267054080963,-0.16248537600040436,0.4874561131000519
1783153434799543000,9.23954296875,-0.2626643180847168,-0.05131116881966591,0.4569137394428253
1783153434809255200,9.249255126953125,-0.3139754831790924,0.0781884491443634,0.4477510452270508
1783153434818967300,9.25896728515625,-0.37506023049354553,0.20463383197784424,0.4312581717967987
1783153434828679400,9.268679443359375,-0.44958359003067017,0.32069480419158936,0.4214846193790436
1783153434838391600,9.2783916015625,-0.5149442553520203,0.42331716418266296,0.4190412163734436
1783153434848103700,9.288103759765624,-0.5656445622444153,0.5100574493408203,0.4282039403915405
1783153434857815800,9.29781591796875,-0.6041279435157776,0.5754181146621704,0.42514967918395996
1783153434867528000,9.30752783203125,-0.6395570635795593,0.6157340407371521,0.3915531039237976
1783153434877240000,9.317239990234375,-0.6536065936088562,0.6169557571411133,0.3268032968044281
1783153434886952400,9.326952392578125,-0.6487197875976562,0.5821374654769897,0.23090025782585144
1783153434896664600,9.33666455078125,-0.6413896083831787,0.5381564497947693,0.09773556143045425
1783153434906376700,9.346376708984375,-0.6230642199516296,0.5125008225440979,-0.0525328628718853
1783153434916088800,9.3560888671875,-0.5833591222763062,0.46424391865730286,-0.17958909273147583
1783153434925801000,9.365801025390626,-0.5509842038154602,0.37078428268432617,-0.25716668367385864
1783153434935513000,9.37551318359375,-0.5302154421806335,0.2339545041322708,-0.2761029601097107
1783153434945225200,9.38522509765625,-0.5100574493408203,0.11606097966432571,-0.22479179501533508
1783153434954937300,9.394937255859375,-0.4837910234928131,0.08124268800020218,-0.09529217332601547
1783153434964649500,9.4046494140625,-0.4563029110431671,0.1178935244679451,0.0653606578707695
1783153434974361600,9.414361572265625,-0.41537612676620483,0.16615045070648193,0.22601348161697388
1783153434984073700,9.42407373046875,-0.3518480062484741,0.20463383197784424,0.3500154912471771
1783153434993785900,9.433785888671874,-0.27060532569885254,0.26694026589393616,0.4453076422214508
1783153435003498000,9.443498046875,-0.21501824259757996,0.3011476993560791,0.5021164417266846
1783153435013210000,9.453210205078125,-0.18142163753509521,0.27121618390083313,0.5259394645690918
1783153435022922200,9.462922119140625,-0.16309621930122375,0.24006296694278717,0.5405998229980469
1783153435032634400,9.47263427734375,-0.16065283119678497,0.1985253542661667,0.5442649126052856
1783153435042346500,9.482346435546875,-0.1569877415895462,0.15087927877902985,0.5399889945983887
1783153435052058600,9.49205859375,-0.15943112969398499,0.10811996459960938,0.5259394645690918
1783153435061770800,9.501770751953124,-0.16492876410484314,0.056808795779943466,0.5131117105484009
1783153435071483000,9.51148291015625,-0.15943112969398499,0.01832541823387146,0.49112120270729065
1783153435081195000,9.521195068359376,-0.13499724864959717,0.033596597611904144,0.47768256068229675
1783153435090907100,9.5309072265625,-0.1044548824429512,0.07146912813186646,0.48073679208755493
1783153435100619300,9.540619384765625,-0.08551861345767975,0.08857285231351852,0.49356457591056824
1783153435110331400,9.550331298828125,-0.0653606578707695,0.09284878522157669,0.5198310017585754
1783153435120043500,9.56004345703125,-0.04703523963689804,0.07330167293548584,0.5509842038154602
1783153435129755600,9.569755615234374,-0.034818295389413834,0.007941014133393764,0.5864133834838867
1783153435139467800,9.5794677734375,-0.04886778071522713,-0.09895725548267365,0.5894675850868225
1783153435149180000,9.589179931640626,-0.07635590434074402,-0.19241689145565033,0.5717530250549316
1783153435158892300,9.598892333984375,-0.13316470384597778,-0.24189551174640656,0.5326588153839111
1783153435168604400,9.6086044921875,-0.20463383197784424,-0.23823043704032898,0.48806697130203247
1783153435178316500,9.618316650390625,-0.2919849753379822,-0.17653486132621765,0.4471401870250702
1783153435188028700,9.628028564453125,-0.38483378291130066,-0.09834641218185425,0.3805578351020813
1783153435197740800,9.63774072265625,-0.45447036623954773,0.03420744836330414,0.3005368411540985
1783153435207453000,9.647452880859374,-0.48073679208755493,0.18997350335121155,0.24250635504722595
1783153435217165000,9.6571650390625,-0.4611896872520447,0.31886225938796997,0.2376195788383484
1783153435226877200,9.666877197265626,-0.4074351191520691,0.37322768568992615,0.2883199155330658
1783153435236589300,9.67658935546875,-0.33230090141296387,0.23212195932865143,0.3683409094810486
1783153435246301400,9.686301513671875,-0.2742704153060913,-0.23273280262947083,0.3817795515060425
1783153435256013600,9.696013671875,-0.24556060135364532,-0.9419264793395996,0.25411245226860046
1783153435265725700,9.7057255859375,-0.2498365342617035,-1.664635181427002,-0.0018325417768210173
1783153435275437800,9.715437744140624,-0.28160059452056885,-2.1557562351226807,-0.2858765125274658
1783153435285150000,9.72514990234375,-0.37689274549484253,-2.272428274154663,-0.49356457591056824
1783153435294862000,9.734862060546876,-0.5369347333908081,-2.03480863571167,-0.6120689511299133
1783153435304574200,9.74457421875,-0.7146912813186646,-1.5333030223846436,-0.6420004963874817
1783153435314286300,9.754286376953125,-0.8490777015686035,-0.9119949340820312,-0.6126797795295715
1783153435323998500,9.76399853515625,-0.8948912620544434,-0.3390202224254608,-0.5729747414588928
1783153435333710600,9.773710693359375,-0.8576295375823975,0.006108472589403391,-0.5143333673477173
1783153435343422700,9.783422607421874,-0.7837170362472534,0.09468132257461548,-0.4416425824165344
1783153435353134800,9.793134765625,-0.7238540053367615,-0.01038440316915512,-0.3518480062484741
1783153435362847000,9.802846923828126,-0.7128587365150452,-0.20707722008228302,-0.28098973631858826
1783153435372559000,9.81255908203125,-0.7550072073936462,-0.46485477685928345,-0.2363978922367096
1783153435382271200,9.822271240234375,-0.9211576581001282,-0.8154810667037964,-0.237008735537529
1783153435391983600,9.831983642578125,-1.096470832824707,-0.9119949340820312,-0.29626092314720154
1783153435401695700,9.84169580078125,-1.296217918395996,-0.8802309036254883,-0.4434750974178314
1783153435411408000,9.851407958984375,-1.336610198020935,-0.9547542929649353,-0.6071822047233582
1783153435421120000,9.8611201171875,-1.3285927772521973,-0.8050966858863831,-0.7275190949440002
1783153435430832000,9.87083203125,-1.2785032987594604,-0.5796940326690674,-0.7293516397476196
1783153435440544300,9.880544189453126,-1.1398409605026245,-0.41110020875930786,-0.6352811455726624
1783153435450256400,9.89025634765625,-1.0030112266540527,-0.4856235682964325,-0.5308262705802917
1783153435459968500,9.899968505859375,-0.9107732772827148,-0.7226322889328003,-0.46546560525894165
1783153435469680600,9.9096806640625,-0.8893936276435852,-0.9834640622138977,-0.41476529836654663
1783153435479392800,9.919392822265625,-0.9743013978004456,-1.2198619842529297,-0.4446968138217926
1783153435489105000,9.92910498046875,-1.1300674676895142,-1.4135769605636597,-0.5393781065940857
1783153435498817000,9.938817138671874,-1.321873426437378,-1.5033714771270752,-0.6646018028259277
1783153435508529200,9.948529052734376,-1.460612177848816,-1.5687321424484253,-0.8130376935005188
1783153435518241300,9.9582412109375,-1.543076515197754,-1.5137559175491333,-0.911384105682373
1783153435527953400,9.967953369140625,-1.5229185819625854,-1.4141877889633179,-1.0024003982543945
1783153435537665500,9.97766552734375,-1.327981948852539,-1.4618338346481323,-1.0598199367523193
1783153435547377700,9.987377685546875,-1.0366077423095703,-1.464888095855713,-1.1129636764526367
1783153435557089800,9.99708984375,-0.7440119385719299,-1.345162034034729,-1.1318999528884888
1783153435566802000,10.006802001953124,-0.5436540842056274,-1.2846118211746216,-1.1490037441253662
1783153435576514000,10.01651416015625,-0.4868452548980713,-1.1838220357894897,-1.0934165716171265
1783153435586226200,10.02622607421875,-0.5296045541763306,-1.0848647356033325,-0.9724688529968262
1783153435595938300,10.035938232421875,-0.6193991303443909,-1.129456639289856,-0.8386932611465454
1783153435605650400,10.045650390625,-0.739736020565033,-1.2846118211746216,-0.6969767212867737
1783153435615362800,10.05536279296875,-0.8942803740501404,-1.4386216402053833,-0.5473191738128662
1783153435625075000,10.065074951171875,-1.0708152055740356,-1.5668995380401611,-0.41354358196258545
1783153435634787000,10.074787109375,-1.2363548278808594,-1.6566941738128662,-0.3115321099758148
1783153435644499200,10.084499267578124,-1.3573789596557617,-1.6652460098266602,-0.22723518311977386
1783153435654211300,10.09421142578125,-1.4062467813491821,-1.6114914417266846,-0.16187451779842377
1783153435663923500,10.10392333984375,-1.389753818511963,-1.5223077535629272,-0.11361759155988693
1783153435673635600,10.113635498046875,-1.3255385160446167,-1.4123551845550537,-0.05008947476744652
1783153435683347700,10.12334765625,-1.2534586191177368,-1.2980504035949707,0.04581354558467865
1783153435693059800,10.133059814453125,-1.220472812652588,-1.2186403274536133,0.16004198789596558
1783153435702772000,10.14277197265625,-1.2278029918670654,-1.1728267669677734,0.2779355049133301
1783153435712484000,10.152484130859374,-1.245517611503601,-1.1972606182098389,0.3793361485004425
1783153435722196200,10.1621962890625,-1.285833477973938,-1.313321590423584,0.42453885078430176
1783153435741620500,10.181620361328125,-1.475272536277771,-1.5601803064346313,0.32130566239356995
1783153435751332600,10.19133251953125,-1.6292059421539307,-1.5638453960418701,0.1844758689403534
1783153435761044700,10.201044677734375,-1.7941347360610962,-1.5168100595474243,0.006108472589403391
1783153435770756900,10.2107568359375,-1.825287938117981,-1.3970839977264404,-0.15271180868148804
1783153435780469000,10.220468994140624,-1.9169150590896606,-1.4038033485412598,-0.28098973631858826
1783153435790181000,10.23018115234375,-2.0103747844696045,-1.414798617362976,-0.29687178134918213
1783153435799893200,10.239893310546876,-2.047025442123413,-1.428848147392273,-0.265718549489975
1783153435809605400,10.24960546875,-2.014650583267212,-1.4679423570632935,-0.2473931461572647
1783153435819317800,10.25931787109375,-1.9101957082748413,-1.4141877889633179,-0.2492256760597229
1783153435829030000,10.26902978515625,-1.7580947875976562,-1.23940908908844,-0.22967857122421265
1783153435838742000,10.278741943359375,-1.612713098526001,-1.0262234210968018,-0.19424942135810852
1783153435848454100,10.2884541015625,-1.5827815532684326,-0.8814526200294495,-0.12644538283348083
1783153435858166300,10.298166259765624,-1.5504066944122314,-0.8380824327468872,0.03787253051996231
1783153435867878400,10.30787841796875,-1.5760623216629028,-1.0060654878616333,0.23334364593029022
1783153435877590500,10.317590576171876,-1.4990955591201782,-1.1838220357894897,0.4330907166004181
1783153435887302700,10.327302734375,-1.3292036056518555,-1.3482162952423096,0.6077930331230164
1783153435897014800,10.337014892578125,-1.1331216096878052,-1.452060341835022,0.6829272508621216
1783153435906727000,10.346726806640625,-0.9730796813964844,-1.5180318355560303,0.6737645268440247
1783153435916439000,10.35643896484375,-0.8429692387580872,-1.5589585304260254,0.5943543910980225
1783153435926151200,10.366151123046874,-0.7434011101722717,-1.5473524332046509,0.44042086601257324
1783153435935863300,10.37586328125,-0.6633801460266113,-1.4490060806274414,0.21746163070201874
1783153435945575400,10.385575439453126,-0.6499415040016174,-1.2693406343460083,-0.04214845970273018
1783153435955287600,10.39528759765625,-0.6719319820404053,-1.077534556388855,-0.26816195249557495
1783153435964999700,10.404999755859375,-0.7898254990577698,-0.8435800671577454,-0.41415444016456604
1783153435974712000,10.414712158203125,-0.9474241137504578,-0.6743753552436829,-0.4947862923145294
1783153435984424200,10.424424072265625,-1.09219491481781,-0.5919110178947449,-0.5167768001556396
1783153435994136300,10.43413623046875,-1.1917630434036255,-0.5656445622444153,-0.49234288930892944
1783153436003848400,10.443848388671874,-1.2742273807525635,-0.5515950918197632,-0.37261682748794556
1783153436013560600,10.453560546875,-1.26872980594635,-0.44958359003067017,-0.2718270421028137
1783153436023272700,10.463272705078126,-1.276059865951538,-0.5522059202194214,-0.20768806338310242
1783153436032984800,10.47298486328125,-1.3476054668426514,-0.6719319820404053,-0.16370706260204315
1783153436042697000,10.482697021484375,-1.4367891550064087,-0.6859814524650574,-0.07757759839296341
1783153436052409000,10.4924091796875,-1.5039823055267334,-0.6670452356338501,0.037261683493852615
1783153436062121200,10.502121337890625,-1.5180318355560303,-0.7128587365150452,0.12278030067682266
1783153436071833300,10.511833251953124,-1.4685531854629517,-0.7128587365150452,0.19058434665203094
1783153436081545500,10.52154541015625,-1.3799803256988525,-0.6529957056045532,0.2510582208633423
1783153436091257600,10.531257568359376,-1.266897201538086,-0.5583143830299377,0.29748260974884033
1783153436100969700,10.5409697265625,-1.165496587753296,-0.444085955619812,0.30908870697021484
1783153436110681900,10.550681884765625,-1.0738694667816162,-0.3384093940258026,0.3261924386024475
1783153436120394000,10.56039404296875,-1.0188932418823242,-0.28098973631858826,0.3573456406593323
1783153436130106000,10.570106201171875,-1.012784719467163,-0.24556060135364532,0.3817795515060425
1783153436139818200,10.579818359375,-1.0408837795257568,-0.24556060135364532,0.38422292470932007
1783153436149530600,10.589530517578124,-1.081810474395752,-0.30786702036857605,0.37200596928596497
1783153436159242800,10.59924267578125,-1.1025793552398682,-0.39949411153793335,0.34451785683631897
1783153436168955000,10.608954833984376,-1.111131191253662,-0.46424391865730286,0.2858765125274658
1783153436178667000,10.6186669921875,-1.0885298252105713,-0.47951510548591614,0.20219044387340546
1783153436188379100,10.628379150390625,-1.0512681007385254,-0.49112120270729065,0.1050657257437706
1783153436198091300,10.63809130859375,-1.0164498090744019,-0.49112120270729065,0.0024433890357613564
1783153436207803400,10.647803466796875,-0.9852966070175171,-0.45141613483428955,-0.07574506103992462
1783153436217515500,10.657515625,-0.9553651213645935,-0.4056025743484497,-0.13377554714679718
1783153436227227600,10.6672275390625,-0.9254335761070251,-0.3958290219306946,-0.1710372269153595
1783153436236939800,10.676939697265626,-0.8796200752258301,-0.40193748474121094,-0.19424942135810852
1783153436246652000,10.68665185546875,-0.837471604347229,-0.43797749280929565,-0.21868331730365753
1783153436256364000,10.696364013671875,-0.8173136115074158,-0.4691306948661804,-0.2486148327589035
1783153436266076200,10.706076171875,-0.813648521900177,-0.4294256269931793,-0.29442837834358215
1783153436275788300,10.715788330078125,-0.8112051486968994,-0.3426853120326996,-0.3542914092540741
1783153436285500400,10.72550048828125,-0.7892146706581116,-0.23334364593029022,-0.40071579813957214
1783153436295212500,10.735212646484374,-0.7391251921653748,-0.10689827054738998,-0.39827242493629456
1783153436304924700,10.744924560546876,-0.6872031688690186,-0.03542914241552353,-0.3408527672290802
1783153436314636800,10.75463671875,-0.6725428104400635,-0.08674030750989914,-0.27854636311531067
1783153436324349000,10.764348876953125,-0.7110261917114258,-0.23823043704032898,-0.24372805655002594
1783153436334061000,10.77406103515625,-0.7928797602653503,-0.4330907166004181,-0.28343313932418823
1783153436343773400,10.7837734375,-0.883895993232727,-0.5876350402832031,-0.3958290219306946
1783153436353485600,10.793485595703125,-0.9425373077392578,-0.6316160559654236,-0.5363239049911499
1783153436363197700,10.80319775390625,-0.9376505613327026,-0.5002838969230652,-0.6597150564193726
1783153436372909800,10.812909912109374,-0.8887827396392822,-0.2363978922367096,-0.7183563709259033
1783153436382622000,10.8226220703125,-0.8148702383041382,0.034818295389413834,-0.6896465420722961
1783153436392334000,10.832333984375,-0.7232431769371033,0.18691925704479218,-0.5601469278335571
1783153436402046200,10.842046142578125,-0.6120689511299133,0.1966928243637085,-0.3536805510520935
1783153436411758300,10.85175830078125,-0.497229665517807,0.08551861345767975,-0.13682979345321655
1783153436421470500,10.861470458984375,-0.4037700295448303,-0.07330167293548584,0.08368607610464096
1783153436431182600,10.8711826171875,-0.34451785683631897,-0.15454435348510742,0.29626092314720154
1783153436440894700,10.880894775390624,-0.33291175961494446,-0.22784602642059326,0.43981003761291504
1783153436450606800,10.89060693359375,-0.3536805510520935,-0.3151971995830536,0.4984513521194458
1783153436460319000,10.900319091796876,-0.3781144618988037,-0.3396310806274414,0.47890424728393555
1783153436470031000,10.910031005859375,-0.390942245721817,-0.29320669174194336,0.38849884271621704
1783153436479743500,10.919743408203125,-0.3946073353290558,-0.22601348161697388,0.2492256760597229
1783153436489455600,10.92945556640625,-0.3915531039237976,-0.13377554714679718,0.08551861345767975
1783153436499167700,10.939167724609375,-0.3689517378807068,-0.021990500390529633,-0.062306419014930725
1783153436508880000,10.9488798828125,-0.3274141252040863,0.07207997888326645,-0.1569877415895462
1783153436518592000,10.958592041015624,-0.2724378705024719,0.12033691257238388,-0.20524467527866364
1783153436528304000,10.96830419921875,-0.22967857122421265,0.10750912129878998,-0.1948602795600891
1783153436538016300,10.978016357421875,-0.2223484069108963,0.047646086663007736,-0.14171656966209412
1783153436547728400,10.987728271484375,-0.24617144465446472,-0.0390942245721817,-0.06413896381855011
1783153436557440500,10.9974404296875,-0.2730487287044525,-0.12583453953266144,0.008551862090826035
1783153436567152600,11.007152587890625,-0.29381752014160156,-0.1948602795600891,0.05986303091049194
1783153436576864800,11.01686474609375,-0.3042019307613373,-0.20646637678146362,0.0781884491443634
1783153436586577000,11.026576904296874,-0.30481278896331787,-0.1716480851173401,0.06658235192298889
1783153436596289000,11.0362890625,-0.28404396772384644,-0.1423274129629135,0.034818295389413834
1783153436606001200,11.046001220703126,-0.24556060135364532,-0.12827792763710022,-0.012216945178806782
1783153436615713300,11.05571337890625,-0.19180603325366974,-0.11422843486070633,-0.05864133685827255
1783153436625425400,11.06542529296875,-0.1313321590423584,-0.12461283802986145,-0.10323318839073181
1783153436635137800,11.0751376953125,-0.07024743407964706,-0.18142163753509521,-0.130721315741539
1783153436644850000,11.084849853515625,-0.024433890357613564,-0.2754921019077301,-0.1319430023431778
1783153436654562000,11.09456201171875,0.01588202826678753,-0.3500154912471771,-0.11545012891292572
1783153436664274200,11.104274169921876,0.053143709897994995,-0.3830012381076813,-0.09773556143045425
1783153436673986300,11.113986328125,0.07696675509214401,-0.3836120665073395,-0.08002099394798279
1783153436683698400,11.123698486328125,0.08490777015686035,-0.3683409094810486,-0.055587101727724075
1783153436693410600,11.13341064453125,0.08490777015686035,-0.3298575282096863,-0.01832541823387146
1783153436703122700,11.143122802734375,0.07696675509214401,-0.2919849753379822,0.01954711228609085
1783153436712834800,11.152834716796875,0.06719319522380829,-0.28037887811660767,0.051922015845775604
1783153436722547000,11.162546875,0.055587101727724075,-0.3115321099758148,0.06780404597520828
1783153436732259000,11.172259033203124,0.046424392610788345,-0.34573954343795776,0.07696675509214401
1783153436741971200,11.18197119140625,0.03787253051996231,-0.3781144618988037,0.0910162404179573
1783153436751683300,11.191683349609375,0.029320668429136276,-0.42514967918395996,0.09651386737823486
1783153436761395500,11.2013955078125,0.022601349279284477,-0.4569137394428253,0.08185353130102158
1783153436771107600,11.211107666015625,0.01710372418165207,-0.46485477685928345,0.05375456064939499
1783153436780819700,11.22081982421875,-0.0006108472589403391,-0.45447036623954773,0.017714571207761765
1783153436790531800,11.23053173828125,-0.021379653364419937,-0.4343124032020569,-0.024433890357613564
1783153436800244000,11.240243896484374,-0.03237490355968475,-0.4080459773540497,-0.06047387793660164
1783153436809956400,11.249956298828126,-0.03237490355968475,-0.38910970091819763,-0.08490777015686035
1783153436819668500,11.25966845703125,-0.031153209507465363,-0.37078428268432617,-0.09345962852239609
1783153436829380600,11.269380615234375,-0.031153209507465363,-0.34818294644355774,-0.08002099394798279
1783153436839092700,11.2790927734375,-0.04581354558467865,-0.3170297145843506,-0.0647498071193695
1783153436848804900,11.288804931640625,-0.07574506103992462,-0.2858765125274658,-0.054365407675504684
1783153436858517000,11.29851708984375,-0.10934165865182877,-0.28343313932418823,-0.042759306728839874
1783153436868229000,11.30822900390625,-0.13499724864959717,-0.3127537965774536,-0.026877280324697495
1783153436877941200,11.317941162109374,-0.15149012207984924,-0.363454133272171,-0.0030542362947016954
1783153436887653400,11.3276533203125,-0.14721418917179108,-0.41171106696128845,0.024433890357613564
1783153436897365500,11.337365478515625,-0.12278030067682266,-0.4367557764053345,0.05925218388438225
1783153436907077600,11.34707763671875,-0.08429691940546036,-0.416597843170166,0.09040539711713791
1783153436916789800,11.356789794921875,-0.05008947476744652,-0.367730051279068,0.1056765764951706
1783153436926502000,11.366501953125,-0.03298575058579445,-0.3384093940258026,0.11422843486070633
1783153436936214000,11.376214111328125,-0.03665083646774292,-0.3170297145843506,0.11422843486070633
1783153436945926400,11.385926513671874,-0.047646086663007736,-0.29626092314720154,0.11178504675626755
1783153436955638500,11.395638427734376,-0.0525328628718853,-0.27121618390083313,0.12888877093791962
1783153436965350700,11.4053505859375,-0.04581354558467865,-0.28098973631858826,0.16187451779842377
1783153436975062800,11.415062744140625,-0.03787253051996231,-0.37078428268432617,0.17958909273147583
1783153436984775000,11.42477490234375,-0.03298575058579445,-0.47707170248031616,0.17531315982341766
1783153436994487000,11.434487060546875,-0.0525328628718853,-0.5448757410049438,0.12766708433628082
1783153437004199200,11.44419921875,-0.09590301662683487,-0.5619794726371765,0.023823043331503868
1783153437013911300,11.453911376953124,-0.1447708010673523,-0.5247178077697754,-0.14660334587097168
1783153437023623400,11.46362353515625,-0.16126367449760437,-0.46241137385368347,-0.3432961702346802
1783153437033335600,11.47333544921875,-0.12888877093791962,-0.37689274549484253,-0.5296045541763306
1783153437043047700,11.483047607421875,-0.0647498071193695,-0.27121618390083313,-0.6633801460266113
1783153437052759800,11.492759765625,0.012827792204916477,-0.18630841374397278,-0.731184184551239
1783153437062472000,11.502471923828125,0.08185353130102158,-0.11667182296514511,-0.7104153633117676
1783153437072184300,11.512184326171875,0.1301104724407196,-0.0647498071193695,-0.5974085927009583
1783153437081896400,11.521896484375,0.15210096538066864,0.0018325417768210173,-0.40193748474121094
1783153437091608600,11.531608642578124,0.1453816443681717,0.08612946420907974,-0.129499614238739
1783153437101320700,11.54132080078125,0.10934165865182877,0.12644538283348083,0.1698155403137207
1783153437111032800,11.55103271484375,0.07635590434074402,0.0910162404179573,0.4282039403915405
1783153437120745000,11.560744873046875,0.06291726976633072,-0.04092676565051079,0.5986303091049194
1783153437130457000,11.57045703125,0.07269082218408585,-0.22051586210727692,0.6694886088371277
1783153437140169200,11.580169189453125,0.08612946420907974,-0.3506263196468353,0.6517740488052368
1783153437149881300,11.58988134765625,0.10323318839073181,-0.3939964771270752,0.5711421966552734
1783153437159593500,11.599593505859374,0.10140064358711243,-0.3671191930770874,0.4459185004234314
1783153437169305600,11.6093056640625,0.07024743407964706,-0.284654825925827,0.3017585575580597
1783153437179017700,11.619017822265626,0.01954711228609085,-0.130721315741539,0.1692046970129013
1783153437188729900,11.628729736328125,-0.038483377546072006,0.0397050715982914,0.06841489672660828
1783153437198442000,11.63844189453125,-0.0910162404179573,0.16370706260204315,-0.004886778071522713
1783153437208154000,11.648154052734375,-0.14171656966209412,0.21379654109477997,-0.03542914241552353
1783153437217866500,11.657866455078125,-0.17836740612983704,0.20157960057258606,-0.029320668429136276
1783153437227578600,11.66757861328125,-0.20341213047504425,0.13621893525123596,-0.0018325417768210173
1783153437237290800,11.677290771484374,-0.21807247400283813,0.04947862774133682,0.037261683493852615
1783153437247003000,11.6870029296875,-0.22784602642059326,0.005497625097632408,0.06658235192298889
1783153437256715000,11.696715087890626,-0.2363978922367096,0.01710372418165207,0.08857285231351852
1783153437266427100,11.70642724609375,-0.23884128034114838,0.06291726976633072,0.10995250940322876
1783153437276139300,11.71613916015625,-0.23945212364196777,0.1325538605451584,0.1185043677687645
1783153437285851400,11.725851318359375,-0.2223484069108963,0.20463383197784424,0.1178935244679451
1783153437295563500,11.7355634765625,-0.18569757044315338,0.2718270421028137,0.11545012891292572
1783153437305275600,11.745275634765624,-0.1423274129629135,0.2993151545524597,0.12094775587320328
1783153437314987800,11.75498779296875,-0.0916270911693573,0.26938363909721375,0.13805148005485535
1783153437324700000,11.764699951171876,-0.02993151545524597,0.23028941452503204,0.16248537600040436
1783153437334412000,11.774412109375,0.024433890357613564,0.1692046970129013,0.18630841374397278
1783153437344124200,11.784124267578125,0.0794101431965828,0.10140064358711243,0.21379654109477997
1783153437353836500,11.79383642578125,0.12155860662460327,0.04092676565051079,0.2339545041322708
1783153437363548700,11.803548583984375,0.1588202863931656,0.023823043331503868,0.2339545041322708
1783153437373260800,11.8132607421875,0.19302773475646973,0.05986303091049194,0.22601348161697388
1783153437382973000,11.822972900390624,0.21623992919921875,0.12644538283348083,0.2235700935125351
1783153437392685000,11.83268505859375,0.23028941452503204,0.17958909273147583,0.24189551174640656
1783153437402397200,11.842397216796876,0.24311721324920654,0.21868331730365753,0.3042019307613373
1783153437412109300,11.852109375,0.24067382514476776,0.22845686972141266,0.3640649616718292
1783153437421821400,11.861821533203125,0.2357870489358902,0.18814095854759216,0.393385648727417
1783153437431533600,11.871533447265625,0.24433889985084534,0.13621893525123596,0.3958290219306946
1783153437441245700,11.88124560546875,0.27976804971694946,0.10811996459960938,0.37444937229156494
1783153437450957800,11.890957763671874,0.3512371778488159,0.10750912129878998,0.3426853120326996
1783153437460670000,11.900669921875,0.4416425824165344,0.11422843486070633,0.2987042963504791
1783153437470382000,11.910382080078126,0.5344913601875305,0.1563768982887268,0.2473931461572647
1783153437480094200,11.92009423828125,0.610236406326294,0.2773246467113495,0.16248537600040436
1783153437489806300,11.929806396484375,0.6786513328552246,0.5430431962013245,0.09284878522157669
1783153437499518700,11.939518798828125,0.7244648337364197,0.8448017835617065,0.11178504675626755
1783153437509230800,11.94923095703125,0.7605048418045044,1.0640959739685059,0.2638860046863556
1783153437518943000,11.95894287109375,0.7696675658226013,1.23940908908844,0.6322268843650818
1783153437528655000,11.968655029296874,0.5668662786483765,1.0561549663543701,1.0781453847885132
1783153437538367200,11.9783671875,0.3139754831790924,0.5351021885871887,1.2412415742874146
1783153437548079400,11.988079345703126,0.21440738439559937,0.2730487287044525,1.2876659631729126
1783153437557791500,11.99779150390625,0.2095206081867218,-0.017714571207761765,1.2320789098739624
1783153437567503600,12.007503662109375,0.2895416021347046,-0.22845686972141266,1.0341644287109375
1783153437577215700,12.0172158203125,0.3921639323234558,-0.34879377484321594,0.7256865501403809
1783153437586927900,12.026927978515625,0.4837910234928131,-0.34940463304519653,0.31092125177383423
1783153437596640000,12.036639892578124,0.5448757410049438,-0.1423274129629135,-0.09773556143045425
1783153437606352100,12.04635205078125,0.5467082858085632,0.27976804971694946,-0.3787252902984619
1783153437616064300,12.056064208984376,0.4563029110431671,0.6719319820404053,-0.5118899941444397
