time,seconds_elapsed,z,y,x
1783153448605226500,0.2052265625,3.2653651237487793,2.6829042434692383,0.2216930389404297
1783153448614938600,0.214938720703125,2.741452217102051,1.684558391571045,-0.8731763362884521
1783153448624650800,0.224650634765625,2.4297304153442383,1.3453412055969238,-1.4920439720153809
1783153448634363000,0.23436279296875,2.1013832092285156,1.5832633972167969,-1.550660490989685
1783153448644075000,0.244074951171875,1.607614517211914,1.5707347393035889,-1.8859906196594238
1783153448653787100,0.253787109375,1.7794408798217773,1.3473541736602783,-1.918256402015686
1783153448663499300,0.263499267578125,1.624032974243164,1.2678990364074707,-1.4919521808624268
1783153448673211400,0.27321142578125,1.260828971862793,1.2305665016174316,-1.4218437671661377
1783153448682923500,0.282923583984375,1.0321054458618164,1.1823134422302246,-1.05155348777771
1783153448692635600,0.2926357421875,1.2156896591186523,1.3080227375030518,-0.8525292873382568
1783153448702347800,0.30234765625,1.1938915252685547,1.8190858364105225,-1.343970537185669
1783153448712060000,0.312059814453125,0.45650386810302734,2.0166754722595215,-0.8001478314399719
1783153448721772000,0.32177197265625,0.18858814239501953,1.9459712505340576,-0.41753530502319336
1783153448731484200,0.331484130859375,0.14514732360839844,1.8064637184143066,-0.9857602119445801
1783153448741196300,0.3411962890625,-0.24604225158691406,1.765714406967163,-1.4339404106140137
1783153448750908400,0.350908447265625,0.15949535369873047,1.7336902618408203,-1.22475004196167
1783153448760620500,0.36062060546875,1.2809772491455078,1.4949007034301758,-0.5841847658157349
1783153448770332700,0.370332763671875,-0.3978309631347656,0.7071020603179932,-0.19268900156021118
1783153448780044800,0.380044921875,-0.6367273330688477,0.4482078552246094,-0.44901415705680847
1783153448789757000,0.3897568359375,0.39658546447753906,0.5846843719482422,-0.9991292953491211
1783153448799469000,0.399468994140625,1.2709836959838867,1.300957202911377,-0.19429883360862732
1783153448809181200,0.40918115234375,0.5090398788452148,1.1766786575317383,-0.35427525639533997
1783153448818893300,0.418893310546875,-0.609466552734375,0.706439733505249,0.884164571762085
1783153448828605400,0.42860546875,-0.6420907974243164,0.8524174690246582,0.16526168584823608
1783153448838317600,0.438317626953125,-0.5640316009521484,1.0330846309661865,-0.1920565664768219
1783153448848029700,0.44802978515625,-0.8614673614501953,0.11431360244750977,-0.23311853408813477
1783153448857741800,0.457741943359375,-0.6809625625610352,-0.3166015148162842,-0.5004910230636597
1783153448867454000,0.467453857421875,-0.48822689056396484,-0.3808736801147461,-0.788666844367981
1783153448877166000,0.477166015625,-0.2128582000732422,-0.45189690589904785,-0.9532721042633057
1783153448886878200,0.486878173828125,0.22200965881347656,-0.31412196159362793,-0.5712423920631409
1783153448896590300,0.49659033203125,0.16714000701904297,-0.20621871948242188,-0.03614190220832825
1783153448906302500,0.506302490234375,0.04528331756591797,0.017899274826049805,0.17775167524814606
1783153448916014600,0.5160146484375,0.0379180908203125,0.1780097484588623,0.30518415570259094
1783153448925726700,0.525726806640625,-0.08440017700195312,0.1930394172668457,0.31053075194358826
1783153448935438800,0.53543896484375,-0.23012542724609375,0.20847105979919434,0.2681978940963745
1783153448945151000,0.54515087890625,-0.2826871871948242,0.0066776275634765625,0.06219297647476196
1783153448954863000,0.554863037109375,-0.549708366394043,-0.09872293472290039,0.012427538633346558
1783153448964575200,0.5645751953125,-0.31345558166503906,-0.049625396728515625,-0.3228682577610016
1783153448974287400,0.574287353515625,-0.23838424682617188,-0.12108707427978516,-0.2869899868965149
1783153448983999500,0.58399951171875,-0.38669300079345703,0.03775501251220703,-0.25886815786361694
1783153448993711600,0.593711669921875,-0.45573902130126953,0.22926950454711914,-0.24131667613983154
1783153449003423700,0.603423828125,-0.44219207763671875,0.3822157382965088,-0.03544488549232483
1783153449013136000,0.613135986328125,-0.38718700408935547,0.5980329513549805,0.08392202854156494
1783153449022848000,0.622847900390625,-0.3696746826171875,0.7905704975128174,0.2164808064699173
1783153449032560000,0.63256005859375,-0.7264719009399414,0.9281752109527588,0.1708633303642273
1783153449042272300,0.642272216796875,-1.1561861038208008,1.0365395545959473,0.10551860928535461
1783153449051984400,0.651984375,-1.4168343544006348,1.2115864753723145,0.05516365170478821
1783153449061696500,0.661696533203125,-1.5051326751708984,1.3741722106933594,-0.13040882349014282
1783153449071408600,0.67140869140625,-1.4879035949707031,1.4052751064300537,-0.20666959881782532
1783153449081120800,0.681120849609375,-1.3695368766784668,1.3973960876464844,-0.31142640113830566
1783153449090833000,0.6908330078125,-1.108659267425537,1.371119737625122,-0.3636931777000427
1783153449100545000,0.700544921875,-0.5709342956542969,1.378028154373169,-0.46449971199035645
1783153449110257200,0.710257080078125,0.18097972869873047,1.3662214279174805,-0.5506614446640015
1783153449119969300,0.71996923828125,0.7492532730102539,1.4011666774749756,-0.5612843036651611
1783153449129681400,0.729681396484375,1.0163373947143555,1.4213213920593262,-0.6749345064163208
1783153449139393500,0.7393935546875,1.0683765411376953,1.3986709117889404,-0.7567061185836792
1783153449149105700,0.749105712890625,1.025247573852539,1.450606346130371,-0.780999481678009
1783153449158817800,0.75881787109375,0.7732505798339844,1.3852183818817139,-0.664436936378479
1783153449168530000,0.768530029296875,0.40349388122558594,1.1990458965301514,-0.5455623865127563
1783153449178242000,0.778241943359375,0.1249237060546875,0.9632682800292969,-0.5872019529342651
1783153449187954200,0.7879541015625,-0.056598663330078125,0.702178955078125,-0.7544207572937012
1783153449197666600,0.79766650390625,-0.27498435974121094,0.6301305294036865,-0.8612871766090393
1783153449207378700,0.807378662109375,-0.3782663345336914,0.7591876983642578,-0.9011296033859253
1783153449217090800,0.8170908203125,-0.29914379119873047,0.8766405582427979,-1.0571547746658325
1783153449226803000,0.826802978515625,-0.30444908142089844,0.9263544082641602,-1.2249486446380615
1783153449236515000,0.83651513671875,-0.22153282165527344,0.8688485622406006,-1.3897026777267456
1783153449246227200,0.846227294921875,0.03793907165527344,0.7355825901031494,-1.2267796993255615
1783153449255939300,0.855939208984375,0.2587614059448242,0.5913403034210205,-0.9507107734680176
1783153449265651500,0.8656513671875,0.501582145690918,0.530571699142456,-0.9294880628585815
1783153449275363600,0.875363525390625,0.40419578552246094,0.47957444190979004,-0.48242199420928955
1783153449285075700,0.88507568359375,0.34232234954833984,0.4488565921783447,-0.39378225803375244
1783153449294787800,0.894787841796875,0.3087806701660156,0.1931304931640625,-0.5720645189285278
1783153449304500000,0.9045,0.26552867889404297,0.03043365478515625,-0.7821396589279175
1783153449314212000,0.914212158203125,0.13489055633544922,0.11710524559020996,-0.6928465366363525
1783153449323924200,0.92392431640625,-0.06116771697998047,0.3737607002258301,-0.3399254083633423
1783153449333636400,0.93363623046875,-0.350799560546875,0.6528071165084839,0.09850871562957764
1783153449343348500,0.943348388671875,-0.46736621856689453,0.8539563417434692,0.6732785701751709
1783153449353060600,0.953060546875,-0.3077411651611328,0.9315612316131592,1.2016056776046753
1783153449362772700,0.962772705078125,-0.23188304901123047,0.8798861503601074,1.3740750551223755
1783153449372484900,0.97248486328125,-0.24295806884765625,0.7582128047943115,1.2733961343765259
1783153449382197000,0.982197021484375,-0.5108680725097656,0.6369285583496094,1.093014121055603
1783153449391909000,0.9919091796875,-1.1889104843139648,0.654130220413208,1.170804738998413
1783153449401621200,1.001621337890625,-2.006011962890625,0.6100704669952393,1.4222519397735596
1783153449411333400,1.01133349609375,-2.7482662200927734,0.6253230571746826,1.587827205657959
1783153449421045500,1.02104541015625,-3.155686855316162,0.5759673118591309,1.7989294528961182
1783153449430757600,1.030757568359375,-3.0744104385375977,0.3381061553955078,1.9086800813674927
1783153449440469800,1.0404697265625,-2.480682373046875,-0.302903413772583,1.7938270568847656
1783153449450182000,1.050181884765625,-1.2765731811523438,-1.0123779773712158,1.5514287948608398
1783153449459894000,1.05989404296875,0.37525081634521484,-1.6574418544769287,1.5403485298156738
1783153449469606100,1.069606201171875,1.8697223663330078,-2.0648608207702637,1.8304078578948975
1783153449479318300,1.079318359375,2.655219078063965,-2.208773136138916,2.138439655303955
1783153449489030400,1.089030517578125,2.733382225036621,-2.173259973526001,2.4262149333953857
1783153449498742500,1.098742431640625,2.3108911514282227,-1.9325114488601685,2.4160101413726807
1783153449508454700,1.10845458984375,1.590651512145996,-1.5816457271575928,1.9633065462112427
1783153449518166800,1.118166748046875,0.7869415283203125,-1.310523509979248,1.2273736000061035
1783153449527879000,1.12787890625,0.4044504165649414,-1.0616273880004883,0.39922192692756653
1783153449537591000,1.137591064453125,0.34386444091796875,-0.7841596603393555,-0.37877556681632996
1783153449547303200,1.14730322265625,0.699376106262207,-0.38932323455810547,-0.912081778049469
1783153449557015300,1.157015380859375,1.725876808166504,0.14865732192993164,-1.0281212329864502
1783153449566727400,1.1667275390625,3.2101030349731445,0.6528580188751221,-0.9058876633644104
1783153449576439600,1.176439453125,4.711124420166016,0.9892487525939941,-0.5883548855781555
1783153449586151700,1.186151611328125,5.634424209594727,1.2618310451507568,-0.30051833391189575
1783153449595863800,1.19586376953125,5.7280168533325195,1.6951043605804443,-0.2630068361759186
1783153449605576200,1.205576171875,5.195856094360352,2.2320432662963867,-0.3832632005214691
1783153449615288300,1.215288330078125,4.492361068725586,2.8180465698242188,-0.41993221640586853
1783153449625000400,1.22500048828125,3.520266532897949,3.3487110137939453,-0.47714078426361084
1783153449634712600,1.234712646484375,2.358247756958008,3.799527883529663,-0.7919249534606934
1783153449644424700,1.2444248046875,1.4103097915649414,4.12447452545166,-1.0060359239578247
1783153449654136800,1.25413671875,0.9393234252929688,4.37397575378418,-1.0501813888549805
1783153449663849000,1.263848876953125,0.9542522430419922,4.347190856933594,-0.770675539970398
1783153449673561000,1.27356103515625,1.2081575393676758,3.9787774085998535,-0.2670324146747589
1783153449683273200,1.283273193359375,1.309326171875,3.5453977584838867,0.08636355400085449
1783153449692985300,1.2929853515625,1.2887535095214844,2.9039433002471924,0.32320934534072876
1783153449702697500,1.302697509765625,1.319249153137207,2.3754780292510986,0.3922966718673706
1783153449712409600,1.31240966796875,0.44574642181396484,1.7121362686157227,0.29858100414276123
1783153449722121700,1.322121826171875,-1.283461570739746,1.1656074523925781,0.12823331356048584
1783153449731833900,1.331833740234375,-3.0968871116638184,0.9669041633605957,0.25202736258506775
1783153449741546000,1.3415458984375,-4.734188079833984,0.8868875503540039,0.5242927074432373
1783153449751258000,1.351258056640625,-6.005363941192627,0.7727770805358887,0.7055381536483765
1783153449760970200,1.36097021484375,-6.647574424743652,0.4162318706512451,0.8821010589599609
1783153449770682400,1.370682373046875,-6.398597240447998,-0.16000628471374512,0.8447192311286926
1783153449780394500,1.38039453125,-5.547940254211426,-0.8677525520324707,0.7327244281768799
1783153449790106600,1.390106689453125,-4.422927379608154,-1.634364128112793,0.5642586946487427
1783153449799818800,1.39981884765625,-3.6566262245178223,-2.4474048614501953,0.32362645864486694
1783153449809531000,1.40953076171875,-3.559873580932617,-3.029123306274414,0.13808152079582214
1783153449819243000,1.419242919921875,-3.8169703483581543,-3.293001651763916,0.06792596727609634
1783153449828955100,1.428955078125,-4.397212505340576,-3.426649332046509,0.049024417996406555
1783153449838667300,1.438667236328125,-5.243403434753418,-3.3648738861083984,0.012041449546813965
1783153449848379400,1.44837939453125,-6.186742782592773,-3.2443552017211914,-0.1040295660495758
1783153449858091500,1.458091552734375,-7.056695938110352,-3.083183765411377,-0.11428138613700867
1783153449867803600,1.4678037109375,-7.375589847564697,-2.90020489692688,0.04784858226776123
1783153449877515800,1.477515869140625,-7.278487682342529,-2.9760758876800537,0.05892181396484375
1783153449887228000,1.487227783203125,-6.045909881591797,-2.5388524532318115,0.05892735719680786
1783153449896940000,1.49693994140625,-4.985342025756836,-2.0142457485198975,-0.6896299719810486
1783153449906652200,1.506652099609375,-4.5710649490356445,-0.7077178955078125,-1.5468299388885498
1783153449916364300,1.5163642578125,-4.174581527709961,0.8872299194335938,-2.6778533458709717
1783153449926076400,1.526076416015625,-3.7731080055236816,2.4043450355529785,-3.654820680618286
1783153449935788800,1.535788818359375,-3.0001025199890137,3.547212600708008,-3.061176061630249
1783153449945501000,1.5455009765625,1.3136377334594727,4.338252067565918,-1.224771499633789
1783153449955213000,1.555213134765625,8.895417213439941,4.769773006439209,0.5321250557899475
1783153449964925200,1.56492529296875,16.147216796875,4.320674419403076,1.8282150030136108
1783153449974637300,1.57463720703125,20.486125946044922,2.8946142196655273,2.1677565574645996
1783153449984349400,1.584349365234375,20.10337257385254,1.3352398872375488,0.7710771560668945
1783153449994061600,1.5940615234375,15.604677200317383,1.3622007369995117,-1.666449785232544
1783153450003773700,1.603773681640625,10.734729766845703,2.4056529998779297,-3.0980148315429688
1783153450013485800,1.61348583984375,7.723555564880371,3.6099929809570312,-3.569854259490967
1783153450023198000,1.623197998046875,6.238685607910156,4.153041362762451,-3.3527982234954834
1783153450032910000,1.63291015625,5.7857160568237305,4.090157985687256,-2.792534351348877
1783153450042622200,1.642622314453125,5.750943183898926,3.5372910499572754,-2.3978824615478516
1783153450052334300,1.652334228515625,5.391399383544922,2.4972801208496094,-2.5307252407073975
1783153450062046500,1.66204638671875,4.402684211730957,1.3296504020690918,-2.7584617137908936
1783153450071758600,1.671758544921875,2.963205337524414,0.24030637741088867,-2.8347108364105225
1783153450081470700,1.681470703125,1.0694398880004883,-0.4105057716369629,-2.3994908332824707
1783153450091182800,1.691182861328125,1.22442626953125,-0.3709864616394043,-3.305738925933838
1783153450100895000,1.70089501953125,0.7966909408569336,-0.8243043422698975,-2.3581600189208984
1783153450110607000,1.710607177734375,-0.05115318298339844,-0.8088467121124268,-1.6211612224578857
1783153450120319200,1.7203193359375,-0.8170347213745117,-0.8410153388977051,-0.418891966342926
1783153450130031400,1.73003125,-1.802046775817871,-1.1986918449401855,0.5208115577697754
1783153450139743500,1.739743408203125,-2.714776039123535,-1.9381039142608643,0.6584446430206299
1783153450149455600,1.74945556640625,-3.8162364959716797,-2.805626392364502,0.8931586742401123
1783153450159167700,1.759167724609375,-5.293187141418457,-3.4850077629089355,1.7837203741073608
1783153450168879900,1.7688798828125,-6.4242777824401855,-2.9674811363220215,0.49910208582878113
1783153450178592000,1.778592041015625,-7.364706993103027,-3.284698486328125,1.1499533653259277
1783153450188304100,1.78830419921875,-8.46025562286377,-3.3179919719696045,2.369140386581421
1783153450198016300,1.798016357421875,-9.144088745117188,-2.9872798919677734,2.8206393718719482
1783153450207728400,1.807728271484375,-10.084901809692383,-3.0516159534454346,3.4033875465393066
1783153450217440500,1.8174404296875,-11.288690567016602,-3.030092477798462,3.8105998039245605
1783153450227152600,1.827152587890625,-12.237610816955566,-3.0580413341522217,4.051329135894775
1783153450236864800,1.83686474609375,-12.982525825500488,-3.2516398429870605,3.8722081184387207
1783153450246577000,1.846576904296875,-13.116414070129395,-3.515565872192383,3.5697755813598633
1783153450256289000,1.8562890625,-12.725695610046387,-3.69883394241333,2.9439845085144043
1783153450266001200,1.866001220703125,-12.18107795715332,-3.933338165283203,2.5908701419830322
1783153450275713500,1.875713623046875,-10.96402645111084,-4.13826847076416,1.8627575635910034
1783153450285425700,1.88542578125,-9.520791053771973,-4.5106587409973145,1.4244980812072754
1783153450295137800,1.8951376953125,-7.644581317901611,-4.51303768157959,1.194645643234253
1783153450304850000,1.904849853515625,-5.65009880065918,-4.425580024719238,1.1464027166366577
1783153450314562000,1.91456201171875,-4.29460334777832,-3.7453761100769043,0.5422354936599731
1783153450324274200,1.924274169921875,-4.384154796600342,-1.9202948808670044,-0.17506492137908936
1783153450333986300,1.933986328125,-5.873578071594238,-0.912785530090332,-1.017745018005371
1783153450343698400,1.943698486328125,-7.6123785972595215,-0.7443957328796387,-2.139468193054199
1783153450353410600,1.95341064453125,-7.335544586181641,-0.020227909088134766,-1.9016340970993042
1783153450363122700,1.963122802734375,-2.659820079803467,0.6607215404510498,-0.4128302335739136
1783153450372834800,1.972834716796875,4.096963882446289,1.0902924537658691,1.333327293395996
1783153450382547000,1.982546875,10.116512298583984,1.1529757976531982,2.784391403198242
1783153450392259000,1.992259033203125,14.310860633850098,0.46688008308410645,3.4357352256774902
1783153450401971200,2.00197119140625,16.03373908996582,-0.11692726612091064,3.158388137817383
1783153450411683300,2.011683349609375,15.774678230285645,-0.05222368240356445,2.3130385875701904
1783153450431107600,2.031107666015625,14.905389785766602,1.1582969427108765,1.434308409690857
1783153450440819700,2.04081982421875,15.455632209777832,1.2267011404037476,0.701388955116272
1783153450450531800,2.05053173828125,16.6361083984375,1.4544397592544556,-0.19406509399414062
1783153450460244000,2.060243896484375,17.808422088623047,1.198082447052002,-0.4050990045070648
1783153450469956000,2.0699560546875,19.22601318359375,0.8675986528396606,-0.5598474740982056
1783153450479668200,2.079668212890625,19.16317367553711,-0.045043230056762695,-0.9109181761741638
1783153450489380400,2.08938037109375,17.757476806640625,-0.1980602741241455,-0.817768394947052
1783153450499092500,2.099092529296875,14.781867027282715,-0.328590989112854,0.25363099575042725
1783153450508804600,2.1088046875,12.043365478515625,0.10944890975952148,2.0825042724609375
1783153450518516700,2.118516845703125,8.81087875366211,-0.14905714988708496,2.3740291595458984
1783153450528228900,2.128228759765625,8.8104248046875,-0.170312762260437,2.202443838119507
1783153450537941000,2.13794091796875,4.898327827453613,1.4970910549163818,1.630436897277832
1783153450547653000,2.147653076171875,4.522809028625488,3.5914206504821777,0.6892805099487305
1783153450557365200,2.157365234375,1.0750751495361328,2.8295626640319824,-0.500248908996582
1783153450567077400,2.167077392578125,-0.014000892639160156,3.799664258956909,-1.8000900745391846
1783153450576789500,2.17678955078125,-2.023378372192383,4.431382656097412,-1.3930561542510986
1783153450586501600,2.186501708984375,-4.299763202667236,4.075884819030762,-0.7342140674591064
1783153450596213800,2.1962138671875,-6.988250255584717,4.430753707885742,-0.5020170211791992
1783153450605926000,2.20592578125,-10.001725196838379,4.811837196350098,0.6815786361694336
1783153450615638000,2.215637939453125,-13.006098747253418,4.318846702575684,1.982236623764038
1783153450625350100,2.22535009765625,-14.798921585083008,3.2607364654541016,2.7293477058410645
1783153450635062300,2.235062255859375,-14.892372131347656,2.022254228591919,2.823234796524048
1783153450644774400,2.2447744140625,-13.893131256103516,0.8962879180908203,2.035273313522339
1783153450654486500,2.254486572265625,-12.835161209106445,-0.26386284828186035,0.5149216651916504
1783153450664198700,2.26419873046875,-12.407081604003906,-1.6338120698928833,-0.8890727758407593
1783153450673911000,2.2739111328125,-12.27871322631836,-2.8955838680267334,-2.2383217811584473
1783153450683623200,2.283623046875,-12.365943908691406,-3.5959746837615967,-3.5146985054016113
1783153450693335300,2.293335205078125,-12.603528022766113,-4.055177211761475,-4.1847124099731445
1783153450703047400,2.30304736328125,-12.116689682006836,-4.241083145141602,-4.466604232788086
1783153450712759600,2.312759521484375,-11.950273513793945,-4.188192367553711,-3.953526496887207
1783153450722471700,2.3224716796875,-10.762584686279297,-4.400519847869873,-3.5306694507598877
1783153450732183800,2.332183837890625,-9.253357887268066,-4.3371453285217285,-3.120682716369629
1783153450741896000,2.34189599609375,-9.215104103088379,-4.344477653503418,-3.0549352169036865
1783153450751608000,2.351608154296875,-6.775412082672119,-3.8265674114227295,-1.3941229581832886
1783153450761320200,2.3613203125,-5.286233901977539,-3.301400661468506,-0.5911884307861328
1783153450771032300,2.3710322265625,-3.4098563194274902,-2.5738656520843506,-0.14014291763305664
1783153450780744400,2.380744384765625,-0.9869065284729004,-1.7531272172927856,-0.23420774936676025
1783153450790456600,2.39045654296875,2.2799072265625,-0.8156242370605469,-1.3406836986541748
1783153450800168700,2.400168701171875,5.40695858001709,0.35566186904907227,-3.08416748046875
1783153450809880800,2.409880859375,7.4744110107421875,0.819058895111084,-3.435170888900757
1783153450819593000,2.419593017578125,10.142573356628418,0.4931800365447998,-1.3145484924316406
1783153450829305000,2.42930517578125,15.958881378173828,0.8187191486358643,2.692784309387207
1783153450839017200,2.439017333984375,24.37890625,0.3943519592285156,6.693848133087158
1783153450848729300,2.448729248046875,30.184417724609375,-0.9660251140594482,8.652666091918945
1783153450858441500,2.45844140625,30.87381362915039,-1.5594427585601807,7.987489700317383
1783153450868153600,2.468153564453125,26.39310073852539,-0.7720420360565186,5.910252571105957
1783153450877865700,2.47786572265625,19.788949966430664,0.18343114852905273,4.0843706130981445
1783153450887577900,2.487577880859375,15.067864418029785,1.3412995338439941,2.556906223297119
1783153450897290000,2.4972900390625,12.023653030395508,1.513493537902832,1.6984972953796387
1783153450907002000,2.507002197265625,10.347798347473145,1.2194623947143555,1.0398526191711426
1783153450916714200,2.51671435546875,9.023451805114746,0.8456325531005859,0.9189660549163818
1783153450926426400,2.52642626953125,7.9518280029296875,0.36208343505859375,0.8650705814361572
1783153450936138500,2.536138427734375,6.638456344604492,-0.1224064826965332,0.8062131404876709
1783153450945850600,2.5458505859375,4.974252700805664,-0.5451316833496094,0.6178848743438721
1783153450955562800,2.555562744140625,2.526434898376465,-0.7050776481628418,0.669849157333374
1783153450965275000,2.56527490234375,-0.6925926208496094,-0.4660987854003906,0.4086024761199951
1783153450974987000,2.574987060546875,-4.600948333740234,-1.312140941619873,0.3537013530731201
1783153450984699100,2.58469921875,-6.944528579711914,-2.740152359008789,-0.971369743347168
1783153450994411300,2.594411376953125,-7.569283962249756,-4.471811294555664,-2.5834646224975586
1783153451004123400,2.604123291015625,-8.34156322479248,-5.88515567779541,-3.668400287628174
1783153451013835500,2.61383544921875,-10.25108814239502,-6.146706581115723,-3.9193315505981445
1783153451023547600,2.623547607421875,-12.464850425720215,-6.110204219818115,-4.146804332733154
1783153451033259800,2.633259765625,-14.314560890197754,-6.113075256347656,-3.3786747455596924
1783153451042972000,2.642971923828125,-15.633578300476074,-5.491221904754639,-3.719048261642456
1783153451052684000,2.65268408203125,-16.64145278930664,-5.686272144317627,-4.660048961639404
1783153451062396200,2.662396240234375,-17.302364349365234,-6.185483455657959,-5.461651802062988
1783153451072108300,2.6721083984375,-17.3103084564209,-6.228212356567383,-5.926355361938477
1783153451081820700,2.681820556640625,-16.859148025512695,-6.173101902008057,-6.389244556427002
1783153451091532800,2.69153271484375,-15.699600219726562,-6.4210944175720215,-6.505527496337891
1783153451101245000,2.701244873046875,-15.05075454711914,-6.476314067840576,-6.897095680236816
1783153451110957000,2.71095703125,-14.205589294433594,-6.5118231773376465,-6.127122402191162
1783153451120669200,2.720669189453125,-12.998714447021484,-6.1521687507629395,-5.2605204582214355
1783153451130381300,2.73038134765625,-11.11849594116211,-5.613659381866455,-4.337337970733643
1783153451140093200,2.74009326171875,-9.007980346679688,-4.977401256561279,-3.3136346340179443
1783153451149805600,2.7498056640625,-7.2481865882873535,-4.387064456939697,-1.6732115745544434
1783153451159517700,2.759517578125,-5.872875213623047,-3.454035520553589,0.404954195022583
1783153451169229800,2.769229736328125,-4.644964218139648,-2.211629629135132,2.7277190685272217
1783153451178942000,2.77894189453125,-3.3917293548583984,-1.285836935043335,4.847576141357422
1783153451188654000,2.788654052734375,-1.4089703559875488,-0.5034670829772949,6.001286029815674
1783153451198366200,2.7983662109375,0.8190393447875977,-0.3897085189819336,5.631998538970947
1783153451208078300,2.808078369140625,2.8253021240234375,-0.8254475593566895,4.006710529327393
1783153451217790500,2.81779052734375,5.543471813201904,-0.8937389850616455,2.252180576324463
1783153451227502600,2.827502685546875,8.496170997619629,-0.7233130931854248,0.8507125377655029
1783153451237214700,2.837214599609375,11.170100212097168,-0.3163416385650635,0.12467050552368164
1783153451246926800,2.8469267578125,13.080925941467285,0.3975982666015625,0.038164377212524414
1783153451256639000,2.856638916015625,13.990114212036133,0.7374222278594971,0.9324057102203369
1783153451266351000,2.86635107421875,15.014344215393066,0.8401064872741699,1.6334333419799805
1783153451276063200,2.876063232421875,15.871030807495117,0.6893255710601807,2.8523366451263428
1783153451285775400,2.885775390625,16.99315643310547,0.6630611419677734,4.086248397827148
1783153451295487500,2.895487548828125,18.079917907714844,0.8835010528564453,5.525505065917969
1783153451305199600,2.90519970703125,17.684133529663086,1.090139627456665,6.859162330627441
1783153451314911700,2.914911865234375,15.227115631103516,1.2294509410858154,6.937978744506836
1783153451324624000,2.924623779296875,14.470763206481934,0.662447452545166,1.6974499225616455
1783153451334336000,2.9343359375,9.376474380493164,-1.3493257761001587,5.799500465393066
1783153451344048000,2.944048095703125,8.091538429260254,1.5362331867218018,3.5978548526763916
1783153451353760300,2.95376025390625,7.4701433181762695,0.2817878723144531,0.9915790557861328
1783153451363472400,2.963472412109375,6.967403411865234,-0.914314866065979,-2.070239782333374
1783153451373184500,2.9731845703125,5.7322492599487305,-1.61208176612854,0.8844003677368164
1783153451382896600,2.982896728515625,4.0218048095703125,-1.3209784030914307,0.4215700626373291
1783153451392608800,2.99260888671875,3.9673328399658203,-1.2589211463928223,0.550132155418396
1783153451402321000,3.00232080078125,1.0656957626342773,-1.5695700645446777,-1.6380062103271484
1783153451412033000,3.012032958984375,-0.7001190185546875,-1.4270268678665161,-2.084567070007324
1783153451421745200,3.0217451171875,-1.9991021156311035,-1.5226614475250244,-2.3714537620544434
1783153451431457300,3.031457275390625,-3.6423892974853516,-1.8222901821136475,-1.7181904315948486
1783153451441169400,3.04116943359375,-5.983358383178711,-1.5416405200958252,-2.104424476623535
1783153451450881500,3.050881591796875,-7.813509464263916,-1.6006832122802734,-2.0308494567871094
1783153451460593700,3.06059375,-8.512818336486816,-1.2506426572799683,-0.9670444130897522
1783153451470305800,3.070305908203125,-8.496806144714355,-1.2333489656448364,-0.9154424071311951
1783153451480018000,3.080017822265625,-7.100165843963623,0.09645652770996094,1.7579299211502075
1783153451489730000,3.08972998046875,-6.135879993438721,0.33389854431152344,2.0890591144561768
1783153451499442200,3.099442138671875,-5.5384840965271,0.4111051559448242,1.6984889507293701
1783153451509154300,3.109154296875,-5.593062400817871,0.05717825889587402,1.1991257667541504
1783153451518866400,3.118866455078125,-6.011991500854492,-0.35221195220947266,0.6071511507034302
1783153451528578600,3.12857861328125,-6.623522758483887,-0.678147554397583,0.15930035710334778
1783153451538290700,3.138290771484375,-7.441616058349609,-0.8983004093170166,-0.04189334809780121
1783153451548002800,3.1480029296875,-7.953866481781006,-0.9354817867279053,0.22723761200904846
1783153451557715000,3.15771484375,-7.54035758972168,-0.3096318244934082,0.5693950653076172
1783153451567427000,3.167427001953125,-6.369648456573486,0.44382190704345703,1.2013925313949585
1783153451577139200,3.17713916015625,-5.300132751464844,0.6445348262786865,1.5944474935531616
1783153451586851300,3.186851318359375,-4.577548503875732,0.5087182521820068,1.5601129531860352
1783153451596563500,3.1965634765625,-4.239282131195068,0.3407552242279053,1.21697998046875
1783153451606275600,3.206275634765625,-3.6640186309814453,0.07186317443847656,0.6446872353553772
1783153451615988000,3.215988037109375,-3.0020503997802734,-0.2668576240539551,-0.2712787389755249
1783153451625700000,3.2257001953125,-1.8879508972167969,-0.5940589904785156,-1.0663024187088013
1783153451635412200,3.235412109375,-0.27346229553222656,-0.49857401847839355,-1.3015305995941162
1783153451645124400,3.245124267578125,1.8820972442626953,-0.4954087734222412,-1.7750695943832397
1783153451654836500,3.25483642578125,3.4150028228759766,-0.7649044990539551,-1.851052165031433
1783153451664548600,3.264548583984375,4.049074172973633,-0.45769500732421875,-1.5147058963775635
1783153451674260700,3.2742607421875,4.301009178161621,0.9200072288513184,-1.1067063808441162
1783153451683972900,3.283972900390625,4.626141548156738,2.751309871673584,-0.3428706228733063
1783153451693685000,3.29368505859375,5.62507438659668,4.290796279907227,0.3559030592441559
1783153451703397000,3.303397216796875,8.303351402282715,4.716190338134766,1.1903401613235474
1783153451713109200,3.313109130859375,12.174056053161621,4.0036396980285645,2.368509531021118
1783153451722821400,3.3228212890625,15.354636192321777,2.9956140518188477,3.58097243309021
1783153451732533500,3.332533447265625,17.929841995239258,2.1106882095336914,3.681788921356201
1783153451742245600,3.34224560546875,17.695491790771484,0.8571085929870605,3.648404598236084
1783153451751957800,3.351957763671875,15.304563522338867,0.2147054672241211,2.8560826778411865
1783153451761670000,3.361669921875,12.195241928100586,0.3771705627441406,0.9302620887756348
1783153451771382000,3.371382080078125,8.907822608947754,0.4534015655517578,0.4638369381427765
1783153451781094100,3.38109423828125,6.05206298828125,1.0172119140625,0.06406977772712708
1783153451790806300,3.39080615234375,3.2957582473754883,1.525029182434082,0.09545642137527466
1783153451800518400,3.400518310546875,0.6896800994873047,1.8794441223144531,0.27800869941711426
1783153451810230500,3.41023046875,-1.5943903923034668,1.9611139297485352,0.9287588596343994
1783153451819942700,3.419942626953125,-3.3661575317382812,2.070709228515625,2.2030978202819824
1783153451829654800,3.42965478515625,-4.381851673126221,2.107470989227295,3.647029399871826
1783153451839367000,3.439366943359375,-4.62217378616333,1.7783441543579102,4.531810760498047
1783153451849079000,3.4490791015625,-4.349668502807617,1.101163625717163,4.701563835144043
1783153451858791200,3.458791259765625,-4.199934005737305,0.27457308769226074,4.196193218231201
1783153451868503300,3.46850341796875,-4.25266695022583,-0.605729341506958,2.992805004119873
1783153451878215400,3.47821533203125,-4.484642505645752,-1.4242806434631348,1.553236722946167
1783153451887927600,3.487927490234375,-4.8557515144348145,-2.1355233192443848,0.17768597602844238
1783153451897639700,3.4976396484375,-5.2940521240234375,-2.469029426574707,-0.6850995421409607
1783153451907351800,3.507351806640625,-5.805377960205078,-2.4516711235046387,-1.0648995637893677
1783153451917064000,3.51706396484375,-6.718996047973633,-2.2867650985717773,-0.9042232036590576
1783153451926776000,3.526776123046875,-8.038626670837402,-2.1075804233551025,-0.37276822328567505
1783153451936488200,3.53648828125,-9.13443374633789,-1.8776917457580566,0.41803407669067383
1783153451946200300,3.546200439453125,-9.710741996765137,-1.6375418901443481,1.3239719867706299
1783153451955912400,3.555912353515625,-9.455804824829102,-1.4836242198944092,1.7730231285095215
1783153451965624600,3.56562451171875,-8.985177040100098,-1.3626201152801514,1.8667335510253906
1783153451975336700,3.575336669921875,-8.683491706848145,-1.37766432762146,1.816508412361145
1783153451985048800,3.585048828125,-8.261419296264648,-1.4812800884246826,1.640130877494812
1783153451994761000,3.594760986328125,-7.852077484130859,-1.686481237411499,1.164759874343872
1783153452004473000,3.60447314453125,-6.929599761962891,-1.902573823928833,0.6915831565856934
1783153452014185200,3.614185302734375,-5.62060546875,-2.173567295074463,0.37096238136291504
1783153452023897300,3.6238974609375,-4.622223854064941,-2.3750686645507812,0.06164637207984924
1783153452033609500,3.633609375,-3.9958343505859375,-2.5211639404296875,-0.01832255721092224
1783153452043321600,3.643321533203125,-3.4660911560058594,-2.5105199813842773,-0.12010271847248077
1783153452053033700,3.65303369140625,-3.1028876304626465,-2.405296564102173,-0.2853260338306427
1783153452062745900,3.662745849609375,-2.585897445678711,-2.297990322113037,-0.6066911220550537
1783153452072458000,3.6724580078125,-1.693333625793457,-2.3385562896728516,-1.3065030574798584
1783153452082170000,3.682170166015625,-0.7266216278076172,-2.340348720550537,-2.280968427658081
1783153452091882200,3.69188232421875,0.2765226364135742,-2.3893797397613525,-3.0998213291168213
1783153452101594400,3.701594482421875,0.9591350555419922,-2.020857095718384,-2.735900640487671
1783153452111306500,3.711306396484375,1.2053956985473633,-0.4367098808288574,-3.6933319568634033
1783153452121018600,3.7210185546875,1.2832937240600586,-0.5656218528747559,-3.7828240394592285
1783153452130730800,3.730730712890625,2.7510814666748047,3.6381068229675293,-3.977297306060791
1783153452140443000,3.74044287109375,4.619419097900391,5.557352542877197,-4.670071125030518
1783153452150155000,3.750155029296875,7.7579193115234375,6.8719162940979,-4.454161643981934
1783153452159867100,3.7598671875,12.272159576416016,7.453209400177002,-3.837038040161133
1783153452169579300,3.769579345703125,16.033241271972656,7.428880214691162,-2.9333388805389404
1783153452179291400,3.77929150390625,18.95661163330078,6.797120571136475,-1.9759788513183594
1783153452189003500,3.78900341796875,20.64276695251465,6.106710433959961,-1.1193652153015137
1783153452198715600,3.798715576171875,20.21517562866211,5.738250732421875,-0.5766748785972595
1783153452208427800,3.808427734375,17.494930267333984,5.728851318359375,-0.4181077480316162
1783153452218140000,3.818139892578125,13.246280670166016,5.768219947814941,-0.4516392946243286
1783153452227852000,3.82785205078125,8.976743698120117,5.755908489227295,-0.806820273399353
1783153452237564200,3.837564208984375,4.973301887512207,5.710533618927002,-0.9068340063095093
1783153452247276300,3.8472763671875,1.7398128509521484,5.419593334197998,-0.47575628757476807
1783153452256988400,3.856988525390625,-0.8523087501525879,4.761782646179199,0.17101585865020752
1783153452266700500,3.866700439453125,-3.0105032920837402,3.7637710571289062,1.1578865051269531
1783153452276412700,3.87641259765625,-4.370176315307617,2.671454906463623,2.5328145027160645
1783153452286124800,3.886124755859375,-5.034433841705322,1.7353835105895996,4.155247688293457
1783153452295837200,3.895837158203125,-5.302735328674316,1.007237434387207,5.254702091217041
1783153452305549000,3.905549072265625,-4.897957801818848,-0.4774594306945801,5.329209804534912
1783153452315261400,3.915261474609375,-4.388286113739014,-2.735740900039673,3.8623342514038086
1783153452324973300,3.924973388671875,-4.228176593780518,-4.789632797241211,1.0500812530517578
1783153452334685400,3.934685546875,-4.507811546325684,-6.07973051071167,-0.9725539684295654
1783153452344397600,3.9443974609375,-5.4543867111206055,-6.749080657958984,-2.186391830444336
1783153452354109700,3.954109619140625,-6.772218704223633,-6.774832725524902,-2.372673511505127
1783153452363822000,3.963822021484375,-7.924643039703369,-6.386075973510742,-1.9775168895721436
1783153452373534200,3.9735341796875,-7.8680739402771,-6.424802780151367,-2.028264045715332
1783153452383246300,3.983246337890625,-10.791462898254395,-5.445507049560547,-0.553816556930542
1783153452392958500,3.99295849609375,-11.591337203979492,-4.723222732543945,0.13420867919921875
1783153452402670600,4.002670654296875,-11.390270233154297,-4.194998264312744,0.35366785526275635
1783153452412382700,4.0123828125,-10.683271408081055,-3.9343674182891846,0.2587466239929199
1783153452422094800,4.0220947265625,-9.782005310058594,-3.75826096534729,0.4008364677429199
1783153452431807000,4.031806884765625,-9.260130882263184,-3.5030829906463623,0.8133413791656494
1783153452441519000,4.04151904296875,-9.18011474609375,-3.2346653938293457,1.2117537260055542
1783153452451231200,4.051231201171875,-8.671989440917969,-2.861392021179199,1.6600452661514282
1783153452460943400,4.060943359375,-7.531474590301514,-2.462512493133545,2.190253496170044
1783153452470655500,4.070655517578125,-6.189520835876465,-2.2196733951568604,2.3316187858581543
1783153452480367600,4.08036767578125,-4.493897438049316,-2.3132741451263428,1.9290781021118164
1783153452490079700,4.090079833984375,-2.640117645263672,-2.453035831451416,1.136439561843872
1783153452499792000,4.0997919921875,-1.299717903137207,-2.593752861022949,0.20875072479248047
1783153452509504000,4.10950390625,-0.5984573364257812,-2.589959144592285,-0.637891411781311
1783153452519216000,4.119216064453125,-0.3351612091064453,-2.211721658706665,-1.443458080291748
1783153452528928300,4.12892822265625,0.2786293029785156,-1.444005012512207,-2.5442309379577637
1783153452538640400,4.138640380859375,0.8906269073486328,-0.11928033828735352,-2.7636895179748535
1783153452548352500,4.1483525390625,3.688722610473633,1.6532936096191406,-2.2905688285827637
1783153452558064600,4.158064697265625,7.020103454589844,3.5263876914978027,-1.0569950342178345
1783153452567776800,4.16777685546875,10.663738250732422,5.24867582321167,0.6204236745834351
1783153452577489000,4.177489013671875,14.46786117553711,6.540802001953125,2.4886202812194824
1783153452587201000,4.187200927734375,18.563396453857422,7.143672466278076,4.167001247406006
1783153452596913200,4.1969130859375,22.48946189880371,7.195804119110107,5.278563499450684
1783153452606625300,4.206625244140625,23.30990219116211,7.130068778991699,5.398700714111328
1783153452616337400,4.21633740234375,21.23666763305664,7.284782409667969,4.566429615020752
1783153452626049500,4.226049560546875,16.889183044433594,7.753287315368652,3.475450038909912
1783153452635761700,4.23576171875,11.229704856872559,8.276689529418945,2.048732280731201
1783153452645473800,4.245473876953125,6.068753242492676,9.58447265625,1.7136921882629395
1783153452655186000,4.25518603515625,2.5203328132629395,9.756328582763672,1.9976918697357178
1783153452664898000,4.26489794921875,1.2734966278076172,9.016050338745117,2.1253342628479004
1783153452674610200,4.274610107421875,1.2262558937072754,8.048608779907227,2.2236738204956055
1783153452684322300,4.284322265625,1.445974349975586,6.628591537475586,2.3176538944244385
1783153452694034400,4.294034423828125,1.2218408584594727,4.843993186950684,2.5432028770446777
1783153452703746600,4.30374658203125,0.13700199127197266,3.2307004928588867,2.923795461654663
1783153452713458700,4.313458740234375,-2.1276659965515137,1.0317068099975586,2.4517688751220703
1783153452723170800,4.3231708984375,-4.625185012817383,-0.02234935760498047,2.5759830474853516
1783153452732883000,4.332883056640625,-7.063076019287109,-1.7719106674194336,2.376227855682373
1783153452742595000,4.342594970703125,-9.695563316345215,-3.801748514175415,1.3920165300369263
1783153452752307200,4.35230712890625,-11.666126251220703,-5.481543064117432,0.5019072890281677
1783153452762019300,4.362019287109375,-12.46514892578125,-6.755447864532471,-0.06317999958992004
1783153452771731500,4.3717314453125,-12.470182418823242,-7.8474345207214355,-0.4601123034954071
1783153452781443600,4.381443603515625,-11.790803909301758,-8.63461971282959,-0.8927553296089172
1783153452791155700,4.39115576171875,-10.494582176208496,-9.169881820678711,-1.2257006168365479
1783153452800867800,4.400867919921875,-9.601417541503906,-9.377408981323242,-1.1218125820159912
1783153452810580000,4.410580078125,-8.841779708862305,-9.59964370727539,-0.723197877407074
1783153452820292000,4.4202919921875,-8.082318305969238,-9.280243873596191,0.018635645508766174
1783153452830004200,4.430004150390625,-7.716170310974121,-8.58106803894043,0.4760495126247406
1783153452839716400,4.43971630859375,-7.652791976928711,-8.214129447937012,0.22929656505584717
1783153452849428500,4.449428466796875,-7.817615509033203,-8.013738632202148,-0.2565340995788574
1783153452859140600,4.459140625,-8.157052040100098,-7.4621901512146,-0.719189465045929
1783153452868852700,4.468852783203125,-8.284172058105469,-6.883795738220215,-0.727346658706665
1783153452878564900,4.47856494140625,-7.821529865264893,-6.370988845825195,-0.5633101463317871
1783153452888277000,4.488277099609375,-6.5457563400268555,-5.919079303741455,-0.7157308459281921
1783153452897989000,4.497989013671875,-4.702215671539307,-5.696583271026611,-0.7727706432342529
1783153452907701200,4.507701171875,-2.9187660217285156,-5.379895210266113,-0.8814651966094971
1783153452917413400,4.517413330078125,-2.080430507659912,-4.9361395835876465,-0.9758834838867188
1783153452927125500,4.52712548828125,-1.8214426040649414,-4.519481182098389,-1.3043735027313232
1783153452936837600,4.536837646484375,-1.875410556793213,-3.946967840194702,-1.4685266017913818
1783153452946549800,4.5465498046875,-1.6264386177062988,-3.418412208557129,-2.4257192611694336
1783153452956262000,4.556261962890625,-1.9402871131896973,-2.6788721084594727,-2.0140304565429688
1783153452965974000,4.56597412109375,-1.6307129859924316,-1.5446245670318604,-2.2001729011535645
1783153452975686100,4.57568603515625,-0.8957371711730957,-0.589561939239502,-2.16536283493042
1783153452985398300,4.585398193359375,0.24542760848999023,0.5145931243896484,-2.472675323486328
1783153452995110400,4.5951103515625,2.5220065116882324,1.4044561386108398,-3.108713388442993
1783153453004822500,4.604822509765625,6.4304609298706055,1.9200935363769531,-3.573209285736084
1783153453014534700,4.61453466796875,11.58324909210205,2.2667713165283203,-3.3416237831115723
1783153453024246800,4.624246826171875,16.870155334472656,2.687516689300537,-2.580336809158325
1783153453033959000,4.633958984375,16.846452713012695,2.6645541191101074,-2.760124444961548
1783153453043671000,4.643671142578125,22.88550567626953,3.592280864715576,1.2001914978027344
1783153453053383200,4.653383056640625,22.386798858642578,4.267595291137695,2.550119638442993
1783153453063095300,4.66309521484375,19.792030334472656,4.904381275177002,2.7936534881591797
1783153453072807400,4.672807373046875,16.078472137451172,5.245699405670166,2.4081673622131348
1783153453082519600,4.68251953125,11.845977783203125,5.554297924041748,2.016016721725464
1783153453092231700,4.692231689453125,7.544010639190674,5.870093822479248,1.6892476081848145
1783153453101943800,4.70194384765625,3.9179635047912598,6.104486465454102,1.4678716659545898
1783153453111656000,4.711656005859375,1.751246452331543,5.954410076141357,1.3093669414520264
1783153453121368000,4.7213681640625,0.632575511932373,5.470094680786133,1.6934539079666138
1783153453131080200,4.731080078125,-0.3274955749511719,4.971278190612793,2.564136505126953
1783153453140792300,4.740792236328125,-1.142533779144287,4.2519121170043945,3.049318790435791
1783153453150504400,4.75050439453125,-2.1391654014587402,3.162001132965088,3.1782617568969727
1783153453160216600,4.760216552734375,-3.225238800048828,2.387942314147949,3.605318069458008
1783153453169928700,4.7699287109375,-4.075897693634033,1.6507134437561035,3.3588523864746094
1783153453179640800,4.779640869140625,-4.747443199157715,0.7048935890197754,2.9871878623962402
1783153453189353000,4.78935302734375,-5.189236164093018,-0.10189580917358398,2.2490506172180176
1783153453199065000,4.799065185546875,-5.774521350860596,-0.780735969543457,1.2808740139007568
1783153453208777200,4.808777099609375,-6.606643199920654,-1.4812641143798828,0.11874771118164062
1783153453218489300,4.8184892578125,-7.453580856323242,-1.925807237625122,-0.9928659200668335
1783153453228201500,4.828201416015625,-8.038589477539062,-2.02055287361145,-1.7245378494262695
1783153453237913600,4.83791357421875,-7.886684417724609,-2.019620895385742,-1.8003036975860596
1783153453247626000,4.8476259765625,-7.90019416809082,-1.9560492038726807,-1.7603007555007935
1783153453257338000,4.857338134765625,-7.658243179321289,-2.2539825439453125,-0.9187943339347839
1783153453267050200,4.86705029296875,-8.785247802734375,-2.00537109375,-0.9303064346313477
1783153453276762400,4.876762451171875,-9.736262321472168,-2.1215853691101074,0.4037659168243408
1783153453286474200,4.88647412109375,-10.163345336914062,-1.9884381294250488,0.2348405122756958
1783153453296186400,4.896186279296875,-10.978116989135742,-2.1914174556732178,-0.3529270887374878
1783153453305898500,4.9058984375,-11.417173385620117,-2.6378870010375977,-1.0282073020935059
1783153453315611000,4.91561083984375,-10.519341468811035,-2.9429054260253906,-1.6681348085403442
1783153453325323000,4.925322998046875,-8.59996223449707,-3.056474447250366,-1.6313751935958862
1783153453335035100,4.93503515625,-6.723387241363525,-3.0148568153381348,-1.0434019565582275
1783153453344747300,4.944747314453125,-4.60215950012207,-2.5075159072875977,-0.1013256311416626
1783153453354459400,4.95445947265625,-3.041964530944824,-1.9830975532531738,0.9597891569137573
1783153453364171500,4.964171630859375,-2.128729820251465,-0.6336688995361328,2.2761027812957764
1783153453373883600,4.973883544921875,-0.2582378387451172,0.31758975982666016,2.8109993934631348
1783153453383595800,4.983595703125,1.7583589553833008,0.39733433723449707,1.9814987182617188
1783153453393308000,4.993307861328125,2.1524839401245117,0.46862173080444336,0.3574485778808594
1783153453403020000,5.00302001953125,2.4991912841796875,0.8277547359466553,-1.2399718761444092
1783153453412732200,5.012732177734375,2.8528099060058594,1.5841779708862305,-2.55389404296875
1783153453422444300,5.0224443359375,4.637533187866211,2.927959442138672,-2.670753002166748
1783153453432156400,5.032156494140625,7.788640022277832,4.089565277099609,-2.1482019424438477
1783153453441868500,5.04186865234375,11.330554008483887,4.6609673500061035,-0.9568966627120972
1783153453451580700,5.05158056640625,16.23414421081543,5.553747177124023,-0.23677638173103333
1783153453461292800,5.061292724609375,18.235445022583008,5.329784393310547,-0.5555192232131958
1783153453471005000,5.0710048828125,18.342872619628906,5.501583099365234,-1.3788334131240845
1783153453480717000,5.080717041015625,17.709760665893555,6.064435958862305,-1.7356321811676025
1783153453490429200,5.09042919921875,16.252092361450195,6.663893699645996,-1.6733505725860596
1783153453500141300,5.100141357421875,13.945744514465332,7.258614540100098,-1.5935813188552856
1783153453509853400,5.109853515625,10.881434440612793,7.825359344482422,-1.6780794858932495
1783153453519565600,5.119565673828125,7.6691083908081055,8.478343963623047,-1.1361005306243896
1783153453529277700,5.129277587890625,6.460477828979492,8.081031799316406,-0.609695553779602
1783153453538989800,5.13898974609375,7.253395080566406,7.207910537719727,0.34893637895584106
1783153453548702000,5.148701904296875,8.209912300109863,5.705046653747559,1.3160399198532104
1783153453558414000,5.1584140625,8.265535354614258,4.01483678817749,3.1750550270080566
1783153453568126200,5.168126220703125,7.451449394226074,3.5557079315185547,1.234339714050293
1783153453577838300,5.17783837890625,4.565954208374023,1.512883186340332,3.3021864891052246
1783153453587550500,5.187550537109375,1.3327579498291016,0.6315360069274902,3.0193042755126953
1783153453597262600,5.1972626953125,-2.457022190093994,-0.620635986328125,3.6722798347473145
1783153453606974700,5.206974609375,-5.771324634552002,-1.8715112209320068,3.5492687225341797
1783153453616686800,5.216686767578125,-8.792792320251465,-3.2448787689208984,3.5604207515716553
1783153453626399000,5.22639892578125,-10.696449279785156,-4.666382789611816,3.645695209503174
1783153453636111000,5.236111083984375,-11.949397087097168,-6.0292067527771,3.1314165592193604
1783153453645823200,5.2458232421875,-12.838325500488281,-7.373954772949219,2.466904640197754
1783153453655535400,5.255535400390625,-13.44563102722168,-8.703449249267578,1.5618971586227417
1783153453665247500,5.26524755859375,-13.364212036132812,-9.65818977355957,0.9605734348297119
1783153453674959600,5.274959716796875,-13.133514404296875,-10.296993255615234,0.45763519406318665
1783153453684671700,5.284671630859375,-13.66115665435791,-10.140417098999023,0.35517093539237976
1783153453694383900,5.2943837890625,-14.557443618774414,-9.616823196411133,0.45133763551712036
1783153453704096000,5.304095947265625,-15.654016494750977,-8.776122093200684,1.1494399309158325
1783153453713808100,5.31380810546875,-17.236186981201172,-7.770115852355957,2.1469361782073975
1783153453723520300,5.323520263671875,-18.714893341064453,-6.856008529663086,2.788379192352295
1783153453733232400,5.333232421875,-18.678600311279297,-6.221497058868408,3.2134928703308105
1783153453742944500,5.342944580078125,-17.010059356689453,-6.085594654083252,3.2739994525909424
1783153453752656600,5.35265673828125,-13.959003448486328,-6.1514739990234375,2.7817702293395996
1783153453762368800,5.36236865234375,-9.568538665771484,-6.51265811920166,1.5160032510757446
1783153453772081000,5.372080810546875,-5.229328632354736,-6.490396976470947,0.5091599822044373
1783153453781793000,5.38179296875,-2.4837536811828613,-6.185222625732422,-0.39490455389022827
1783153453791505200,5.391505126953125,-2.189276695251465,-5.345156669616699,-1.3348900079727173
1783153453801217300,5.40121728515625,-2.514190196990967,-4.083769798278809,-1.6970895528793335
1783153453810929400,5.410929443359375,-2.2052998542785645,-2.5610997676849365,-1.929577350616455
1783153453820641500,5.4206416015625,-1.6260614395141602,-0.9391498565673828,-2.2188937664031982
1783153453830353700,5.430353759765625,0.4028511047363281,0.24878358840942383,-2.807736396789551
1783153453840065800,5.440065673828125,4.113868713378906,1.3742647171020508,-2.826099157333374
1783153453849778000,5.44977783203125,9.673751831054688,2.5565783977508545,-2.1227364540100098
1783153453859490000,5.459489990234375,17.389488220214844,3.6669044494628906,-1.8349053859710693
1783153453869202200,5.4692021484375,24.375164031982422,4.372332572937012,-3.1692118644714355
1783153453878914300,5.478914306640625,28.607826232910156,4.901025772094727,-5.246937274932861
1783153453888626400,5.48862646484375,31.184932708740234,5.082914352416992,-7.501325607299805
1783153453898338600,5.498338623046875,31.11840057373047,5.034958839416504,-7.501657009124756
1783153453908050700,5.50805078125,35.72347640991211,6.431947708129883,-6.126905918121338
1783153453917762800,5.5177626953125,34.540916442871094,7.1716413497924805,-4.484065055847168
1783153453927475000,5.527474853515625,30.619564056396484,7.644989967346191,-3.6023430824279785
1783153453937187000,5.53718701171875,26.13797378540039,7.6008501052856445,-2.888951539993286
1783153453946899200,5.546899169921875,21.56110382080078,7.2449750900268555,-2.3369433879852295
1783153453956611300,5.556611328125,16.162673950195312,6.861877918243408,-1.0965650081634521
1783153453966323500,5.566323486328125,10.63846492767334,6.229362964630127,-0.09495487809181213
1783153453976035600,5.57603564453125,6.286595344543457,4.813060760498047,0.19044670462608337
1783153453985747700,5.585747802734375,2.837042808532715,2.9295706748962402,0.7292354106903076
1783153453995459800,5.5954599609375,-0.4538745880126953,1.1363906860351562,2.0463743209838867
1783153454005172000,5.605171875,-4.144100189208984,-0.7669267654418945,3.3988890647888184
1783153454014884000,5.614884033203125,-7.500407695770264,-2.609565258026123,3.637511730194092
1783153454024596200,5.62459619140625,-9.604423522949219,-4.812406539916992,2.970248222351074
1783153454034308400,5.634308349609375,-11.757265090942383,-6.284160137176514,3.4615607261657715
1783153454044020500,5.6440205078125,-14.171220779418945,-7.187716484069824,4.918759822845459
1783153454053732600,5.653732666015625,-15.811470031738281,-8.149368286132812,6.0824360847473145
1783153454063444700,5.66344482421875,-17.11640167236328,-8.769396781921387,6.835658550262451
1783153454073156900,5.673156982421875,-18.492624282836914,-9.093794822692871,7.267637729644775
1783153454082869000,5.682868896484375,-19.340118408203125,-9.620401382446289,6.853682041168213
1783153454092581000,5.6925810546875,-19.972291946411133,-9.779779434204102,5.925378322601318
1783153454102293200,5.702293212890625,-20.690654754638672,-9.91479206085205,4.845022678375244
1783153454112005400,5.71200537109375,-20.986364364624023,-9.704660415649414,4.051212310791016
1783153454121717500,5.721717529296875,-20.785274505615234,-9.569480895996094,3.377836227416992
1783153454131429600,5.7314296875,-19.678035736083984,-9.436634063720703,3.170771360397339
1783153454141141800,5.741141845703125,-17.474964141845703,-9.509681701660156,3.1578195095062256
1783153454150854000,5.75085400390625,-14.767640113830566,-9.28530502319336,3.3453526496887207
1783153454160566000,5.76056591796875,-12.3894624710083,-9.143146514892578,3.0598912239074707
1783153454170278100,5.770278076171875,-10.152443885803223,-8.981819152832031,2.560784339904785
1783153454179990300,5.779990234375,-7.855020999908447,-8.473583221435547,2.154726505279541
1783153454189702400,5.789702392578125,-5.413121223449707,-7.718845367431641,1.9335806369781494
1783153454199414500,5.79941455078125,-3.7581896781921387,-6.6438493728637695,1.7123446464538574
1783153454209126700,5.809126708984375,-2.349952220916748,-5.542294979095459,1.4116301536560059
1783153454218838800,5.8188388671875,-0.524256706237793,-4.449675559997559,0.9633297920227051
1783153454228551000,5.828551025390625,1.2830924987792969,-3.256354570388794,0.17388206720352173
1783153454238263000,5.838262939453125,2.3812856674194336,-1.8881586790084839,-0.38839277625083923
1783153454247975200,5.84797509765625,2.416234016418457,0.18143153190612793,0.07899725437164307
1783153454257687300,5.857687255859375,3.5667343139648438,2.251661777496338,0.9795023798942566
1783153454267399400,5.8673994140625,5.934083938598633,3.6613609790802,1.3661936521530151
1783153454277111600,5.877111572265625,9.074786186218262,4.355030059814453,1.2372384071350098
1783153454286823700,5.88682373046875,13.995417594909668,4.111458778381348,0.11008505523204803
1783153454296535800,5.896535888671875,18.995405197143555,3.487687110900879,-1.6173878908157349
1783153454306248000,5.906248046875,22.044376373291016,2.9118294715881348,-3.2411723136901855
1783153454315960000,5.9159599609375,22.59409523010254,2.958695411682129,-4.241508483886719
1783153454325672200,5.925672119140625,21.523704528808594,3.599065065383911,-4.5768351554870605
1783153454335384300,5.93538427734375,19.59228515625,4.8366851806640625,-4.79740571975708
1783153454345096400,5.945096435546875,17.97559356689453,5.985178470611572,-5.121880531311035
1783153454354808600,5.95480859375,16.19876480102539,7.106854438781738,-4.958605766296387
1783153454364520700,5.964520751953125,14.835659980773926,7.9909868240356445,-3.953603744506836
1783153454374232800,5.97423291015625,13.938216209411621,8.369342803955078,-2.1595563888549805
1783153454383945000,5.983945068359375,13.01045036315918,8.200830459594727,-0.4860079288482666
1783153454393657000,5.993656982421875,11.753219604492188,8.005348205566406,1.475070834159851
1783153454403369200,6.003369140625,10.34599494934082,7.589792251586914,2.6286697387695312
1783153454413081300,6.013081298828125,8.487791061401367,6.552875518798828,2.773378372192383
1783153454422793500,6.02279345703125,5.709620475769043,5.270608901977539,2.6207351684570312
1783153454432505600,6.032505615234375,3.274104118347168,4.084549427032471,2.6997509002685547
1783153454442217700,6.0422177734375,1.1404972076416016,3.0233049392700195,2.9578559398651123
1783153454451929900,6.051929931640625,-1.7073845863342285,2.27124285697937,3.30706787109375
1783153454461642000,6.06164208984375,-5.389232635498047,1.6901676654815674,3.565859317779541
1783153454471354000,6.07135400390625,-8.367441177368164,1.0353367328643799,3.4782447814941406
1783153454481066200,6.081066162109375,-10.110949516296387,0.15501189231872559,3.098618984222412
1783153454490778400,6.0907783203125,-10.758564949035645,-0.7927978038787842,2.568075656890869
1783153454500490500,6.100490478515625,-10.871753692626953,-1.7754138708114624,1.9706764221191406
1783153454510202600,6.11020263671875,-10.828011512756348,-1.8169134855270386,1.9894428253173828
1783153454519914800,6.119914794921875,-11.107175827026367,-3.54773211479187,0.7932100296020508
1783153454529627000,6.129626953125,-11.311653137207031,-4.153025150299072,0.7293740510940552
1783153454539339000,6.139339111328125,-11.424483299255371,-4.527323246002197,0.8675855994224548
1783153454549051100,6.149051025390625,-11.822036743164062,-4.610928535461426,1.1176670789718628
1783153454558763300,6.15876318359375,-12.518177032470703,-4.582666397094727,1.131654977798462
1783153454568475400,6.168475341796875,-13.369537353515625,-4.3994340896606445,1.0142203569412231
1783153454578187500,6.1781875,-13.85623550415039,-4.132881164550781,0.7365416288375854
1783153454587899600,6.187899658203125,-13.509529113769531,-3.9255130290985107,0.7041420340538025
1783153454597611800,6.19761181640625,-12.224592208862305,-3.7728271484375,0.8500648140907288
1783153454607324000,6.207323974609375,-10.251972198486328,-3.5698623657226562,0.7519721984863281
1783153454617036000,6.2170361328125,-7.79604434967041,-3.454629421234131,0.3684668242931366
1783153454626748200,6.226748046875,-4.685184001922607,-3.3778107166290283,-0.12959831953048706
1783153454636460300,6.236460205078125,-2.032278060913086,-3.280155897140503,-0.8110681772232056
1783153454646172400,6.24617236328125,-0.701756477355957,-2.8275482654571533,-1.3666691780090332
1783153454655884500,6.255884521484375,-0.056960105895996094,-2.0913562774658203,-2.135326862335205
1783153454665596700,6.2655966796875,-0.12402725219726562,-0.8259873390197754,-2.767554759979248
1783153454675308800,6.275308837890625,0.5333652496337891,0.44751858711242676,-3.1012086868286133
1783153454685021000,6.28502099609375,2.320797920227051,1.4884543418884277,-2.867915153503418
1783153454694733000,6.294733154296875,5.485724449157715,2.260814666748047,-2.1290557384490967
1783153454704445200,6.304445068359375,10.380892753601074,2.6711621284484863,-0.7799628973007202
1783153454714157300,6.3141572265625,15.853178024291992,2.9787182807922363,-0.06347930431365967
1783153454723869400,6.323869384765625,18.978654861450195,2.8698153495788574,-0.2565840482711792
1783153454733581600,6.33358154296875,19.436847686767578,2.3410589694976807,-1.1838645935058594
1783153454743293700,6.343293701171875,18.55606460571289,2.1403472423553467,-2.5044875144958496
1783153454753005800,6.353005859375,17.472700119018555,2.064758777618408,-2.9736061096191406
1783153454762718000,6.362718017578125,16.325092315673828,2.4003634452819824,-2.3261446952819824
1783153454772430000,6.37243017578125,14.391114234924316,2.831094264984131,-1.536820650100708
1783153454782142200,6.38214208984375,11.504476547241211,3.3395657539367676,-0.7531567215919495
1783153454791854300,6.391854248046875,8.696754455566406,3.720651626586914,-0.3731105625629425
1783153454801566500,6.40156640625,6.048447608947754,4.010351181030273,0.06619548797607422
1783153454811278600,6.411278564453125,3.6193485260009766,4.198563098907471,0.4447380304336548
1783153454820990700,6.42099072265625,1.657761573791504,4.000617027282715,0.5177168250083923
1783153454830702800,6.430702880859375,0.1929616928100586,3.596217632293701,0.5613619089126587
1783153454840415000,6.4404150390625,-0.9645061492919922,2.984213352203369,0.6488207578659058
1783153454850127000,6.450127197265625,-1.6994690895080566,2.294004440307617,0.6240348815917969
1783153454859839200,6.459839111328125,-2.2295517921447754,1.408172607421875,0.6168498992919922
1783153454869551600,6.469551513671875,-2.5961480140686035,0.30949878692626953,0.40989211201667786
1783153454879263500,6.479263427734375,-3.207139492034912,-0.7692794799804688,-0.28251826763153076
1783153454888975600,6.4889755859375,-4.078323841094971,-1.7573106288909912,-0.6583997011184692
1783153454898687700,6.498687744140625,-5.027558326721191,-2.478050470352173,-0.621515154838562
1783153454908399900,6.50839990234375,-6.113917350769043,-3.1283950805664062,-0.26383018493652344
1783153454918112000,6.518112060546875,-6.901147842407227,-3.700622081756592,0.43919825553894043
1783153454927824100,6.52782421875,-7.027875900268555,-4.288089752197266,0.9397414922714233
1783153454937536300,6.537536376953125,-6.822360038757324,-4.942080497741699,0.9880900382995605
1783153454947248400,6.547248291015625,-6.8027849197387695,-5.623987674713135,0.8578592538833618
1783153454956960500,6.55696044921875,-7.095176696777344,-6.086066246032715,0.5506872534751892
1783153454966672600,6.566672607421875,-7.650017738342285,-6.421575546264648,0.3026001751422882
1783153454976384800,6.576384765625,-8.22606086730957,-6.506931304931641,0.23356108367443085
1783153454986097000,6.586096923828125,-8.845696449279785,-6.315704822540283,0.37081316113471985
1783153454995809000,6.59580908203125,-9.602296829223633,-6.0600690841674805,0.7607428431510925
1783153455005521200,6.605521240234375,-9.96047592163086,-5.711431980133057,1.4868953227996826
1783153455015233300,6.6152333984375,-10.026165962219238,-5.5740766525268555,2.4240760803222656
1783153455024945400,6.6249453125,-9.996220588684082,-5.509667873382568,3.082500457763672
1783153455034657500,6.634657470703125,-9.858113288879395,-5.497635841369629,2.9102234840393066
1783153455044369700,6.64436962890625,-9.193371772766113,-5.632606029510498,2.3027191162109375
1783153455054081800,6.654081787109375,-8.232709884643555,-5.765738010406494,1.3516161441802979
1783153455063794000,6.6637939453125,-7.468410968780518,-5.722362041473389,0.4053729176521301
1783153455073506000,6.673506103515625,-6.687752723693848,-5.326054573059082,-0.2717662453651428
1783153455083218200,6.68321826171875,-5.64415168762207,-4.572713375091553,-0.1286100447177887
1783153455092930300,6.692930419921875,-5.187930107116699,-3.5208053588867188,0.5217223167419434
1783153455102642400,6.702642333984375,-5.610830783843994,-2.243427276611328,0.834347665309906
1783153455112354600,6.7123544921875,-6.145102024078369,-1.306169033050537,0.22619223594665527
1783153455122066700,6.722066650390625,-5.872193336486816,-0.023930788040161133,0.10511159896850586
1783153455131778800,6.73177880859375,-4.006855487823486,1.4557263851165771,0.9690960049629211
1783153455141491000,6.741490966796875,-0.3151540756225586,2.4413259029388428,1.9010586738586426
1783153455151203000,6.751203125,5.022793769836426,2.814342737197876,2.079010248184204
1783153455160915200,6.760915283203125,11.828393936157227,2.389774799346924,1.180281400680542
1783153455170627300,6.77062744140625,11.727581977844238,2.615018367767334,1.2436110973358154
1783153455180339500,6.78033935546875,22.66484832763672,2.175741195678711,-1.1438169479370117
1783153455190051600,6.790051513671875,24.017597198486328,2.8451273441314697,-2.1778669357299805
1783153455199763700,6.799763671875,24.476455688476562,3.683784008026123,-2.9266109466552734
1783153455209475800,6.809475830078125,23.72911834716797,4.7669453620910645,-3.096538543701172
1783153455219188000,6.81918798828125,21.64453125,6.020170211791992,-2.755237102508545
1783153455228900000,6.828900146484375,19.746212005615234,7.042220115661621,-1.97926926612854
1783153455238612200,6.8386123046875,18.332416534423828,7.325288772583008,-1.1715669631958008
1783153455248324400,6.848324462890625,17.265913009643555,7.240599155426025,-0.4316142797470093
1783153455258036500,6.858036376953125,16.530715942382812,6.738471031188965,0.07788646221160889
1783153455267748600,6.86774853515625,15.752060890197754,5.938728332519531,0.5093575716018677
1783153455277460700,6.877460693359375,13.807506561279297,5.112378120422363,0.527488112449646
1783153455287172900,6.8871728515625,10.727914810180664,4.127277851104736,0.5932930707931519
1783153455296885000,6.896885009765625,6.953221321105957,3.1327528953552246,1.0318585634231567
1783153455306597000,6.90659716796875,2.1552562713623047,2.0484402179718018,1.3360399007797241
1783153455316309200,6.916309326171875,-2.8794260025024414,1.0786502361297607,1.2045000791549683
1783153455326021400,6.926021484375,-6.772230625152588,0.16935086250305176,1.0137386322021484
1783153455335733500,6.9357333984375,-9.136931419372559,-1.0049200057983398,1.2813842296600342
1783153455345445600,6.945445556640625,-10.34017276763916,-1.9061310291290283,2.2684109210968018
1783153455355157800,6.95515771484375,-10.956548690795898,-2.712374448776245,3.4639487266540527
1783153455364870000,6.964869873046875,-11.2654390335083,-3.6618542671203613,4.328190326690674
1783153455374582000,6.97458203125,-11.854948043823242,-4.654959201812744,4.708226203918457
1783153455384294100,6.984294189453125,-12.682332038879395,-5.442255973815918,4.8908843994140625
1783153455394006300,6.99400634765625,-13.529980659484863,-5.933911323547363,4.95076322555542
1783153455403718400,7.003718505859375,-14.026365280151367,-6.302881240844727,4.961976051330566
1783153455413430500,7.013430419921875,-14.124216079711914,-6.65023946762085,4.753094673156738
1783153455423142700,7.023142578125,-14.534181594848633,-6.648714065551758,4.659578800201416
1783153455432854800,7.032854736328125,-15.39866828918457,-6.298556327819824,4.794299125671387
1783153455442567000,7.04256689453125,-16.189952850341797,-5.769805431365967,4.790964126586914
1783153455452279000,7.052279052734375,-16.50473976135254,-5.4511189460754395,4.540390968322754
1783153455461991200,7.0619912109375,-16.121253967285156,-5.245752334594727,4.1421918869018555
1783153455471703300,7.071703369140625,-14.489900588989258,-5.3148322105407715,3.584660530090332
1783153455481415400,7.08141552734375,-11.919662475585938,-5.6133880615234375,2.8080523014068604
1783153455491127600,7.09112744140625,-9.183640480041504,-5.6595778465271,1.9397190809249878
1783153455500839700,7.100839599609375,-6.622921466827393,-5.796779632568359,0.8337503671646118
1783153455510551800,7.1105517578125,-4.02354097366333,-5.8375959396362305,-0.3334782123565674
1783153455520264000,7.120263916015625,-2.5373945236206055,-5.616474628448486,-1.4785078763961792
1783153455529976000,7.12997607421875,-2.406606674194336,-4.821999549865723,-2.206667423248291
1783153455539688200,7.139688232421875,-3.137981414794922,-3.6358413696289062,-2.53474760055542
1783153455549400300,7.149400390625,-3.464406967163086,-2.149411916732788,-2.570117950439453
1783153455559112400,7.159112548828125,-2.5266613960266113,-0.9117889404296875,-2.8893182277679443
1783153455568824600,7.168824462890625,0.14697837829589844,-0.15151047706604004,-3.4183201789855957
1783153455578536700,7.17853662109375,5.100371360778809,0.5629825592041016,-4.135910987854004
1783153455588248800,7.188248779296875,12.451847076416016,1.2016801834106445,-4.723094463348389
1783153455597961000,7.1979609375,20.506372451782227,1.689934492111206,-4.752344608306885
1783153455607673000,7.207673095703125,27.23111343383789,2.3254175186157227,-4.093745708465576
1783153455617385200,7.21738525390625,30.60045051574707,3.345564365386963,-3.37861967086792
1783153455627097300,7.227097412109375,29.417312622070312,4.613312721252441,-3.2085092067718506
1783153455636809500,7.2368095703125,25.591005325317383,5.807124137878418,-3.254145383834839
1783153455646521600,7.246521484375,21.19038963317871,6.863832473754883,-2.939854621887207
1783153455656233700,7.256233642578125,16.98587417602539,7.93765926361084,-2.5786654949188232
1783153455665945900,7.26594580078125,13.723806381225586,8.393380165100098,-2.473771095275879
1783153455675658000,7.275657958984375,11.380498886108398,8.328408241271973,-2.531597852706909
1783153455685370000,7.2853701171875,9.595416069030762,7.847899913787842,-2.5930073261260986
1783153455695082200,7.295082275390625,8.20091724395752,7.146222114562988,-2.599966526031494
1783153455704794400,7.30479443359375,7.022156715393066,6.269850254058838,-2.346245765686035
1783153455714506500,7.314506591796875,5.264405250549316,5.550372123718262,-1.867288589477539
1783153455724218600,7.324218505859375,3.2496566772460938,4.8550801277160645,-1.255748987197876
1783153455733930800,7.3339306640625,1.4054479598999023,3.9756765365600586,-0.49291855096817017
1783153455743643000,7.343642822265625,-0.1302490234375,2.8196706771850586,0.19852286577224731
1783153455753355000,7.35335498046875,-1.6795654296875,1.483304500579834,0.8046382665634155
1783153455763067100,7.363067138671875,-3.0406641960144043,0.06898736953735352,1.1130001544952393
1783153455772779300,7.372779296875,-4.263905048370361,-1.3497200012207031,1.379069447517395
1783153455782491400,7.382491455078125,-5.057954788208008,-2.8930001258850098,1.4581012725830078
1783153455792203500,7.39220361328125,-5.957467555999756,-4.519871234893799,1.4512290954589844
1783153455801915600,7.40191552734375,-7.049431324005127,-6.046256065368652,1.6929210424423218
1783153455811627800,7.411627685546875,-8.150850296020508,-7.175525665283203,2.0385208129882812
1783153455821340000,7.42133984375,-9.431732177734375,-8.064706802368164,2.4259514808654785
1783153455831051800,7.4310517578125,-11.094488143920898,-8.838171005249023,2.483704090118408
1783153455840764200,7.44076416015625,-13.067806243896484,-9.286367416381836,2.0869240760803223
1783153455850476300,7.450476318359375,-14.927577018737793,-9.49759292602539,1.552161455154419
1783153455860188400,7.4601884765625,-16.16387176513672,-9.517020225524902,1.2628520727157593
1783153455869900500,7.469900634765625,-16.638635635375977,-9.539958953857422,1.0530650615692139
1783153455879612400,7.4796123046875,-16.872356414794922,-9.497968673706055,1.2609471082687378
1783153455889324500,7.489324462890625,-16.893383026123047,-9.602724075317383,1.3335719108581543
1783153455899036700,7.49903662109375,-16.520263671875,-9.88189697265625,1.1917756795883179
1783153455908749000,7.5087490234375,-15.531285285949707,-9.98775577545166,1.2525745630264282
1783153455918461200,7.518461181640625,-13.922554016113281,-10.091180801391602,1.0524381399154663
1783153455928173000,7.528173095703125,-12.107041358947754,-10.116334915161133,0.6198997497558594
1783153455937885200,7.53788525390625,-10.095292091369629,-9.741405487060547,-0.026956558227539062
1783153455947597300,7.547597412109375,-8.557373046875,-9.009254455566406,-0.5451656579971313
1783153455957309400,7.557309326171875,-7.383058071136475,-7.768656253814697,-0.5190553069114685
1783153455967021600,7.567021484375,-7.421933174133301,-6.181931495666504,-0.013982653617858887
1783153455976733700,7.576733642578125,-7.96859884262085,-4.325294494628906,0.7804580330848694
1783153455986445800,7.58644580078125,-7.829625129699707,-2.3453967571258545,1.8712754249572754
1783153455996158000,7.596157958984375,-6.28327751159668,-0.4962890148162842,3.1874241828918457
1783153456005870000,7.6058701171875,-1.8127408027648926,1.156081199645996,4.373679161071777
1783153456015582200,7.615582275390625,5.087275505065918,2.01596736907959,4.651180744171143
1783153456025294300,7.62529443359375,13.990907669067383,1.828927993774414,3.7968924045562744
1783153456035006500,7.63500634765625,23.79367446899414,2.0360617637634277,3.6155219078063965
1783153456044718600,7.644718505859375,32.357418060302734,3.8562355041503906,5.446872711181641
1783153456054430700,7.6544306640625,36.557899475097656,6.3811469078063965,7.056684494018555
1783153456064142800,7.664142822265625,34.53772735595703,8.468323707580566,6.398333549499512
1783153456073855000,7.67385498046875,29.919475555419922,9.752488136291504,4.452737808227539
1783153456083567000,7.683567138671875,25.04265785217285,10.609700202941895,2.482964038848877
1783153456093279200,7.693279296875,20.840816497802734,11.135687828063965,1.4928752183914185
1783153456102991400,7.702991455078125,18.16618537902832,11.112771034240723,1.2119840383529663
1783153456112703500,7.712703369140625,17.091289520263672,10.496923446655273,1.2859811782836914
1783153456122415600,7.72241552734375,16.942590713500977,9.313709259033203,1.6664891242980957
1783153456132127700,7.732127685546875,15.751593589782715,8.35753059387207,2.453885555267334
1783153456141840000,7.74183984375,13.709102630615234,7.455467224121094,2.9877023696899414
1783153456151552000,7.751552001953125,11.305329322814941,6.133547306060791,2.957392692565918
1783153456161264000,7.76126416015625,8.692831993103027,4.597031593322754,2.810441732406616
1783153456170976300,7.770976318359375,6.451533317565918,2.9264578819274902,2.8648324012756348
1783153456180688400,7.7806884765625,4.724188804626465,1.2227587699890137,3.0801444053649902
1783153456190400500,7.790400390625,2.6627817153930664,-0.44413018226623535,3.495647430419922
1783153456200112600,7.800112548828125,-0.12518787384033203,-1.9174296855926514,3.712282657623291
1783153456209824800,7.80982470703125,-3.31571626663208,-3.376837730407715,3.577185869216919
1783153456219537000,7.819536865234375,-6.113763809204102,-4.752490043640137,3.1261379718780518
1783153456229249000,7.8292490234375,-8.609030723571777,-6.126169204711914,2.2439894676208496
1783153456238961200,7.838961181640625,-10.967549324035645,-7.447024345397949,0.960844099521637
1783153456248673300,7.84867333984375,-13.126272201538086,-8.312175750732422,-0.37076765298843384
1783153456258385400,7.858385498046875,-14.5039644241333,-8.985834121704102,-1.4463660717010498
1783153456268097500,7.86809765625,-14.869308471679688,-9.683845520019531,-1.9397965669631958
1783153456277809700,7.8778095703125,-14.708662033081055,-9.916385650634766,-1.5870691537857056
1783153456287521800,7.887521728515625,-14.789402961730957,-9.899723052978516,-0.9385877847671509
1783153456297234000,7.89723388671875,-15.27985954284668,-9.743130683898926,-0.08102691173553467
1783153456306946000,7.906946044921875,-16.369384765625,-9.51585578918457,0.46428751945495605
1783153456316658200,7.916658203125,-17.809423446655273,-9.504278182983398,0.44034135341644287
1783153456326370300,7.926370361328125,-18.344886779785156,-9.526079177856445,0.36561518907546997
1783153456336082400,7.93608251953125,-17.56779670715332,-9.417293548583984,0.4857102334499359
1783153456345794600,7.945794677734375,-15.743398666381836,-9.278343200683594,0.577019214630127
1783153456355506700,7.955506591796875,-13.021581649780273,-9.401329040527344,0.3183428645133972
1783153456365218800,7.96521875,-10.157710075378418,-9.382036209106445,-0.1936812400817871
1783153456374930700,7.9749306640625,-7.8117194175720215,-8.976566314697266,-0.5981451869010925
1783153456384643000,7.98464306640625,-6.482101917266846,-8.176610946655273,-0.5444480776786804
1783153456394355200,7.994355224609375,-5.417325973510742,-6.965510368347168,0.025827765464782715
1783153456404067300,8.0040673828125,-3.8656458854675293,-5.601434230804443,0.8448307514190674
1783153456413779500,8.013779541015625,-3.6082863807678223,-3.891218900680542,1.5720429420471191
1783153456423491300,8.0234912109375,-3.33774471282959,-2.075263023376465,2.209406614303589
1783153456433203500,8.033203369140624,-1.7321043014526367,-0.5832810401916504,2.5474536418914795
1783153456442915600,8.04291552734375,0.5784282684326172,0.5724260807037354,2.4216322898864746
1783153456452627700,8.052627685546875,4.425814628601074,1.3160550594329834,1.4553791284561157
1783153456462339800,8.06233984375,9.65080451965332,1.762425422668457,-0.07079958915710449
1783153456472052000,8.072052001953125,14.406095504760742,2.6656131744384766,-1.3292831182479858
1783153456481764000,8.08176416015625,18.992084503173828,3.8597404956817627,-2.3058934211730957
1783153456491476200,8.091476318359375,22.663984298706055,5.003398895263672,-3.209404468536377
1783153456501188400,8.101188232421874,24.2298583984375,6.429494380950928,-3.7377231121063232
1783153456510900500,8.110900390625,23.545873641967773,7.913552284240723,-4.031733512878418
1783153456520612600,8.120612548828126,21.423351287841797,9.201221466064453,-4.162863254547119
1783153456530324700,8.13032470703125,19.16753578186035,10.274200439453125,-3.9476230144500732
1783153456540036900,8.140036865234375,17.45981216430664,11.275941848754883,-3.109898090362549
1783153456549749000,8.1497490234375,16.03028106689453,11.922131538391113,-1.7992055416107178
1783153456559461000,8.159461181640625,14.719762802124023,11.900859832763672,-0.35820430517196655
1783153456569173200,8.16917333984375,13.085029602050781,10.89430046081543,0.37426620721817017
1783153456578885400,8.178885498046874,10.80137825012207,9.296966552734375,0.3632586598396301
1783153456588597500,8.188597412109376,9.017182350158691,7.146206855773926,-0.10012826323509216
1783153456598309600,8.1983095703125,7.734057426452637,4.606000900268555,-1.2329386472702026
1783153456608021800,8.208021728515625,5.802217483520508,2.1594042778015137,-2.313741445541382
1783153456617734000,8.21773388671875,3.7311859130859375,0.21383047103881836,-2.667725086212158
1783153456627446000,8.227446044921875,1.6757125854492188,-1.6000316143035889,-2.7005579471588135
1783153456637158100,8.237158203125,-0.1843547821044922,-3.2768797874450684,-2.3038361072540283
1783153456646870300,8.246870361328124,-1.9425582885742188,-4.748047828674316,-1.4488780498504639
1783153456656582400,8.25658251953125,-3.686129093170166,-5.93193244934082,-0.4463975429534912
1783153456666294500,8.26629443359375,-5.166231155395508,-7.042471885681152,0.5082630515098572
1783153456676006700,8.276006591796875,-6.641181468963623,-7.942925930023193,1.027234435081482
1783153456685718800,8.28571875,-8.252029418945312,-8.668983459472656,1.1358720064163208
1783153456695431000,8.295430908203125,-9.745701789855957,-9.179361343383789,1.2245111465454102
1783153456705143000,8.30514306640625,-11.256397247314453,-9.361597061157227,1.4339114427566528
1783153456714855200,8.314855224609374,-12.722808837890625,-9.356924057006836,1.8202030658721924
1783153456724567300,8.3245673828125,-13.902567863464355,-9.238543510437012,2.2203965187072754
1783153456734279400,8.334279541015626,-14.822720527648926,-8.990352630615234,2.657735824584961
1783153456743991600,8.343991455078125,-15.400474548339844,-8.802309036254883,2.8554463386535645
1783153456753703700,8.35370361328125,-15.748285293579102,-8.748220443725586,2.880225658416748
1783153456763415800,8.363415771484375,-15.74907112121582,-8.707666397094727,2.9385647773742676
1783153456773128000,8.3731279296875,-15.497982025146484,-8.590085983276367,2.9781436920166016
1783153456782839800,8.38283984375,-15.06021499633789,-8.384761810302734,3.1124751567840576
1783153456792552000,8.392552001953124,-14.149068832397461,-8.08434009552002,3.2169084548950195
1783153456802264300,8.402264404296876,-13.110649108886719,-7.655647277832031,3.0163347721099854
1783153456811976400,8.4119765625,-11.628013610839844,-7.143122673034668,2.8526241779327393
1783153456821688300,8.421688232421875,-10.172528266906738,-6.488380432128906,2.4847965240478516
1783153456831400400,8.431400390625,-8.877384185791016,-5.6338300704956055,2.052708625793457
1783153456841112600,8.441112548828125,-8.92253589630127,-5.492643356323242,1.9942786693572998
1783153456850824700,8.45082470703125,-6.3631696701049805,-3.6184194087982178,1.0401527881622314
1783153456860536800,8.460536865234374,-6.4355549812316895,-2.2224037647247314,0.6627758145332336
1783153456870249000,8.4702490234375,-6.921375274658203,-0.567061185836792,0.4891606569290161
1783153456879961000,8.479961181640626,-6.457755088806152,0.880652666091919,0.4084320068359375
1783153456889673200,8.489673095703125,-4.341128826141357,2.1077911853790283,0.9046699404716492
1783153456899385300,8.49938525390625,1.680084228515625,2.75211238861084,1.9965286254882812
1783153456909097500,8.509097412109375,10.696297645568848,2.352105140686035,2.78145432472229
1783153456918809600,8.5188095703125,20.034069061279297,1.5499954223632812,1.740462064743042
1783153456928521700,8.528521728515624,27.937959671020508,2.015303134918213,0.4592805802822113
1783153456938233900,8.53823388671875,32.2591552734375,5.011440277099609,1.341831922531128
1783153456947946000,8.547946044921876,32.92226028442383,8.364805221557617,3.7786922454833984
1783153456957658000,8.557658203125,31.601581573486328,10.240093231201172,5.401488304138184
1783153456967370200,8.567370361328125,28.43532943725586,11.16441535949707,5.084622383117676
1783153456977082400,8.577082275390625,23.959810256958008,11.30402660369873,3.6685755252838135
1783153456986794500,8.58679443359375,19.992820739746094,11.279521942138672,2.3169972896575928
1783153456996506600,8.596506591796874,17.197084426879883,10.780288696289062,1.4176853895187378
1783153457006218800,8.60621875,15.363761901855469,9.35163688659668,0.47830671072006226
1783153457015931000,8.615930908203126,13.601639747619629,7.241928577423096,-1.1175658702850342
1783153457025643000,8.62564306640625,11.131292343139648,5.094815254211426,-2.691608428955078
1783153457035355100,8.635355224609375,8.812843322753906,3.207381010055542,-3.9210586547851562
1783153457045067300,8.6450673828125,6.852595329284668,1.5595159530639648,-4.129905700683594
1783153457054779400,8.654779296875,5.163845062255859,0.35684895515441895,-3.1551032066345215
1783153457064491500,8.664491455078124,3.208240509033203,-0.5510158538818359,-1.43092942237854
1783153457074203600,8.67420361328125,0.6698169708251953,-1.4073259830474854,0.027532875537872314
1783153457083915800,8.683915771484376,-2.454967498779297,-2.183689594268799,0.9581365585327148
1783153457093628000,8.6936279296875,-5.722705841064453,-2.9766273498535156,1.4355769157409668
1783153457103340000,8.703340087890625,-8.383769035339355,-3.7313485145568848,1.3547191619873047
1783153457113052000,8.713052001953125,-10.179818153381348,-4.582242965698242,0.9728941917419434
1783153457122764000,8.722763916015625,-11.365396499633789,-5.632494926452637,0.22983336448669434
1783153457132476200,8.73247607421875,-12.055092811584473,-6.767303466796875,-0.5890890955924988
1783153457142188300,8.742188232421874,-12.219109535217285,-7.821063995361328,-1.2630163431167603
1783153457151900400,8.751900390625,-12.23085880279541,-8.370418548583984,-1.4850168228149414
1783153457161612500,8.761612548828126,-12.580557823181152,-8.44171142578125,-1.3081690073013306
1783153457171324700,8.77132470703125,-13.014938354492188,-8.44687271118164,-0.8916594982147217
1783153457181036800,8.781036865234375,-13.595767974853516,-8.336153984069824,-0.5231534242630005
1783153457190749000,8.7907490234375,-14.243757247924805,-8.163642883300781,-0.10358771681785583
1783153457200461000,8.8004609375,-14.864208221435547,-7.970379829406738,0.1596454679965973
1783153457210173200,8.810173095703124,-15.593683242797852,-7.796832084655762,0.05421355366706848
1783153457219885300,8.81988525390625,-16.14677619934082,-7.465511322021484,-0.18997693061828613
1783153457229597400,8.829597412109376,-16.087160110473633,-7.257753372192383,-0.5419843196868896
1783153457239309600,8.8393095703125,-14.927301406860352,-7.300903797149658,-0.8689385056495667
1783153457249021700,8.849021728515625,-12.97496223449707,-6.980609893798828,-0.8505364656448364
1783153457258733800,8.85873388671875,-10.531472206115723,-6.320282459259033,-0.5818864107131958
1783153457268446000,8.868446044921875,-8.518776893615723,-5.429684638977051,-0.3694981336593628
1783153457278158000,8.878157958984374,-6.626588821411133,-4.657914161682129,-0.6513941884040833
1783153457287870200,8.8878701171875,-5.09808349609375,-3.7777106761932373,-1.2294493913650513
1783153457297582300,8.897582275390626,-3.4761643409729004,-2.661705493927002,-1.644756555557251
1783153457307294500,8.90729443359375,-2.184868812561035,-1.330383062362671,-1.9341353178024292
1783153457317006600,8.917006591796875,-1.1542043685913086,-0.05678868293762207,-1.8579281568527222
1783153457326718700,8.92671875,2.1308364868164062,0.7762508392333984,-1.19571852684021
1783153457336430800,8.936430908203125,7.965219497680664,1.6087265014648438,-0.24157428741455078
1783153457346143000,8.94614306640625,14.532187461853027,1.9757797718048096,0.015353292226791382
1783153457355855000,8.955855224609374,19.9022159576416,1.92696213722229,-1.2337464094161987
1783153457365567200,8.965567138671876,22.56537628173828,1.7447535991668701,-3.7218661308288574
1783153457375279400,8.975279296875,22.512989044189453,2.1411828994750977,-5.362905502319336
1783153457384991200,8.9849912109375,20.85071563720703,3.4504880905151367,-4.724856853485107
1783153457394703400,8.994703369140625,19.594749450683594,4.486217975616455,-2.0917773246765137
1783153457404415500,9.00441552734375,19.5810546875,5.420646667480469,0.7056928277015686
1783153457414127600,9.014127685546875,18.14720344543457,6.241247177124023,1.9597065448760986
1783153457423839700,9.02383984375,14.852510452270508,6.9263410568237305,1.600510835647583
1783153457433552000,9.0335517578125,11.478079795837402,7.422461986541748,0.6269521713256836
1783153457443264000,9.043263916015626,9.254196166992188,7.7077836990356445,0.10632891952991486
1783153457452976000,9.05297607421875,7.781750679016113,7.6629743576049805,0.06036694347858429
1783153457462688300,9.062688232421875,6.402132034301758,7.319949626922607,0.08737598359584808
1783153457472400400,9.072400390625,5.220222473144531,6.437737464904785,0.1286741942167282
1783153457482112500,9.082112548828125,3.869765281677246,5.409503936767578,0.1541655957698822
1783153457501536800,9.101536865234374,0.9527378082275391,2.865288257598877,0.11046042293310165
1783153457511249000,9.111248779296876,-0.9302835464477539,1.6085329055786133,-0.01755911484360695
1783153457520961000,9.1209609375,-2.8693466186523438,0.23437786102294922,-0.24860312044620514
1783153457530673200,9.130673095703125,-4.317123889923096,-1.1572718620300293,-0.47152045369148254
1783153457540385300,9.14038525390625,-5.208588600158691,-2.5913751125335693,-0.8559836745262146
1783153457550097400,9.150097412109375,-5.788992881774902,-4.110271453857422,-1.301788330078125
1783153457559809500,9.1598095703125,-6.433835983276367,-5.478399276733398,-1.594710111618042
1783153457569521700,9.169521728515624,-6.951967239379883,-6.6016340255737305,-1.8803662061691284
1783153457579233800,9.17923388671875,-7.3824615478515625,-7.674299240112305,-2.016144275665283
1783153457588946000,9.18894580078125,-8.055912017822266,-8.516987800598145,-1.901684045791626
1783153457598658000,9.198657958984375,-8.595002174377441,-8.926338195800781,-1.4304776191711426
1783153457608370200,9.2083701171875,-9.138789176940918,-9.025888442993164,-0.7343665957450867
1783153457618082000,9.21808203125,-10.144355773925781,-8.824562072753906,0.1528499573469162
1783153457627794200,9.227794189453125,-11.632583618164062,-8.220293045043945,0.9357268810272217
1783153457637506600,9.237506591796874,-13.088071823120117,-7.546716690063477,1.7069178819656372
1783153457647218400,9.247218505859376,-14.167705535888672,-6.939226150512695,2.0850396156311035
1783153457656930600,9.2569306640625,-14.670106887817383,-6.366549968719482,2.3811235427856445
1783153457666642700,9.266642578125,-14.107585906982422,-5.8072004318237305,2.6999597549438477
1783153457676354800,9.276354736328125,-12.361949920654297,-5.223143577575684,3.0088346004486084
1783153457686067000,9.28606689453125,-10.229969024658203,-4.787911415100098,3.0647614002227783
1783153457695779000,9.295779052734375,-8.431714057922363,-4.222481727600098,2.8979547023773193
1783153457705491200,9.3054912109375,-6.909329414367676,-3.5547232627868652,2.3084354400634766
1783153457715203300,9.315203369140624,-5.733303070068359,-2.933162212371826,1.8536254167556763
1783153457724915500,9.32491552734375,-5.009252548217773,-2.020568609237671,1.5179245471954346
1783153457734627600,9.334627685546875,-3.9566502571105957,-0.9845898151397705,1.3541852235794067
1783153457744339700,9.344339599609375,-1.1912708282470703,-0.07365965843200684,1.13132643699646
1783153457754051800,9.3540517578125,2.8094282150268555,0.47192811965942383,0.5386371612548828
1783153457763764000,9.363763916015625,6.1337480545043945,0.6308977603912354,-0.3806537985801697
1783153457773476000,9.37347607421875,10.439909934997559,0.6122701168060303,-0.9819048047065735
1783153457783188200,9.383188232421874,16.431827545166016,0.40827369689941406,-1.2720783948898315
1783153457792900400,9.392900390625,21.31231689453125,0.1990671157836914,-1.3818719387054443
1783153457802612500,9.402612548828126,22.480714797973633,0.7920761108398438,-1.7653765678405762
1783153457812324600,9.41232470703125,20.851131439208984,1.9005467891693115,-2.0891120433807373
1783153457822036700,9.42203662109375,18.77821159362793,2.999924659729004,-0.04210379719734192
1783153457831748600,9.43174853515625,16.868789672851562,4.1715874671936035,3.4212818145751953
1783153457841460700,9.441460693359375,13.44562816619873,5.575676918029785,6.030479431152344
1783153457851173000,9.451173095703124,7.471710205078125,7.125929832458496,7.129561424255371
1783153457860885000,9.460885009765626,1.4172801971435547,8.522317886352539,7.050369739532471
1783153457870597000,9.47059716796875,-1.928544044494629,9.353128433227539,6.59174919128418
1783153457880309200,9.480309326171875,-2.6194257736206055,9.181802749633789,5.824488639831543
1783153457890021400,9.490021484375,-2.116455078125,8.374393463134766,4.707436561584473
1783153457899733500,9.4997333984375,-0.8362588882446289,7.1137495040893555,3.870137929916382
1783153457909445600,9.509445556640625,1.1344938278198242,5.617486953735352,3.2530274391174316
1783153457919157800,9.51915771484375,2.718010902404785,3.910140037536621,3.258394241333008
1783153457928870000,9.528869873046874,2.756040573120117,2.6694657802581787,3.778351068496704
1783153457938582000,9.53858203125,2.0149974822998047,1.7283453941345215,4.0458760261535645
1783153457948294100,9.548294189453125,1.0323915481567383,0.8811037540435791,3.865952968597412
1783153457958006300,9.55800634765625,0.256561279296875,0.1364893913269043,3.602792739868164
1783153457967718400,9.567718505859375,-0.8696022033691406,-0.6784865856170654,3.127589225769043
1783153457977430500,9.577430419921875,-2.1098389625549316,-1.3025767803192139,2.52866268157959
1783153457987142700,9.587142578125,-3.112860679626465,-1.9175069332122803,1.9099042415618896
1783153457996854800,9.596854736328124,-3.89674711227417,-2.593451976776123,1.1562856435775757
1783153458006567000,9.60656689453125,-4.779967784881592,-3.152134656906128,0.23052692413330078
1783153458016279000,9.616279052734376,-5.801773548126221,-3.317704677581787,-0.6206721663475037
1783153458025991200,9.6259912109375,-6.993346214294434,-3.38673996925354,-1.2328649759292603
1783153458035703000,9.635703125,-7.8011016845703125,-3.4603431224823,-1.7590636014938354
1783153458045415200,9.645415283203125,-7.791522026062012,-3.6528806686401367,-2.028259038925171
1783153458055127600,9.65512744140625,-7.796262741088867,-3.576550245285034,-2.000093698501587
1783153458064839400,9.66483935546875,-6.133692264556885,-3.872093677520752,-1.5662808418273926
1783153458074551600,9.674551513671876,-5.422697067260742,-3.6140072345733643,-0.9362728595733643
1783153458084263700,9.684263671875,-5.003201961517334,-3.260469913482666,-0.391743004322052
1783153458093975800,9.693975830078125,-5.72660493850708,-3.10687518119812,-0.354513019323349
1783153458103688000,9.70368798828125,-7.28475284576416,-2.9250950813293457,-0.48610448837280273
1783153458113400000,9.713400146484375,-8.521666526794434,-2.7927405834198,-0.530503511428833
1783153458123112200,9.7231123046875,-9.173419952392578,-2.6970279216766357,-0.6565573215484619
1783153458132824300,9.73282421875,-9.655213356018066,-2.54451847076416,-0.5149944424629211
1783153458142536400,9.742536376953124,-9.139148712158203,-2.34352970123291,-0.1680491864681244
1783153458152248600,9.75224853515625,-8.140975952148438,-2.2029428482055664,0.12285774946212769
1783153458161960700,9.761960693359375,-7.032196521759033,-1.9452478885650635,0.39930984377861023
1783153458171672800,9.7716728515625,-5.512261867523193,-1.969601035118103,-0.004037916660308838
1783153458181385000,9.781385009765625,-4.559351921081543,-1.770613193511963,-0.9149597883224487
1783153458191097000,9.79109716796875,-4.6927924156188965,-1.3264398574829102,-2.266382932662964
1783153458200809200,9.800809326171875,-5.054898262023926,-0.7209320068359375,-3.535680055618286
1783153458210521300,9.810521240234374,-5.140962600708008,0.06346893310546875,-4.6204094886779785
1783153458220233500,9.8202333984375,-3.4781556129455566,0.8827948570251465,-4.692960739135742
1783153458229945600,9.829945556640626,2.4186973571777344,1.7185382843017578,-3.3632726669311523
1783153458239657500,9.839657470703125,9.274458885192871,2.1659181118011475,-1.1042615175247192
1783153458249369600,9.84936962890625,15.22122573852539,2.2786753177642822,0.7767992615699768
1783153458259081700,9.859081787109375,18.903011322021484,2.4383304119110107,1.5411310195922852
1783153458268793900,9.8687939453125,19.48016357421875,2.4964959621429443,0.8356518149375916
1783153458278506000,9.878506103515624,18.962907791137695,2.2305126190185547,-0.9811007380485535
1783153458288218000,9.888218017578126,18.62234115600586,1.7907993793487549,-2.1298162937164307
1783153458297930200,9.89793017578125,18.811325073242188,1.7222256660461426,-2.1456429958343506
1783153458307642400,9.907642333984375,18.66576385498047,1.545929193496704,-1.925271987915039
1783153458317354500,9.9173544921875,16.97690200805664,1.6089046001434326,-1.8722615242004395
1783153458327066600,9.927066650390625,15.040209770202637,1.0381066799163818,-2.0978591442108154
1783153458336778800,9.93677880859375,13.063912391662598,1.3234593868255615,-2.2904551029205322
1783153458346491000,9.946490966796874,10.729087829589844,1.6641325950622559,-1.6463227272033691
1783153458356203000,9.956203125,8.361831665039062,1.9858081340789795,-0.6444814205169678
1783153458365915100,9.9659150390625,5.8630170822143555,2.266442060470581,0.2328968644142151
1783153458375627300,9.975627197265625,2.9504261016845703,2.1002328395843506,0.6477852463722229
1783153458385339400,9.98533935546875,0.3273916244506836,1.8869664669036865,1.2119457721710205
1783153458395051300,9.99505126953125,-1.7237586975097656,1.4398736953735352,1.990372657775879
1783153458404763400,10.004763427734375,-3.3288626670837402,0.6741311550140381,2.346804618835449
1783153458414475800,10.014475830078124,-4.407670497894287,-0.2936058044433594,2.5596437454223633
1783153458424187600,10.024187744140624,-5.212345600128174,-1.3938592672348022,2.5065059661865234
1783153458433899800,10.033899658203126,-5.9568891525268555,-2.196300506591797,2.3634896278381348
1783153458443612000,10.04361181640625,-6.983684062957764,-2.929293155670166,1.9381331205368042
1783153458453324000,10.053323974609375,-8.39967155456543,-3.510939121246338,1.4186800718307495
1783153458463036200,10.0630361328125,-9.806761741638184,-3.9259252548217773,0.8623764514923096
1783153458472748300,10.072748291015625,-11.256251335144043,-4.17965030670166,0.39377856254577637
1783153458482460400,10.08246044921875,-12.668769836425781,-4.2656073570251465,-0.011693060398101807
1783153458492172500,10.092172607421874,-13.922758102416992,-4.154156684875488,-0.1034579873085022
1783153458501884700,10.101884765625,-14.583940505981445,-3.958709716796875,-0.17568433284759521
1783153458511596800,10.1115966796875,-14.536062240600586,-3.845593214035034,-0.07669901847839355
1783153458521309000,10.121308837890625,-13.972615242004395,-3.933997392654419,0.08824431896209717
1783153458531021000,10.13102099609375,-13.535831451416016,-4.081175804138184,-0.0028723478317260742
1783153458540733200,10.140733154296875,-13.298830032348633,-4.214158058166504,0.008397817611694336
1783153458550445300,10.1504453125,-12.740846633911133,-4.372373580932617,0.18064653873443604
1783153458560157400,10.160157470703124,-11.2257080078125,-4.550900459289551,0.4851938486099243
1783153458569869600,10.16986962890625,-9.005683898925781,-4.678744316101074,0.8722183704376221
1783153458579581400,10.17958154296875,-7.022951126098633,-4.922990322113037,0.8944551944732666
1783153458589293600,10.18929345703125,-5.660660266876221,-5.22764778137207,0.5012372732162476
1783153458599005700,10.199005615234375,-4.784673690795898,-5.40046501159668,-0.1456441879272461
1783153458608717800,10.2087177734375,-4.6243815422058105,-5.273652076721191,-0.7126274108886719
1783153458618430000,10.218429931640625,-5.058437824249268,-4.900358200073242,-1.1000562906265259
1783153458628142000,10.22814208984375,-5.80629825592041,-4.266871929168701,-1.6616997718811035
1783153458637854200,10.237854248046874,-6.329116344451904,-3.49521541595459,-2.114603042602539
1783153458647566300,10.24756640625,-5.008296012878418,-2.6649880409240723,-2.184189558029175
1783153458657278500,10.257278564453125,-0.6194448471069336,-1.9069145917892456,-1.462975025177002
1783153458666990600,10.266990478515625,5.638498306274414,-1.1232426166534424,0.00081634521484375
1783153458676702700,10.27670263671875,12.112022399902344,-0.4724423885345459,2.0574281215667725
1783153458686414800,10.286414794921875,17.098949432373047,0.3352694511413574,3.615696907043457
1783153458696127000,10.296126953125,19.43739891052246,0.9202878475189209,4.047043800354004
1783153458705839000,10.305839111328124,19.37424659729004,0.9885154962539673,4.049354076385498
1783153458715551200,10.31555126953125,17.897159576416016,3.1596713066101074,2.4077706336975098
1783153458725263400,10.325263427734376,17.42096519470215,4.3971452713012695,2.161294937133789
1783153458734975200,10.334975341796875,17.13241195678711,5.9383392333984375,2.4681296348571777
1783153458744687400,10.344687255859375,16.427242279052734,7.532870292663574,2.8838720321655273
1783153458754399500,10.3543994140625,15.42723560333252,8.62794303894043,3.250816822052002
1783153458764111600,10.364111572265625,14.33754825592041,9.166794776916504,3.7550039291381836
1783153458773823700,10.37382373046875,13.3502836227417,8.975861549377441,4.237074851989746
1783153458783535900,10.383535888671876,12.198563575744629,8.447972297668457,4.3105621337890625
1783153458793248000,10.393248046875,10.952422142028809,7.826863765716553,4.114295959472656
1783153458802960100,10.402960205078125,8.977947235107422,6.873936176300049,3.4574661254882812
1783153458812672300,10.41267236328125,6.969820022583008,5.884999752044678,2.4890713691711426
1783153458822384400,10.42238427734375,5.356264114379883,4.906556129455566,1.6763477325439453
1783153458832096500,10.432096435546875,3.918865203857422,4.0153889656066895,1.098498821258545
1783153458841808600,10.44180859375,2.035468101501465,3.1864452362060547,0.6501814126968384
1783153458851520800,10.451520751953124,-0.10647106170654297,2.320486545562744,0.17893409729003906
1783153458861233000,10.46123291015625,-2.3185415267944336,1.442575454711914,-0.28868919610977173
1783153458870945000,10.470945068359375,-4.351390361785889,0.463895320892334,-0.5618591904640198
1783153458880657000,10.480656982421875,-6.092740535736084,-0.4573451280593872,-0.6013005375862122
1783153458890369000,10.490369140625,-7.327396869659424,-1.328556776046753,-0.4309898614883423
1783153458900081200,10.5000810546875,-8.108966827392578,-2.1164376735687256,-0.08486753702163696
1783153458909793300,10.509793212890624,-8.389251708984375,-2.9051196575164795,0.16086292266845703
1783153458919505400,10.51950537109375,-8.358396530151367,-2.965308904647827,0.2508888840675354
1783153458929217500,10.529217529296876,-8.084156036376953,-4.68464994430542,0.2376190423965454
1783153458938929700,10.5389296875,-8.661660194396973,-5.409415245056152,0.05504053831100464
1783153458948641800,10.548641845703125,-9.769283294677734,-5.860499382019043,-0.3684401214122772
1783153458958354000,10.55835400390625,-11.28203296661377,-6.142688274383545,-0.8369318842887878
1783153458968066000,10.568066162109375,-12.760913848876953,-6.289018630981445,-1.1547328233718872
1783153458977778200,10.577778076171874,-13.605384826660156,-6.334763526916504,-1.1231577396392822
1783153458987490300,10.587490234375,-13.769416809082031,-6.144576072692871,-0.6951838731765747
1783153458997202400,10.597202392578126,-13.231890678405762,-5.868924140930176,0.0881098210811615
1783153459006914600,10.60691455078125,-12.21451187133789,-5.782746315002441,0.6836338043212891
1783153459016626400,10.61662646484375,-10.996397018432617,-5.7724761962890625,1.1798384189605713
1783153459026338600,10.626338623046875,-9.33774471282959,-5.678997993469238,1.2479143142700195
1783153459036050700,10.63605078125,-7.523321151733398,-5.381010055541992,0.6819342970848083
1783153459045762800,10.6457626953125,-6.571584701538086,-4.852138519287109,0.3208251893520355
1783153459055475000,10.655474853515624,-5.641805171966553,-4.163858413696289,0.19596928358078003
1783153459065187000,10.66518701171875,-3.7326831817626953,-3.550321102142334,-0.08950883150100708
1783153459074899200,10.674899169921876,-2.1554689407348633,-2.7938599586486816,-0.14716099202632904
1783153459084611300,10.684611328125,-0.6920652389526367,-1.9014270305633545,-0.03213509917259216
1783153459094323500,10.694323486328125,0.6157093048095703,-1.080430507659912,-0.26309067010879517
1783153459104035600,10.70403564453125,1.9773130416870117,-0.21350884437561035,-0.6658628582954407
1783153459113747700,10.713747802734375,3.1813364028930664,0.5609023571014404,-1.2779653072357178
1783153459123459800,10.7234599609375,4.989449501037598,1.0633549690246582,-1.7502682209014893
1783153459133172000,10.733171875,7.30928897857666,1.390789270401001,-1.8161392211914062
1783153459142884000,10.742884033203126,9.467333793640137,1.899712324142456,-1.657738208770752
1783153459152596000,10.752595947265625,11.045246124267578,2.4919474124908447,-1.4965782165527344
1783153459162308000,10.76230810546875,12.90259838104248,2.733888864517212,-1.6432578563690186
1783153459172020200,10.772020263671875,13.97536849975586,2.5661492347717285,-1.5473860502243042
1783153459181732400,10.781732421875,15.13580322265625,3.114042282104492,-3.3821909427642822
1783153459191444500,10.791444580078124,14.772543907165527,2.840059757232666,-4.12917423248291
1783153459201156600,10.801156494140624,14.416610717773438,2.925131320953369,-4.737833499908447
1783153459210868700,10.81086865234375,14.414590835571289,3.101236581802368,-4.883261203765869
1783153459220580900,10.820580810546875,14.206446647644043,3.407853841781616,-4.590535640716553
1783153459230293000,10.83029296875,13.759419441223145,3.61043643951416,-4.128427505493164
1783153459240005000,10.840005126953125,12.670271873474121,3.676558494567871,-3.414325714111328
1783153459249717200,10.84971728515625,10.9009428024292,3.577548027038574,-2.5082783699035645
1783153459259429400,10.859429443359375,8.852672576904297,3.1632652282714844,-1.4498445987701416
1783153459269141500,10.8691416015625,6.607641220092773,2.5463922023773193,-0.9024686217308044
1783153459278853600,10.878853515625,4.239504814147949,1.6938613653182983,-0.8416050672531128
1783153459288565500,10.8885654296875,1.5301523208618164,0.7338995933532715,-0.9531046152114868
1783153459298277600,10.898277587890625,-1.1054677963256836,-0.09083044528961182,-1.371065616607666
1783153459307989800,10.90798974609375,-3.5716490745544434,-0.9907727241516113,-1.4118518829345703
1783153459317702000,10.917701904296875,-5.538330554962158,-1.775017499923706,-1.326489806175232
1783153459327414000,10.9274140625,-7.197932720184326,-2.5185351371765137,-1.1641950607299805
1783153459337126100,10.937126220703124,-8.538897514343262,-3.135202407836914,-0.9859153032302856
1783153459346838300,10.94683837890625,-9.484212875366211,-3.6103129386901855,-0.7050046920776367
1783153459356550400,10.95655029296875,-10.495091438293457,-4.155292987823486,-0.953075647354126
1783153459366262500,10.966262451171875,-11.626043319702148,-4.486532211303711,-1.4057074785232544
1783153459375974700,10.975974609375,-12.700139999389648,-4.608304500579834,-2.011539936065674
1783153459385686800,10.985686767578125,-13.84804916381836,-4.3803277015686035,-2.501748561859131
1783153459395399000,10.99539892578125,-14.768173217773438,-3.8656861782073975,-2.7902369499206543
1783153459405111000,11.005111083984374,-15.507678985595703,-3.399120330810547,-2.7599198818206787
1783153459414823200,11.0148232421875,-15.511247634887695,-2.947655200958252,-2.1349804401397705
1783153459424535000,11.02453515625,-14.800966262817383,-2.560241937637329,-1.17638099193573
1783153459434247200,11.0342470703125,-13.652198791503906,-2.2375004291534424,-0.3099024295806885
1783153459443959300,11.043959228515625,-11.86782455444336,-1.910569429397583,0.394542932510376
1783153459453671400,11.05367138671875,-8.866825103759766,-1.718998670578003,1.2099413871765137
1783153459463383600,11.063383544921875,-5.450989723205566,-1.6755082607269287,1.8627982139587402
1783153459473095700,11.073095703125,-2.380199432373047,-1.6712870597839355,2.201807975769043
1783153459482807800,11.082807861328124,0.13436317443847656,-1.5527111291885376,1.8084561824798584
1783153459492520000,11.09252001953125,1.7179012298583984,-1.5113719701766968,1.1655876636505127
1783153459502232000,11.102232177734376,2.193145751953125,-1.1821098327636719,0.4104797840118408
1783153459511944200,11.111944091796875,2.1195268630981445,-0.21012938022613525,-0.2149590253829956
1783153459521656300,11.12165625,1.8968334197998047,0.8305160999298096,-0.40696680545806885
1783153459531368200,11.1313681640625,3.0210657119750977,1.4944727420806885,0.18586039543151855
1783153459541080300,11.141080322265625,5.607353210449219,2.2652292251586914,1.9317388534545898
1783153459550792400,11.15079248046875,8.374987602233887,3.332583427429199,5.222497940063477
1783153459560504600,11.160504638671876,12.071346282958984,3.985325813293457,9.212167739868164
1783153459570216700,11.170216796875,12.001708030700684,4.044650077819824,9.306753158569336
1783153459579928800,11.1799287109375,17.012557983398438,2.8340654373168945,11.364301681518555
1783153459589641000,11.189640869140625,16.91176986694336,1.9385679960250854,8.36115550994873
1783153459599353000,11.19935302734375,16.856616973876953,1.0435689687728882,5.234853744506836
1783153459609065200,11.209065185546875,17.636852264404297,-0.0011475086212158203,2.925278425216675
1783153459618777300,11.21877734375,17.43897247314453,-0.5830767750740051,1.383952260017395
1783153459628489500,11.228489501953124,14.697070121765137,-0.12291574478149414,0.7112475633621216
1783153459638201600,11.23820166015625,10.143865585327148,0.9466134309768677,1.2015533447265625
1783153459647913700,11.247913818359375,5.700971603393555,2.1766738891601562,2.231940746307373
1783153459657625600,11.25762548828125,2.2739524841308594,2.9568142890930176,3.474623203277588
1783153459667337700,11.267337646484375,0.09280776977539062,2.90205717086792,4.259112358093262
1783153459677049900,11.2770498046875,-1.046051025390625,2.4793145656585693,4.528608322143555
1783153459686762000,11.286761962890624,-2.3386526107788086,1.8268637657165527,4.388050079345703
1783153459696474000,11.29647412109375,-3.027520179748535,0.5097305774688721,3.5607173442840576
1783153459706186200,11.306186279296876,-2.7804946899414062,-0.7032808065414429,2.727180004119873
1783153459715898400,11.3158984375,-1.4124813079833984,-1.936952829360962,1.4255419969558716
1783153459725610500,11.325610595703125,-0.025083541870117188,-2.97806978225708,0.07288908958435059
1783153459735322600,11.335322509765625,0.1620807647705078,-3.853999376296997,-0.9900798201560974
1783153459745034800,11.34503466796875,-0.7058820724487305,-4.282802104949951,-1.8117517232894897
1783153459754747000,11.354746826171874,-2.960341453552246,-4.546422481536865,-2.5585503578186035
1783153459764459000,11.364458984375,-5.9225287437438965,-4.544559478759766,-2.8293817043304443
1783153459774171100,11.374171142578126,-8.119340896606445,-4.290443420410156,-2.991834878921509
1783153459783883000,11.383883056640625,-9.771559715270996,-3.8581838607788086,-2.8200182914733887
1783153459793595100,11.39359521484375,-9.739472389221191,-3.8513259887695312,-2.8645968437194824
1783153459803307300,11.403307373046875,-10.148072242736816,-2.8528125286102295,-1.9360886812210083
1783153459813019400,11.413019287109375,-9.541655540466309,-2.4878451824188232,-1.5252258777618408
1783153459822731500,11.4227314453125,-8.421049118041992,-2.1012966632843018,-0.9842920899391174
1783153459832443600,11.432443603515624,-7.065420150756836,-1.749111533164978,-0.9134176969528198
1783153459842155800,11.44215576171875,-6.455834865570068,-1.5801132917404175,-1.3500155210494995
1783153459851868000,11.451867919921876,-6.552424907684326,-1.4907729625701904,-1.8988173007965088
1783153459861580000,11.461580078125,-7.081720352172852,-1.196108341217041,-2.126251220703125
1783153459871292200,11.471292236328125,-8.364018440246582,-0.9141501188278198,-1.740754246711731
1783153459881004000,11.481004150390625,-9.529494285583496,-0.33365464210510254,-1.0098549127578735
1783153459890716200,11.490716064453125,-9.020129203796387,0.12043929100036621,-0.6421273946762085
1783153459900428300,11.50042822265625,-6.823940277099609,-0.5242228507995605,-1.9126129150390625
1783153459910140400,11.510140380859376,-5.882437705993652,-0.6132394075393677,-0.5176339149475098
1783153459919852500,11.5198525390625,-4.623986721038818,-0.12908029556274414,-0.4618971347808838
1783153459929564700,11.529564697265625,-3.3245091438293457,-0.44997167587280273,-0.5787026882171631
1783153459939276800,11.53927685546875,-2.006516933441162,-0.7703299522399902,-1.216529369354248
1783153459948989000,11.548989013671875,-1.5605335235595703,-0.6138157844543457,-2.063236713409424
1783153459958701000,11.558701171875,-2.2766456604003906,-0.3882753849029541,-2.681093692779541
1783153459968413200,11.5684130859375,-2.307534694671631,-0.048352956771850586,-2.949735641479492
1783153459978125300,11.578125244140624,-1.3285675048828125,0.4967355728149414,-3.0445845127105713
1783153459987837400,11.58783740234375,-0.38112735748291016,1.0445845127105713,-2.3394908905029297
1783153459997549600,11.597549560546875,0.33377933502197266,2.173462152481079,-1.6877446174621582
1783153460007261400,11.607261474609375,0.18184947967529297,3.0862581729888916,-0.6287633776664734
1783153460016973600,11.6169736328125,1.110025405883789,3.0532948970794678,0.8724374771118164
1783153460026685700,11.626685791015625,3.484034538269043,2.7078332901000977,1.6885933876037598
1783153460036397800,11.636397705078124,5.2845869064331055,2.5301284790039062,1.996294379234314
1783153460046110000,11.64610986328125,7.655695915222168,1.9944514036178589,1.9110171794891357
1783153460055822000,11.655822021484376,5.690300941467285,2.562558174133301,-1.0108346939086914
1783153460065534200,11.6655341796875,7.985577583312988,0.5801740884780884,0.8102133274078369
1783153460075246300,11.675246337890625,13.490344047546387,-0.7057574987411499,2.9214541912078857
1783153460084958500,11.68495849609375,14.089330673217773,-2.0971906185150146,0.449845552444458
1783153460094670600,11.694670654296875,12.099034309387207,-2.70237135887146,2.279090642929077
1783153460104382500,11.704382568359375,12.854138374328613,-1.0730582475662231,1.2224252223968506
1783153460114094600,11.714094482421874,10.680916786193848,-0.5686032772064209,0.8363845348358154
1783153460123806700,11.723806640625,5.114197731018066,-0.5945174694061279,2.614682674407959
1783153460133518800,11.733518798828126,3.1012983322143555,-0.30757176876068115,2.5886499881744385
1783153460143231000,11.74323095703125,4.0210466384887695,0.7174040079116821,1.6171188354492188
1783153460152943000,11.752943115234375,5.579157829284668,1.2052124738693237,0.49647951126098633
1783153460162655200,11.7626552734375,4.207029342651367,-0.038316965103149414,-0.6919474601745605
1783153460172367400,11.772367431640625,5.302910804748535,-5.754581928253174,-3.3600401878356934
1783153460182079500,11.78207958984375,6.678503036499023,-5.268710136413574,-2.164573907852173
1783153460191791600,11.79179150390625,6.835369110107422,-7.2781171798706055,-1.12729811668396
1783153460201503700,11.801503662109376,4.8760271072387695,-6.439424514770508,-1.046637773513794
1783153460211216000,11.8112158203125,3.9765920639038086,-4.13588285446167,-2.633790969848633
1783153460220927700,11.820927734375,4.900304794311523,0.7345619201660156,-2.4526097774505615
1783153460230639900,11.830639892578125,1.6497611999511719,1.0451383590698242,-0.6082425117492676
1783153460240352000,11.84035205078125,-1.4503698348999023,0.5580413341522217,1.5784928798675537
1783153460250064100,11.850064208984374,-2.1750755310058594,-0.5198935270309448,1.3707587718963623
1783153460259776300,11.8597763671875,-2.3812084197998047,-0.6157864332199097,0.8974264860153198
1783153460269488400,11.86948828125,-2.670747756958008,-0.20309996604919434,0.38902121782302856
1783153460279200500,11.879200439453125,-2.3010611534118652,5.272383689880371,1.670899510383606
1783153460288912600,11.88891259765625,-2.5104589462280273,3.6306588649749756,1.159132957458496
1783153460298624800,11.898624755859375,-3.3435912132263184,1.949721097946167,0.37844669818878174
1783153460308337000,11.9083369140625,-2.4456863403320312,-0.6957564353942871,-1.2106300592422485
1783153460318048800,11.918048828125,-2.280993938446045,-1.6741474866867065,-2.0747430324554443
1783153460327761000,11.927760986328124,-1.9848055839538574,0.1259598731994629,-2.458935022354126
1783153460337473000,11.93747314453125,-3.1236252784729004,-0.26952409744262695,-1.7109920978546143
1783153460347185200,11.94718505859375,-2.7684364318847656,0.6231331825256348,-0.12175345420837402
1783153460356897300,11.956897216796875,-2.8844165802001953,-0.6018221378326416,0.08012157678604126
1783153460366609400,11.966609375,-2.161355972290039,-0.561678409576416,0.5673820972442627
1783153460376321500,11.976321533203125,-1.3677363395690918,-0.8606071472167969,0.16018730401992798
1783153460386033700,11.98603369140625,-0.5874252319335938,-0.7610559463500977,-0.4752289652824402
1783153460395745800,11.995745849609374,-1.5222420692443848,-0.031343936920166016,-0.26987940073013306
1783153460405458000,12.0054580078125,-3.0499696731567383,-0.1415266990661621,0.04499971866607666
1783153460415170000,12.015170166015626,-3.9865145683288574,-0.998039722442627,-0.15435540676116943
1783153460424882200,12.024882080078125,-3.7098608016967773,-1.317643165588379,-0.5264163017272949
1783153460434594000,12.034593994140625,-3.068047523498535,-0.9394028186798096,-0.6238878965377808
1783153460444306200,12.04430615234375,-3.0679712295532227,-0.9096529483795166,-0.5628756880760193
1783153460454018300,12.054018310546875,-1.459212303161621,-1.038135051727295,-0.18212050199508667
1783153460463730400,12.06373046875,-0.4907665252685547,-1.2772290706634521,0.040265440940856934
1783153460473442600,12.073442626953126,0.7311820983886719,-1.3674345016479492,-0.31836044788360596
1783153460483154700,12.08315478515625,0.9517297744750977,-1.1022958755493164,-0.40282899141311646
