time,seconds_elapsed,z,y,x
1783169120049182500,0.100182373046875,-0.986541748046875,-0.0337066650390625,0.005523681640625
1783169120059130400,0.11013037109375,-0.986480712890625,-0.0331268310546875,0.0059051513671875
1783169120069079300,0.120079345703125,-0.98681640625,-0.0338134765625,0.0075225830078125
1783169120079058400,0.130058349609375,-0.986602783203125,-0.0329132080078125,0.0099334716796875
1783169120089007400,0.14000732421875,-0.9863433837890625,-0.033050537109375,0.0117340087890625
1783169120098956300,0.149956298828125,-0.986541748046875,-0.03375244140625,0.012298583984375
1783169120108935400,0.159935302734375,-0.9861602783203125,-0.0327301025390625,0.0111083984375
1783169120118884400,0.16988427734375,-0.9858551025390625,-0.03271484375,0.0101470947265625
1783169120128833300,0.179833251953125,-0.9866790771484375,-0.03253173828125,0.00836181640625
1783169120138781200,0.18978125,-0.9868927001953125,-0.0323333740234375,0.007171630859375
1783169120148761300,0.19976123046875,-0.9880828857421875,-0.033447265625,0.00726318359375
1783169120158709200,0.209709228515625,-0.9876251220703125,-0.034088134765625,0.007476806640625
1783169120168658200,0.219658203125,-0.986114501953125,-0.0341644287109375,0.0079345703125
1783169120178607000,0.229607177734375,-0.9871826171875,-0.0330047607421875,0.0098114013671875
1783169120188586200,0.239586181640625,-0.9875030517578125,-0.032562255859375,0.0111541748046875
1783169120198535400,0.249535400390625,-0.986907958984375,-0.031829833984375,0.0109405517578125
1783169120208483300,0.2594833984375,-0.9872283935546875,-0.0321502685546875,0.0113067626953125
1783169120218432500,0.2694326171875,-0.9863433837890625,-0.0319061279296875,0.0105133056640625
1783169120228411400,0.279411376953125,-0.9864959716796875,-0.0310516357421875,0.0087432861328125
1783169120238360300,0.2893603515625,-0.9868316650390625,-0.03216552734375,0.00762939453125
1783169120248309200,0.299309326171875,-0.98626708984375,-0.033966064453125,0.0073699951171875
1783169120258288400,0.309288330078125,-0.9858856201171875,-0.0337677001953125,0.0066986083984375
1783169120268237300,0.3192373046875,-0.9864501953125,-0.033203125,0.0084075927734375
1783169120278186200,0.329186279296875,-0.986541748046875,-0.032501220703125,0.00958251953125
1783169120288134400,0.339134521484375,-0.9864501953125,-0.032012939453125,0.0101165771484375
1783169120298114300,0.3491142578125,-0.98583984375,-0.0313262939453125,0.010772705078125
1783169120308062200,0.359062255859375,-0.9865570068359375,-0.03076171875,0.0103607177734375
1783169120318011400,0.369011474609375,-0.98699951171875,-0.0314483642578125,0.009918212890625
1783169120327960300,0.378960205078125,-0.9865570068359375,-0.033416748046875,0.0088043212890625
1783169120337939200,0.388939208984375,-0.985809326171875,-0.033905029296875,0.0086669921875
1783169120347888000,0.39888818359375,-0.986175537109375,-0.03411865234375,0.00830078125
1783169120357836300,0.408836181640625,-0.9864044189453125,-0.0329742431640625,0.0081634521484375
1783169120367785200,0.41878515625,-0.98651123046875,-0.0323638916015625,0.0092926025390625
1783169120377764400,0.428764404296875,-0.9857177734375,-0.031982421875,0.0095977783203125
1783169120387713500,0.438713623046875,-0.9867095947265625,-0.03271484375,0.010284423828125
1783169120397662500,0.448662353515625,-0.986541748046875,-0.0320587158203125,0.010650634765625
1783169120407611400,0.458611328125,-0.98626708984375,-0.032867431640625,0.009796142578125
1783169120417590300,0.46859033203125,-0.9868011474609375,-0.033966064453125,0.0096435546875
1783169120427539500,0.47853955078125,-0.98724365234375,-0.033355712890625,0.009124755859375
1783169120437487400,0.4884873046875,-0.9864959716796875,-0.03302001953125,0.008087158203125
1783169120447467300,0.49846728515625,-0.98638916015625,-0.03240966796875,0.00848388671875
1783169120457415400,0.50841552734375,-0.98638916015625,-0.0323028564453125,0.0074462890625
1783169120467364400,0.5183642578125,-0.9859619140625,-0.0326385498046875,0.00921630859375
1783169120477313300,0.528313232421875,-0.9865264892578125,-0.033355712890625,0.009521484375
1783169120487292400,0.53829248046875,-0.9865570068359375,-0.03179931640625,0.010040283203125
1783169120497241300,0.548241455078125,-0.98553466796875,-0.0322418212890625,0.0098114013671875
1783169120507189200,0.558189208984375,-0.98699951171875,-0.0329437255859375,0.0101318359375
1783169120517138200,0.56813818359375,-0.9866485595703125,-0.0321807861328125,0.0106048583984375
1783169120527117300,0.578117431640625,-0.986053466796875,-0.032196044921875,0.0088043212890625
1783169120537066200,0.588066162109375,-0.98736572265625,-0.0325775146484375,0.0088958740234375
1783169120547015400,0.598015380859375,-0.9864349365234375,-0.0333251953125,0.0098724365234375
1783169120556964400,0.60796435546875,-0.986328125,-0.0334320068359375,0.0093841552734375
1783169120566943500,0.617943603515625,-0.986236572265625,-0.03326416015625,0.0105743408203125
1783169120576892400,0.627892333984375,-0.98583984375,-0.0324859619140625,0.01043701171875
1783169120586840300,0.63784033203125,-0.985809326171875,-0.0326080322265625,0.0105743408203125
1783169120596820500,0.647820556640625,-0.98626708984375,-0.032623291015625,0.0102081298828125
1783169120606768400,0.657768310546875,-0.9864959716796875,-0.032257080078125,0.009307861328125
1783169120616717300,0.66771728515625,-0.986602783203125,-0.0316314697265625,0.009063720703125
1783169120626666200,0.677666259765625,-0.98681640625,-0.0323944091796875,0.0089874267578125
1783169120636645400,0.687645263671875,-0.98638916015625,-0.033172607421875,0.0086517333984375
1783169120646594300,0.69759423828125,-0.9855804443359375,-0.0331878662109375,0.009521484375
1783169120656542200,0.707542236328125,-0.98638916015625,-0.033416748046875,0.008880615234375
1783169120666491400,0.717491455078125,-0.986328125,-0.0330963134765625,0.0100250244140625
1783169120676470300,0.72747021484375,-0.9852447509765625,-0.0325164794921875,0.0102081298828125
1783169120686419200,0.737419189453125,-0.986083984375,-0.0328216552734375,0.0093994140625
1783169120696368000,0.7473681640625,-0.9863433837890625,-0.0318145751953125,0.009307861328125
1783169120706317300,0.7573173828125,-0.986236572265625,-0.03277587890625,0.0090789794921875
1783169120716296400,0.76729638671875,-0.9861602783203125,-0.0323028564453125,0.009246826171875
1783169120726245400,0.777245361328125,-0.9859771728515625,-0.0319366455078125,0.0102691650390625
1783169120736193500,0.787193603515625,-0.9866943359375,-0.0329742431640625,0.0098724365234375
1783169120746173400,0.79717333984375,-0.986175537109375,-0.033416748046875,0.0096588134765625
1783169120756121300,0.807121337890625,-0.9864959716796875,-0.03253173828125,0.00927734375
1783169120766070300,0.8170703125,-0.9853363037109375,-0.0313873291015625,0.009735107421875
1783169120776019500,0.82701953125,-0.9872283935546875,-0.032470703125,0.0093994140625
1783169120785998300,0.836998291015625,-0.9870147705078125,-0.0328369140625,0.009613037109375
1783169120795947300,0.846947265625,-0.98687744140625,-0.0329437255859375,0.0102081298828125
1783169120805896200,0.856896240234375,-0.985931396484375,-0.03228759765625,0.0105743408203125
1783169120815844400,0.86684423828125,-0.986724853515625,-0.033172607421875,0.0091552734375
1783169120825823200,0.8768232421875,-0.9860687255859375,-0.0333404541015625,0.00872802734375
1783169120835772200,0.886772216796875,-0.985687255859375,-0.0330047607421875,0.0093841552734375
1783169120845721300,0.896721435546875,-0.987274169921875,-0.0332183837890625,0.0099029541015625
1783169120855670500,0.90667041015625,-0.9864959716796875,-0.0328826904296875,0.009307861328125
1783169120865649200,0.916649169921875,-0.9857177734375,-0.0323638916015625,0.010772705078125
1783169120875599400,0.926599365234375,-0.987152099609375,-0.03240966796875,0.0097503662109375
1783169120885547500,0.936547607421875,-0.9867706298828125,-0.03338623046875,0.009368896484375
1783169120895527700,0.946527587890625,-0.985809326171875,-0.0326080322265625,0.0096282958984375
1783169120905475600,0.9564755859375,-0.985198974609375,-0.0327911376953125,0.009552001953125
1783169120915424500,0.966424560546875,-0.9851226806640625,-0.033294677734375,0.00946044921875
1783169120925373400,0.97637353515625,-0.9866790771484375,-0.0331878662109375,0.0085296630859375
1783169120935352600,0.9863525390625,-0.9870147705078125,-0.032135009765625,0.0084686279296875
1783169120945301500,0.996301513671875,-0.98602294921875,-0.032196044921875,0.0093536376953125
1783169120955250400,1.00625048828125,-0.9857635498046875,-0.033050537109375,0.0101318359375
1783169120965198600,1.016198486328125,-0.985321044921875,-0.0318145751953125,0.009613037109375
1783169120975178500,1.026178466796875,-0.9861602783203125,-0.0320892333984375,0.00946044921875
1783169120985126400,1.03612646484375,-0.9865264892578125,-0.0332489013671875,0.0086669921875
1783169120995075600,1.04607568359375,-0.9855804443359375,-0.0328216552734375,0.0091094970703125
1783169121005024500,1.0560244140625,-0.9861297607421875,-0.033294677734375,0.0088043212890625
1783169121015003400,1.06600341796875,-0.9864959716796875,-0.0333251953125,0.0081787109375
1783169121024952300,1.075952392578125,-0.985931396484375,-0.0331878662109375,0.00830078125
1783169121034900500,1.085900390625,-0.9866485595703125,-0.03314208984375,0.0081939697265625
1783169121044880400,1.09588037109375,-0.9859466552734375,-0.032562255859375,0.009429931640625
1783169121054828300,1.105828369140625,-0.9864501953125,-0.0329437255859375,0.0102081298828125
1783169121064777700,1.11577783203125,-0.9870758056640625,-0.0329437255859375,0.0094451904296875
1783169121074726700,1.1257265625,-0.986785888671875,-0.032623291015625,0.00946044921875
1783169121084705500,1.13570556640625,-0.9864959716796875,-0.0320587158203125,0.009735107421875
1783169121094654500,1.145654541015625,-0.986572265625,-0.0322418212890625,0.00909423828125
1783169121104603600,1.155603759765625,-0.9862518310546875,-0.032806396484375,0.0096435546875
1783169121114551600,1.165551513671875,-0.986419677734375,-0.032684326171875,0.0084381103515625
1783169121124531500,1.175531494140625,-0.986419677734375,-0.0317535400390625,0.00823974609375
1783169121134479600,1.185479736328125,-0.9862213134765625,-0.0330047607421875,0.0088958740234375
1783169121144428500,1.195428466796875,-0.98626708984375,-0.0329437255859375,0.0099334716796875
1783169121154377500,1.20537744140625,-0.98602294921875,-0.0323638916015625,0.0089263916015625
1783169121164356400,1.2153564453125,-0.9859161376953125,-0.032501220703125,0.009918212890625
1783169121174305500,1.225305419921875,-0.98651123046875,-0.03271484375,0.010223388671875
1783169121184253400,1.23525341796875,-0.98712158203125,-0.0333099365234375,0.009735107421875
1783169121194233300,1.2452333984375,-0.98583984375,-0.0323028564453125,0.008880615234375
1783169121204181500,1.255181396484375,-0.986083984375,-0.0341796875,0.0094451904296875
1783169121214130400,1.26513037109375,-0.9871063232421875,-0.03350830078125,0.0096588134765625
1783169121224079600,1.27507958984375,-0.985748291015625,-0.0323028564453125,0.0088958740234375
1783169121234058500,1.28505859375,-0.986419677734375,-0.032928466796875,0.0089263916015625
1783169121244007700,1.295007568359375,-0.9865264892578125,-0.03289794921875,0.00921630859375
1783169121253956600,1.30495654296875,-0.986358642578125,-0.0320587158203125,0.0095977783203125
1783169121263904500,1.314904541015625,-0.9859771728515625,-0.032196044921875,0.01007080078125
1783169121273884400,1.324884521484375,-0.986724853515625,-0.0325469970703125,0.0104217529296875
1783169121283832600,1.33483251953125,-0.9859619140625,-0.032867431640625,0.01055908203125
1783169121293781500,1.344781494140625,-0.9862518310546875,-0.033447265625,0.0095977783203125
1783169121303730400,1.35473046875,-0.9863128662109375,-0.033660888671875,0.009765625
1783169121313709600,1.36470947265625,-0.9859161376953125,-0.032928466796875,0.00872802734375
1783169121323658500,1.374658447265625,-0.986053466796875,-0.032440185546875,0.0082550048828125
1783169121333606400,1.3846064453125,-0.9864349365234375,-0.032196044921875,0.0090179443359375
1783169121343586600,1.394586669921875,-0.985870361328125,-0.0321044921875,0.0098419189453125
1783169121353534500,1.404534423828125,-0.98614501953125,-0.03240966796875,0.009521484375
1783169121363483400,1.4144833984375,-0.9862060546875,-0.03228759765625,0.0098876953125
1783169121373432300,1.424432373046875,-0.986358642578125,-0.03216552734375,0.0089874267578125
1783169121383411500,1.434411376953125,-0.98699951171875,-0.0328826904296875,0.0087127685546875
1783169121393360600,1.444360595703125,-0.9859771728515625,-0.0334625244140625,0.0102691650390625
1783169121403309600,1.4543095703125,-0.9858856201171875,-0.0326385498046875,0.009918212890625
1783169121413257500,1.464257568359375,-0.9864349365234375,-0.0323944091796875,0.00872802734375
1783169121423237600,1.474237548828125,-0.98651123046875,-0.032684326171875,0.008331298828125
1783169121433185500,1.484185546875,-0.987060546875,-0.0319061279296875,0.0097808837890625
1783169121443134500,1.494134521484375,-0.9864044189453125,-0.0335693359375,0.0091094970703125
1783169121453083400,1.50408349609375,-0.986114501953125,-0.03338623046875,0.009307861328125
1783169121463062500,1.5140625,-0.987213134765625,-0.033233642578125,0.0095367431640625
1783169121473011500,1.524011474609375,-0.9871368408203125,-0.03277587890625,0.0084381103515625
1783169121482960400,1.53396044921875,-0.9868621826171875,-0.0314788818359375,0.0089263916015625
1783169121492939500,1.543939453125,-0.98590087890625,-0.0323486328125,0.0094451904296875
1783169121502887400,1.553887451171875,-0.9864044189453125,-0.032623291015625,0.010040283203125
1783169121512836400,1.56383642578125,-0.986602783203125,-0.03265380859375,0.0107421875
1783169121522785500,1.57378564453125,-0.986907958984375,-0.0335235595703125,0.009796142578125
1783169121532764400,1.583764404296875,-0.986724853515625,-0.0323486328125,0.0098876953125
1783169121542713300,1.59371337890625,-0.9865264892578125,-0.0328216552734375,0.0096588134765625
1783169121552662500,1.60366259765625,-0.9863128662109375,-0.0323333740234375,0.0084075927734375
1783169121562610400,1.6136103515625,-0.98626708984375,-0.032318115234375,0.0086212158203125
1783169121572590600,1.623590576171875,-0.98699951171875,-0.03326416015625,0.0095977783203125
1783169121582538500,1.63353857421875,-0.9859619140625,-0.0333251953125,0.0094146728515625
1783169121592487700,1.64348779296875,-0.98651123046875,-0.0327301025390625,0.0097808837890625
1783169121602436600,1.6534365234375,-0.9867095947265625,-0.032073974609375,0.010040283203125
1783169121612415500,1.66341552734375,-0.9861907958984375,-0.0328216552734375,0.0093994140625
1783169121622364400,1.673364501953125,-0.98602294921875,-0.032989501953125,0.0098876953125
1783169121632313600,1.683313720703125,-0.9870452880859375,-0.03289794921875,0.0096893310546875
1783169121642261500,1.693261474609375,-0.9873809814453125,-0.03265380859375,0.010284423828125
1783169121652241400,1.703241455078125,-0.986724853515625,-0.03326416015625,0.0093536376953125
1783169121662189600,1.713189453125,-0.9866180419921875,-0.0329742431640625,0.00970458984375
1783169121672138500,1.723138427734375,-0.9869384765625,-0.033111572265625,0.0096588134765625
1783169121682117400,1.733117431640625,-0.986907958984375,-0.032745361328125,0.0096893310546875
1783169121692066300,1.74306640625,-0.986297607421875,-0.0335540771484375,0.009765625
1783169121702015500,1.753015380859375,-0.9865875244140625,-0.0327911376953125,0.0092315673828125
1783169121711963400,1.76296337890625,-0.9878692626953125,-0.03363037109375,0.009735107421875
1783169121721943600,1.772943603515625,-0.98760986328125,-0.033538818359375,0.00994873046875
1783169121731891500,1.782891357421875,-0.9869232177734375,-0.03167724609375,0.0098724365234375
1783169121741840600,1.792840576171875,-0.987091064453125,-0.031524658203125,0.00946044921875
1783169121751789600,1.80278955078125,-0.986572265625,-0.0323944091796875,0.0096435546875
1783169121761768700,1.812768798828125,-0.98626708984375,-0.032257080078125,0.0096282958984375
1783169121771717600,1.822717529296875,-0.9865570068359375,-0.033355712890625,0.0096893310546875
1783169121781666600,1.83266650390625,-0.985809326171875,-0.032196044921875,0.0086517333984375
1783169121791614500,1.842614501953125,-0.9866943359375,-0.0319976806640625,0.0090789794921875
1783169121801594400,1.852594482421875,-0.986968994140625,-0.0320587158203125,0.0088348388671875
1783169121811542500,1.86254248046875,-0.9864044189453125,-0.032684326171875,0.009796142578125
1783169121821491500,1.872491455078125,-0.9862213134765625,-0.0325927734375,0.0095672607421875
1783169121831470600,1.882470703125,-0.9871368408203125,-0.0331268310546875,0.0097808837890625
1783169121841419500,1.89241943359375,-0.986846923828125,-0.0328826904296875,0.010009765625
1783169121851368400,1.902368408203125,-0.9866943359375,-0.0324554443359375,0.00958251953125
1783169121861316400,1.91231640625,-0.9859619140625,-0.0328216552734375,0.009674072265625
1783169121871296500,1.922296630859375,-0.9868316650390625,-0.0334014892578125,0.009552001953125
1783169121881286400,1.932286376953125,-0.98748779296875,-0.0336761474609375,0.009674072265625
1783169121891235300,1.9422353515625,-0.987548828125,-0.03363037109375,0.0088958740234375
1783169121901184300,1.952184326171875,-0.9870452880859375,-0.0327301025390625,0.0088043212890625
1783169121911163400,1.962163330078125,-0.986907958984375,-0.032745361328125,0.010009765625
1783169121921112300,1.9721123046875,-0.986328125,-0.032440185546875,0.0101470947265625
1783169121931061200,1.982061279296875,-0.98614501953125,-0.0317840576171875,0.010009765625
1783169121941009400,1.992009521484375,-0.98626708984375,-0.032196044921875,0.0095672607421875
1783169121950989300,2.0019892578125,-0.987060546875,-0.032684326171875,0.00885009765625
1783169121960937200,2.011937255859375,-0.986968994140625,-0.0330047607421875,0.0089874267578125
1783169121970886100,2.02188623046875,-0.9868316650390625,-0.033538818359375,0.0096435546875
1783169121980865300,2.031865234375,-0.985931396484375,-0.032958984375,0.0090484619140625
1783169121990814500,2.041814453125,-0.987060546875,-0.0328521728515625,0.008758544921875
1783169122000763400,2.051763427734375,-0.9874420166015625,-0.0323028564453125,0.0089569091796875
1783169122010711600,2.061711669921875,-0.986785888671875,-0.032562255859375,0.009613037109375
1783169122020691500,2.07169140625,-0.987274169921875,-0.032501220703125,0.0097503662109375
1783169122030639400,2.081639404296875,-0.987396240234375,-0.03253173828125,0.009429931640625
1783169122040588300,2.09158837890625,-0.9869842529296875,-0.0325164794921875,0.010223388671875
1783169122050537500,2.101537353515625,-0.9864044189453125,-0.032012939453125,0.00946044921875
1783169122060516400,2.111516357421875,-0.986663818359375,-0.0326995849609375,0.0091552734375
1783169122070465300,2.12146533203125,-0.9866180419921875,-0.033111572265625,0.0092926025390625
1783169122080414200,2.131414306640625,-0.9872589111328125,-0.0327606201171875,0.00933837890625
1783169122090362400,2.1413623046875,-0.986968994140625,-0.032806396484375,0.0100555419921875
1783169122100342300,2.15134228515625,-0.9868011474609375,-0.03265380859375,0.010223388671875
1783169122110290200,2.161290283203125,-0.9863128662109375,-0.0319366455078125,0.0099029541015625
1783169122120239400,2.1712392578125,-0.987213134765625,-0.0325927734375,0.0087432861328125
1783169122130218200,2.18121826171875,-0.9870147705078125,-0.031890869140625,0.0093536376953125
1783169122140167200,2.191167236328125,-0.9870147705078125,-0.0325469970703125,0.00970458984375
1783169122150116400,2.201116455078125,-0.9864654541015625,-0.033447265625,0.00982666015625
1783169122160064300,2.211064208984375,-0.98663330078125,-0.0333709716796875,0.0092926025390625
1783169122170044400,2.22104443359375,-0.9866943359375,-0.0325775146484375,0.0086669921875
1783169122179992300,2.230992431640625,-0.9863739013671875,-0.0322113037109375,0.0087890625
1783169122189941500,2.24094140625,-0.9864501953125,-0.033172607421875,0.0100860595703125
1783169122199890400,2.250890380859375,-0.986541748046875,-0.0325469970703125,0.009307861328125
1783169122209869300,2.260869384765625,-0.986480712890625,-0.0324554443359375,0.0096893310546875
1783169122219818200,2.270818359375,-0.9865570068359375,-0.0326385498046875,0.009490966796875
1783169122229767400,2.280767333984375,-0.98675537109375,-0.0320587158203125,0.0091400146484375
1783169122239715300,2.29071533203125,-0.9868316650390625,-0.0326690673828125,0.00872802734375
1783169122249695200,2.3006953125,-0.98651123046875,-0.0328369140625,0.009490966796875
1783169122259643400,2.310643310546875,-0.98663330078125,-0.032257080078125,0.0101470947265625
1783169122269592300,2.32059228515625,-0.986236572265625,-0.0323028564453125,0.0097198486328125
1783169122279571200,2.3305712890625,-0.9858856201171875,-0.031768798828125,0.0090484619140625
1783169122289520400,2.340520263671875,-0.9867095947265625,-0.0325164794921875,0.0090484619140625
1783169122299469300,2.35046923828125,-0.986358642578125,-0.031982421875,0.009552001953125
1783169122309418500,2.36041845703125,-0.98687744140625,-0.032379150390625,0.0096588134765625
1783169122319397400,2.3703974609375,-0.98687744140625,-0.0319671630859375,0.009368896484375
1783169122329345300,2.38034521484375,-0.9858856201171875,-0.0329742431640625,0.0094146728515625
1783169122339294500,2.39029443359375,-0.9865264892578125,-0.0325164794921875,0.00885009765625
1783169122349243400,2.400243408203125,-0.9870147705078125,-0.0326385498046875,0.00933837890625
1783169122359222500,2.410222412109375,-0.986785888671875,-0.0327911376953125,0.0097198486328125
1783169122369171500,2.42017138671875,-0.986724853515625,-0.032623291015625,0.009796142578125
1783169122379120400,2.430120361328125,-0.98760986328125,-0.03216552734375,0.009765625
1783169122389068300,2.440068359375,-0.9880523681640625,-0.0331573486328125,0.0094451904296875
1783169122399048400,2.45004833984375,-0.9876556396484375,-0.032806396484375,0.00946044921875
1783169122408996400,2.459996337890625,-0.9872283935546875,-0.033050537109375,0.008636474609375
1783169122418945300,2.4699453125,-0.9863128662109375,-0.0332794189453125,0.0087890625
1783169122428894200,2.479894287109375,-0.9863739013671875,-0.0325775146484375,0.0089569091796875
1783169122438873300,2.489873291015625,-0.9870452880859375,-0.03192138671875,0.0087738037109375
1783169122448822300,2.499822265625,-0.987060546875,-0.03302001953125,0.009490966796875
1783169122458771200,2.509771240234375,-0.9861907958984375,-0.0332794189453125,0.0090484619140625
1783169122468750300,2.519750244140625,-0.9862518310546875,-0.0329132080078125,0.0095977783203125
1783169122478699500,2.529699462890625,-0.9870147705078125,-0.0324554443359375,0.0094757080078125
1783169122488647200,2.539647216796875,-0.9867095947265625,-0.0319061279296875,0.00982666015625
1783169122498596400,2.549596435546875,-0.9861297607421875,-0.0331878662109375,0.0093841552734375
1783169122508575500,2.559575439453125,-0.9865875244140625,-0.033050537109375,0.0091705322265625
1783169122518524400,2.5695244140625,-0.987518310546875,-0.0318756103515625,0.00958251953125
1783169122528473300,2.579473388671875,-0.987548828125,-0.0324859619140625,0.0099945068359375
1783169122538421500,2.58942138671875,-0.987640380859375,-0.032745361328125,0.0097503662109375
1783169122548401400,2.5994013671875,-0.986785888671875,-0.0328369140625,0.009521484375
1783169122558349300,2.609349365234375,-0.9871368408203125,-0.032379150390625,0.00848388671875
1783169122568298200,2.61929833984375,-0.9864959716796875,-0.032928466796875,0.0087890625
1783169122578247400,2.629247314453125,-0.987518310546875,-0.0330657958984375,0.0092315673828125
1783169122588226300,2.639226318359375,-0.9876861572265625,-0.032928466796875,0.009613037109375
1783169122598175200,2.64917529296875,-0.9873046875,-0.03277587890625,0.00921630859375
1783169122608124200,2.659124267578125,-0.98736572265625,-0.032806396484375,0.0094757080078125
1783169122618103300,2.669103271484375,-0.9868011474609375,-0.031646728515625,0.0092315673828125
1783169122628052200,2.67905224609375,-0.986480712890625,-0.0322113037109375,0.00994873046875
1783169122638000000,2.689000244140625,-0.986846923828125,-0.03271484375,0.00946044921875
1783169122647949300,2.69894921875,-0.9872589111328125,-0.0329132080078125,0.0095977783203125
1783169122657928200,2.70892822265625,-0.986724853515625,-0.03302001953125,0.0101470947265625
1783169122667877400,2.71887744140625,-0.9867095947265625,-0.0327911376953125,0.0091552734375
1783169122677826300,2.728826416015625,-0.9858856201171875,-0.0329132080078125,0.008636474609375
1783169122687774500,2.7387744140625,-0.9857635498046875,-0.03253173828125,0.0095977783203125
1783169122697754400,2.74875439453125,-0.9867706298828125,-0.0328521728515625,0.009857177734375
1783169122707702300,2.758702392578125,-0.98760986328125,-0.0333251953125,0.009552001953125
1783169122717651500,2.7686513671875,-0.9870758056640625,-0.0335235595703125,0.00885009765625
1783169122727600400,2.778600341796875,-0.9870452880859375,-0.0330657958984375,0.0093536376953125
1783169122737579300,2.788579345703125,-0.9865264892578125,-0.0330657958984375,0.0095672607421875
1783169122747528200,2.798528076171875,-0.9864501953125,-0.033294677734375,0.0097503662109375
1783169122757477400,2.808477294921875,-0.9874420166015625,-0.0330963134765625,0.0095977783203125
1783169122767456300,2.818456298828125,-0.9869232177734375,-0.03277587890625,0.010040283203125
1783169122777405200,2.8284052734375,-0.98583984375,-0.03277587890625,0.0103302001953125
1783169122787353300,2.838353271484375,-0.98577880859375,-0.032623291015625,0.0098724365234375
1783169122797302300,2.84830224609375,-0.9859161376953125,-0.03228759765625,0.0101165771484375
1783169122807281200,2.85828125,-0.9863739013671875,-0.032470703125,0.00994873046875
1783169122817230300,2.868230224609375,-0.9867401123046875,-0.0326690673828125,0.0106353759765625
1783169122827179500,2.878179443359375,-0.9861297607421875,-0.0326690673828125,0.009674072265625
1783169122837127400,2.88812744140625,-0.985870361328125,-0.032470703125,0.0089569091796875
1783169122847107300,2.898107421875,-0.9866485595703125,-0.03271484375,0.0089874267578125
1783169122857055500,2.908055419921875,-0.9871368408203125,-0.032440185546875,0.0098876953125
1783169122867004400,2.91800439453125,-0.987213134765625,-0.0321807861328125,0.0096588134765625
1783169122876954600,2.92795458984375,-0.9872589111328125,-0.03240966796875,0.00909423828125
1783169122886933500,2.93793359375,-0.98651123046875,-0.0333709716796875,0.0097808837890625
1783169122896882400,2.94788232421875,-0.986480712890625,-0.03271484375,0.00909423828125
1783169122906831600,2.95783154296875,-0.9873046875,-0.0316925048828125,0.0097198486328125
1783169122916810500,2.967810546875,-0.9871978759765625,-0.032562255859375,0.0094757080078125
1783169122926759400,2.977759521484375,-0.9871826171875,-0.0321197509765625,0.0099945068359375
1783169122936707600,2.98770751953125,-0.9868621826171875,-0.0321197509765625,0.0092620849609375
1783169122946656500,2.997656494140625,-0.9866485595703125,-0.0320281982421875,0.009613037109375
1783169122956635400,3.007635498046875,-0.98675537109375,-0.032562255859375,0.009307861328125
1783169122966584300,3.017584228515625,-0.9867706298828125,-0.0326385498046875,0.0092926025390625
1783169122976533500,3.027533447265625,-0.9872589111328125,-0.0333099365234375,0.0098876953125
1783169122986482400,3.037482421875,-0.987701416015625,-0.033203125,0.0099945068359375
1783169122996461300,3.04746142578125,-0.9859466552734375,-0.0319366455078125,0.009613037109375
1783169123006409500,3.057409423828125,-0.987213134765625,-0.032470703125,0.009185791015625
1783169123016358400,3.0673583984375,-0.987152099609375,-0.0324859619140625,0.01007080078125
1783169123026307300,3.077307373046875,-0.9881134033203125,-0.0327911376953125,0.0086669921875
1783169123036286500,3.087286376953125,-0.9869537353515625,-0.0321197509765625,0.0095672607421875
1783169123046235600,3.097235595703125,-0.9862823486328125,-0.0324554443359375,0.0099029541015625
1783169123056184600,3.1071845703125,-0.98663330078125,-0.0315399169921875,0.0099945068359375
1783169123066132500,3.117132568359375,-0.987091064453125,-0.0325775146484375,0.0095062255859375
1783169123076112400,3.1271123046875,-0.986846923828125,-0.0330352783203125,0.0097808837890625
1783169123086060500,3.137060546875,-0.98583984375,-0.03204345703125,0.0098419189453125
1783169123096009500,3.147009521484375,-0.9855194091796875,-0.03253173828125,0.0098876953125
1783169123105988600,3.156988525390625,-0.9865264892578125,-0.0325775146484375,0.01007080078125
1783169123115937500,3.1669375,-0.9868011474609375,-0.0323944091796875,0.009674072265625
1783169123125886500,3.176886474609375,-0.9870758056640625,-0.03253173828125,0.00885009765625
1783169123135835400,3.18683544921875,-0.9871673583984375,-0.031768798828125,0.00927734375
1783169123145814500,3.196814453125,-0.9868011474609375,-0.0333709716796875,0.0086212158203125
1783169123155763500,3.206763427734375,-0.9864654541015625,-0.0333404541015625,0.00897216796875
1783169123165711400,3.21671142578125,-0.9866943359375,-0.0326690673828125,0.0094146728515625
1783169123175660300,3.226660400390625,-0.9858245849609375,-0.032501220703125,0.010284423828125
1783169123185639400,3.236639404296875,-0.9858551025390625,-0.0327911376953125,0.0091552734375
1783169123195588400,3.24658837890625,-0.986419677734375,-0.0327911376953125,0.009429931640625
1783169123205537500,3.25653759765625,-0.9860076904296875,-0.032684326171875,0.009246826171875
1783169123215485700,3.266485595703125,-0.98626708984375,-0.0330047607421875,0.0090789794921875
1783169123225465600,3.276465576171875,-0.9863739013671875,-0.03314208984375,0.0095367431640625
1783169123235413500,3.28641357421875,-0.98577880859375,-0.032958984375,0.0096893310546875
1783169123245362400,3.296362548828125,-0.987884521484375,-0.0326080322265625,0.00933837890625
1783169123255341600,3.306341552734375,-0.987060546875,-0.032318115234375,0.009552001953125
1783169123265290500,3.31629052734375,-0.987152099609375,-0.032196044921875,0.009552001953125
1783169123275239400,3.326239501953125,-0.9872589111328125,-0.0323944091796875,0.0086822509765625
1783169123285188400,3.336188232421875,-0.9862060546875,-0.032928466796875,0.0093994140625
1783169123295167500,3.34616748046875,-0.9868316650390625,-0.0325775146484375,0.0096893310546875
1783169123305116400,3.356116455078125,-0.9869232177734375,-0.032257080078125,0.0103759765625
1783169123315064300,3.366064208984375,-0.98687744140625,-0.031890869140625,0.0098419189453125
1783169123325013500,3.376013427734375,-0.9866943359375,-0.0321044921875,0.0092620849609375
1783169123334992400,3.385992431640625,-0.98602294921875,-0.032745361328125,0.0084991455078125
1783169123344941300,3.39594140625,-0.9876861572265625,-0.0326690673828125,0.0092010498046875
1783169123354890200,3.40589013671875,-0.987091064453125,-0.033538818359375,0.0097198486328125
1783169123364838400,3.41583837890625,-0.9865875244140625,-0.033233642578125,0.0100555419921875
1783169123374818600,3.425818603515625,-0.9859161376953125,-0.0321197509765625,0.0093841552734375
1783169123384766500,3.435766357421875,-0.98699951171875,-0.03240966796875,0.0087890625
1783169123394715600,3.445715576171875,-0.9867706298828125,-0.0324249267578125,0.0088043212890625
1783169123404694500,3.455694580078125,-0.9861602783203125,-0.0331268310546875,0.0096282958984375
1783169123414643500,3.4656435546875,-0.9870758056640625,-0.0333099365234375,0.0094451904296875
1783169123424592400,3.47559228515625,-0.987274169921875,-0.031982421875,0.008941650390625
1783169123434541600,3.48554150390625,-0.98736572265625,-0.0326995849609375,0.0088348388671875
1783169123444520400,3.4955205078125,-0.9879608154296875,-0.032318115234375,0.0097503662109375
1783169123454469400,3.505469482421875,-0.9874114990234375,-0.0321502685546875,0.0101318359375
1783169123464417500,3.51541748046875,-0.9874267578125,-0.0326385498046875,0.0098876953125
1783169123474366500,3.525366455078125,-0.9870147705078125,-0.0326995849609375,0.01019287109375
1783169123484345300,3.535345458984375,-0.9874725341796875,-0.0328369140625,0.0091705322265625
1783169123494294500,3.54529443359375,-0.98626708984375,-0.032562255859375,0.0098114013671875
1783169123504243500,3.555243408203125,-0.98638916015625,-0.032318115234375,0.0093231201171875
1783169123514191400,3.56519140625,-0.986602783203125,-0.0323486328125,0.008819580078125
1783169123524171300,3.575171142578125,-0.9868011474609375,-0.0327911376953125,0.008514404296875
1783169123534119400,3.585119384765625,-0.9871978759765625,-0.0334014892578125,0.0086822509765625
1783169123544068600,3.595068603515625,-0.9864501953125,-0.033050537109375,0.00970458984375
1783169123554047200,3.605047119140625,-0.9873199462890625,-0.0330657958984375,0.009368896484375
1783169123563996700,3.61499658203125,-0.987060546875,-0.033203125,0.008270263671875
1783169123573945600,3.624945556640625,-0.98681640625,-0.0334320068359375,0.00970458984375
1783169123583894500,3.63489453125,-0.9870452880859375,-0.03338623046875,0.0090179443359375
1783169123593873400,3.644873291015625,-0.986602783203125,-0.033050537109375,0.0086822509765625
1783169123603822600,3.654822509765625,-0.98590087890625,-0.032257080078125,0.008575439453125
1783169123613770500,3.6647705078125,-0.98699951171875,-0.032562255859375,0.010009765625
1783169123623719400,3.674719482421875,-0.9871368408203125,-0.032958984375,0.0096588134765625
1783169123633698600,3.684698486328125,-0.9864349365234375,-0.0323638916015625,0.0096282958984375
1783169123643647500,3.6946474609375,-0.98583984375,-0.033355712890625,0.009613037109375
1783169123653596400,3.704596435546875,-0.9865264892578125,-0.0323944091796875,0.00933837890625
1783169123663544300,3.71454443359375,-0.987091064453125,-0.0326690673828125,0.00909423828125
1783169123673524500,3.7245244140625,-0.9874114990234375,-0.032989501953125,0.0094451904296875
1783169123683472400,3.734472412109375,-0.986602783203125,-0.0331573486328125,0.009033203125
1783169123693421300,3.74442138671875,-0.98681640625,-0.0328521728515625,0.009002685546875
1783169123703400400,3.754400390625,-0.9868316650390625,-0.0328216552734375,0.0089569091796875
1783169123713349400,3.764349365234375,-0.9868927001953125,-0.0332489013671875,0.00982666015625
1783169123723298600,3.774298583984375,-0.98638916015625,-0.033782958984375,0.009185791015625
1783169123733247500,3.78424755859375,-0.9872894287109375,-0.03411865234375,0.009246826171875
1783169123743226600,3.7942265625,-0.987030029296875,-0.033477783203125,0.0100250244140625
1783169123753175600,3.804175537109375,-0.98712158203125,-0.032623291015625,0.009979248046875
1783169123763123500,3.81412353515625,-0.9864349365234375,-0.0325775146484375,0.0084075927734375
1783169123773072400,3.824072265625,-0.986480712890625,-0.0328369140625,0.0086517333984375
1783169123783051500,3.834051513671875,-0.9865875244140625,-0.0328369140625,0.01007080078125
1783169123793000400,3.84400048828125,-0.9861297607421875,-0.0327606201171875,0.010284423828125
1783169123802949400,3.853949462890625,-0.986297607421875,-0.032867431640625,0.0089111328125
1783169123812898300,3.863898193359375,-0.9867095947265625,-0.0326995849609375,0.0091705322265625
1783169123822877400,3.87387744140625,-0.986480712890625,-0.03326416015625,0.0100860595703125
1783169123832826400,3.883826416015625,-0.9871063232421875,-0.0326690673828125,0.0094757080078125
1783169123842774300,3.893774169921875,-0.9873199462890625,-0.0317535400390625,0.0096282958984375
1783169123852723500,3.903723388671875,-0.9864959716796875,-0.0328826904296875,0.0095977783203125
1783169123862702300,3.913702392578125,-0.9861907958984375,-0.0329132080078125,0.008758544921875
1783169123872651500,3.923651611328125,-0.9860687255859375,-0.0325927734375,0.0095367431640625
1783169123882631000,3.933630859375,-0.9867401123046875,-0.032318115234375,0.00946044921875
1783169123892609800,3.94360986328125,-0.9861602783203125,-0.0327911376953125,0.00921630859375
1783169123902558700,3.953558837890625,-0.987030029296875,-0.0333709716796875,0.009490966796875
1783169123912507000,3.9635068359375,-0.987335205078125,-0.03338623046875,0.0101470947265625
1783169123922455800,3.973455810546875,-0.986846923828125,-0.0324249267578125,0.01007080078125
1783169123932434700,3.9834345703125,-0.9868621826171875,-0.0334625244140625,0.0101470947265625
1783169123942383900,3.9933837890625,-0.9867095947265625,-0.032745361328125,0.0094451904296875
1783169123952332800,4.003332763671875,-0.9862518310546875,-0.032928466796875,0.0096282958984375
1783169123962282000,4.013281982421875,-0.9866790771484375,-0.032623291015625,0.0097503662109375
1783169123972260900,4.0232607421875,-0.9865264892578125,-0.032806396484375,0.0098114013671875
1783169123982210000,4.0332099609375,-0.9868316650390625,-0.0325775146484375,0.0097503662109375
1783169123992158000,4.043157958984375,-0.9864654541015625,-0.0323333740234375,0.008880615234375
1783169124002107000,4.05310693359375,-0.9870758056640625,-0.03271484375,0.0089111328125
1783169124012086000,4.0630859375,-0.9865570068359375,-0.0330657958984375,0.0097808837890625
1783169124022035000,4.073034912109375,-0.9871063232421875,-0.032470703125,0.0095672607421875
1783169124031983900,4.08298388671875,-0.986236572265625,-0.0330352783203125,0.008819580078125
1783169124041962800,4.092962646484375,-0.9870452880859375,-0.0329437255859375,0.00909423828125
1783169124051912000,4.102911865234375,-0.986846923828125,-0.032989501953125,0.009185791015625
1783169124061859800,4.11285986328125,-0.9868927001953125,-0.033203125,0.0090484619140625
1783169124071808800,4.122808837890625,-0.9869842529296875,-0.0327301025390625,0.009124755859375
1783169124081788000,4.132787841796875,-0.9870758056640625,-0.0327606201171875,0.00946044921875
1783169124091736800,4.14273681640625,-0.9864044189453125,-0.0324859619140625,0.0092010498046875
1783169124101685800,4.152685791015625,-0.98681640625,-0.031707763671875,0.0096893310546875
1783169124111634700,4.162634765625,-0.9865570068359375,-0.032501220703125,0.009307861328125
1783169124121613800,4.17261376953125,-0.987335205078125,-0.0330047607421875,0.00982666015625
1783169124131563000,4.18256298828125,-0.98651123046875,-0.032257080078125,0.010345458984375
1783169124141510700,4.1925107421875,-0.986907958984375,-0.03204345703125,0.009674072265625
1783169124151459800,4.2024599609375,-0.98724365234375,-0.0329742431640625,0.0094757080078125
1783169124161439000,4.21243896484375,-0.9876251220703125,-0.033050537109375,0.0099945068359375
1783169124171388000,4.222387939453125,-0.9866180419921875,-0.0326690673828125,0.00927734375
1783169124181336800,4.2323369140625,-0.98681640625,-0.0328521728515625,0.01025390625
1783169124191316000,4.24231591796875,-0.9871063232421875,-0.032745361328125,0.0086517333984375
1783169124201265000,4.252264892578125,-0.9862823486328125,-0.031585693359375,0.0092620849609375
1783169124211212800,4.262212890625,-0.987945556640625,-0.0321197509765625,0.008453369140625
1783169124221161700,4.27216162109375,-0.9873046875,-0.032501220703125,0.0099029541015625
1783169124231140900,4.282140869140625,-0.9874420166015625,-0.032318115234375,0.01007080078125
1783169124241089800,4.29208984375,-0.9872589111328125,-0.0328369140625,0.009429931640625
1783169124251038700,4.302038818359375,-0.986724853515625,-0.033111572265625,0.008697509765625
1783169124260987600,4.311987548828125,-0.9860687255859375,-0.0331268310546875,0.009735107421875
1783169124270966800,4.321966796875,-0.98712158203125,-0.032135009765625,0.0091094970703125
1783169124280915700,4.331915771484375,-0.986724853515625,-0.0318603515625,0.0089569091796875
1783169124290863900,4.34186376953125,-0.986785888671875,-0.0332183837890625,0.0090789794921875
1783169124300812800,4.351812744140625,-0.9864959716796875,-0.0333099365234375,0.0098724365234375
1783169124310791700,4.361791748046875,-0.9867706298828125,-0.0327911376953125,0.0101776123046875
1783169124320740900,4.371740966796875,-0.9870452880859375,-0.032196044921875,0.009735107421875
1783169124330689800,4.381689697265625,-0.9869232177734375,-0.0328216552734375,0.0094451904296875
1783169124340669000,4.3916689453125,-0.9865570068359375,-0.03216552734375,0.00897216796875
1783169124350617900,4.401617919921875,-0.98638916015625,-0.032623291015625,0.009613037109375
1783169124360566000,4.41156591796875,-0.98760986328125,-0.0318756103515625,0.0097198486328125
1783169124370515000,4.421514892578125,-0.986724853515625,-0.03253173828125,0.009124755859375
1783169124380493800,4.431493896484375,-0.9860076904296875,-0.03338623046875,0.0095367431640625
1783169124390442800,4.44144287109375,-0.9869232177734375,-0.032135009765625,0.00946044921875
1783169124400392000,4.451391845703125,-0.986724853515625,-0.0322418212890625,0.0095672607421875
1783169124410340900,4.4613408203125,-0.987060546875,-0.0325927734375,0.0095062255859375
1783169124420319700,4.47131982421875,-0.9871368408203125,-0.0324859619140625,0.0101165771484375
1783169124430268700,4.4812685546875,-0.9866180419921875,-0.0316619873046875,0.0100860595703125
1783169124440216800,4.491216796875,-0.9866790771484375,-0.0320281982421875,0.00958251953125
1783169124450165800,4.501165771484375,-0.987213134765625,-0.0332183837890625,0.0081329345703125
1783169124460144600,4.51114453125,-0.9871063232421875,-0.0333099365234375,0.008209228515625
1783169124470093800,4.52109375,-0.9871826171875,-0.032073974609375,0.0096588134765625
1783169124480043000,4.53104296875,-0.986724853515625,-0.03271484375,0.009307861328125
1783169124490022000,4.54102197265625,-0.985870361328125,-0.0328521728515625,0.00946044921875
1783169124499970800,4.550970703125,-0.9864501953125,-0.032867431640625,0.0098114013671875
1783169124509919000,4.5609189453125,-0.98699951171875,-0.0326385498046875,0.010101318359375
1783169124519868000,4.570867919921875,-0.9859619140625,-0.0328521728515625,0.0093536376953125
1783169124529846800,4.5808466796875,-0.985809326171875,-0.0330047607421875,0.0094757080078125
1783169124539796000,4.5907958984375,-0.986724853515625,-0.0330810546875,0.00970458984375
1783169124549745000,4.600744873046875,-0.98675537109375,-0.033172607421875,0.009613037109375
1783169124559693800,4.61069384765625,-0.9869842529296875,-0.0318450927734375,0.009063720703125
1783169124569672700,4.620672607421875,-0.98736572265625,-0.0330657958984375,0.009246826171875
1783169124579622000,4.630621826171875,-0.98638916015625,-0.0323486328125,0.0092315673828125
1783169124589569800,4.64056982421875,-0.9871673583984375,-0.0325164794921875,0.00885009765625
1783169124599518700,4.650518798828125,-0.986968994140625,-0.032470703125,0.0092315673828125
1783169124609497900,4.660497802734375,-0.9871673583984375,-0.0318145751953125,0.0094451904296875
1783169124619446800,4.67044677734375,-0.9865264892578125,-0.0323486328125,0.0098419189453125
1783169124629395700,4.680395751953125,-0.9869384765625,-0.0326995849609375,0.0099945068359375
1783169124639345000,4.690344970703125,-0.986663818359375,-0.032867431640625,0.0093536376953125
1783169124649324000,4.700323974609375,-0.986541748046875,-0.0329437255859375,0.008697509765625
1783169124659273000,4.71027294921875,-0.987335205078125,-0.03289794921875,0.0096588134765625
1783169124669220900,4.720220947265625,-0.9871673583984375,-0.0335693359375,0.009368896484375
1783169124679200000,4.730199951171875,-0.9869232177734375,-0.03302001953125,0.0091400146484375
1783169124689149000,4.74014892578125,-0.9871826171875,-0.0326995849609375,0.0095062255859375
1783169124699097900,4.750097900390625,-0.986663818359375,-0.0332489013671875,0.01019287109375
1783169124709046800,4.760046875,-0.987060546875,-0.0322265625,0.0096893310546875
1783169124719026000,4.77002587890625,-0.9876556396484375,-0.0320281982421875,0.009765625
1783169124728974800,4.779974853515625,-0.9866485595703125,-0.031890869140625,0.0096435546875
1783169124738922800,4.7899228515625,-0.985992431640625,-0.032684326171875,0.0088653564453125
1783169124748871700,4.79987158203125,-0.98663330078125,-0.0323333740234375,0.0091552734375
1783169124758850800,4.809850830078125,-0.9861602783203125,-0.032257080078125,0.00994873046875
1783169124768799700,4.8197998046875,-0.986907958984375,-0.0322418212890625,0.00982666015625
1783169124778748700,4.829748779296875,-0.986907958984375,-0.032928466796875,0.0090179443359375
1783169124788697600,4.839697509765625,-0.987213134765625,-0.0331878662109375,0.0099334716796875
1783169124798676700,4.8496767578125,-0.9864349365234375,-0.0326080322265625,0.0097503662109375
1783169124808626000,4.8596259765625,-0.9868927001953125,-0.03350830078125,0.0088653564453125
1783169124818573800,4.86957373046875,-0.9874114990234375,-0.0332794189453125,0.0085296630859375
1783169124828554000,4.879553955078125,-0.9857635498046875,-0.032562255859375,0.008514404296875
1783169124838502000,4.889501953125,-0.986419677734375,-0.0322723388671875,0.0096282958984375
1783169124848450800,4.899450927734375,-0.9870758056640625,-0.03314208984375,0.010894775390625
1783169124858399700,4.909399658203125,-0.98736572265625,-0.0326690673828125,0.0096282958984375
1783169124868379000,4.91937890625,-0.9866485595703125,-0.0326995849609375,0.0095977783203125
1783169124878355000,4.92935498046875,-0.9864501953125,-0.032196044921875,0.0089569091796875
1783169124888303000,4.93930322265625,-0.9865875244140625,-0.0328216552734375,0.009796142578125
1783169124898252000,4.949251953125,-0.986724853515625,-0.0327606201171875,0.01068115234375
1783169124908231000,4.95923095703125,-0.9864349365234375,-0.0330047607421875,0.008636474609375
1783169124918180000,4.96918017578125,-0.9866943359375,-0.032379150390625,0.0093841552734375
1783169124928129000,4.97912890625,-0.9870452880859375,-0.0326080322265625,0.010223388671875
1783169124938078000,4.989077880859375,-0.9866943359375,-0.03192138671875,0.0097808837890625
1783169124948056800,4.999056884765625,-0.9868927001953125,-0.03179931640625,0.009521484375
1783169124958006000,5.009006103515625,-0.9869232177734375,-0.03326416015625,0.009613037109375
1783169124967954000,5.018953857421875,-0.98614501953125,-0.032928466796875,0.0089111328125
1783169124977933800,5.028933837890625,-0.9863433837890625,-0.032806396484375,0.0090484619140625
1783169124987882000,5.038882080078125,-0.986419677734375,-0.0324859619140625,0.0088653564453125
1783169124997831000,5.048830810546875,-0.986724853515625,-0.0322265625,0.00897216796875
1783169125007780000,5.058780029296875,-0.9871673583984375,-0.0319366455078125,0.0101776123046875
1783169125017758700,5.0687587890625,-0.9862060546875,-0.0330963134765625,0.0090484619140625
1783169125027708200,5.078708251953125,-0.9860382080078125,-0.03192138671875,0.0098724365234375
1783169125037656000,5.088656005859375,-0.9876556396484375,-0.0326690673828125,0.00970458984375
1783169125047605000,5.09860498046875,-0.987396240234375,-0.0332794189453125,0.0095367431640625
1783169125057584000,5.108584228515625,-0.98663330078125,-0.0339813232421875,0.009979248046875
1783169125067533000,5.118532958984375,-0.9869842529296875,-0.0335235595703125,0.008880615234375
1783169125077482000,5.12848193359375,-0.9872283935546875,-0.0330352783203125,0.0088348388671875
1783169125087431000,5.138430908203125,-0.9865875244140625,-0.0329437255859375,0.0092620849609375
1783169125097410000,5.14841015625,-0.987457275390625,-0.032745361328125,0.010101318359375
1783169125107359000,5.15835888671875,-0.9874267578125,-0.0331573486328125,0.00970458984375
1783169125117307000,5.168306884765625,-0.9871368408203125,-0.032623291015625,0.0095977783203125
1783169125127286800,5.178286865234375,-0.98675537109375,-0.032379150390625,0.009521484375
1783169125137235000,5.18823486328125,-0.9859619140625,-0.03314208984375,0.0089111328125
1783169125147183900,5.198183837890625,-0.986175537109375,-0.0326080322265625,0.009674072265625
1783169125157132800,5.2081328125,-0.9862518310546875,-0.03314208984375,0.01043701171875
1783169125167112000,5.21811181640625,-0.9875030517578125,-0.03265380859375,0.008575439453125
1783169125177060900,5.228060791015625,-0.987060546875,-0.0321502685546875,0.0093994140625
1783169125187008800,5.2380087890625,-0.98638916015625,-0.0326690673828125,0.009002685546875
1783169125196958000,5.2479580078125,-0.9865264892578125,-0.0326690673828125,0.009429931640625
1783169125206937000,5.25793701171875,-0.98687744140625,-0.0328369140625,0.0093994140625
1783169125216886000,5.267885986328125,-0.9863433837890625,-0.0325469970703125,0.009490966796875
1783169125226835000,5.2778349609375,-0.9871063232421875,-0.032073974609375,0.0088653564453125
1783169125236783900,5.287783935546875,-0.9863128662109375,-0.032867431640625,0.0086212158203125
1783169125246763000,5.297762939453125,-0.98590087890625,-0.0330047607421875,0.0096893310546875
1783169125256712000,5.3077119140625,-0.9863433837890625,-0.0325927734375,0.0088348388671875
1783169125266660000,5.31766015625,-0.9859161376953125,-0.032989501953125,0.009735107421875
1783169125276609000,5.327609130859375,-0.9858245849609375,-0.032958984375,0.008880615234375
1783169125286588000,5.337587890625,-0.9874267578125,-0.0321197509765625,0.0085906982421875
1783169125296536800,5.347536865234375,-0.9871978759765625,-0.0325927734375,0.0084075927734375
1783169125306486000,5.357486083984375,-0.985626220703125,-0.0323944091796875,0.008270263671875
1783169125316465000,5.36746484375,-0.985809326171875,-0.0328826904296875,0.0091094970703125
1783169125326413800,5.377413818359375,-0.9880218505859375,-0.0322418212890625,0.00897216796875
1783169125336363000,5.387363037109375,-0.986541748046875,-0.031951904296875,0.009857177734375
1783169125346311000,5.397310791015625,-0.986663818359375,-0.0323944091796875,0.009490966796875
1783169125356289800,5.407289794921875,-0.986602783203125,-0.032470703125,0.00921630859375
1783169125366239000,5.417239013671875,-0.986480712890625,-0.0317840576171875,0.0090179443359375
1783169125376188200,5.427188232421875,-0.9865264892578125,-0.0324249267578125,0.009033203125
1783169125386137000,5.43713720703125,-0.9861602783203125,-0.0325927734375,0.0084991455078125
1783169125396116000,5.447115966796875,-0.9868011474609375,-0.03192138671875,0.0086517333984375
1783169125406065000,5.45706494140625,-0.986297607421875,-0.032867431640625,0.0098419189453125
1783169125416013000,5.467012939453125,-0.9867095947265625,-0.031829833984375,0.00994873046875
1783169125425962000,5.4769619140625,-0.9866790771484375,-0.0323944091796875,0.0100250244140625
1783169125435940900,5.48694091796875,-0.986907958984375,-0.0330047607421875,0.009307861328125
1783169125445890000,5.49689013671875,-0.986114501953125,-0.0324859619140625,0.009765625
1783169125455839000,5.5068388671875,-0.9862823486328125,-0.032501220703125,0.0094757080078125
1783169125465817900,5.51681787109375,-0.9868316650390625,-0.03302001953125,0.00970458984375
1783169125475766800,5.526766845703125,-0.9870758056640625,-0.033172607421875,0.0092010498046875
1783169125485716000,5.536716064453125,-0.98687744140625,-0.033111572265625,0.0092315673828125
1783169125495663900,5.546663818359375,-0.9861602783203125,-0.0322418212890625,0.009674072265625
1783169125505643800,5.556643798828125,-0.985809326171875,-0.0328521728515625,0.0106353759765625
1783169125515592000,5.566592041015625,-0.98712158203125,-0.032806396484375,0.009857177734375
1783169125525541000,5.576541015625,-0.98614501953125,-0.032867431640625,0.0099334716796875
1783169125535490000,5.586489990234375,-0.98541259765625,-0.0319976806640625,0.009765625
1783169125545469000,5.596468994140625,-0.9867095947265625,-0.0326080322265625,0.0099639892578125
1783169125555418000,5.606418212890625,-0.9869232177734375,-0.0328216552734375,0.00970458984375
1783169125565366000,5.616365966796875,-0.9864959716796875,-0.03265380859375,0.0091400146484375
1783169125575315000,5.62631494140625,-0.987060546875,-0.0335540771484375,0.0087738037109375
1783169125585294000,5.636294189453125,-0.9864349365234375,-0.0315704345703125,0.0092620849609375
1783169125595243000,5.646242919921875,-0.9860076904296875,-0.0322418212890625,0.00927734375
1783169125605192000,5.65619189453125,-0.9871063232421875,-0.0326385498046875,0.0094757080078125
1783169125615171000,5.666171142578125,-0.9874420166015625,-0.032257080078125,0.0096893310546875
1783169125625120000,5.6761201171875,-0.986480712890625,-0.03265380859375,0.009979248046875
1783169125635069000,5.68606884765625,-0.985321044921875,-0.0328369140625,0.0092010498046875
1783169125645016800,5.696016845703125,-0.986572265625,-0.032806396484375,0.008941650390625
1783169125654997000,5.7059970703125,-0.9865264892578125,-0.0331878662109375,0.0091552734375
1783169125664945000,5.71594482421875,-0.985992431640625,-0.0323944091796875,0.008453369140625
1783169125674893800,5.725893798828125,-0.9862518310546875,-0.0323944091796875,0.0093994140625
1783169125684843000,5.735843017578125,-0.987091064453125,-0.0316925048828125,0.0096893310546875
1783169125694822100,5.745822265625,-0.986297607421875,-0.0329742431640625,0.0108184814453125
1783169125704771000,5.75577099609375,-0.98651123046875,-0.0327301025390625,0.0101470947265625
1783169125714719000,5.765718994140625,-0.986175537109375,-0.032470703125,0.0096588134765625
1783169125724668000,5.77566796875,-0.9863128662109375,-0.032928466796875,0.010345458984375
1783169125734647000,5.78564697265625,-0.98626708984375,-0.032928466796875,0.009918212890625
1783169125744596000,5.795595947265625,-0.9864501953125,-0.0323333740234375,0.0095672607421875
1783169125754545000,5.805544921875,-0.98736572265625,-0.032958984375,0.0094451904296875
1783169125764524000,5.81552392578125,-0.9866180419921875,-0.0318756103515625,0.0088653564453125
1783169125774473000,5.825472900390625,-0.986114501953125,-0.0319976806640625,0.008697509765625
1783169125784422000,5.835421875,-0.9870147705078125,-0.0328216552734375,0.009521484375
1783169125794370000,5.8453701171875,-0.9877471923828125,-0.032440185546875,0.0097198486328125
1783169125804350000,5.855349853515625,-0.986663818359375,-0.0330963134765625,0.0097503662109375
1783169125814297900,5.8652978515625,-0.98638916015625,-0.0330657958984375,0.009857177734375
1783169125824246800,5.875246826171875,-0.986724853515625,-0.0338592529296875,0.00933837890625
1783169125834196000,5.885196044921875,-0.9865875244140625,-0.0335540771484375,0.00830078125
1783169125844174800,5.8951748046875,-0.986724853515625,-0.03289794921875,0.0099029541015625
1783169125854124000,5.9051240234375,-0.986358642578125,-0.03240966796875,0.010009765625
1783169125864072000,5.915072021484375,-0.9863739013671875,-0.0323333740234375,0.0093536376953125
1783169125874021000,5.925021240234375,-0.986572265625,-0.0323486328125,0.010162353515625
1783169125884015600,5.935015625,-0.9857025146484375,-0.0322265625,0.0095672607421875
1783169125893964500,5.944964599609375,-0.986572265625,-0.0324859619140625,0.0097503662109375
1783169125903913500,5.95491357421875,-0.9860687255859375,-0.03271484375,0.009552001953125
1783169125913892600,5.964892578125,-0.9870147705078125,-0.03289794921875,0.0086669921875
1783169125923841500,5.974841552734375,-0.9862823486328125,-0.0318145751953125,0.0093536376953125
1783169125933790500,5.98479052734375,-0.9869384765625,-0.0317535400390625,0.0099945068359375
1783169125943738400,5.99473828125,-0.9866180419921875,-0.0328521728515625,0.0104827880859375
1783169125953718500,6.004718505859375,-0.986663818359375,-0.0319671630859375,0.009552001953125
1783169125963666400,6.01466650390625,-0.9873199462890625,-0.032806396484375,0.010498046875
1783169125973615400,6.024615478515625,-0.987396240234375,-0.0325927734375,0.00982666015625
1783169125983564300,6.034564208984375,-0.98712158203125,-0.03277587890625,0.0092315673828125
1783169125993543400,6.04454345703125,-0.987060546875,-0.0323028564453125,0.0098724365234375
1783169126003492400,6.054492431640625,-0.986724853515625,-0.032073974609375,0.009857177734375
1783169126013440300,6.064440185546875,-0.9865875244140625,-0.0328216552734375,0.008453369140625
1783169126023389700,6.0743896484375,-0.98736572265625,-0.032928466796875,0.00909423828125
1783169126033368300,6.084368408203125,-0.9864959716796875,-0.0324554443359375,0.0096893310546875
1783169126043317500,6.0943173828125,-0.9873199462890625,-0.03253173828125,0.009552001953125
1783169126053266400,6.104266357421875,-0.987518310546875,-0.0322418212890625,0.0098876953125
1783169126063215600,6.114215576171875,-0.9862518310546875,-0.0328216552734375,0.0098876953125
1783169126073194500,6.124194580078125,-0.98553466796875,-0.0330963134765625,0.0092315673828125
1783169126083143400,6.134143310546875,-0.986236572265625,-0.0326080322265625,0.009674072265625
1783169126093091600,6.144091552734375,-0.986907958984375,-0.0317535400390625,0.00970458984375
1783169126103071500,6.154071533203125,-0.986541748046875,-0.032135009765625,0.0095977783203125
1783169126113019400,6.164019287109375,-0.98577880859375,-0.032623291015625,0.0089263916015625
1783169126122968300,6.17396826171875,-0.9867706298828125,-0.0321197509765625,0.0089111328125
1783169126132917500,6.18391748046875,-0.9868011474609375,-0.0326080322265625,0.0101165771484375
1783169126142896400,6.193896484375,-0.98614501953125,-0.0331573486328125,0.0094451904296875
1783169126152845300,6.20384521484375,-0.986968994140625,-0.0319061279296875,0.009124755859375
1783169126162794200,6.213794189453125,-0.9860382080078125,-0.032379150390625,0.009490966796875
1783169126172742400,6.223742431640625,-0.9868927001953125,-0.0336151123046875,0.0096893310546875
1783169126182721300,6.23372119140625,-0.9861907958984375,-0.03265380859375,0.0095672607421875
1783169126192670500,6.24367041015625,-0.98651123046875,-0.0326690673828125,0.009429931640625
1783169126202619600,6.25361962890625,-0.985870361328125,-0.032501220703125,0.008758544921875
1783169126212568600,6.263568603515625,-0.9865264892578125,-0.0322113037109375,0.0090179443359375
1783169126222547500,6.27354736328125,-0.9866180419921875,-0.0323944091796875,0.0098876953125
1783169126232496400,6.283496337890625,-0.98638916015625,-0.0325164794921875,0.0092010498046875
1783169126242444500,6.293444580078125,-0.9872894287109375,-0.0321044921875,0.0093994140625
1783169126252424400,6.303424560546875,-0.9869537353515625,-0.0332794189453125,0.0096282958984375
1783169126262372600,6.31337255859375,-0.98590087890625,-0.0325775146484375,0.00946044921875
1783169126272321500,6.323321533203125,-0.9861602783203125,-0.0326080322265625,0.0086669921875
1783169126282270500,6.3332705078125,-0.9850311279296875,-0.0324249267578125,0.0088958740234375
1783169126292249300,6.343249267578125,-0.9879150390625,-0.03131103515625,0.0118560791015625
1783169126302198500,6.353198486328125,-0.98779296875,-0.03094482421875,0.01373291015625
1783169126312147500,6.3631474609375,-0.986572265625,-0.0320281982421875,0.01031494140625
1783169126322095400,6.373095458984375,-0.9857940673828125,-0.032806396484375,0.007568359375
1783169126332075300,6.3830751953125,-0.9857635498046875,-0.0349884033203125,0.005889892578125
1783169126342023400,6.3930234375,-0.9861602783203125,-0.034820556640625,0.0052032470703125
1783169126351972400,6.402972412109375,-0.9858551025390625,-0.0342559814453125,0.0062408447265625
1783169126361921500,6.412921630859375,-0.9856719970703125,-0.03375244140625,0.01007080078125
1783169126371900700,6.422900634765625,-0.9862518310546875,-0.033050537109375,0.011474609375
1783169126381849600,6.432849609375,-0.9857940673828125,-0.03216552734375,0.011932373046875
1783169126391797500,6.442797607421875,-0.9878997802734375,-0.0327606201171875,0.0115509033203125
1783169126401777400,6.45277734375,-0.9876556396484375,-0.03192138671875,0.0101470947265625
1783169126411725600,6.4627255859375,-0.986846923828125,-0.03204345703125,0.0088653564453125
1783169126421674500,6.472674560546875,-0.987335205078125,-0.032562255859375,0.007232666015625
1783169126431623400,6.48262353515625,-0.9868316650390625,-0.031707763671875,0.00665283203125
1783169126441602600,6.4926025390625,-0.98590087890625,-0.0318145751953125,0.0092315673828125
1783169126451551500,6.502551513671875,-0.986785888671875,-0.0327911376953125,0.01007080078125
1783169126461500400,6.51250048828125,-0.9870147705078125,-0.032501220703125,0.0110321044921875
1783169126471448300,6.5224482421875,-0.9867095947265625,-0.0308837890625,0.0119476318359375
1783169126481428500,6.532428466796875,-0.9862213134765625,-0.0306854248046875,0.0124969482421875
1783169126491376400,6.54237646484375,-0.986572265625,-0.031402587890625,0.011260986328125
1783169126501325300,6.5523251953125,-0.9865875244140625,-0.031280517578125,0.0098876953125
1783169126511274500,6.5622744140625,-0.9858245849609375,-0.032379150390625,0.008758544921875
1783169126521253400,6.57225341796875,-0.9871826171875,-0.0327606201171875,0.0072784423828125
1783169126531202600,6.58220263671875,-0.9873504638671875,-0.033660888671875,0.007965087890625
1783169126541150500,6.592150390625,-0.9863433837890625,-0.0332183837890625,0.008514404296875
1783169126551130600,6.602130615234375,-0.9870452880859375,-0.0330810546875,0.0090789794921875
1783169126561078500,6.61207861328125,-0.9868621826171875,-0.0327911376953125,0.0100250244140625
1783169126571027500,6.62202734375,-0.9854278564453125,-0.0330657958984375,0.0106964111328125
1783169126580976400,6.631976318359375,-0.9853363037109375,-0.0337371826171875,0.0101318359375
1783169126590955500,6.64195556640625,-0.9875640869140625,-0.0344390869140625,0.0097198486328125
1783169126600904400,6.651904541015625,-0.9873199462890625,-0.034149169921875,0.0090789794921875
1783169126610853400,6.661853271484375,-0.987030029296875,-0.034271240234375,0.0083770751953125
1783169126620801500,6.671801513671875,-0.986602783203125,-0.0336456298828125,0.0088653564453125
1783169126630781400,6.681781494140625,-0.985931396484375,-0.0330963134765625,0.0096435546875
1783169126640729300,6.691729248046875,-0.986083984375,-0.033355712890625,0.0094451904296875
1783169126650678300,6.70167822265625,-0.986785888671875,-0.0332183837890625,0.0088653564453125
1783169126660627500,6.71162744140625,-0.986236572265625,-0.031890869140625,0.009124755859375
1783169126670606300,6.7216064453125,-0.986083984375,-0.03125,0.009002685546875
1783169126680555300,6.73155517578125,-0.9868621826171875,-0.031768798828125,0.009124755859375
1783169126690503400,6.74150341796875,-0.986083984375,-0.03228759765625,0.00970458984375
1783169126700452600,6.75145263671875,-0.9857177734375,-0.03143310546875,0.010345458984375
1783169126710431500,6.761431396484375,-0.986724853515625,-0.0323028564453125,0.0107269287109375
1783169126720380700,6.771380615234375,-0.986785888671875,-0.0323638916015625,0.010009765625
1783169126730329600,6.78132958984375,-0.9861907958984375,-0.0324249267578125,0.0097198486328125
1783169126740308500,6.79130859375,-0.9859161376953125,-0.03253173828125,0.0094451904296875
1783169126750257400,6.80125732421875,-0.98565673828125,-0.0323486328125,0.009979248046875
1783169126760206300,6.811206298828125,-0.9855804443359375,-0.0325164794921875,0.0098724365234375
1783169126770154500,6.821154541015625,-0.9869842529296875,-0.03167724609375,0.010467529296875
1783169126780134400,6.831134521484375,-0.9865570068359375,-0.03131103515625,0.0108795166015625
1783169126790082600,6.84108251953125,-0.9865264892578125,-0.031524658203125,0.010498046875
1783169126800031500,6.851031494140625,-0.9867706298828125,-0.0323333740234375,0.009063720703125
1783169126809980400,6.86098046875,-0.986297607421875,-0.0332794189453125,0.0087127685546875
1783169126819959300,6.870959228515625,-0.98681640625,-0.0333099365234375,0.0074462890625
1783169126829908500,6.880908447265625,-0.986785888671875,-0.0334930419921875,0.00634765625
1783169126839857700,6.890857666015625,-0.985931396484375,-0.03302001953125,0.0068511962890625
1783169126849805300,6.900805419921875,-0.9858551025390625,-0.0325927734375,0.008148193359375
1783169126859784400,6.910784423828125,-0.986785888671875,-0.0318145751953125,0.0094146728515625
1783169126869733600,6.920733642578125,-0.9864349365234375,-0.0321807861328125,0.0111846923828125
1783169126879686700,6.930686767578125,-0.9870452880859375,-0.031158447265625,0.011810302734375
1783169126889665500,6.94066552734375,-0.9857940673828125,-0.0316925048828125,0.0113525390625
1783169126899614700,6.95061474609375,-0.986114501953125,-0.032867431640625,0.0096588134765625
1783169126909564000,6.96056396484375,-0.9851226806640625,-0.0332794189453125,0.008056640625
1783169126919511800,6.97051171875,-0.985687255859375,-0.0326385498046875,0.00689697265625
1783169126929491700,6.98049169921875,-0.9873504638671875,-0.0332489013671875,0.0076904296875
1783169126939439900,6.99043994140625,-0.986328125,-0.0323638916015625,0.0094757080078125
1783169126949388800,7.000388916015625,-0.9858245849609375,-0.032745361328125,0.01080322265625
1783169126959337700,7.010337646484375,-0.986480712890625,-0.0327911376953125,0.01202392578125
1783169126969316600,7.020316650390625,-0.986907958984375,-0.03155517578125,0.0125885009765625
1783169126979265800,7.030265869140625,-0.986328125,-0.0330047607421875,0.01171875
1783169126989214700,7.040214599609375,-0.9866485595703125,-0.0322265625,0.00982666015625
1783169126999162600,7.05016259765625,-0.9870147705078125,-0.033203125,0.007537841796875
1783169127009142500,7.060142578125,-0.98663330078125,-0.033935546875,0.007110595703125
1783169127019090700,7.070090576171875,-0.986663818359375,-0.0329132080078125,0.00726318359375
1783169127029039600,7.08003955078125,-0.986724853515625,-0.033050537109375,0.006256103515625
1783169127039018800,7.090018798828125,-0.9861297607421875,-0.0337371826171875,0.0072021484375
1783169127048967700,7.0999677734375,-0.9870147705078125,-0.0321197509765625,0.011444091796875
1783169127058916900,7.109916748046875,-0.987274169921875,-0.0318450927734375,0.01336669921875
1783169127068864800,7.11986474609375,-0.9872894287109375,-0.0319366455078125,0.01324462890625
1783169127078844700,7.1298447265625,-0.9864654541015625,-0.0326690673828125,0.01104736328125
1783169127088792800,7.139792724609375,-0.98583984375,-0.0332794189453125,0.007110595703125
1783169127098741800,7.14974169921875,-0.9858856201171875,-0.0340728759765625,0.005096435546875
1783169127108690700,7.159690673828125,-0.986419677734375,-0.0335540771484375,0.005462646484375
1783169127118669800,7.169669921875,-0.985748291015625,-0.03326416015625,0.0069427490234375
1783169127128618800,7.17961865234375,-0.986480712890625,-0.0327606201171875,0.0092010498046875
1783169127138567700,7.189567626953125,-0.986724853515625,-0.0333251953125,0.0112762451171875
1783169127148515600,7.199515625,-0.9870452880859375,-0.03204345703125,0.0119781494140625
1783169127158495700,7.209495849609375,-0.98724365234375,-0.0324249267578125,0.0121307373046875
1783169127168443600,7.219443603515625,-0.9862060546875,-0.03326416015625,0.011749267578125
1783169127178392600,7.229392578125,-0.9854736328125,-0.0318756103515625,0.009002685546875
1783169127188371700,7.239371826171875,-0.986358642578125,-0.0320587158203125,0.008544921875
1783169127198320600,7.249320556640625,-0.9866180419921875,-0.03289794921875,0.0072174072265625
1783169127208269600,7.25926953125,-0.9869842529296875,-0.0338287353515625,0.0071563720703125
1783169127218217700,7.2692177734375,-0.987152099609375,-0.033203125,0.00970458984375
1783169127228198000,7.279197998046875,-0.98712158203125,-0.032958984375,0.0102996826171875
1783169127238145800,7.289145751953125,-0.986083984375,-0.031951904296875,0.0100555419921875
1783169127248094700,7.2990947265625,-0.986328125,-0.0330810546875,0.01031494140625
1783169127258043600,7.309043701171875,-0.986907958984375,-0.0323638916015625,0.0100555419921875
1783169127268022800,7.319022705078125,-0.9868011474609375,-0.032012939453125,0.00872802734375
1783169127277971700,7.3289716796875,-0.9864959716796875,-0.0331878662109375,0.0085601806640625
1783169127287920600,7.338920654296875,-0.98651123046875,-0.0337371826171875,0.0079345703125
1783169127297868800,7.348868896484375,-0.9864959716796875,-0.0327606201171875,0.0089569091796875
1783169127307848700,7.3588486328125,-0.9864501953125,-0.032989501953125,0.0106964111328125
1783169127317796600,7.368796630859375,-0.987457275390625,-0.0323486328125,0.0100250244140625
1783169127327745800,7.378745849609375,-0.9862518310546875,-0.03179931640625,0.009857177734375
1783169127337694700,7.38869482421875,-0.986236572265625,-0.033111572265625,0.009918212890625
1783169127347673600,7.398673583984375,-0.986846923828125,-0.0334625244140625,0.009185791015625
1783169127357622500,7.40862255859375,-0.986236572265625,-0.0329742431640625,0.00970458984375
1783169127367570700,7.41857080078125,-0.986114501953125,-0.03167724609375,0.0098724365234375
1783169127377550600,7.428550537109375,-0.9863433837890625,-0.0322723388671875,0.0099945068359375
1783169127387498500,7.43849853515625,-0.9862823486328125,-0.03265380859375,0.00933837890625
1783169127397448000,7.448447998046875,-0.9873809814453125,-0.0329132080078125,0.0094451904296875
1783169127407396900,7.45839697265625,-0.987030029296875,-0.0323944091796875,0.0092315673828125
1783169127417375700,7.468375732421875,-0.986602783203125,-0.0331268310546875,0.0084075927734375
1783169127427324700,7.47832470703125,-0.9866485595703125,-0.032623291015625,0.0084075927734375
1783169127437273900,7.48827392578125,-0.986907958984375,-0.032440185546875,0.0093231201171875
1783169127447221800,7.4982216796875,-0.9869842529296875,-0.0334625244140625,0.0102386474609375
1783169127457201700,7.50820166015625,-0.98614501953125,-0.032989501953125,0.0103759765625
1783169127467149800,7.51814990234375,-0.9865875244140625,-0.0327606201171875,0.010772705078125
1783169127477098800,7.5280986328125,-0.98663330078125,-0.0329132080078125,0.01055908203125
1783169127487047700,7.538047607421875,-0.987213134765625,-0.0329742431640625,0.0082855224609375
1783169127497026600,7.548026611328125,-0.9869232177734375,-0.0336456298828125,0.0070037841796875
1783169127506975700,7.557975830078125,-0.986724853515625,-0.0324249267578125,0.008056640625
1783169127516923600,7.567923583984375,-0.987060546875,-0.0326080322265625,0.007476806640625
1783169127526903600,7.577903564453125,-0.98651123046875,-0.03326416015625,0.0091094970703125
1783169127536851700,7.587851806640625,-0.9871063232421875,-0.031890869140625,0.0099945068359375
1783169127546800600,7.597800537109375,-0.98687744140625,-0.03131103515625,0.0109100341796875
1783169127556749800,7.607749755859375,-0.9870452880859375,-0.0315399169921875,0.011688232421875
1783169127566728700,7.617728759765625,-0.987762451171875,-0.0316009521484375,0.0112152099609375
1783169127576678000,7.627677978515625,-0.9868927001953125,-0.0325927734375,0.0099945068359375
1783169127586626800,7.637626708984375,-0.9871368408203125,-0.0326690673828125,0.008392333984375
1783169127596574700,7.64757470703125,-0.98626708984375,-0.032745361328125,0.0074920654296875
1783169127606554600,7.6575546875,-0.9867401123046875,-0.0333709716796875,0.0073089599609375
1783169127616502800,7.667502685546875,-0.98748779296875,-0.0327911376953125,0.00848388671875
1783169127626451700,7.67745166015625,-0.9865570068359375,-0.0322418212890625,0.0100250244140625
1783169127636400600,7.687400634765625,-0.986328125,-0.0323333740234375,0.010589599609375
1783169127646379800,7.6973798828125,-0.987152099609375,-0.032318115234375,0.0103302001953125
1783169127656328700,7.70732861328125,-0.9872283935546875,-0.0323486328125,0.00994873046875
1783169127666277600,7.717277587890625,-0.987396240234375,-0.032958984375,0.00982666015625
1783169127676256800,7.7272568359375,-0.987060546875,-0.0327606201171875,0.0089874267578125
1783169127686205700,7.737205810546875,-0.9864654541015625,-0.0330352783203125,0.008148193359375
1783169127696153600,7.747153564453125,-0.987060546875,-0.0334930419921875,0.008392333984375
1783169127706102500,7.7571025390625,-0.9864959716796875,-0.0334625244140625,0.008056640625
1783169127716081700,7.76708154296875,-0.986541748046875,-0.033477783203125,0.0089569091796875
1783169127726030800,7.77703076171875,-0.9858245849609375,-0.0323486328125,0.00958251953125
1783169127735979800,7.786979736328125,-0.9862060546875,-0.0330047607421875,0.0092620849609375
1783169127745928000,7.796927978515625,-0.98626708984375,-0.032196044921875,0.0102691650390625
1783169127755907800,7.806907958984375,-0.9864501953125,-0.0327301025390625,0.0110321044921875
1783169127765855700,7.816855712890625,-0.9860382080078125,-0.0317535400390625,0.0114898681640625
1783169127775804700,7.8268046875,-0.98724365234375,-0.031280517578125,0.010101318359375
1783169127785753600,7.836753662109375,-0.987152099609375,-0.032135009765625,0.00946044921875
1783169127795732700,7.846732666015625,-0.986175537109375,-0.032867431640625,0.008026123046875
1783169127805681700,7.856681640625,-0.98681640625,-0.0327606201171875,0.008087158203125
1783169127815630600,7.866630615234375,-0.9873046875,-0.033294677734375,0.009033203125
1783169127825609700,7.876609619140625,-0.9865264892578125,-0.0328216552734375,0.00909423828125
1783169127835558700,7.88655859375,-0.986297607421875,-0.03326416015625,0.0099639892578125
1783169127845506600,7.896506591796875,-0.9867401123046875,-0.0329742431640625,0.010650634765625
1783169127855455700,7.906455810546875,-0.986236572265625,-0.032318115234375,0.010009765625
1783169127865434600,7.9164345703125,-0.9862518310546875,-0.0319366455078125,0.01080322265625
1783169127875383600,7.926383544921875,-0.9861907958984375,-0.033447265625,0.0095977783203125
1783169127885376300,7.936376220703125,-0.986541748046875,-0.033050537109375,0.0084228515625
1783169127895324200,7.94632421875,-0.9868621826171875,-0.0333099365234375,0.0077667236328125
1783169127905304300,7.95630419921875,-0.9860076904296875,-0.033172607421875,0.0083160400390625
1783169127915252200,7.966252197265625,-0.986236572265625,-0.0329742431640625,0.0087738037109375
1783169127925201200,7.976201171875,-0.986846923828125,-0.0330352783203125,0.0092010498046875
1783169127935150000,7.986150146484375,-0.986907958984375,-0.0326385498046875,0.0107421875
1783169127945129200,7.996129150390625,-0.9875640869140625,-0.0322418212890625,0.010772705078125
1783169127955078100,8.006078125,-0.985626220703125,-0.0311126708984375,0.0106048583984375
1783169127965027000,8.016027099609374,-0.9862213134765625,-0.032257080078125,0.009857177734375
1783169127974975200,8.025975341796874,-0.9867401123046875,-0.0324554443359375,0.0085296630859375
1783169127984955100,8.035955078125,-0.986053466796875,-0.033172607421875,0.0089569091796875
1783169127994903000,8.045903076171875,-0.9862823486328125,-0.032989501953125,0.0087127685546875
1783169128004852000,8.05585205078125,-0.9862060546875,-0.033233642578125,0.0088348388671875
1783169128014831000,8.0658310546875,-0.985992431640625,-0.0328826904296875,0.0088958740234375
1783169128024780000,8.075780029296874,-0.9866180419921875,-0.0330352783203125,0.01007080078125
1783169128034729200,8.085729248046874,-0.987060546875,-0.032928466796875,0.0108795166015625
1783169128044677000,8.095677001953124,-0.9870758056640625,-0.032135009765625,0.010955810546875
1783169128054657300,8.1056572265625,-0.986785888671875,-0.0316619873046875,0.010955810546875
1783169128064605200,8.115605224609375,-0.986328125,-0.033294677734375,0.011199951171875
1783169128074554000,8.12555419921875,-0.98590087890625,-0.0330047607421875,0.010009765625
1783169128084503300,8.13550341796875,-0.986846923828125,-0.0329742431640625,0.009246826171875
1783169128094482200,8.145482177734374,-0.9864959716796875,-0.033599853515625,0.007080078125
1783169128104431000,8.15543115234375,-0.9862060546875,-0.0336151123046875,0.0088653564453125
1783169128114380000,8.165380126953124,-0.9861297607421875,-0.0333251953125,0.0091400146484375
1783169128124328200,8.175328125,-0.986053466796875,-0.0326995849609375,0.010894775390625
1783169128134308000,8.18530810546875,-0.9859161376953125,-0.0323028564453125,0.010589599609375
1783169128144256000,8.195256103515625,-0.98651123046875,-0.032196044921875,0.0105438232421875
1783169128154205200,8.205205078125,-0.9864044189453125,-0.031646728515625,0.010650634765625
1783169128164184000,8.21518408203125,-0.9867706298828125,-0.0319671630859375,0.008697509765625
1783169128174133000,8.225133056640624,-0.986572265625,-0.03302001953125,0.008026123046875
1783169128184082000,8.23508203125,-0.9865264892578125,-0.0331268310546875,0.0074462890625
1783169128194030000,8.245030029296874,-0.9864654541015625,-0.0329437255859375,0.0079803466796875
1783169128204010000,8.255010009765625,-0.9862823486328125,-0.032745361328125,0.008819580078125
1783169128213958100,8.264958251953125,-0.986907958984375,-0.03271484375,0.009185791015625
1783169128223907300,8.2749072265625,-0.9871063232421875,-0.032867431640625,0.0094451904296875
1783169128233856300,8.284856201171875,-0.98577880859375,-0.0322723388671875,0.009979248046875
1783169128243835100,8.294835205078124,-0.985687255859375,-0.0323944091796875,0.0107879638671875
1783169128253784000,8.3047841796875,-0.986175537109375,-0.0329132080078125,0.0095062255859375
1783169128263733200,8.314733154296874,-0.9875946044921875,-0.0328216552734375,0.00921630859375
1783169128273681200,8.32468115234375,-0.987335205078125,-0.0323944091796875,0.009063720703125
1783169128283661000,8.3346611328125,-0.9859161376953125,-0.0331573486328125,0.00823974609375
1783169128293609200,8.344609130859375,-0.9866485595703125,-0.033111572265625,0.007965087890625
1783169128303558100,8.35455810546875,-0.9871978759765625,-0.0330657958984375,0.0085601806640625
1783169128313537000,8.364537109375,-0.9864654541015625,-0.03240966796875,0.00933837890625
1783169128323486200,8.374486328125,-0.9852447509765625,-0.0313262939453125,0.010894775390625
1783169128333435100,8.38443505859375,-0.9867401123046875,-0.0319671630859375,0.011688232421875
1783169128343384000,8.394384033203124,-0.9865570068359375,-0.032684326171875,0.011444091796875
1783169128353363000,8.404363037109375,-0.9871368408203125,-0.032440185546875,0.0098419189453125
1783169128363311000,8.41431103515625,-0.9868316650390625,-0.0330352783203125,0.009124755859375
1783169128373260000,8.424260009765625,-0.9865264892578125,-0.03289794921875,0.00897216796875
1783169128383209200,8.434209228515625,-0.986175537109375,-0.0336151123046875,0.0078887939453125
1783169128393188400,8.444188232421874,-0.9866485595703125,-0.034149169921875,0.0072784423828125
1783169128403137300,8.45413720703125,-0.987091064453125,-0.0329742431640625,0.008697509765625
1783169128413086200,8.464086181640624,-0.986419677734375,-0.03314208984375,0.0106353759765625
1783169128423034000,8.4740341796875,-0.9861602783203125,-0.032867431640625,0.0105438232421875
1783169128433014300,8.48401416015625,-0.986572265625,-0.0328521728515625,0.011077880859375
1783169128442962200,8.493962158203125,-0.9871978759765625,-0.033111572265625,0.010467529296875
1783169128452911000,8.5039111328125,-0.9874114990234375,-0.0323486328125,0.00958251953125
1783169128462890200,8.51389013671875,-0.987030029296875,-0.0329132080078125,0.009765625
1783169128472839200,8.523839111328124,-0.9871978759765625,-0.0331268310546875,0.0093994140625
1783169128482788000,8.5337880859375,-0.987396240234375,-0.03253173828125,0.0087432861328125
1783169128492737000,8.543737060546874,-0.9872283935546875,-0.032562255859375,0.0094146728515625
1783169128502716200,8.553716064453125,-0.9861907958984375,-0.0333099365234375,0.0082855224609375
1783169128512665000,8.5636650390625,-0.9870758056640625,-0.032440185546875,0.009033203125
1783169128522613000,8.573613037109375,-0.9868011474609375,-0.0322265625,0.009796142578125
1783169128532562000,8.58356201171875,-0.986846923828125,-0.0318756103515625,0.0105133056640625
1783169128542541000,8.593541015625,-0.986236572265625,-0.0319061279296875,0.0112457275390625
1783169128552490200,8.603490234375,-0.9862213134765625,-0.0323028564453125,0.0118255615234375
1783169128562439200,8.613439208984374,-0.9863128662109375,-0.03228759765625,0.0113372802734375
1783169128572387300,8.62338720703125,-0.98614501953125,-0.031890869140625,0.0092010498046875
1783169128582367200,8.6333671875,-0.9875335693359375,-0.0331878662109375,0.0081634521484375
1783169128592315100,8.643315185546875,-0.9864501953125,-0.033294677734375,0.00860595703125
1783169128602264000,8.65326416015625,-0.986419677734375,-0.033050537109375,0.0083160400390625
1783169128612213200,8.663213134765625,-0.9863433837890625,-0.032379150390625,0.00970458984375
1783169128622192000,8.673192138671874,-0.9869232177734375,-0.0331268310546875,0.0110931396484375
1783169128632141000,8.68314111328125,-0.98614501953125,-0.0327301025390625,0.010986328125
1783169128642090000,8.693090087890624,-0.9860382080078125,-0.03204345703125,0.0109710693359375
1783169128652069000,8.703069091796875,-0.986358642578125,-0.032379150390625,0.0111236572265625
1783169128662018000,8.71301806640625,-0.9860687255859375,-0.0331268310546875,0.01031494140625
1783169128671966000,8.722966064453125,-0.9867401123046875,-0.033203125,0.00836181640625
1783169128681915100,8.7329150390625,-0.9868011474609375,-0.0332183837890625,0.00811767578125
1783169128691894000,8.74289404296875,-0.985748291015625,-0.03363037109375,0.0078887939453125
1783169128701843000,8.752843017578124,-0.98553466796875,-0.0329437255859375,0.007904052734375
1783169128711792000,8.762792236328124,-0.987060546875,-0.032623291015625,0.0095367431640625
1783169128721740000,8.772739990234374,-0.9871826171875,-0.0324554443359375,0.0106658935546875
1783169128731720200,8.78272021484375,-0.9859466552734375,-0.033111572265625,0.011199951171875
1783169128741668400,8.79266845703125,-0.9861907958984375,-0.032928466796875,0.0101470947265625
1783169128751617300,8.8026171875,-0.9862823486328125,-0.0328216552734375,0.008514404296875
1783169128761566200,8.812566162109375,-0.9863433837890625,-0.03289794921875,0.0076904296875
1783169128771545000,8.822545166015624,-0.9864349365234375,-0.03363037109375,0.006988525390625
1783169128781494000,8.832493896484374,-0.986602783203125,-0.033111572265625,0.0078277587890625
1783169128791443200,8.842443115234374,-0.9864349365234375,-0.0326385498046875,0.00982666015625
1783169128801422000,8.852422119140625,-0.9865875244140625,-0.03271484375,0.01007080078125
1783169128811371000,8.86237109375,-0.986541748046875,-0.0331573486328125,0.010955810546875
1783169128821319200,8.872319091796875,-0.986480712890625,-0.0330352783203125,0.01177978515625
1783169128831268000,8.88226806640625,-0.98651123046875,-0.032135009765625,0.0102081298828125
1783169128841247000,8.8922470703125,-0.9860382080078125,-0.0322265625,0.0095062255859375
1783169128851196200,8.902196044921874,-0.986328125,-0.0321044921875,0.008392333984375
1783169128861145000,8.91214501953125,-0.987152099609375,-0.031951904296875,0.00830078125
1783169128871093000,8.922093017578124,-0.9873504638671875,-0.0329437255859375,0.0093841552734375
1783169128881072000,8.932072021484375,-0.987152099609375,-0.03289794921875,0.0085296630859375
1783169128891020000,8.94202001953125,-0.9866943359375,-0.032989501953125,0.008544921875
1783169128900969000,8.951968994140625,-0.98651123046875,-0.0330657958984375,0.0088653564453125
1783169128910918000,8.96191796875,-0.986724853515625,-0.032440185546875,0.0095977783203125
1783169128920897000,8.97189697265625,-0.9869537353515625,-0.0322418212890625,0.0102996826171875
1783169128930846000,8.981845947265626,-0.985870361328125,-0.03302001953125,0.010467529296875
1783169128940795000,8.991794921875,-0.9870452880859375,-0.03271484375,0.01092529296875
1783169128950774000,9.00177392578125,-0.9868011474609375,-0.03265380859375,0.0105743408203125
1783169128960723000,9.011722900390625,-0.98626708984375,-0.0330657958984375,0.0095062255859375
1783169128970670800,9.0216708984375,-0.9858551025390625,-0.0340118408203125,0.0090789794921875
1783169128980620000,9.0316201171875,-0.98626708984375,-0.0333404541015625,0.0080108642578125
1783169128990599000,9.041598876953126,-0.986083984375,-0.0330352783203125,0.0081939697265625
1783169129000547800,9.0515478515625,-0.9864349365234375,-0.0326080322265625,0.009429931640625
1783169129010496800,9.061496826171876,-0.9863128662109375,-0.0327301025390625,0.010284423828125
1783169129020446000,9.071446044921874,-0.9862518310546875,-0.0326995849609375,0.01007080078125
1783169129030425000,9.081425048828125,-0.985992431640625,-0.0322723388671875,0.0106048583984375
1783169129040372700,9.091372802734375,-0.98590087890625,-0.0323486328125,0.010498046875
1783169129050322200,9.101322265625,-0.985931396484375,-0.03179931640625,0.0094451904296875
1783169129060271000,9.11127099609375,-0.9874267578125,-0.0328369140625,0.0089263916015625
1783169129070250000,9.12125,-0.9868927001953125,-0.032958984375,0.0095367431640625
1783169129080199000,9.131198974609376,-0.9869537353515625,-0.033447265625,0.009185791015625
1783169129090148000,9.141148193359374,-0.986724853515625,-0.0325927734375,0.0083160400390625
1783169129100127000,9.151126953125,-0.986572265625,-0.0315399169921875,0.0091094970703125
1783169129110076000,9.161075927734375,-0.9862060546875,-0.031494140625,0.00994873046875
1783169129120024000,9.171024169921875,-0.986724853515625,-0.0316162109375,0.00994873046875
1783169129129973000,9.180972900390625,-0.9865875244140625,-0.0323028564453125,0.01025390625
1783169129139951900,9.190951904296876,-0.986297607421875,-0.03240966796875,0.010589599609375
1783169129149900800,9.20090087890625,-0.9871063232421875,-0.0328369140625,0.0102996826171875
1783169129159850000,9.21085009765625,-0.98651123046875,-0.032928466796875,0.0086822509765625
1783169129169799000,9.220798828125,-0.9860076904296875,-0.03253173828125,0.008026123046875
1783169129179777800,9.23077783203125,-0.986358642578125,-0.0329742431640625,0.0080718994140625
1783169129189727000,9.24072705078125,-0.9866943359375,-0.0335235595703125,0.0081634521484375
1783169129199675000,9.2506748046875,-0.9860992431640625,-0.03216552734375,0.009002685546875
1783169129209624000,9.2606240234375,-0.9859161376953125,-0.032196044921875,0.00933837890625
1783169129219603000,9.27060302734375,-0.98504638671875,-0.0332183837890625,0.0093231201171875
1783169129229552000,9.28055224609375,-0.9859619140625,-0.0335845947265625,0.01031494140625
1783169129239501000,9.2905009765625,-0.9866790771484375,-0.032928466796875,0.011627197265625
1783169129249449000,9.300448974609376,-0.985809326171875,-0.0333709716796875,0.01080322265625
1783169129259428900,9.310428955078125,-0.987091064453125,-0.033172607421875,0.0104217529296875
1783169129269377000,9.320376953125,-0.986663818359375,-0.032806396484375,0.009307861328125
1783169129279326000,9.330325927734375,-0.98681640625,-0.032867431640625,0.0092620849609375
1783169129289305000,9.34030517578125,-0.98626708984375,-0.0326385498046875,0.0079345703125
1783169129299254000,9.35025390625,-0.9859619140625,-0.03228759765625,0.0087432861328125
1783169129309203000,9.360202880859376,-0.9856414794921875,-0.0327606201171875,0.0088043212890625
1783169129319151900,9.37015185546875,-0.98651123046875,-0.0328369140625,0.0091094970703125
1783169129329131000,9.380131103515625,-0.986114501953125,-0.0320281982421875,0.0100555419921875
1783169129339080000,9.390079833984375,-0.98626708984375,-0.03265380859375,0.00946044921875
1783169129349027800,9.40002783203125,-0.9868927001953125,-0.0328369140625,0.00811767578125
1783169129358976800,9.409976806640625,-0.98675537109375,-0.032501220703125,0.0095062255859375
1783169129368956000,9.419955810546876,-0.985870361328125,-0.0328216552734375,0.00927734375
1783169129378905000,9.429905029296876,-0.9863128662109375,-0.0332794189453125,0.0103912353515625
1783169129388854000,9.43985400390625,-0.986480712890625,-0.032928466796875,0.0115509033203125
1783169129398802000,9.449802001953126,-0.986572265625,-0.03326416015625,0.0107879638671875
1783169129408782000,9.459781982421875,-0.987060546875,-0.03289794921875,0.011260986328125
1783169129418730000,9.46972998046875,-0.98681640625,-0.0321807861328125,0.010284423828125
1783169129428679000,9.479678955078125,-0.9861907958984375,-0.0328216552734375,0.009246826171875
1783169129438658000,9.489657958984376,-0.9863739013671875,-0.0324859619140625,0.0093536376953125
1783169129448607000,9.49960693359375,-0.9868316650390625,-0.0336151123046875,0.009063720703125
1783169129458556000,9.509555908203126,-0.9864349365234375,-0.0337982177734375,0.008636474609375
1783169129468504800,9.5195048828125,-0.985382080078125,-0.032806396484375,0.009124755859375
1783169129478484000,9.52948388671875,-0.9862518310546875,-0.0330047607421875,0.0103759765625
1783169129488433000,9.539432861328125,-0.9866180419921875,-0.0330963134765625,0.0092620849609375
1783169129498380800,9.549380859375,-0.986083984375,-0.0323486328125,0.01025390625
1783169129508330000,9.559330078125,-0.986083984375,-0.0325164794921875,0.009429931640625
1783169129518308900,9.569308837890626,-0.9864349365234375,-0.03204345703125,0.00897216796875
1783169129528257800,9.5792578125,-0.986419677734375,-0.032318115234375,0.009552001953125
1783169129538207000,9.58920703125,-0.9864654541015625,-0.03143310546875,0.008575439453125
1783169129548155100,9.599155029296876,-0.9861602783203125,-0.0329437255859375,0.0082855224609375
1783169129558135000,9.609135009765625,-0.986236572265625,-0.0327911376953125,0.00897216796875
1783169129568083000,9.6190830078125,-0.9861602783203125,-0.0325775146484375,0.009796142578125
1783169129578032000,9.6290322265625,-0.98681640625,-0.0333099365234375,0.01025390625
1783169129588011000,9.639010986328126,-0.98651123046875,-0.032440185546875,0.0103912353515625
1783169129597960000,9.6489599609375,-0.98736572265625,-0.032501220703125,0.0109100341796875
1783169129607908900,9.658908935546876,-0.986480712890625,-0.0327911376953125,0.01025390625
1783169129617858000,9.668858154296874,-0.9860992431640625,-0.0327606201171875,0.0098419189453125
1783169129627837000,9.6788369140625,-0.98590087890625,-0.03277587890625,0.0100860595703125
1783169129637785900,9.688785888671875,-0.98590087890625,-0.0324249267578125,0.0089111328125
1783169129647734000,9.698734130859375,-0.9873199462890625,-0.0330047607421875,0.00830078125
1783169129657683000,9.708682861328125,-0.9867706298828125,-0.0331573486328125,0.0090789794921875
1783169129667661800,9.718661865234376,-0.9867401123046875,-0.033294677734375,0.0092926025390625
1783169129677610800,9.72861083984375,-0.986480712890625,-0.0324249267578125,0.00909423828125
1783169129687560000,9.738559814453126,-0.9866485595703125,-0.032867431640625,0.0092620849609375
1783169129697507800,9.7485078125,-0.9868621826171875,-0.0328521728515625,0.010284423828125
1783169129707488000,9.758488037109375,-0.986175537109375,-0.0329742431640625,0.0096588134765625
1783169129717436200,9.768436279296875,-0.986328125,-0.032135009765625,0.009002685546875
1783169129727385000,9.778385009765625,-0.9866180419921875,-0.031494140625,0.0088958740234375
1783169129737364000,9.788364013671876,-0.986541748046875,-0.033599853515625,0.0087738037109375
1783169129747313000,9.79831298828125,-0.98663330078125,-0.0330963134765625,0.0086822509765625
1783169129757262000,9.808261962890626,-0.987060546875,-0.0320281982421875,0.0097503662109375
1783169129767211000,9.8182109375,-0.9868621826171875,-0.0329742431640625,0.009613037109375
1783169129777190000,9.82818994140625,-0.9861297607421875,-0.0327606201171875,0.0093994140625
1783169129787138800,9.838138916015625,-0.986541748046875,-0.0322113037109375,0.0091094970703125
1783169129797087000,9.8480869140625,-0.9864959716796875,-0.03253173828125,0.00872802734375
1783169129807036000,9.858035888671875,-0.9867401123046875,-0.032745361328125,0.0088348388671875
1783169129817015000,9.86801513671875,-0.98651123046875,-0.0325164794921875,0.0101470947265625
1783169129826964000,9.8779638671875,-0.9874420166015625,-0.0322418212890625,0.010955810546875
1783169129836913000,9.887912841796876,-0.9874420166015625,-0.0330810546875,0.0116424560546875
1783169129846862000,9.897862060546874,-0.987335205078125,-0.0335540771484375,0.011383056640625
1783169129856841000,9.907841064453125,-0.986907958984375,-0.0323638916015625,0.011749267578125
1783169129866788900,9.917788818359375,-0.9870452880859375,-0.03228759765625,0.0094146728515625
1783169129876738000,9.927738037109375,-0.9860992431640625,-0.0326385498046875,0.0080413818359375
1783169129886731300,9.937731201171875,-0.9866180419921875,-0.033172607421875,0.00775146484375
1783169129896710400,9.94771044921875,-0.987274169921875,-0.0336151123046875,0.0073699951171875
1783169129906659600,9.95765966796875,-0.98724365234375,-0.033111572265625,0.0087738037109375
1783169129916608500,9.9676083984375,-0.987060546875,-0.0326080322265625,0.010345458984375
1783169129926587600,9.977587646484375,-0.98651123046875,-0.0322113037109375,0.0109405517578125
1783169129936536600,9.98753662109375,-0.9871826171875,-0.0321197509765625,0.0112762451171875
1783169129946484500,9.997484375,-0.9859161376953125,-0.031890869140625,0.009979248046875
1783169129956433400,10.007433349609375,-0.987396240234375,-0.03277587890625,0.0086212158203125
1783169129966412500,10.01741259765625,-0.986907958984375,-0.0326385498046875,0.0092315673828125
1783169129976361500,10.027361572265624,-0.9861602783203125,-0.031341552734375,0.0088043212890625
1783169129986310400,10.037310302734374,-0.987335205078125,-0.0326690673828125,0.0095977783203125
1783169129996259300,10.04725927734375,-0.9873504638671875,-0.0328369140625,0.009185791015625
1783169130006238500,10.057238525390625,-0.985809326171875,-0.0325164794921875,0.008636474609375
1783169130016187400,10.0671875,-0.986846923828125,-0.0326385498046875,0.0089874267578125
1783169130026135600,10.077135498046875,-0.98779296875,-0.0319976806640625,0.0089263916015625
1783169130036084500,10.08708447265625,-0.9865570068359375,-0.0328521728515625,0.0101470947265625
1783169130046063400,10.0970634765625,-0.9868927001953125,-0.0331268310546875,0.0111541748046875
1783169130056012300,10.10701220703125,-0.9860687255859375,-0.0321807861328125,0.0101318359375
1783169130065961500,10.11696142578125,-0.98590087890625,-0.0321807861328125,0.0101165771484375
1783169130075940600,10.126940673828125,-0.986297607421875,-0.032623291015625,0.0087432861328125
1783169130085889500,10.1368896484375,-0.9871826171875,-0.033050537109375,0.0085601806640625
1783169130095837700,10.146837646484375,-0.986663818359375,-0.03375244140625,0.0071868896484375
1783169130105786600,10.15678662109375,-0.987335205078125,-0.0330047607421875,0.007659912109375
1783169130115765500,10.166765625,-0.9864349365234375,-0.0325927734375,0.0099334716796875
1783169130125714400,10.17671435546875,-0.98626708984375,-0.0330963134765625,0.0105133056640625
1783169130135663600,10.18666357421875,-0.9870147705078125,-0.032684326171875,0.0108642578125
1783169130145612500,10.196612548828124,-0.986572265625,-0.032440185546875,0.0098876953125
1783169130155591400,10.20659130859375,-0.9862213134765625,-0.032318115234375,0.008087158203125
1783169130165540400,10.216540283203125,-0.987213134765625,-0.0323333740234375,0.0078582763671875
1783169130175488500,10.226488525390625,-0.9862060546875,-0.0319061279296875,0.00750732421875
1783169130185437400,10.2364375,-0.9870147705078125,-0.0326690673828125,0.009429931640625
1783169130195416600,10.24641650390625,-0.987060546875,-0.0325469970703125,0.0103607177734375
1783169130205365500,10.256365478515624,-0.98699951171875,-0.03253173828125,0.0099639892578125
1783169130215314400,10.266314453125,-0.9869537353515625,-0.0328216552734375,0.0102996826171875
1783169130225293300,10.276293212890625,-0.9857177734375,-0.032623291015625,0.0110015869140625
1783169130235242500,10.286242431640625,-0.987091064453125,-0.0318603515625,0.0106964111328125
1783169130245190400,10.2961904296875,-0.987091064453125,-0.032440185546875,0.0105743408203125
1783169130255139600,10.3061396484375,-0.9866485595703125,-0.0326385498046875,0.0095367431640625
1783169130265118700,10.31611865234375,-0.986663818359375,-0.0329132080078125,0.0080413818359375
1783169130275067600,10.326067626953124,-0.9871978759765625,-0.0331573486328125,0.0081329345703125
1783169130285016600,10.3360166015625,-0.986785888671875,-0.0333404541015625,0.00909423828125
1783169130294965500,10.345965576171874,-0.986083984375,-0.032318115234375,0.008819580078125
1783169130304944600,10.355944580078125,-0.9859466552734375,-0.032684326171875,0.009674072265625
1783169130314893600,10.3658935546875,-0.986572265625,-0.0327911376953125,0.009796142578125
1783169130324841500,10.375841552734375,-0.9872283935546875,-0.0329742431640625,0.0102691650390625
1783169130334790400,10.385790283203125,-0.986602783203125,-0.0324249267578125,0.0105133056640625
1783169130344769500,10.39576953125,-0.9869842529296875,-0.0324554443359375,0.0094451904296875
1783169130354718500,10.405718505859374,-0.9875335693359375,-0.031524658203125,0.010009765625
1783169130364667400,10.41566748046875,-0.9868927001953125,-0.032806396484375,0.009033203125
1783169130374646500,10.425646484375,-0.987274169921875,-0.0332489013671875,0.0079193115234375
1783169130384595500,10.435595458984375,-0.9868011474609375,-0.0327606201171875,0.0088043212890625
1783169130394543400,10.44554345703125,-0.9861297607421875,-0.0327911376953125,0.0091094970703125
1783169130404492500,10.455492431640625,-0.9869232177734375,-0.032379150390625,0.0099945068359375
1783169130414471400,10.465471435546876,-0.985809326171875,-0.03253173828125,0.0104827880859375
1783169130424420600,10.475420654296874,-0.986419677734375,-0.0320281982421875,0.0106353759765625
1783169130434369500,10.48536962890625,-0.986785888671875,-0.0327606201171875,0.0109100341796875
1783169130444318500,10.495318359375,-0.985809326171875,-0.032684326171875,0.0095977783203125
1783169130454297600,10.505297607421875,-0.9860382080078125,-0.03302001953125,0.00836181640625
1783169130464246500,10.51524658203125,-0.9864654541015625,-0.0330657958984375,0.0079345703125
1783169130474194400,10.5251943359375,-0.9870147705078125,-0.0339202880859375,0.0095367431640625
1783169130484143600,10.5351435546875,-0.9864654541015625,-0.033050537109375,0.0096588134765625
1783169130494122500,10.54512255859375,-0.9868621826171875,-0.0328216552734375,0.0095367431640625
1783169130504071400,10.555071533203124,-0.9870147705078125,-0.0325927734375,0.010345458984375
1783169130514020400,10.565020263671874,-0.98736572265625,-0.0318450927734375,0.0100860595703125
1783169130523969500,10.574969482421874,-0.987274169921875,-0.0320587158203125,0.0091400146484375
1783169130533948400,10.584948486328125,-0.986297607421875,-0.032196044921875,0.00836181640625
1783169130543896300,10.594896240234375,-0.9866943359375,-0.0335235595703125,0.00787353515625
1783169130553845500,10.604845458984375,-0.98626708984375,-0.0330047607421875,0.0072021484375
1783169130563824400,10.614824462890626,-0.9866790771484375,-0.0328521728515625,0.0082855224609375
1783169130573773300,10.624773193359376,-0.9864654541015625,-0.0333709716796875,0.0101318359375
1783169130583722500,10.634722412109374,-0.9868316650390625,-0.0323028564453125,0.0102081298828125
1783169130593671700,10.644671630859374,-0.9864959716796875,-0.0316925048828125,0.010589599609375
1783169130603650600,10.654650634765625,-0.9859466552734375,-0.0316162109375,0.0107421875
1783169130613599500,10.664599609375,-0.9863433837890625,-0.0327911376953125,0.00946044921875
1783169130623547600,10.674547607421875,-0.987091064453125,-0.0319671630859375,0.0092620849609375
1783169130633496600,10.68449658203125,-0.9866180419921875,-0.032196044921875,0.0092926025390625
1783169130643475500,10.694475341796876,-0.986968994140625,-0.0327301025390625,0.009246826171875
1783169130653424400,10.70442431640625,-0.98626708984375,-0.03216552734375,0.0099029541015625
1783169130663373600,10.71437353515625,-0.9863128662109375,-0.03216552734375,0.0098114013671875
1783169130673322500,10.724322509765624,-0.9854278564453125,-0.0322723388671875,0.011138916015625
1783169130683301400,10.73430126953125,-0.98681640625,-0.0325927734375,0.010589599609375
1783169130693250300,10.744250244140625,-0.9873809814453125,-0.03326416015625,0.009368896484375
1783169130703198500,10.754198486328125,-0.9869537353515625,-0.033477783203125,0.0094146728515625
1783169130713177300,10.76417724609375,-0.9874420166015625,-0.0323486328125,0.00994873046875
1783169130723126500,10.77412646484375,-0.9867401123046875,-0.0328216552734375,0.0095977783203125
1783169130733075700,10.78407568359375,-0.98638916015625,-0.033172607421875,0.0095367431640625
1783169130743024600,10.794024658203124,-0.9868621826171875,-0.033782958984375,0.0092620849609375
1783169130753003500,10.80400341796875,-0.9869537353515625,-0.0342559814453125,0.0087738037109375
1783169130762952400,10.813952392578125,-0.9865264892578125,-0.03302001953125,0.0093231201171875
1783169130772900600,10.823900634765625,-0.9857025146484375,-0.0319366455078125,0.00970458984375
1783169130782849500,10.833849609375,-0.986358642578125,-0.0316619873046875,0.009674072265625
1783169130792828700,10.84382861328125,-0.98712158203125,-0.032806396484375,0.0101165771484375
1783169130802777600,10.853777587890624,-0.9864349365234375,-0.032989501953125,0.010162353515625
1783169130812726500,10.8637265625,-0.9863128662109375,-0.0325469970703125,0.01007080078125
1783169130822675500,10.873675537109374,-0.9875640869140625,-0.0330963134765625,0.0090179443359375
1783169130832654600,10.883654541015625,-0.98663330078125,-0.033599853515625,0.009063720703125
1783169130842603500,10.893603515625,-0.985992431640625,-0.03216552734375,0.0083770751953125
1783169130852551400,10.903551513671875,-0.9874420166015625,-0.0329742431640625,0.0078277587890625
1783169130862531300,10.91353125,-0.986907958984375,-0.033203125,0.0070953369140625
1783169130872479500,10.9234794921875,-0.986907958984375,-0.0324554443359375,0.0086517333984375
1783169130882440400,10.9334404296875,-0.987030029296875,-0.0328826904296875,0.0099029541015625
1783169130892389600,10.9433896484375,-0.986297607421875,-0.0316925048828125,0.0092010498046875
1783169130902368500,10.953368408203126,-0.9861907958984375,-0.031524658203125,0.0093994140625
1783169130912317400,10.9633173828125,-0.9862213134765625,-0.0322723388671875,0.0089874267578125
1783169130922265600,10.973265625,-0.986419677734375,-0.0324554443359375,0.006927490234375
1783169130932214500,10.983214599609376,-0.986419677734375,-0.032928466796875,0.0055694580078125
1783169130942193400,10.993193359375,-0.9864044189453125,-0.0340423583984375,0.004150390625
1783169130952142600,11.003142578125,-0.9860992431640625,-0.0334625244140625,0.0044097900390625
1783169130962091500,11.013091552734375,-0.9867095947265625,-0.033203125,0.0053253173828125
1783169130972040400,11.02304052734375,-0.9864349365234375,-0.0327606201171875,0.00799560546875
1783169130982019300,11.033019287109376,-0.98663330078125,-0.03240966796875,0.0113067626953125
1783169130991968500,11.042968505859376,-0.9868316650390625,-0.0326080322265625,0.0125732421875
1783169131001916400,11.05291650390625,-0.985595703125,-0.0322113037109375,0.013946533203125
1783169131011896300,11.062896240234375,-0.986053466796875,-0.032073974609375,0.015045166015625
1783169131021844500,11.072844482421875,-0.986785888671875,-0.031585693359375,0.0146484375
1783169131031793400,11.08279345703125,-0.98651123046875,-0.0323028564453125,0.013763427734375
1783169131041742600,11.09274267578125,-0.986053466796875,-0.0319366455078125,0.01177978515625
1783169131051721500,11.102721435546876,-0.9862213134765625,-0.0307464599609375,0.0115203857421875
1783169131061670700,11.112670654296876,-0.98687744140625,-0.0310211181640625,0.0112457275390625
1783169131071618600,11.12261865234375,-0.9871063232421875,-0.0313262939453125,0.0107421875
1783169131081567500,11.1325673828125,-0.98602294921875,-0.03179931640625,0.010772705078125
1783169131091546600,11.142546630859375,-0.985931396484375,-0.032470703125,0.0106964111328125
1783169131101495600,11.15249560546875,-0.985931396484375,-0.0323028564453125,0.0105743408203125
1783169131111444500,11.162444580078125,-0.9860687255859375,-0.0334320068359375,0.009735107421875
1783169131121393400,11.172393310546875,-0.9864349365234375,-0.03369140625,0.009521484375
1783169131131372500,11.18237255859375,-0.9863433837890625,-0.034576416015625,0.0077667236328125
1783169131141321500,11.192321533203126,-0.9860382080078125,-0.0347137451171875,0.007843017578125
1783169131151269400,11.202269287109376,-0.9864349365234375,-0.0342254638671875,0.0080108642578125
1783169131161218300,11.21221826171875,-0.986328125,-0.034698486328125,0.0067291259765625
1783169131171197400,11.222197509765625,-0.98736572265625,-0.0352325439453125,0.0071258544921875
1783169131181146400,11.232146484375,-0.9863128662109375,-0.0347900390625,0.007537841796875
1783169131191095300,11.24209521484375,-0.9864654541015625,-0.034271240234375,0.00689697265625
1783169131201074400,11.252074462890626,-0.9871826171875,-0.033172607421875,0.0083160400390625
1783169131211023600,11.262023681640626,-0.9866485595703125,-0.0320587158203125,0.0083770751953125
1783169131220971300,11.27197119140625,-0.98699951171875,-0.032073974609375,0.0094146728515625
1783169131230920400,11.28192041015625,-0.985931396484375,-0.031951904296875,0.0091552734375
1783169131240899600,11.291899658203125,-0.9862518310546875,-0.03143310546875,0.009552001953125
1783169131250848500,11.3018486328125,-0.9869384765625,-0.0312957763671875,0.011199951171875
1783169131260797400,11.31179736328125,-0.9853363037109375,-0.0315093994140625,0.011474609375
1783169131270746400,11.321746337890625,-0.9863739013671875,-0.03009033203125,0.011932373046875
1783169131280725500,11.3317255859375,-0.9870147705078125,-0.03094482421875,0.011138916015625
1783169131290674400,11.34167431640625,-0.9865570068359375,-0.0306549072265625,0.0111846923828125
1783169131300622300,11.351622314453126,-0.986480712890625,-0.031219482421875,0.0102996826171875
1783169131310571500,11.361571533203126,-0.9862060546875,-0.03265380859375,0.0110321044921875
1783169131320550400,11.37155029296875,-0.986328125,-0.0318145751953125,0.0095672607421875
1783169131330499300,11.381499267578125,-0.986297607421875,-0.0332794189453125,0.009765625
1783169131340448300,11.3914482421875,-0.986724853515625,-0.03369140625,0.0091552734375
1783169131350427400,11.401427490234376,-0.986602783203125,-0.03338623046875,0.008026123046875
1783169131360376300,11.411376220703126,-0.9860687255859375,-0.0331268310546875,0.0087432861328125
1783169131370324500,11.421324462890626,-0.98602294921875,-0.0333404541015625,0.0084228515625
1783169131380273400,11.4312734375,-0.9866943359375,-0.0343170166015625,0.00872802734375
1783169131390252300,11.441252197265625,-0.9863128662109375,-0.0333709716796875,0.0089874267578125
1783169131400201500,11.451201416015625,-0.9864349365234375,-0.034454345703125,0.009368896484375
1783169131410150400,11.461150390625,-0.9852294921875,-0.034393310546875,0.00927734375
1783169131420099600,11.471099609375,-0.9854278564453125,-0.0325927734375,0.0096435546875
1783169131430078500,11.481078369140626,-0.9865570068359375,-0.0322723388671875,0.01025390625
1783169131440027400,11.49102734375,-0.9877777099609375,-0.0329132080078125,0.0099945068359375
1783169131449975600,11.5009755859375,-0.987274169921875,-0.03369140625,0.0098114013671875
1783169131459924500,11.510924560546876,-0.987945556640625,-0.0326995849609375,0.0102386474609375
1783169131469903400,11.5209033203125,-0.9871978759765625,-0.03228759765625,0.0103759765625
1783169131479852500,11.5308525390625,-0.9871368408203125,-0.0320892333984375,0.0107574462890625
1783169131489801500,11.540801513671875,-0.987274169921875,-0.0314483642578125,0.0108489990234375
1783169131499780400,11.5507802734375,-0.986236572265625,-0.0319671630859375,0.0110015869140625
1783169131509729300,11.560729248046876,-0.985626220703125,-0.03277587890625,0.0098114013671875
1783169131519678500,11.570678466796876,-0.98602294921875,-0.0327911376953125,0.0093841552734375
1783169131529626400,11.58062646484375,-0.986358642578125,-0.03228759765625,0.0093231201171875
1783169131539606500,11.5906064453125,-0.986114501953125,-0.033294677734375,0.00885009765625
1783169131549554400,11.600554443359375,-0.9868621826171875,-0.0339813232421875,0.0083770751953125
1783169131559503600,11.610503662109375,-0.986724853515625,-0.0337371826171875,0.0081939697265625
1783169131569452500,11.62045263671875,-0.98602294921875,-0.0332489013671875,0.0087738037109375
1783169131579431400,11.630431396484376,-0.9869232177734375,-0.0326995849609375,0.0089111328125
1783169131589380600,11.640380615234376,-0.986480712890625,-0.03350830078125,0.0082244873046875
1783169131599328500,11.65032861328125,-0.985748291015625,-0.0327606201171875,0.00909423828125
1783169131609277400,11.66027734375,-0.98663330078125,-0.0327301025390625,0.009185791015625
1783169131619256600,11.670256591796875,-0.9862060546875,-0.0316314697265625,0.0095367431640625
1783169131629205500,11.68020556640625,-0.9858551025390625,-0.031982421875,0.0093994140625
1783169131639154400,11.690154541015625,-0.986907958984375,-0.03253173828125,0.010406494140625
1783169131649133600,11.700133544921876,-0.9867706298828125,-0.0326385498046875,0.01043701171875
1783169131659082500,11.71008251953125,-0.986785888671875,-0.03265380859375,0.0104522705078125
1783169131669031400,11.720031494140626,-0.9870452880859375,-0.032440185546875,0.0099945068359375
1783169131678979300,11.729979248046876,-0.986358642578125,-0.0318603515625,0.0098876953125
1783169131688959500,11.73995947265625,-0.9868011474609375,-0.031707763671875,0.011383056640625
1783169131698907400,11.749907470703125,-0.986083984375,-0.0326995849609375,0.0109100341796875
1783169131708856300,11.759856201171875,-0.9857025146484375,-0.032684326171875,0.010955810546875
1783169131718805500,11.769805419921875,-0.985931396484375,-0.033050537109375,0.010345458984375
1783169131728784600,11.77978466796875,-0.986602783203125,-0.033050537109375,0.0095672607421875
1783169131738733600,11.789733642578126,-0.986297607421875,-0.0332489013671875,0.00885009765625
1783169131748681500,11.799681396484376,-0.98577880859375,-0.03375244140625,0.0089263916015625
1783169131758630400,11.80963037109375,-0.986328125,-0.0335540771484375,0.0083160400390625
1783169131768609500,11.819609619140625,-0.98663330078125,-0.0323638916015625,0.008270263671875
1783169131778558500,11.829558349609375,-0.9860992431640625,-0.0324859619140625,0.0096435546875
1783169131788507400,11.83950732421875,-0.9867706298828125,-0.0333404541015625,0.0092315673828125
1783169131798456300,11.849456298828125,-0.9867095947265625,-0.0333404541015625,0.00921630859375
1783169131808435500,11.859435546875,-0.9860687255859375,-0.0329742431640625,0.0098876953125
1783169131818384400,11.86938427734375,-0.986968994140625,-0.032501220703125,0.0088653564453125
1783169131828332500,11.87933251953125,-0.9869384765625,-0.0321044921875,0.0090484619140625
1783169131838312400,11.8893125,-0.98687744140625,-0.0325775146484375,0.0090484619140625
1783169131848260400,11.89926025390625,-0.9865875244140625,-0.0320892333984375,0.00970458984375
1783169131858209300,11.909209228515625,-0.985809326171875,-0.032318115234375,0.0091552734375
1783169131868158500,11.919158447265625,-0.986297607421875,-0.03302001953125,0.01007080078125
1783169131878137300,11.929137451171876,-0.9862060546875,-0.0326080322265625,0.0105438232421875
1783169131888104400,11.9391044921875,-0.9864501953125,-0.032562255859375,0.0109405517578125
1783169131898052000,11.949052001953126,-0.9870758056640625,-0.032379150390625,0.010101318359375
1783169131908001500,11.95900146484375,-0.9870758056640625,-0.03289794921875,0.0087738037109375
1783169131917980400,11.96898046875,-0.9821319580078125,-0.0319366455078125,0.008148193359375
1783169131927929300,11.978929443359375,-0.9889068603515625,-0.036651611328125,0.0126953125
1783169131937878300,11.988878173828125,-0.9874114990234375,-0.0330810546875,0.0090179443359375
1783169131947827500,11.998827392578125,-0.9858856201171875,-0.0333099365234375,0.0103912353515625
1783169131957806300,12.008806396484376,-0.989410400390625,-0.03289794921875,0.0087127685546875
1783169131967755300,12.01875537109375,-0.9853515625,-0.0323486328125,0.007476806640625
1783169131977703400,12.028703369140626,-0.9876708984375,-0.0322418212890625,0.0049896240234375
1783169131987683300,12.038683349609375,-0.9869537353515625,-0.0318603515625,0.005859375
1783169131997631200,12.04863134765625,-0.9863128662109375,-0.0306854248046875,0.00689697265625
1783169132007580200,12.058580078125,-0.9861602783203125,-0.030853271484375,0.0102691650390625
1783169132017529300,12.068529296875,-0.9859466552734375,-0.0319976806640625,0.012725830078125
