time,seconds_elapsed,z,y,x
1782858413330979600,0.2579794921875,-0.022477789267897605,-0.2579933490604162,-0.18036986502334473
1782858413340958700,0.267958740234375,-0.0390086528301239,-0.2718202143609524,-0.1464626269854605
1782858413350907600,0.27790771484375,0.07973755358159541,-0.4315168553203344,-0.034977497617900366
1782858413360856600,0.287856689453125,0.014603110370039939,-0.3691717505663633,-0.08462547175362706
1782858413370804500,0.297804443359375,0.006550152295827865,-0.24512159252762794,-0.08674977043122052
1782858413380753400,0.30775341796875,-0.0034609541088342663,-0.11883271565139293,-0.04378478119075298
1782858413390732500,0.317732666015625,-0.10197451983094215,-0.0484983657091856,0.03887538183927536
1782858413400681500,0.327681396484375,-0.1147474921643734,0.029710078608989714,0.1364436295352876
1782858413410630400,0.33763037109375,-0.11264905858039856,0.16127426553964613,0.10969298525378107
1782858413420579300,0.347579345703125,-0.15166180306375027,0.24593933865129947,0.03535816749855876
1782858413430558500,0.357558349609375,-0.11690145532786846,0.2541781746864319,-0.0005493044458329677
1782858413440507600,0.367507568359375,-0.05313654690384864,0.2891594716966152,-0.04648848719149828
1782858413450455600,0.37745556640625,-0.03742167589962482,0.32413959966301914,-0.10085004584565758
1782858413460404700,0.38740478515625,-0.02714578107893467,0.3428507298737764,-0.22546119876801965
1782858413470388200,0.39738818359375,0.013590718457102774,0.3871200797110796,-0.3758062201447785
1782858413480337200,0.407337158203125,0.10295885469317435,0.45173546748459337,-0.49764293991774317
1782858413490286000,0.4172861328125,0.1991167971998453,0.5177560458809137,-0.5693116072036326
1782858413500234200,0.427234130859375,0.23874504323303697,0.47493280319869513,-0.6503413925528526
1782858413510183200,0.43718310546875,0.10133388383984565,0.41539398803710936,-0.7737466768167912
1782858413520162000,0.447162109375,0.17354805617928504,0.39561610537767405,-0.35108868912607427
1782858413530111000,0.457111083984375,0.08145838602483273,0.2544944010287523,-0.4078868272773921
1782858413540060200,0.46706005859375,0.12780337309241294,0.1842342853665352,-0.609581950532645
1782858413550009000,0.477009033203125,0.3134025170713663,0.20560206756591795,-0.5973574058622122
1782858413559988000,0.486988037109375,0.200036834654212,0.1008002153545618,-0.5271934440508484
1782858413569937000,0.49693701171875,0.29344577071368694,-0.02382394317984581,-0.44250995849967
1782858413579885000,0.506885009765625,0.4319301122963428,-0.04309212275147438,-0.30544366702139375
1782858413589834000,0.516833984375,0.5538374130874872,-0.10084113188683987,-0.1705598341487348
1782858413599783200,0.526783203125,0.6198281808674335,-0.11785247244238853,-0.11228373239934444
1782858413609762300,0.53676220703125,0.5002180511027574,-0.07980126646757126,-0.09164820999726653
1782858413619711200,0.546711181640625,0.34365444747209545,-0.06381985348165035,-0.03916428178325295
1782858413629659100,0.5566591796875,0.33219197321534155,-0.08145955506861209,-0.03620820845663547
1782858413639608000,0.566608154296875,0.386477690154314,-0.0273491946965456,-0.011633154648542404
1782858413649587200,0.576587158203125,0.28645138178169727,0.024914076504111288,0.015484423249214887
1782858413659536100,0.5865361328125,0.20226737018525598,0.026197102051973342,0.05494155049920082
1782858413669485000,0.596485107421875,0.16514672305881975,0.08487842360138893,0.057949646274000406
1782858413679434000,0.60643408203125,0.08188508700430393,0.1455605635792017,0.02133022666797042
1782858413689413000,0.6164130859375,0.005925882917642593,0.16825637951195238,-0.01611936015188694
1782858413699362000,0.626362060546875,-0.09553425765037536,0.24660803169310092,0.02543079385459423
1782858413709310000,0.63631005859375,-0.16660159804224967,0.3211486011534929,0.07961012780964374
1782858413719259100,0.646259033203125,-0.11016659411489962,0.37137948974370955,0.08638853590339422
1782858413729208000,0.6562080078125,-0.0826619165956974,0.45001989573836326,0.10006079516410828
1782858413739187000,0.66618701171875,-0.09028408203721046,0.48697629221379757,0.12482640310823917
1782858413749136000,0.676135986328125,-0.12593173400163649,0.4630938968449831,0.1622135922163725
1782858413759085000,0.6860849609375,-0.21452888586521146,0.4731429971724748,0.14660802680552004
1782858413769033200,0.696033203125,-0.3500502859890461,0.5402852730751038,0.06852876182496548
1782858413779011800,0.70601171875,-0.43816403824985023,0.6014321079552173,-0.050861441578716034
1782858413788961300,0.715961181640625,-0.48012628018856046,0.6558674624979496,-0.14443068276643753
1782858413798910200,0.72591015625,-0.5223766914188862,0.6720365070104598,-0.19688041644990442
1782858413808859100,0.735859130859375,-0.4927338328272104,0.6423404569268226,-0.24759777338281272
1782858413818807000,0.74580712890625,-0.399586762574315,0.5900777702480554,-0.3325689898341894
1782858413828787200,0.755787109375,-0.26344167759418485,0.5656967777073383,-0.43409795785471794
1782858413838735000,0.765735107421875,-0.14718728799819947,0.5379863484829663,-0.5186741836391389
1782858413848684000,0.77568408203125,-0.05430325259566307,0.49675651247203345,-0.5510564771320671
1782858413858633000,0.785633056640625,-0.020105214917659757,0.3943547071397304,-0.5306906385168433
1782858413868612000,0.795612060546875,-0.0698433515548706,0.2938958525687456,-0.5226550699688494
1782858413878561000,0.80556103515625,-0.07128770514428615,0.2400029343396425,-0.48853112044036384
1782858413888510000,0.815510009765625,0.030984920850396155,0.19731004003882407,-0.4470749283276498
1782858413898458000,0.8254580078125,0.19010054705142973,0.17336860795915127,-0.38692821040078995
1782858413908438000,0.83543798828125,0.29554829595088955,0.14571955353319643,-0.27315686979219317
1782858413918386000,0.845385986328125,0.34261458303034303,0.0673164634257555,-0.16360205090008675
1782858413928335000,0.855335205078125,0.3485059791564941,0.008995791882276534,-0.05932078849673271
1782858413938284000,0.865283935546875,0.38939094725251194,0.0005108721315860748,0.019286445880681274
1782858413948232200,0.875232177734375,0.44320495502650736,0.01745265458226204,0.11060703135877847
1782858413958212000,0.885212158203125,0.427727984431386,0.07552256623506545,0.21395576215237377
1782858413968160300,0.89516015625,0.343299058163166,0.12827683582305907,0.2703168240606785
1782858413978109200,0.905109130859375,0.28008535388112066,0.24696517456769942,0.24869579775258896
1782858413988058000,0.91505810546875,0.1732581333220005,0.3257406051188707,0.15072254945226013
1782858413998037000,0.925037109375,0.12325929992198943,0.34843525200784203,0.07584726814478636
1782858414007986200,0.934986083984375,-0.019050152906775475,0.3505690491661429,0.019654037084057926
1782858414017935000,0.94493505859375,-0.20093173766732214,0.37368367503285405,-0.06967427859827875
1782858414027883000,0.954883056640625,-0.21606442486941813,0.4101686546042561,-0.15660795422904192
1782858414037832000,0.96483203125,-0.20938509323596954,0.4329208768993616,-0.2517629302382469
1782858414047811000,0.97481103515625,-0.23990122753083704,0.4313444213628769,-0.3291388692550361
1782858414057760000,0.984760009765625,-0.2090600990653038,0.3713946873128414,-0.38743046083450317
1782858414067709000,0.994708984375,-0.13038111462593077,0.2585170806735754,-0.4758528406530618
1782858414077658000,1.004658203125,-0.15472177515625954,0.13655132769346237,-0.5618791191153228
1782858414087637200,1.01463720703125,-0.17154665322899817,0.06941314344406127,-0.5782428094170987
1782858414097585000,1.0245849609375,-0.15892214945554733,0.059928691262006756,-0.5582347712635993
1782858414107534000,1.0345341796875,-0.21872926016449926,0.04213876754939556,-0.4859915189601481
1782858414117483300,1.044483154296875,-0.2382920387685299,0.016291794109344483,-0.4271757573761046
1782858414127462100,1.054462158203125,-0.216157948371768,-0.01132744970023632,-0.42758609174266454
1782858414137411000,1.0644111328125,-0.20543606334924697,-0.03506780624985695,-0.45000922821387646
1782858414147360000,1.074360107421875,-0.18647008159458636,-0.04446984084546566,-0.4513651728674769
1782858414157308200,1.08430810546875,-0.24554887802898884,-0.0025698504880070686,-0.4452518045537173
1782858414167257000,1.094257080078125,-0.3057335898786783,0.059604281613230704,-0.46337651317864653
1782858414177236000,1.104236083984375,-0.2934428481042385,0.11035860955566167,-0.5286994646996259
1782858414187185200,1.11418505859375,-0.33592940617799755,0.15542846212089062,-0.5805852808900177
1782858414197134000,1.124134033203125,-0.42478316315114495,0.15147154118865727,-0.6184135648291558
1782858414207083000,1.1340830078125,-0.3741390175849199,0.1606725002542138,-0.614241247580573
1782858414217062000,1.144061767578125,-0.276671746045351,0.2278621224299073,-0.5630025701873004
1782858414227011000,1.154010986328125,-0.2513701315283775,0.3019800825640559,-0.4907466775979846
1782858414236959000,1.163958984375,-0.24452128854691982,0.32532296422868967,-0.4677671493530273
1782858414246908200,1.173908203125,-0.18453005344271659,0.3508154251426458,-0.45322307569384573
1782858414256857000,1.183857177734375,-0.14537410109639168,0.3874854058921337,-0.4185387158036232
1782858414266836200,1.193836181640625,-0.18116496092379092,0.4223445378273725,-0.33685134332850575
1782858414276785200,1.20378515625,-0.10546586907804012,0.46111616703122854,-0.28432861747406424
1782858414286733000,1.213733154296875,-0.08303191895186901,0.5657482156336308,-0.2699989902831614
1782858414296682200,1.22368212890625,-0.143838562092185,0.6239777017623186,-0.24589959116280077
1782858414306661000,1.2336611328125,-0.12464403227865695,0.6292737623438239,-0.24465682456009089
1782858414316610000,1.243610107421875,-0.049475686308741565,0.6405985816955566,-0.2717539441917091
1782858414326559000,1.25355908203125,-0.031179566639661788,0.6150292561531067,-0.2528686995230615
1782858414336508200,1.263508056640625,-0.03776595929265022,0.5373471737965941,-0.2437261195812374
1782858414346487000,1.273487060546875,-0.06310439868867397,0.4765533901378512,-0.2885890513975173
1782858414356436000,1.28343603515625,-0.0024140754044055935,0.45547260818630453,-0.35081235640272496
1782858414366384000,1.293384033203125,0.06551964313685893,0.44570524740964174,-0.3988998032234609
1782858414376333000,1.3033330078125,0.10516250221729279,0.3916206060007214,-0.3905008812557906
1782858414386282000,1.313281982421875,0.16614333288073538,0.2790501656144857,-0.3746513510212302
1782858414396260900,1.3232607421875,0.22963117792904375,0.19023674065172672,-0.3385315515004098
1782858414406210300,1.333210205078125,0.2399988426864147,0.12095745272040366,-0.3372580244332552
1782858414416158000,1.343157958984375,0.23975801966786384,0.07784370265901089,-0.3757753866150975
1782858414426107100,1.353107177734375,0.24995617307722567,0.0680152593448758,-0.38432102357707915
1782858414436086300,1.363086181640625,0.18188333832621573,0.07808540246039629,-0.38999702338688075
1782858414446035200,1.37303515625,0.15201134715378284,0.08130874842107295,-0.4201351912148297
1782858414455984000,1.382984130859375,0.10536007061600684,0.09464403081238269,-0.4032217580758035
1782858414465933000,1.39293310546875,-0.08375672609508036,0.10871785661131143,-0.35057277549318966
1782858414475917800,1.402917724609375,-0.20075696562230586,0.11450666914582251,-0.33087621444165705
1782858414485898000,1.41289794921875,-0.16913023973703384,0.15003566316664219,-0.3639654140949249
1782858414495846000,1.422845947265625,-0.1478916368752718,0.23712387177199123,-0.3784235630363226
1782858414505795000,1.432795166015625,-0.23512685273587702,0.29415011959075926,-0.33948497976772485
1782858414515744000,1.442743896484375,-0.27790742532014845,0.29238953965902326,-0.3121921183682978
1782858414525723000,1.452722900390625,-0.2544394559711218,0.32470775493979454,-0.3044191462792456
1782858414535672000,1.462672119140625,-0.2708814722061157,0.362540349727869,-0.314885741366446
1782858414545621000,1.47262109375,-0.25657588347792626,0.37094869711101053,-0.31112609657198187
1782858414555569000,1.48256884765625,-0.2337941428273916,0.3436234678119421,-0.3237252467084676
1782858414565548800,1.492548828125,-0.2231242802530527,0.3015308774918318,-0.34464265479184686
1782858414575497000,1.5024970703125,-0.16604045702815054,0.2894125696748495,-0.36868528222367164
1782858414585446000,1.51244580078125,-0.14594576350450514,0.27536358605623246,-0.40522922544069584
1782858414595394800,1.522394775390625,-0.1271130527406931,0.1967243491053581,-0.39615152742862697
1782858414605343000,1.532343017578125,-0.156369542363286,0.14804127447903156,-0.375400561953336
1782858414615323000,1.542322998046875,-0.16646423539817332,0.13068214339911938,-0.383488152949512
1782858414625270800,1.552270751953125,-0.1285018767505884,0.13577508262395857,-0.4165155394129455
1782858414635219700,1.5622197265625,-0.13357143509984015,0.12234130829423666,-0.42218510948196053
1782858414645169000,1.5721689453125,-0.1354424896687269,0.09265344151705503,-0.38220943825058634
1782858414655148000,1.58214794921875,-0.06935235316753387,0.07847820117026567,-0.3166222828354686
1782858414665097000,1.592096923828125,-0.016036358043551444,0.05764087258577347,-0.23084069984927771
1782858414675046000,1.6020458984375,0.039945056897401805,0.012267360898852348,-0.15128770905435085
1782858414684994000,1.611994140625,0.05426993484795093,0.006430909830331802,-0.07431750129424035
1782858414694943000,1.62194287109375,0.05467325495183468,0.014045476487278937,-0.018852584508061408
1782858414704921900,1.631921875,0.05311491959393024,0.029050445656478404,0.004190729688107967
1782858414714871000,1.64187109375,0.02083177562654018,0.09942746569663286,-0.017850275597721336
1782858414724820000,1.651820068359375,-0.009869652107357978,0.17053718392550946,-0.05579718094784766
1782858414734767900,1.661767822265625,-0.05087795432209968,0.23882424594908952,-0.05261603016108274
1782858414744747800,1.671747802734375,-0.11768763726949691,0.3054422057166695,-0.006315759018063545
1782858414754696000,1.681696044921875,-0.12541910830438135,0.3506283781379461,0.03033843964040279
1782858414764644900,1.691644775390625,-0.05898351936638355,0.40275691704303024,0.07681406735032796
1782858414774593800,1.70159375,0.004677344161272049,0.42752866246700283,0.1283957860276103
1782858414784573000,1.711572998046875,0.055585693621635436,0.4264306380972266,0.1893281013742089
1782858414794521900,1.72152197265625,0.1181324584275484,0.42726825796514745,0.23189451975114642
1782858414804471000,1.731470947265625,0.2020364840388298,0.4329115245491266,0.25461773514747615
1782858414814419000,1.7414189453125,0.24364742832183836,0.4268307433307171,0.2538838679149747
1782858414824368000,1.7513681640625,0.26944237931370735,0.40066228285133837,0.25667992837429043
1782858414834347000,1.761346923828125,0.18047580961585044,0.3809612648203969,0.26707521179094906
1782858414844296000,1.7712958984375,0.175894327044487,0.37624095830023285,0.23219869032949209
1782858414854244900,1.781244873046875,0.2001198367625475,0.3984779245495796,0.1794103723414242
1782858414864193800,1.79119384765625,0.10826280632019042,0.4006026616185903,0.13919614311382172
1782858414874173000,1.8011728515625,0.07239362055957317,0.3517430613815784,0.11713336438760161
1782858414884121900,1.811121826171875,0.07953004831075668,0.31452772170901294,0.10266527857407927
1782858414894070000,1.821070068359375,0.07669511714577674,0.2842477342575788,0.05674348535463213
1782858414904019000,1.83101904296875,0.11872107197046279,0.26418168230652805,0.03568506136536598
1782858414913967900,1.8409677734375,0.11536416275799274,0.20523235747069118,0.04496664791908115
1782858414923946800,1.85094677734375,0.1084469307154417,0.144336574742198,0.029612463453412053
1782858414933896000,1.86089599609375,0.08771744641959667,0.11411533174067735,0.04523746421709657
1782858414943843800,1.87084375,0.12016016486287116,0.06851999399662018,0.02047868787255138
1782858414953792800,1.880792724609375,0.1644219159156084,0.018823942935466766,0.01925590461194515
1782858414963772000,1.89077197265625,0.11773439902067184,0.001967500680685043,0.039751141760498286
1782858414973721000,1.90072119140625,0.10880641167759894,0.03790186063200235,-0.0006766206199303269
1782858414983670000,1.910669921875,0.13552023108005523,0.07718553101122379,-0.049018297930061815
1782858414993619000,1.920618896484375,0.11312310583293438,0.09181436034440994,-0.10046952209547161
1782858415003598000,1.93059814453125,0.06897592107057571,0.10707125844806432,-0.1294403266444802
1782858415013547000,1.940547119140625,0.10598901616930961,0.13100216913372278,-0.12175167183801532
1782858415023495000,1.950494873046875,0.16768413258194922,0.14698445890247822,-0.1160552137620747
1782858415033443800,1.96044384765625,0.21106091749370096,0.11759732863754033,-0.06701324269548058
1782858415043393000,1.97039306640625,0.2311322301417589,0.0691790424272418,-0.034503011973947284
1782858415053372000,1.980371826171875,0.287716287150979,0.09037468293011187,0.02662117268294096
1782858415063320800,1.99032080078125,0.262732652541995,0.059526540201902386,0.03406681251376867
1782858415073269000,2.00026904296875,0.15125965200364588,0.01879442458003759,0.011093019889853895
1782858415083218000,2.010218017578125,0.10089783051013947,0.008401917642354964,0.00007248071432113647
1782858415093196800,2.02019677734375,0.06638765814304351,0.07237433133721351,-0.000036240357160568236
1782858415103145700,2.030145751953125,-0.019748656564950944,0.08624562030136584,-0.01614683268070221
1782858415113095000,2.040094970703125,-0.1464806010335684,0.06477876164168118,-0.004035392995923757
1782858415123044000,2.050044189453125,-0.2442079848140478,0.06935995195209979,-0.0058035717122256756
1782858415132992000,2.059991943359375,-0.30428514463603495,0.11055910056382418,-0.03857380507681519
1782858415142972000,2.069971923828125,-0.37370588686466216,0.15674597446024416,-0.09065729926377535
1782858415152920000,2.079920166015625,-0.4505576558768749,0.16365268510878084,-0.16612813531160353
1782858415162869000,2.089868896484375,-0.44255964286029337,0.18476210863292217,-0.27438933419659733
1782858415172818000,2.09981787109375,-0.37533845650255676,0.22537819665968417,-0.3582831306748092
1782858415182797000,2.109797119140625,-0.3304161957144737,0.23755817153602837,-0.38988253016173835
1782858415192746000,2.11974609375,-0.2121796923905611,0.22744594284445047,-0.389775306927599
1782858415202695000,2.12969482421875,-0.06415536904633044,0.21063947721123694,-0.3706253103755414
1782858415212642800,2.139642822265625,0.05669862329959869,0.1936336896136403,-0.33490707739293574
1782858415222592000,2.149592041015625,0.18826222570836543,0.1693041349992156,-0.25405940714497116
1782858415232571000,2.15957080078125,0.2864636567413807,0.15289982042610645,-0.1865647741407156
1782858415242519800,2.169519775390625,0.3719564128488302,0.11327157439291477,-0.16253054921105503
1782858415252468700,2.17946875,0.4448842864155769,0.06777648215293884,-0.11821019983887672
1782858415262417000,2.1894169921875,0.5289759435534477,0.03174713739454746,-0.059183571983128784
1782858415272396800,2.199396728515625,0.5238268902271985,-0.02019756937623024,-0.00024725275933742524
1782858415282344700,2.2093447265625,0.4788841711729765,-0.06758358992934227,0.04225698710158467
1782858415292294100,2.219294189453125,0.4445505244165659,-0.05811462757736444,0.0882192584618926
1782858415302243000,2.2292431640625,0.4397194509983062,-0.05229892703592777,0.06626344724148511
1782858415312222000,2.239221923828125,0.4700298335880041,-0.04230418724417686,0.052887832839787007
1782858415322171000,2.2491708984375,0.48370472319722174,-0.04509937092065811,0.07931275229826569
1782858415332120000,2.2591201171875,0.4791787702053785,-0.08381576280593872,0.1061732866950333
1782858415342068000,2.26906787109375,0.4833148470968008,-0.13605360730439423,0.0838567889360711
1782858415352017000,2.279016845703125,0.4655529804348945,-0.16327742205560206,0.04737535302862525
1782858415361996000,2.28899609375,0.3556891686588526,-0.1366752463340759,0.05360927898213267
1782858415371945000,2.298945068359375,0.26532091546952724,-0.1488981835693121,0.0715020785473287
1782858415381894000,2.308893798828125,0.1931909142822027,-0.1464370541527867,0.048313766389898954
1782858415391841800,2.318841796875,0.0443850851714611,-0.10583411786854266,-0.06347264747917651
1782858415401822000,2.328822021484375,-0.10161854600012302,-0.05982523088753223,-0.17743936452940107
1782858415411769900,2.338769775390625,-0.1355044489890337,-0.016394377700984477,-0.1769286385282874
1782858415421718800,2.34871875,-0.16340134069621562,0.05904518642574549,-0.12740969759970902
1782858415431667700,2.358667724609375,-0.17814824345111846,0.16191314796507358,-0.07176862052902579
1782858415441617000,2.368616943359375,-0.0397492420643568,0.23136136272251603,-0.03209522017985582
1782858415451596000,2.378595947265625,0.05610299549400806,0.21336393373906612,0.07815802930518985
1782858415461545000,2.388544921875,0.06018120471835136,0.16918343122899532,0.20353695172965525
1782858415471496700,2.39849658203125,0.06218260766863823,0.15817454595863817,0.3023574645090848
1782858415481445600,2.408445556640625,0.15864567060172557,0.1183195054322481,0.29917094342745837
1782858415491424500,2.418424560546875,0.23856851762235162,0.12792232329696415,0.2709815715797245
1782858415501373400,2.42837353515625,0.11291618508398532,0.19151976619958877,0.23473449241742492
1782858415511322600,2.438322509765625,-0.0681967533916235,0.275644156563282,0.13314086166284977
1782858415521270500,2.4482705078125,-0.17206921579837797,0.345216289961338,-0.011514350574463605
1782858415531250400,2.45825048828125,-0.287402983418107,0.4211319471672177,-0.11781542836762963
1782858415541198600,2.468198486328125,-0.3340980990976095,0.48392245760113,-0.18457360032349823
1782858415551147500,2.4781474609375,-0.2939648261517286,0.5104711495697498,-0.24256306715123355
1782858415561096400,2.488096435546875,-0.23540391611158845,0.5404217589363456,-0.2756461293246597
1782858415571045600,2.498045654296875,-0.1439303320288658,0.5438038025900721,-0.25062274722717703
1782858415581024800,2.508024658203125,-0.0037292496562004087,0.5165834949702024,-0.18637093206904828
1782858415590973700,2.5179736328125,0.16293313866257667,0.4646931487351656,-0.10614479125291108
1782858415600921600,2.527921630859375,0.3170277218312025,0.3933712490603328,-0.05261398433446884
1782858415610870500,2.53787060546875,0.44088206503689287,0.2886968226209283,0.015358458781987428
1782858415620849700,2.547849609375,0.5476444036662578,0.14460311672389506,0.13497136502563953
1782858415630798600,2.557798583984375,0.5740946036964655,0.00206043966114521,0.2595256731942296
1782858415640747500,2.56774755859375,0.4037964892238378,-0.06201748023480177,0.32821590919122096
1782858415650696400,2.577696533203125,0.20787644223868845,-0.06272562850415707,0.3684346684634685
1782858415660644600,2.58764453125,0.08516367028355598,-0.08083762377798556,0.396308179295063
1782858415670624500,2.59762451171875,0.05314414568841457,-0.12675094143003224,0.34527050436660645
1782858415680572400,2.607572509765625,0.08728840735256671,-0.15711305420696733,0.2606877027109265
1782858415690521600,2.617521484375,0.11484510731995105,-0.17199878091067075,0.17106632236614822
1782858415700470500,2.627470458984375,-0.13524842840135096,-0.18418167839646338,0.16234481738060713
1782858415710449400,2.637449462890625,-0.6433405738800764,-0.21129092685729264,0.10321399849802255
1782858415720398300,2.6473984375,-0.7026169387131929,-0.05391513006091118,-0.14301526301056144
1782858415730346500,2.657346435546875,-0.6651964318573474,0.16251462098956107,-0.4839955228373408
1782858415740295700,2.667295654296875,-0.5598784468173981,0.2894099393263459,-0.8670229264073074
1782858415750274300,2.6772744140625,-0.5223930580317974,0.43347967982590196,-0.9701771575421094
1782858415760223700,2.6872236328125,-0.5850041202455759,0.3691477851688862,-0.9040451546605676
1782858415770172700,2.697172607421875,-0.36585751145184037,0.13352467334866522,-0.7751411268498748
1782858415780121600,2.70712158203125,0.007500584888458252,0.06248159061521291,-0.6002960165973752
1782858415790069500,2.717069580078125,0.2370359012275934,0.11286503941863775,-0.47508792069517075
1782858415800049700,2.727049560546875,0.4512748642355203,0.10440759219676256,-0.39418139639943833
1782858415809997600,2.73699755859375,0.590544803237915,0.041593116365373134,-0.2945485443238169
1782858415819946500,2.746946533203125,0.48911856493949885,0.018615268620848655,-0.20431071258112787
1782858415829895400,2.7568955078125,0.37381577697992324,0.028330606949329373,-0.21384835625514387
1782858415839874600,2.76687451171875,0.47319560414254663,0.10092004234194756,-0.2926393497016281
1782858415849823500,2.776823486328125,0.4645259754747152,0.18668080173581839,-0.31714075375162065
1782858415859771400,2.786771484375,0.3666320029556751,0.15820874048918485,-0.34753223875351247
1782858415869720600,2.796720458984375,0.41761283313035963,0.15248685571104287,-0.32983985713124275
1782858415879669500,2.80666943359375,0.36223756738901136,0.1968950294971466,-0.33816103768758476
1782858415889648400,2.8166484375,0.2883931634992361,0.18744097245335578,-0.33540779345668853
1782858415899597600,2.82659765625,0.3332826910614967,0.10478431655466557,-0.27729250829219815
1782858415909546500,2.83654638671875,0.33052842391729353,0.04807955577522516,-0.18941000750400125
1782858415919494700,2.84649462890625,0.285260126170516,0.012619243076443671,-0.12790763718448578
1782858415929474600,2.856474609375,0.2557715813577175,-0.011429741030931473,-0.08318002218566835
1782858415939422700,2.866422607421875,0.13609890775084496,-0.008071955035626887,-0.05903006192184984
1782858415949371600,2.87637158203125,-0.006828384715318679,-0.0034691374152898786,-0.12015073944739997
1782858415959320600,2.886320556640625,-0.15492635781764982,-0.011419511897861957,-0.21276545638926325
1782858415969299500,2.896299560546875,-0.23972645548582075,-0.008597147953510284,-0.2677126329116523
1782858415979248600,2.90624853515625,-0.24331658893227576,0.0465527845993638,-0.31799824736379084
1782858415989197600,2.916197509765625,-0.3016688246577978,0.10668109008669853,-0.34017354655377563
1782858415999145500,2.9261455078125,-0.33014497755765915,0.14243395599126815,-0.27225889803916214
1782858416009094400,2.936094482421875,-0.41221769608855247,0.11770809553563594,-0.2595149326045066
1782858416019073500,2.946073486328125,-0.48321197124421594,0.09708002578765153,-0.2824806515198201
1782858416029022500,2.9560224609375,-0.4858090020000934,0.08245850297808646,-0.27593422555103897
1782858416038971400,2.965971435546875,-0.3939122240692377,0.06383388200700282,-0.22329057673066854
1782858416048919600,2.97591943359375,-0.27795418707132336,0.08985884236246347,-0.11964081716388464
1782858416058899700,2.985899658203125,-0.21176409732699392,0.07769143470674753,-0.0049731122374534606
1782858416068847600,2.99584765625,-0.15983634169101715,0.04057750958204269,0.09389489294551312
1782858416078796500,3.005796630859375,-0.03888298062384128,0.0025058453410863875,0.11680851634740828
1782858416088745500,3.015745361328125,0.0901215849518776,-0.03709259007573128,0.07819353900998831
1782858416098694700,3.025694580078125,0.11351064384579658,-0.0581926612496376,0.08559599728621542
1782858416108673500,3.035673583984375,0.06083703827857971,-0.08663198927044868,0.11727467255443334
1782858416118622500,3.04562255859375,0.025046178451180456,-0.08102759339213371,0.09505969894118607
1782858416128570600,3.055570556640625,-0.005030979904532432,-0.018956044882535935,0.06747691468447446
1782858416138519600,3.06551953125,0.0689461104542017,-0.00954933411180973,-0.005562310302257538
1782858416148498400,3.07549853515625,0.18292437181174753,0.005877952122688293,-0.019357392225041986
1782858416158447600,3.085447509765625,0.23847733220756054,0.04485036459565162,-0.01328589029163122
1782858416168396500,3.095396484375,0.26812545149624345,0.07429974644184112,0.03734693016298115
1782858416178344400,3.105344482421875,0.27240181364119054,0.11418898149877786,0.07647891711182891
1782858416188324400,3.115324462890625,0.2942582561403513,0.15102642776966094,0.03213036455847323
1782858416198272500,3.1252724609375,0.3417266942799091,0.19707447771728037,-0.01134790796637535
1782858416208221400,3.135221435546875,0.4304530254811048,0.25705314560085535,-0.0029077041402459144
1782858416218170600,3.145170654296875,0.5342039073348045,0.29065321738570926,0.0553667171087116
1782858416228119600,3.15511962890625,0.6141682554095983,0.2631730897858739,0.06688472094498574
1782858416238098700,3.1650986328125,0.6713526163995266,0.22013737339675427,0.06337225584462285
1782858416248047600,3.175047607421875,0.644074148851633,0.19610767851173877,0.04303118634447455
1782858416257995500,3.18499560546875,0.581143353164196,0.1851221741169691,0.03645253860652446
1782858416267944400,3.1949443359375,0.5224848279684782,0.195062845633924,0.03393799850232899
1782858416277923600,3.204923583984375,0.4388409145981073,0.2217187973693013,0.01782945200540125
1782858416287872500,3.21487255859375,0.3347206149101257,0.23885551787018774,0.038363779055327174
1782858416297821400,3.224821533203125,0.28181612319648264,0.23052549642026424,0.08345182486437261
1782858416307770400,3.234770263671875,0.218231832036376,0.17859364913105963,0.08798011594377457
1782858416317718500,3.244718505859375,0.12585633067786692,0.10519991161823272,0.08701214769445359
1782858416327698400,3.254698486328125,0.055744683575630186,0.07398498140424489,0.10165200987830758
1782858416337646600,3.264646484375,-0.0074216744333505625,0.06906681422442197,0.11794000459536909
1782858416347595500,3.274595458984375,-0.05296469746828079,0.06186345871686935,0.12358290585316717
1782858416357544400,3.28454443359375,-0.1164595567792654,0.01842559126764536,0.11581979757100343
1782858416367523300,3.2945234375,-0.11377718582749366,0.05313742368668317,0.08985204729549587
1782858416377472500,3.304472412109375,-0.06578560059666633,0.15074410369694233,0.08192081590481103
1782858416387420700,3.314420654296875,-0.10608195514976977,0.1200011749088764,0.074127458614856
1782858416397369600,3.32436962890625,-0.18074001350998878,0.08525485569834709,0.0332947321627289
1782858416407348700,3.3343486328125,-0.24806173763275144,0.08317921846807003,0.03081665161140263
1782858416417297700,3.344297607421875,-0.2816816831618547,0.09752221659719944,0.019700944965705274
1782858416427246600,3.35424658203125,-0.30589842505156994,0.14091215325146914,0.00013502455651760102
1782858416437195500,3.364195556640625,-0.2770020009130239,0.14952975947111843,-0.052858387549594044
1782858416447143700,3.374143798828125,-0.24470190581083295,0.12448475006371736,-0.09729958682246506
1782858416457123600,3.38412353515625,-0.24143267488181588,0.11937924361824989,-0.10459880391992628
1782858416467071500,3.394071533203125,-0.25073183362483975,0.1196791033476591,-0.1440336462728679
1782858416477036800,3.404036865234375,-0.21676409757137297,0.14650719677954913,-0.2162944342330098
1782858416486986000,3.413986083984375,-0.14723931044638155,0.17926731060892342,-0.29234270484261216
1782858416496964900,3.42396484375,-0.10687105970084666,0.23584581466019153,-0.35902810382321476
1782858416506913800,3.433913818359375,-0.02706336349248886,0.282568987390399,-0.35064942092597484
1782858416516862000,3.443862060546875,0.040821255210042,0.2769388725489378,-0.29002324891909953
1782858416526811000,3.453810791015625,0.08950842148959637,0.26729075423777104,-0.22043314147293566
1782858416536759800,3.463759765625,0.18691431823074817,0.2603893042862415,-0.15355068555027246
1782858416546739000,3.473739013671875,0.3321446269422769,0.21810499078631398,-0.08848784627020359
1782858416556688000,3.48368798828125,0.4138999500870704,0.18630057024657726,-0.011777823816239832
1782858416566636800,3.49363671875,0.41991175772249695,0.1808078180491924,0.05520122434869408
1782858416576584700,3.503584716796875,0.43479076242446896,0.1803574439331889,0.08331636191643774
1782858416586564900,3.51356494140625,0.4505173238664865,0.15011515814363954,0.08557575821578502
1782858416596512800,3.5235126953125,0.4450122967094183,0.12528817540109158,0.0666333034671843
1782858416606461700,3.533461669921875,0.3710375444382429,0.15270049846172332,0.0690568773522973
1782858416616410600,3.54341064453125,0.32495851483047006,0.16246785923838614,0.04473448313102126
1782858416626389800,3.5533896484375,0.33705344177186486,0.1363444069445133,-0.005361234772205352
1782858416636338700,3.563338623046875,0.26733225529193877,0.09762041627466678,-0.03989654158055782
1782858416646286800,3.573286865234375,0.22116496287882326,0.07779431055933236,-0.04869871058687567
1782858416656236000,3.583236083984375,0.18050211310088635,0.057955929884314535,-0.06345394277870654
1782858416666185000,3.59318505859375,0.12481997336745261,0.06963292367458343,-0.07490384981483221
1782858416676163800,3.603163818359375,0.1317652624607086,0.05468202278017997,-0.0675844667121768
1782858416686112800,3.61311279296875,0.16704700372219083,0.03952390887588262,-0.049919484553486104
1782858416696062000,3.62306201171875,0.10967618024945258,0.015485153901576995,-0.03717369248792529
1782858416706009900,3.633009765625,0.02400514496564865,0.027036475485563278,-0.0602699059151113
1782858416715989800,3.64298974609375,-0.004881342300772667,0.06614771190732717,-0.08346453821547328
1782858416725938000,3.65293798828125,0.02304360645711422,0.07296206809729337,-0.0897637844901532
1782858416735886800,3.662886962890625,0.05850771854817867,0.06315232948362827,-0.053225394231081004
1782858416745835800,3.672835693359375,0.07138765838742256,0.05133855757117271,-0.010490122093260288
1782858416755784700,3.68278466796875,0.04188450052738189,0.043025487256050106,-0.0061035775721073144
1782858416765763800,3.692763916015625,0.01585924791097641,0.0598547492429614,0.013736410538107155
1782858416775712800,3.702712646484375,0.015130349114537239,0.08591215056329965,0.054053515618294475
1782858416785660700,3.71266064453125,-0.029340076252818106,0.10458967076539993,0.07799070991426706
1782858416795609600,3.722609619140625,-0.015450667110085487,0.1280123396679759,0.07147445988804102
1782858416805588700,3.732588623046875,0.03188800716996193,0.15178104552924632,0.048425592733919616
1782858416815538000,3.742537841796875,0.041885669571161264,0.14918810642659663,0.047724750988185405
1782858416825486800,3.75248681640625,0.04530687619149685,0.14315233339369296,0.057601125097274775
1782858416835435000,3.76243505859375,0.08655074072778224,0.14589315653443335,0.052420215328037735
1782858416845384000,3.772384033203125,0.1573030238211155,0.1781856528520584,0.03769084822982549
1782858416855362800,3.78236279296875,0.18906126713156698,0.2046314689680934,-0.010811755263060331
1782858416865311700,3.792311767578125,0.2252723981976509,0.1911804512426257,-0.00304579743668437
1782858416875261000,3.802260986328125,0.24231881006658076,0.16953677471131084,0.002537701784074306
1782858416885209900,3.8122099609375,0.251442027720809,0.17011457459926604,0.007787073679640889
1782858416895188700,3.822188720703125,0.2847071684628725,0.14021043472290037,0.009499942012131214
1782858416905137700,3.8321376953125,0.274607214730978,0.11061696823090314,0.020338731412589548
1782858416915085800,3.8420859375,0.22212124069035052,0.0908636354908347,0.013960940008983016
1782858416925034800,3.85203466796875,0.23054946181774139,0.06483575252592563,0.0002810088984668255
1782858416935014000,3.862013916015625,0.239323135381937,0.030091186881065365,-0.0111855570115149
1782858416944962800,3.871962890625,0.2049725374907255,0.0006684007808566093,-0.016456263956055043
1782858416954912000,3.881912109375,0.18918927742540836,-0.034680852758884426,-0.019701018030941486
1782858416964859600,3.891859619140625,0.18781331289708614,-0.048857262149453164,-0.02236022730283439
1782858416974808800,3.901808837890625,0.1434726513892412,-0.05192863241881132,-0.006365370313450694
1782858416984788000,3.9117880859375,0.1140016422331333,-0.055391924615204334,-0.01183262274339795
1782858416994737000,3.92173681640625,0.1223281565517187,-0.049691082625091074,-0.016081000902876258
1782858417004685800,3.931685791015625,0.11703063466548919,-0.049365503932535644,-0.027115970462560653
1782858417014634800,3.941634765625,0.08736147258877754,-0.052441550377011294,-0.04393471105545759
1782858417024614000,3.95161376953125,0.02849719568789005,-0.05224690458774566,-0.06875000336021185
1782858417034562800,3.961562744140625,0.019409049347043038,-0.04031389020979404,-0.09938464946821332
1782858417044510700,3.9715107421875,0.022749591946601866,-0.0294797769844532,-0.11977642624229191
1782858417054460000,3.9814599609375,0.02528524790406227,0.005842880809307098,-0.10949629363790153
1782858417064408800,3.991408935546875,0.004780804535746574,0.012137889300286768,-0.08282616724669933
1782858417074387700,4.0013876953125,-0.02843231375813484,-0.010859832188487052,-0.08526026252582669
1782858417084336600,4.011336669921875,-0.07286182259321212,-0.013416530933976172,-0.09232099469229578
1782858417094285800,4.021285888671875,-0.1234481004923582,-0.009361702585220337,-0.11685703166425228
1782858417104233700,4.031233642578125,-0.131982704603672,0.03217909907102585,-0.1630873063109815
1782858417114214000,4.0412138671875,-0.12437106055617332,0.09402619117498397,-0.20588906781375407
1782858417124161800,4.051161865234375,-0.11800503265559673,0.09892857626378536,-0.22927966107763348
1782858417134111000,4.061111083984375,-0.06912088249921798,0.10322685797959566,-0.2416488018505275
1782858417144060000,4.071059814453125,-0.0012678279787302017,0.12449322563111781,-0.2454400108270347
1782858417154038800,4.081038818359375,0.07249123571515083,0.09920856224894523,-0.20203239238560197
1782858417163988000,4.090988037109375,0.149511931553483,0.0857794640943408,-0.15452829841077326
1782858417173935900,4.100935791015625,0.19180735096931456,0.0776966954037547,-0.11932817101813852
1782858417183884800,4.110884765625,0.2415811434417963,0.07151683772504329,-0.08582103821374476
1782858417193833700,4.120833740234375,0.22873101421892642,0.06708733084499835,-0.050934360684454436
1782858417203812900,4.130812744140625,0.19018354915976524,0.07735358105450868,-0.0133728379227221
1782858417213761800,4.14076171875,0.17825638000071048,0.08816080627292394,0.02066460236608982
1782858417223710700,4.150710693359375,0.15584171909689903,0.12115209850966929,0.037866789318621155
1782858417233659000,4.160658935546875,0.16918927644789217,0.12384732894301413,0.061482204314321276
1782858417243638800,4.170638671875,0.19080138879716396,0.09225567437112331,0.1216463117673993
1782858417253586700,4.180586669921875,0.1484001709192991,0.058448681837320327,0.16747107435315847
1782858417263535600,4.19053564453125,0.09008359102904796,0.05351473256647586,0.1605064960375428
1782858417273485000,4.200485107421875,0.07642915968596935,0.09879647431671619,0.1425138893596828
1782858417283432700,4.2104326171875,0.07582067239880562,0.1453203250825405,0.13337722770199179
1782858417293412900,4.220412841796875,0.0397755455493927,0.16713877365887164,0.1541213981103152
1782858417303361000,4.230361083984375,0.07686930466890335,0.1431114168614149,0.16420140503272412
1782858417313310000,4.24031005859375,0.0535655859708786,0.15865765330046414,0.14616189047321676
1782858417323259000,4.2502587890625,0.01576513988673687,0.16603928798437118,0.08062054696120322
1782858417333237800,4.26023779296875,0.03337386181354522,0.12449673276245593,0.019949439834058284
1782858417343187000,4.27018701171875,0.0842868874490261,0.08029518746435642,-0.01742985822856426
1782858417353135900,4.280135986328125,0.10013678300976753,0.07005114908665418,-0.016579086618125436
1782858417363083800,4.290083740234375,0.11028934371173381,0.04962298582494259,0.015274141499400137
1782858417373063700,4.300063720703125,0.07736497923135757,0.0032817981496453285,0.036111470083892344
1782858417383011800,4.31001171875,0.049775546038150785,-0.028477906465530393,0.053996816994994874
1782858417392960800,4.319960693359375,0.06635024874210357,-0.03151391316056251,0.06436141301244497
1782858417402909700,4.32990966796875,0.05646364549994468,-0.03397621162086725,0.05822407930120825
1782858417412858600,4.339858642578125,0.043723990914225574,-0.014426877020299433,0.07066789274550973
1782858417422837800,4.349837646484375,-0.005869184294342994,0.016341478469967842,0.03767477387785911
1782858417432787000,4.359786865234375,-0.03706453302502632,0.07402151402235031,-0.00902647928148508
1782858417442734600,4.369734619140625,-0.013920388802886008,0.12131167298555373,-0.06058474401794374
1782858417452684000,4.37968408203125,-0.022777064475417136,0.16103110443353652,-0.10475202172026038
1782858417462663000,4.389662841796875,-0.016780454409122465,0.17214608042687177,-0.10546543068662285
1782858417472618200,4.3996181640625,0.03023965544104576,0.17994214113056659,-0.10022314611896872
1782858417482567400,4.4095673828125,0.08426116848587989,0.1715887388050556,-0.0927315482545644
1782858417492515600,4.419515625,0.15937340035438535,0.15839637201577425,-0.06691774643175304
1782858417502464500,4.429464599609375,0.21229893485605716,0.18248714943826197,-0.02888597580976784
1782858417512443600,4.439443603515625,0.24992519341707228,0.18725334092676638,0.019912176563590765
1782858417522392600,4.449392578125,0.2927712324529886,0.1857163406178355,0.03785422209799289
1782858417532341500,4.459341552734375,0.32575171103477474,0.188958683539927,0.05464220222644508
1782858417542290400,4.46929052734375,0.28756606502532955,0.19233809684515,0.021249489581957458
1782858417552269600,4.47926953125,0.26144787342846393,0.21534721651077268,0.003225464852526784
1782858417562218500,4.489218505859375,0.2972188595116138,0.1877583678394556,0.022959727565944194
1782858417572166400,4.49916650390625,0.29694471874535083,0.17056962489038704,0.04953910693377256
1782858417582115300,4.509115234375,0.2638403215229511,0.17764117071181534,0.031149975218996404
1782858417592094500,4.519094482421875,0.23415011665821073,0.08973492372184991,0.009980857396870851
1782858417602043400,4.52904345703125,0.17523732444047926,0.037600247336924075,0.0006603636048734188
1782858417611992300,4.538992431640625,0.09813304197192191,0.0066512745827436446,-0.0029393413875252006
1782858417621940500,4.5489404296875,0.042508769905567165,-0.058311903715133666,-0.024101298816502092
1782858417631889400,4.558889404296875,-0.06622106940448284,-0.07447481074780225,-0.05931779282204806
1782858417641868300,4.568868408203125,-0.215102301838994,-0.05253595066219568,-0.12141535255573689
1782858417651817500,4.5788173828125,-0.3163531835705042,-0.029221710570156573,-0.171310579450801
1782858417661766700,4.5887666015625,-0.4054956943571567,-0.030099370187520978,-0.20201193411946294
1782858417671715600,4.598715576171875,-0.42998248535990713,0.01377484285235405,-0.2219590358659625
1782858417681694500,4.608694580078125,-0.4485071530878544,0.03756313019692897,-0.21011969112083315
1782858417691643400,4.618643310546875,-0.48661798029541964,0.03272913416922092,-0.18340835593640803
1782858417701591600,4.628591552734375,-0.416136915358901,0.02815963429659605,-0.1677143085245043
1782858417711540500,4.63854052734375,-0.2708165902763605,0.05624123492091894,-0.15840937762781976
1782858417721489400,4.648489501953125,-0.15409633673429488,0.11254384464025496,-0.0960509750008583
1782858417731468500,4.658468505859375,-0.03744096512198448,0.12544774987697602,-0.04014335594847798
1782858417741417500,4.66841748046875,0.11665654065608978,0.09644377371072768,0.028641134203225373
1782858417751366400,4.678366455078125,0.25339959152936936,0.07396393861621618,0.04104994939938188
1782858417761314300,4.688314208984375,0.33624797060787676,0.07821224371045828,0.04818418519347906
1782858417771293400,4.69829345703125,0.37133038990497585,0.07829378451406956,0.08869681284576654
1782858417781242400,4.708242431640625,0.3397802363872528,0.0642097295820713,0.0998328316271305
1782858417791191300,4.71819140625,0.2781459102511406,0.0273100317299366,0.06985971816778183
1782858417801140500,4.728140380859375,0.27890052801072596,0.02426175007522106,0.004979505445621908
1782858417811119600,4.73811962890625,0.3109539548754692,0.07854308310002088,-0.04418956259936094
1782858417821068500,4.748068603515625,0.2430015316337347,0.10812485915422439,-0.04810936639159918
1782858417831016400,4.758016357421875,0.16375030026435852,0.06287585062980651,-0.06152443602085113
1782858417840965600,4.767965576171875,0.10724749179780482,0.01595160236954689,-0.07933452573865651
1782858417850914600,4.77791455078125,0.08000117295384407,0.002233165879547596,-0.11204232485890388
1782858417860893400,4.7878935546875,0.08415712358951569,0.02474281159043312,-0.10879077571704983
1782858417870842400,4.79784228515625,0.10072072037756442,0.033038346248865126,-0.0887464972063899
1782858417880791600,4.80779150390625,0.09505085804760456,-0.0014855623826384543,-0.10628540529999882
1782858417890739500,4.817739501953125,0.0732417618215084,-0.02147328840047121,-0.11099237741455435
1782858417900719400,4.82771923828125,0.06629822629392147,-0.023522914406657217,-0.12098916303291916
1782858417910667500,4.83766748046875,0.09443184936642646,-0.013224223232269286,-0.11679346490874885
1782858417920616400,4.847616455078125,0.11495967361032962,0.022566636595129964,-0.11178352779224514
1782858417930565400,4.8575654296875,0.10088087937533854,0.03587912263274193,-0.08921791411042213
1782858417940513300,4.86751318359375,0.11335223841369152,0.034466917747259136,-0.03478226730674505
1782858417950493400,4.877493408203125,0.1339665718972683,0.0443938529998064,-0.006280103182792663
1782858417960441300,4.88744140625,0.12767127114534377,0.06331979500502348,0.01646656615436077
1782858417970390500,4.897390625,0.10435820009708403,0.06732698481976986,0.041596586964093143
1782858417980339500,4.90733935546875,0.1105471178650856,0.09388152200728654,0.0770060462584719
1782858417990318600,4.917318603515625,0.08345511280000209,0.09822188929915428,0.08166369933858514
1782858418000267500,4.927267578125,0.04055237514078617,0.10080839866101741,0.03429126891940832
1782858418010216400,4.937216552734375,-0.01251169104874134,0.09708616326749324,-0.03707958446368575
1782858418020164600,4.94716455078125,0.01903203272819519,0.09933277315050362,-0.061946460825204844
1782858418030144500,4.95714453125,0.046934185132384294,0.1099780858054757,-0.0785216019205749
1782858418040092400,4.967092529296875,0.018040683603286742,0.09753419929593801,-0.06904577143639326
1782858418050041300,4.977041259765625,0.041706221351027487,0.06768120508491993,-0.04865238722711801
1782858418059990500,4.986990478515625,0.1364893683731556,0.055365621130168435,-0.0742422075683251
1782858418069939500,4.996939453125,0.21264672538042068,0.06542728867828845,-0.09594108488559722
1782858418079918300,5.00691845703125,0.21147709707915782,0.06455985819399357,-0.08264876485317944
1782858418089866500,5.016866455078125,0.25093583176434037,0.05048398656845093,-0.0742874714821577
1782858418099815400,5.0268154296875,0.3210544931292534,0.061119654612243175,-0.09754676651656627
1782858418109764400,5.036764404296875,0.3085673519998789,0.08509118956923484,-0.1216989187374711
1782858418119743200,5.0467431640625,0.3131184394329786,0.08035363965332508,-0.12849957519564778
1782858418129692700,5.056692626953125,0.3383645243704319,0.10285510205775499,-0.15121497261170297
1782858418139641600,5.0666416015625,0.3350122913330793,0.12389935139119625,-0.14365268413126467
1782858418149589500,5.076589599609375,0.33504151742756366,0.14868600212335586,-0.09993863008916377
1782858418159538400,5.086538330078125,0.2963970217347145,0.13005202880203723,-0.061770665866881604
1782858418169517600,5.096517578125,0.26275837150514125,0.10333061061501503,-0.035706104153394695
1782858418179466500,5.106466552734375,0.22614508937895297,0.11614683756828308,-0.027160686387121675
1782858418189415400,5.11641552734375,0.19309213008284568,0.13312778298556804,-0.028330460818856953
1782858418199364400,5.1263642578125,0.1396037010014057,0.13442308349311352,-0.04848989014178514
1782858418209343500,5.136343505859375,0.03243628870248794,0.13810118748396635,-0.05904138703346252
1782858418219292400,5.14629248046875,-0.039004561176896095,0.13730273058265446,-0.050960079647600645
1782858418229240300,5.156240234375,-0.03453004611134529,0.15269991393983362,-0.06479951216876506
1782858418239189500,5.166189453125,-0.021561843466758726,0.13815993193387985,-0.055194210086017846
1782858418249168400,5.17616845703125,-0.035242578294873234,0.07462123348116874,-0.008511807757616043
1782858418259117300,5.186117431640625,-0.04317220225036144,0.007361760939657688,0.0121002972362563
1782858418269066500,5.19606640625,-0.056115854975581164,-0.03296381970793009,0.029651918680965898
1782858418279014400,5.206014404296875,-0.06850304286181927,-0.047049335944652555,0.03640139294117689
1782858418288963600,5.215963623046875,-0.029605449190735815,-0.03917787191718817,0.018907091174274682
1782858418298942500,5.2259423828125,0.017682371684908865,-0.025286709208786486,-0.03504446190688759
1782858418308891600,5.2358916015625,-0.0034749826341867445,-0.00618482611477375,-0.055609951280057426
1782858418318840600,5.245840576171875,0.05304886862039566,0.003937339448928833,-0.049608080516755575
1782858418328789500,5.25578955078125,0.03802782509922981,0.004995616330206394,-0.053178815142996605
1782858418338768400,5.265768310546875,0.0318850845605135,0.03190788091421127,-0.03835734931454062
1782858418348717600,5.275717529296875,0.06198679283559322,0.05452303282618522,-0.02889076158273965
1782858418358665500,5.28566552734375,0.07611351786553859,0.06549889260977507,-0.04810852614138275
1782858418368614400,5.295614501953125,0.0878115544438362,0.08118541430234909,-0.06651172291412949
1782858418378563300,5.305563232421875,0.12263269245624542,0.0990159622862935,-0.07590528194233774
1782858418388542500,5.31554248046875,0.11206921286582947,0.08415829263329505,-0.1292808982990682
1782858418398491400,5.325491455078125,0.08528525083661079,0.08418634968400002,-0.20064210707098246
1782858418408439300,5.335439208984375,0.06549275512993336,0.0869493846565485,-0.24811463686376808
1782858418418388500,5.345388427734375,0.08652502176463603,0.08022446031570434,-0.28591712877452374
1782858418428367400,5.355367431640625,0.1757020193427801,0.0896530906572938,-0.2634402162894606
1782858418438316300,5.36531640625,0.1610924792319536,0.10087678772211074,-0.26337971827387807
1782858418448265500,5.375265380859375,0.14807926840186117,0.09225625889301299,-0.22002894458621738
1782858418458214400,5.38521435546875,0.16907354111373424,0.02086187850385904,-0.24102719935346392
1782858418468193500,5.395193603515625,0.16957856802642343,-0.009379238241910934,-0.23530542417317626
1782858418478162400,5.405162353515625,0.24283435837328432,0.01956219408214092,-0.21727964587807655
1782858418488110600,5.415110595703125,0.3041612259954214,0.00851969880312681,-0.23361882279310375
1782858418498059500,5.4250595703125,0.24847499460875985,0.0556523291170597,-0.19903262604773042
1782858418508008400,5.435008544921875,0.20470131933391092,0.06507394519597291,-0.21881065483763812
1782858418517987600,5.444987548828125,0.2503027945578098,-0.024844810660183427,-0.2723062808448449
1782858418527936800,5.454936767578125,0.29215923803448673,-0.05068623114228248,-0.29937223815321923
1782858418537885700,5.4648857421875,0.2506365565568209,-0.035026889717578884,-0.3559906358234584
1782858418547833600,5.47483349609375,0.2774526672899723,-0.06575549771934747,-0.3819343841688707
1782858418557813800,5.484813720703125,0.30471243013739585,-0.10214315439611672,-0.3219976191982627
1782858418567761700,5.49476171875,0.33145839824378487,-0.10106880316287278,-0.258714502941817
1782858418577710600,5.504710693359375,0.3451870638668537,-0.05036649766862392,-0.14882278024554252
1782858418587659500,5.514659423828125,0.33249709364175795,-0.022293957133591173,-0.023872458496689796
1782858418597607700,5.524607666015625,0.33210020327866074,-0.022072131076455115,0.10628580715879797
1782858418607587600,5.534587646484375,0.35767245143055915,0.007400047123432159,0.1632236460417509
1782858418617535500,5.544535400390625,0.3142296155452728,0.051641339910030365,0.1752867165401578
1782858418627484700,5.554484619140625,0.23922025952935216,0.09720394442826509,0.20026187558174133
1782858418637433600,5.56443359375,0.18952128585875033,0.11419482671767472,0.21412746545746922
1782858418647412500,5.57441259765625,0.18132979609668254,0.15793109259158372,0.19433226633705197
1782858418657361400,5.584361328125,0.14169687388837338,0.20506723003685473,0.17748349593207238
1782858418667310600,5.594310546875,0.09143909729123115,0.23735563470125198,0.18320187357887624
1782858418677258500,5.604258544921875,0.04187514817714691,0.2645712661460042,0.20702523223683236
1782858418687238700,5.61423876953125,0.035081834775209424,0.2736982831925154,0.2065454858958721
1782858418697186600,5.6241865234375,0.04932429513931274,0.2842354592978954,0.17145137616097927
1782858418707135700,5.6341357421875,0.012328735697269439,0.29237931052595373,0.1351399265255779
1782858418717084700,5.644084716796875,-0.010673954227566718,0.2974205195635557,0.11361074321940541
1782858418727032600,5.654032470703125,-0.07873392949700356,0.2810942386627197,0.08175386184006929
1782858418737012700,5.6640126953125,-0.0989922891497612,0.24840748233050106,0.006486585540324449
1782858418746960600,5.673960693359375,-0.06367080039978026,0.20343612170368433,-0.054899757184088224
1782858418756909600,5.68390966796875,-0.07581833431124686,0.1283463939279318,-0.12335771879516541
1782858418766858500,5.6938583984375,-0.10808628070950507,0.06452274105399847,-0.16142901770994067
1782858418776837600,5.703837646484375,-0.1566267319947481,0.029583529619872567,-0.1776428512122482
1782858418786786600,5.71378662109375,-0.15596213060617445,-0.02259644721150398,-0.21434322709999978
1782858418796735500,5.723735595703125,-0.1594943963855505,-0.0774374599456787,-0.28826164607405663
1782858418806683600,5.73368359375,-0.17420564330518246,-0.12147329328805208,-0.3771763394542038
1782858418816632600,5.743632568359375,-0.2050643074274063,-0.15663345399647952,-0.424472635897249
1782858418826611500,5.753611572265625,-0.16810498834252358,-0.19225217212736606,-0.39714908709861335
1782858418836560400,5.763560302734375,-0.08412088323235511,-0.21498598198294638,-0.28864867263026533
1782858418846509600,5.773509521484375,-0.08231178798377513,-0.19989070418179034,-0.19936861653644591
1782858418856458800,5.783458740234375,-0.10920388656258583,-0.18033815471082926,-0.1955158500984311
1782858418866437600,5.793437744140625,-0.05456979457736015,-0.14589900175333023,-0.17917948619499802
1782858418876386600,5.803386474609375,-0.019110358661413192,-0.07648205891698598,-0.17160861254930496
1782858418886334700,5.813334716796875,-0.02691957110762596,-0.028656185641884803,-0.14645590498372912
1782858418896283600,5.82328369140625,0.0011895020455121993,-0.010153729745745658,-0.0804293352380395
1782858418906262500,5.833262451171875,0.03732464526593685,0.02044891378879547,-0.0315003230266273
1782858418916211700,5.843211669921875,0.01642038892507553,0.04673310960233211,0.010783990473300219
1782858418926160600,5.85316064453125,0.1119587382286787,0.0523868975803256,0.06940729822516441
1782858418936108500,5.863108642578125,0.18160393686294554,0.045450668576359744,0.11421309302672743
1782858418946057500,5.873057373046875,0.21837270181179044,0.048180970323085784,0.16024477636143564
1782858418956036600,5.88303662109375,0.23452421066761014,0.06759118871390819,0.1846758916541934
1782858418965985500,5.892985595703125,0.20439678342938422,0.07341244221329689,0.16982772048190234
1782858418975934500,5.9029345703125,0.17535539786219595,0.053856385610997676,0.1613745841089636
1782858418985883400,5.91288330078125,0.1406762986689806,0.07475918064713477,0.1491420753277838
1782858418995862500,5.922862548828125,0.10655892501175403,0.12852554988712073,0.12054543785341083
1782858419005811700,5.932811767578125,0.04515256241261959,0.16670272032916544,0.10078984009101986
1782858419015759400,5.94275927734375,-0.03955518079698086,0.14913082328140734,0.11215338401794434
1782858419025708800,5.952708740234375,-0.12837562002241612,0.14195786291211843,0.12181947637721896
1782858419035657700,5.96265771484375,-0.17503040369153022,0.16645137591660022,0.12298004458919166
1782858419045636600,5.97263671875,-0.18249182561337945,0.1878326021194458,0.1194832885146141
1782858419055585500,5.98258544921875,-0.13019757475256918,0.20258388878852127,0.10597659507915377
1782858419065533700,5.99253369140625,-0.1101940666437149,0.20432254914939402,0.1065188852623105
1782858419075482600,6.002482666015625,-0.13373860836029053,0.2329705514848232,0.12980448378175496
1782858419085461500,6.01246142578125,-0.06983925990164279,0.2536944828227162,0.1087602344483137
1782858419095410700,6.02241064453125,-0.05262625929415226,0.270528420984745,0.07449782629720866
1782858419105359600,6.032359619140625,-0.07635843253731728,0.29320027152001854,0.05568389329910278
1782858419115308500,6.04230859375,-0.04406126004457474,0.3018915274977684,0.03695756551921368
1782858419125287400,6.052287353515625,-0.03125789257287979,0.349201852466166,0.07129223518893123
1782858419135236600,6.062236572265625,-0.03762216690778732,0.41547231397032736,0.12374532987326382
1782858419145184500,6.0721845703125,0.040166006171703336,0.42440819235891103,0.1767497748300433
1782858419155133400,6.082133544921875,0.11246902583837509,0.43110885904133317,0.20249854859262703
1782858419165082600,6.09208251953125,0.06923603331148624,0.4501946677833795,0.18317162457108496
1782858419175061500,6.1020615234375,0.03233984259068966,0.45582419810295105,0.16502879576757548
1782858419185010700,6.1120107421875,0.008240589600801467,0.4884644849449396,0.16886632810384034
1782858419194959600,6.121959716796875,0.08667992006540298,0.5101537541836499,0.172216515314579
1782858419204907800,6.13190771484375,0.09491466444730758,0.5094838920980692,0.16875965285897254
1782858419214886700,6.14188671875,0.0856546686708927,0.469586181473732,0.1725884173668921
1782858419224835600,6.151835693359375,0.10440613089203835,0.42361470389366146,0.127347299887985
1782858419234784500,6.161784423828125,0.13121055118739605,0.403973307095468,0.04838146133124828
1782858419244733700,6.171733642578125,0.23274609507918356,0.35099604240655896,-0.04518047333285212
1782858419254712600,6.181712646484375,0.35953181556165215,0.24384762706905602,-0.13852591570205985
1782858419264661500,6.19166162109375,0.42861470413804054,0.17078209859728813,-0.14425664137378333
1782858419274609700,6.201609619140625,0.4130290124714374,0.060144379839301106,-0.10213701691627503
1782858419284558600,6.21155859375,0.4190466653257608,-0.049799511435627934,-0.08372033960744737
1782858419294507500,6.221507568359375,0.3487637533098459,-0.09917349093556403,-0.0775312757089734
1782858419304486400,6.231486328125,0.2639619020760059,-0.15429390513300895,-0.10767214695066213
1782858419314435600,6.241435546875,0.248390823456645,-0.18746055393666028,-0.13692461798526345
1782858419324384800,6.251384765625,0.2287193237811327,-0.14896949523985384,-0.16318528679274022
1782858419334332400,6.26133251953125,0.24310733009576796,-0.13905483494699,-0.19484817996993659
1782858419344312600,6.2713125,0.30561843906641006,-0.12932605261504648,-0.2068351164922118
1782858419354260700,6.2812607421875,0.37105157296359537,-0.1215370061740279,-0.17488471161052582
1782858419364209700,6.291209716796875,0.4221656741291284,-0.11328852552771568,-0.09674640991911292
1782858419374158600,6.30115869140625,0.41139118213653564,-0.14853724130243062,0.02869790589176118
1782858419384106800,6.311106689453125,0.40420273193717,-0.18941139574348925,0.14197145304605363
1782858419394086700,6.321086669921875,0.43400282691717146,-0.1859060179710388,0.15645210608020424
1782858419404034600,6.33103466796875,0.38168811779022216,-0.1342839672833681,0.1290162560135126
1782858419413983500,6.3409833984375,0.3425947092860937,-0.09341244319081306,0.09713818571567535
1782858419423932700,6.3509326171875,0.358911053314805,-0.05587386291325092,0.08085413652136922
1782858419433911600,6.36091162109375,0.4832768531739711,-0.046754736912250516,0.003980301807820797
1782858419443860500,6.370860595703125,0.5497001671522855,-0.018880057036876677,-0.04188289309218526
1782858419453809400,6.380809326171875,0.5020774152338504,-0.031767011138796805,-0.0826098941475153
1782858419463757600,6.390757568359375,0.4999626150369644,-0.07479191387295722,-0.05299889199882746
1782858419473756700,6.400756591796875,0.4814052140831947,-0.11388649142086506,0.02841207468770444
1782858419483704600,6.41070458984375,0.4886106154173612,-0.14940613309144973,0.08511866209805011
1782858419493653500,6.420653564453125,0.4280594083428383,-0.1732844368070364,0.09520020339041947
1782858419503602400,6.4306025390625,0.338289705568552,-0.19075141217559574,0.047858606500923634
1782858419513551400,6.44055126953125,0.19705986467003822,-0.172969964030385,-0.02669401872344315
1782858419523530500,6.450530517578125,0.13428104467391966,-0.13563830450177192,-0.13036942418813705
1782858419533478400,6.460478515625,0.08700199162662028,-0.1085360703036189,-0.17579013601765037
1782858419543427600,6.470427490234375,-0.06411152990460395,-0.09120411949157714,-0.1931368460074067
1782858419553376500,6.48037646484375,-0.2096007818132639,-0.1258574997216463,-0.22749533494412896
1782858419563355400,6.49035546875,-0.12374328404664993,-0.15330021792054174,-0.2288409043341875
1782858419573304600,6.5003046875,-0.08203647817373275,-0.09187398157715797,-0.141590344773978
1782858419583253500,6.51025341796875,-0.15291852512657642,-0.02636193722486496,-0.0721514823667705
1782858419593201700,6.52020166015625,-0.16935703423023224,-0.01435994926393032,-0.07235314241871238
1782858419603150600,6.530150634765625,-0.18889877004623412,-0.015545359656214713,-0.052053866233676666
1782858419613129700,6.540129638671875,-0.1363853234767914,0.014193652786314487,-0.014027283243462443
1782858419623078700,6.55007861328125,-0.06252981367111206,0.10957418117970227,-0.0054893181312829255
1782858419633027600,6.560027587890625,-0.0641448476523161,0.1681207704335451,-0.026968963207304478
1782858419642976500,6.5699765625,-0.15155892721116543,0.16135726764798164,-0.0452424326531589
1782858419652955600,6.57995556640625,-0.07797872721552848,0.11484160018861293,-0.0926376594260335
1782858419662904600,6.589904541015625,0.0419236634939909,0.1068807043120265,-0.16479118761941788
1782858419672852500,6.5998525390625,0.0700268914282322,0.14414748191088436,-0.1685102081425488
1782858419682801400,6.609801513671875,0.0594341857433319,0.1044382795959711,-0.13568696594908833
1782858419692780500,6.619780517578125,0.13497370311319828,0.025669571046531198,-0.09885894509367645
1782858419702729500,6.6297294921875,0.16616203758120535,0.003660276073217392,-0.08763824370354413
1782858419712678400,6.639678466796875,0.16343582748770713,0.02531184365004301,-0.1027613593596965
1782858419722626600,6.64962646484375,0.21814123114347456,0.06464052221477032,-0.08596373462006449
1782858419732575700,6.65957568359375,0.2607376793324947,0.06620470279157162,-0.06241816999018192
1782858419742554400,6.669554443359375,0.27150807967185975,0.05534896225631237,-0.058752194828540084
1782858419752503600,6.679503662109375,0.271037539550662,0.059063014343380925,-0.06224558990225196
1782858419762452500,6.689452392578125,0.22012977461218833,0.03604337328374386,-0.07371800103113055
1782858419772401700,6.699401611328125,0.13568740434050558,0.002404723054170608,-0.08531126206070185
1782858419782380500,6.709380615234375,0.1734106935352087,-0.011060907718539237,-0.10256612904854118
1782858419792329500,6.71932958984375,0.20007424405515192,0.029712708957493304,-0.08012246124595403
1782858419802277600,6.729277587890625,0.1390203481554985,0.016120821456611156,-0.054371495526283974
1782858419812226600,6.7392265625,0.13615619089603423,-0.03890636149942875,-0.013958528856188058
1782858419822175500,6.749175537109375,0.13518062386214733,-0.03799684543907642,0.010735767417401074
1782858419832154600,6.759154541015625,0.1163812308460474,-0.013651216472685336,0.028496538100764152
1782858419842103600,6.769103515625,0.08690788360238075,0.007989829710125922,0.009000175796449184
1782858419852051500,6.779051513671875,0.09109773650765418,0.023194997626543045,-0.0032417584002017974
1782858419862000400,6.78900048828125,0.07992401606440544,0.031552783866226675,-0.000016366612911224363
1782858419871979500,6.7989794921875,0.12289338921904563,0.043186815297603605,0.010031710801273583
1782858419881928400,6.808928466796875,0.11800853978693485,0.04319821347445249,0.011176204661279917
1782858419891877600,6.818877685546875,0.09266717778146266,0.02747077524960041,0.019347528418153525
1782858419901826600,6.82882666015625,0.1338829852670431,0.03191431065499782,0.02842792984396219
1782858419911805700,6.8388056640625,0.17705577203929423,0.05261690694391727,0.040307314338535065
1782858419921754600,6.848754638671875,0.2107546280235052,0.07799713965505362,0.05385032119639217
1782858419931702500,6.85870263671875,0.20785481492877006,0.0805333801344037,0.06860416514873505
1782858419941651500,6.8686513671875,0.2041097831815481,0.0685080112978816,0.07584434553533792
1782858419951600600,6.8786005859375,0.2131418154209852,0.08874941981583834,0.045837183675915
1782858419961579500,6.88857958984375,0.23262159191668033,0.11871288866400719,0.043036739302426574
1782858419971528400,6.898528564453125,0.2260305230885744,0.13492723362296818,-0.0032552024036645887
1782858419981477400,6.908477294921875,0.2001496473789215,0.13404606687426565,-0.022732640811800955
1782858419991425500,6.918425537109375,0.14695698637366295,0.132085288195312,-0.03290799786746502
1782858420001405400,6.928405517578125,0.1708797137528658,0.10999474467933178,-0.0347245457701385
1782858420011353600,6.938353515625,0.1408206755757332,0.11516717888116836,-0.024292291343957183
1782858420021302500,6.948302490234375,0.07937105835676193,0.09656301617622375,-0.0029964053370058535
1782858420031251500,6.95825146484375,0.0823129570275545,0.09957447295188904,0.03288081759959459
1782858420041199400,6.968199462890625,0.07416589092910289,0.09986644163578748,-0.0037741482438519596
1782858420051179500,6.978179443359375,0.0608417144536972,0.10904431208670139,-0.046336365369707345
1782858420061127400,6.98812744140625,0.0715384650349617,0.09830489140748977,-0.03743964994773268
1782858420071076600,6.99807666015625,0.11586159088611601,0.07404664846360683,-0.0027390695750713345
1782858420081025500,7.008025634765625,0.10240063628852367,0.04813683892041445,-0.000664199529774487
1782858420091004700,7.018004638671875,0.11870996605455875,-0.007840192106366157,-0.012579933979362249
1782858420100953600,7.02795361328125,0.178359840375185,-0.03564969779103994,-0.005753741221129894
1782858420110902500,7.037902587890625,0.20842297020554543,-0.025970307558774948,-0.03440762530807406
1782858420120850700,7.0478505859375,0.15764847625792025,-0.032007541896402834,-0.04952891433332115
1782858420130830600,7.05783056640625,0.07274842534661292,-0.07697334956526755,-0.06412482777759432
1782858420140778500,7.067778564453125,0.013442834419012069,-0.09385843339264392,-0.11890300440862774
1782858420150727400,7.0777275390625,0.015084171885251999,-0.01263151803612709,-0.14090747707635162
1782858420160676400,7.08767626953125,0.0725362439006567,0.026187749701738355,-0.1797794979147613
1782858420170624500,7.09762451171875,0.08605038999021053,-0.008346972584724426,-0.16983590378835797
1782858420180604400,7.1076044921875,-0.005277063620090484,-0.0408475586950779,-0.12634601389095187
1782858420190552600,7.117552490234375,-0.028260464322566986,-0.05236819287985563,-0.08889847289770841
1782858420200501500,7.12750146484375,0.01993044287264347,-0.03692980072945356,-0.0704847181983292
1782858420210450700,7.13745068359375,0.04463409149646759,-0.030822716026008126,-0.07062226350549608
1782858420220429300,7.14742919921875,0.0506768787920475,-0.03371902198940515,-0.061446840739995234
1782858420230378800,7.157378662109375,0.09618073886036872,-0.060550622552633285,-0.05072656315267086
1782858420240327700,7.16732763671875,0.1256353814035654,-0.07923135762512683,-0.03775646081194281
1782858420250275600,7.177275634765625,0.15192074626088142,-0.08503039929270743,-0.02499152565449476
1782858420260224500,7.187224609375,0.14808043744564056,-0.08852408662736415,-0.006057400342822075
1782858420270203600,7.19720361328125,0.1434597919076681,-0.08510229548513888,0.015059877694211899
1782858420280152600,7.207152587890625,0.1722510021060705,-0.07529810982942581,0.028721359832584857
1782858420290101500,7.2171015625,0.1874579235881567,-0.059331894412636754,0.04248378159478307
1782858420300050400,7.227050537109375,0.18636603669822216,-0.03237959007918834,0.053676791260391474
1782858420310029600,7.237029541015625,0.2030553056925535,-0.036792438085377216,0.06460486637949943
1782858420319978500,7.246978515625,0.1997176857024431,-0.002853635865449905,0.08443477148711681
1782858420329926400,7.256926513671875,0.17043606163859365,0.024574469286203382,0.07126812366098165
1782858420339875600,7.26687548828125,0.15107903473973272,0.04237140726149082,0.05045256851688027
1782858420349854500,7.2768544921875,0.17691081061065195,0.07689268554449082,0.058575815348327155
1782858420359803400,7.286803466796875,0.15984452499747276,0.09040916972160339,0.056712359564006325
1782858420369752600,7.296752685546875,0.12046528528928756,0.08180208489596844,0.042849692297726866
1782858420379700500,7.306700439453125,0.09544950197637081,0.09738894560635089,0.005361673163622617
1782858420389649700,7.316649658203125,0.03388181133568287,0.14871084430366754,-0.017399353492446243
1782858420399628500,7.326628662109375,0.008905190989375113,0.1899924105018377,-0.022258593559265134
1782858420409577700,7.33657763671875,0.01025952820777893,0.1890592213049531,-0.03508051960095763
1782858420419526700,7.346526611328125,-0.002325228077173233,0.1497071618646383,-0.03739391110986471
1782858420429475600,7.3564755859375,0.04258358870744705,0.10924684892147779,-0.040214813749492165
1782858420439454500,7.366454345703125,0.08418927229344844,0.08765928649157285,-0.050055550289619714
1782858420449403600,7.376403564453125,0.0954237830132246,0.05826368065923452,-0.05078108808519318
1782858420459351600,7.3863515625,0.12400514985322951,0.036332711619138716,-0.040005847173929215
1782858420469300500,7.396300537109375,0.15706512341201304,-0.0004395604610443115,-0.04801058219224214
1782858420479255600,7.406255615234375,0.1780547199487686,-0.013451309986412524,-0.04412966737197712
1782858420489234700,7.416234619140625,0.14266542665958404,-0.007711889551579951,-0.057576282916963095
1782858420499183600,7.42618359375,0.1525531989455223,-0.01405453657656908,-0.09045200421633198
1782858420509131800,7.4361318359375,0.12569558715820311,0.0006286532923579216,-0.10615998882204293
1782858420519080700,7.446080810546875,0.03766425248384476,0.013556816187500953,-0.07956336605846881
1782858420529059600,7.4560595703125,0.03778291042745113,0.023961305823922155,-0.07712064908146858
1782858420539008500,7.466008544921875,0.05351005639135837,0.04225859453678131,-0.1327363177162595
1782858420548957700,7.475957763671875,0.0324514862716198,0.050477556827664374,-0.14069018106386064
1782858420558906600,7.48590673828125,0.025846388918161392,0.055553837178647515,-0.09542305236086249
1782858420568885500,7.495885498046875,0.046621465921401976,0.05197451738715172,-0.04809489947482943
1782858420578834400,7.50583447265625,0.0890408039778471,0.030346622946858404,-0.004621668451279402
1782858420588782600,7.515782470703125,0.13181260873377323,0.01237315936088562,0.012388064669072628
1782858420598731500,7.5257314453125,0.15497487313449382,0.014992694209516048,0.03813406195268035
1782858420608680400,7.535680419921875,0.17314356703162193,0.004642857369780541,0.056536856866627926
1782858420618659600,7.54565966796875,0.1714455309420824,0.004334522072970867,0.06260375569015741
1782858420628608500,7.5556083984375,0.14026070360541343,0.0022696984976530075,0.056920887748152016
1782858420638557700,7.5655576171875,0.15758184076249598,0.03826104933321476,0.032155572064965963
1782858420648505600,7.575505615234375,0.16158347761929034,0.0654646980792284,0.004130962324887514
1782858420658484700,7.585484619140625,0.09501812482178211,0.08408551965802907,0.006289309402555227
1782858420668433700,7.59543359375,0.0516571220010519,0.09665303254723548,0.010034779541194439
1782858420678382600,7.605382568359375,0.09314823929667472,0.08503039929270743,0.015684037474542854
1782858420688331500,7.61533154296875,0.09532792142331599,0.09995353539735079,0.022638076129835098
1782858420698279700,7.62527978515625,0.036761166164278984,0.11558511203229427,0.0258612942263484
1782858420708259600,7.635259521484375,0.036191841843724246,0.09970774394273757,0.03884747091904282
1782858420718207500,7.64520751953125,0.054530047088861465,0.07652765162438153,0.024187789789866656
1782858420728156700,7.65515673828125,0.08912380608618259,0.045692076116800304,0.004475373582076281
1782858420738105600,7.665105712890625,0.13285013508796692,0.0003457446977496147,-0.01611309480788186
1782858420748084500,7.67508447265625,0.1541430984854698,-0.03048486237376928,-0.016932156105805188
1782858420758033400,7.685033447265625,0.10025018025636673,-0.053093876805901524,-0.017933862227946518
1782858420767982600,7.694982666015625,0.06305003815293311,-0.07289952425509691,-0.03387554599167779
1782858420777930500,7.704930419921875,0.08918576540648937,-0.03576397182047367,-0.06414397086948156
1782858420787910400,7.714910400390625,0.08797405152916908,0.023911621463298796,-0.06447758673802018
1782858420797858600,7.724858642578125,0.08843114764690399,0.02251110701560974,-0.08829451565518975
1782858420807807700,7.734807861328125,0.1306505792170763,0.03777472712099552,-0.09212795633822679
1782858420817756700,7.744756591796875,0.1480307530850172,0.06186170515120029,-0.08879238217473029
1782858420827704600,7.75470458984375,0.13482172742187976,0.06708996119350194,-0.07969329431476072
1782858420837684700,7.764684814453125,0.11585399210155009,0.052341012611985205,-0.07462810161337256
1782858420847632600,7.774632568359375,0.12471768203675747,0.06115472592562437,-0.07470452785044908
1782858420857581600,7.78458154296875,0.15518763910233974,0.07139554943293333,-0.07419745511114596
1782858420867530500,7.794530517578125,0.14164543596208096,0.07586889545470475,-0.08677579992162063
1782858420877509600,7.804509521484375,0.17120003174841403,0.07860942633450031,-0.09041662237569689
1782858420887458600,7.81445849609375,0.16924129889607428,0.10383096135258674,-0.08646013983488082
1782858420897407500,7.824407470703125,0.15615852996110915,0.10813128889501095,-0.0685350454352796
1782858420907355600,7.834355712890625,0.1826858868807554,0.08724339916706085,-0.04082651590704918
1782858420917304600,7.8443046875,0.179387429857254,0.08036766817867755,-0.01499210968762636
1782858420927283500,7.854283447265625,0.188650932765007,0.07432283505648374,-0.012775620948243886
1782858420937232400,7.864232421875,0.16870003162622452,0.08827215769290923,-0.031846798376739024
1782858420947181600,7.874181640625,0.13250059099793432,0.09436813648045063,-0.03020326895341277
1782858420957130800,7.884130859375,0.10938976452350616,0.09098317021727562,-0.003830371943116188
1782858420967109600,7.894109619140625,0.10736731878519058,0.08158931892812252,0.012816519214212894
1782858420977057800,7.904057861328125,0.09305003961920738,0.08873802163898944,0.002530541390925646
1782858420987006700,7.9140068359375,0.07981295690536498,0.07734335192143917,-0.003510218344349414
1782858420996955600,7.92395556640625,0.07978548437654971,0.07531418418139219,0.003297141849249601
1782858421006934500,7.9339345703125,0.07073299387097358,0.06512158372998238,0.013207418227940797
1782858421016883700,7.9438837890625,0.10214578474462031,0.06252689106166362,-0.00323313670232892
1782858421026832600,7.95383251953125,0.1127080952912569,0.05756693056672811,-0.036304946829378605
1782858421036780500,7.963780517578125,0.08362228606045245,0.04544131622612476,-0.04984422736018896
1782858421046729500,7.9737294921875,0.08389818039238453,0.008338204756379128,-0.033807138664275406
1782858421056708600,7.98370849609375,0.08110825741291046,-0.00008943184912204742,-0.0049267888776957985
1782858421066657500,7.993657470703125,0.08832476466298103,-0.006857318548858165,0.003552559648733586
1782858421076606500,8.0036064453125,0.0840606774777174,-0.023630466434359548,0.010847849489748478
1782858421086555400,8.013555419921875,0.0727975251853466,-0.036649814744293685,0.012935597282927482
1782858421096534500,8.023534423828124,0.09074234719872475,-0.05090045841485261,0.014660539645701645
1782858421106483700,8.033483642578124,0.0873673178076744,-0.032767712613940236,-0.008383815730083734
1782858421116431400,8.043431396484374,0.09097440238893031,-0.004644026413559914,-0.04300108346715569
1782858421126380800,8.053380859375,0.07174187865257263,0.016648352462053297,-0.04276449823230505
1782858421136329700,8.063329833984374,0.05038403332531452,0.009634674307703971,-0.03750920805260539
1782858421146308600,8.07330859375,0.051226329368352884,0.0027598201021552084,-0.04894364352496341
1782858421156257500,8.083257568359375,0.04357259974479675,0.026183073526620863,-0.066986354688555
1782858421166205700,8.093205810546875,0.0369692559570074,0.04057750958204269,-0.06467851613759994
1782858421176154600,8.103154541015625,0.04837327802479267,0.028354572346806526,-0.055340486688911915
1782858421186133500,8.113133544921874,0.06982756946384906,0.030832068376243114,-0.038923038639593864
1782858421196082700,8.123082763671874,0.0977332289993763,0.05058920050859451,-0.0423212845094502
1782858421206031600,8.133031494140624,0.10062778139710425,0.05823883847892284,-0.04028963255137205
1782858421215980500,8.14298046875,0.13046236316859722,0.07189385434389114,-0.04023804849460721
1782858421225959400,8.15295947265625,0.15330372505187986,0.07476794847548007,-0.04803483985066414
1782858421235908600,8.16290869140625,0.2018453453809023,0.0696077892333269,-0.07011500810310244
1782858421245856500,8.1728564453125,0.22538579544425008,0.06478752947002649,-0.05251039609583094
1782858421255805400,8.182805419921875,0.17627426627278328,0.05351560934931039,-0.03236994546800852
1782858421265754400,8.19275439453125,0.16500702232718467,0.04561871861964464,-0.004960855544079094
1782858421275733500,8.2027333984375,0.16924129889607428,0.03744476451426744,0.027886936568748206
1782858421285682700,8.2126826171875,0.1704389842480421,0.05060030642449855,0.01712006162703037
1782858421295630600,8.222630615234374,0.12092296592891215,0.0997282022088766,0.014124368676077574
1782858421305579800,8.232579833984374,0.08262158458530902,0.09581775076687335,-0.024618016166985033
1782858421315558700,8.24255859375,0.11644377468824386,0.10059650947600603,-0.04923281746357679
1782858421325507600,8.252507568359375,0.05111468568742275,0.1300491061925888,-0.058481853454560036
1782858421335456500,8.26245654296875,0.04792787234485149,0.13652970038354395,-0.05330795794799924
1782858421345405700,8.27240576171875,0.07412380535304545,0.14309826511889695,-0.038676224271673706
1782858421355353600,8.282353515625,0.08814005574584007,0.13213409577310084,-0.020835867279767988
1782858421365333500,8.29233349609375,0.09523205983340739,0.10011194082945585,-0.012717004362493753
1782858421375281700,8.30228173828125,0.09485095156133175,0.07974047619104385,-0.015184855780750512
1782858421385230600,8.312230712890624,0.04863631287515163,0.0718254652827978,-0.021511866845190523
1782858421395179500,8.322179443359374,0.024348259314894673,0.048669630622863766,-0.04862169982790947
1782858421405158400,8.332158447265625,0.07233750645816325,0.0583843844294548,-0.09532061489969491
1782858421415107600,8.342107666015625,0.09210136059224605,0.06796177559196949,-0.12303206703737378
1782858421425056800,8.352056884765625,0.10838906304836272,0.046404608300328255,-0.11742650211527943
1782858421435004400,8.36200439453125,0.12012041737437247,-0.010403612853586673,-0.09201806622296571
1782858421444984600,8.371984619140624,0.09821487503647804,-0.04484335033297539,-0.07387540181623771
1782858421454932700,8.3819326171875,0.11979717676937579,-0.05610650262534618,-0.07238295303508639
1782858421464881700,8.391881591796874,0.12411211735904217,-0.04903291097730398,-0.09384164665462448
1782858421474854100,8.401854248046876,0.0945692120105028,-0.03322159386128187,-0.10187602789252996
1782858421484802300,8.41180224609375,0.0806137518942356,-0.03872457519173622,-0.11684475670456886
1782858421494782200,8.4217822265625,0.10090309120714663,-0.017951251754164694,-0.12698606536015866
1782858421504730000,8.431730224609375,0.09405833987891674,0.013334405608475208,-0.13389204535633326
1782858421514679300,8.44167919921875,0.05035071557760239,0.023578151725232598,-0.12527489579441026
1782858421524628200,8.451628173828125,0.09898702845275402,0.020682722544670105,-0.09853519303202629
1782858421534607000,8.461607177734376,0.08890051872432231,0.058819268715381616,-0.04397051302120089
1782858421544556000,8.47155615234375,0.052525137007236475,0.048051498724520206,-0.028011019606143234
1782858421554505200,8.481505126953126,0.07943710933029652,0.009561609071493149,-0.01878872549161315
1782858421564453000,8.491453125,0.09232523247599601,0.015910101315379142,-0.026038550489395854
1782858421574433000,8.50143310546875,0.10381284117400645,0.06805880622565746,-0.009573610036540775
1782858421584381200,8.511381103515625,0.07766191635131836,0.08365618833005428,0.038155104740709066
1782858421594330000,8.521330078125,0.07064882271885871,0.08558861769735812,0.07497326178923248
1782858421604279300,8.531279296875,0.05854688151478767,0.07062427279949188,0.08048296512141823
1782858421614227000,8.54122705078125,0.07421031459271907,0.07651303857713937,0.10154738046005368
1782858421624207400,8.551207275390626,0.06304360841214657,0.09430267002880573,0.1026364908710122
1782858421634155300,8.5611552734375,0.07436462837159633,0.10126666382253169,0.1099969366364181
1782858421644104200,8.571104248046876,0.0659440060287714,0.09781330849826335,0.12208528770655393
1782858421654053000,8.58105322265625,0.06148059687912464,0.09004588936716318,0.10101049710437655
1782858421664032300,8.5910322265625,0.09722703304290771,0.11013853706419467,0.0789833742134273
1782858421673981200,8.600981201171875,0.08773439755439758,0.1575514456242323,0.09327917219996452
1782858421683930000,8.61093017578125,0.095484573289752,0.15509002394676208,0.12984379287883638
1782858421693878300,8.620878173828125,0.11117314080893993,0.15191373199820518,0.13672668426036835
1782858421703827200,8.6308271484375,0.09391045584082602,0.16485066272169352,0.08391774360937997
1782858421713806000,8.64080615234375,0.08839899894297122,0.17146335885971783,0.03705487014753744
1782858421723755000,8.650755126953126,0.12620295215845106,0.1799833499237895,0.012362784097343682
1782858421733704200,8.6607041015625,0.17616963685452938,0.17966157062351704,0.019751433043926955
1782858421743653000,8.670653076171876,0.18688859926760196,0.16383359463363886,0.03232055336833
1782858421753632000,8.680632080078125,0.21191315040886402,0.10240034402757882,0.027072715842723846
1782858421763581200,8.690581298828125,0.19305121355056762,0.07283610363006592,0.025130057342350482
1782858421773529000,8.700529052734375,0.15232172827720641,0.08016717717051505,0.004661415939778089
1782858421783478300,8.710478271484375,0.14148527696430682,0.11593290255665778,-0.026036066271364688
1782858421793457200,8.72045703125,0.15635434479415417,0.14092588951587676,-0.039105975724756714
1782858421803406300,8.73040625,0.16818915949463845,0.1396773507595062,-0.06887976721972226
1782858421813355300,8.740355224609376,0.11888240001201629,0.1348544606477022,-0.09087196492776274
1782858421823303200,8.75030322265625,0.07796236060261726,0.1353518887758255,-0.0923534356571734
1782858421833252000,8.760252197265626,0.048750294643640515,0.14730769950747488,-0.0926074104182422
1782858421843231200,8.770231201171875,0.03752572079598904,0.1396171450048685,-0.10114800587892532
1782858421853180200,8.78018017578125,0.10149638092517853,0.1404462893053889,-0.11646262551918625
1782858421863129000,8.790129150390625,0.09900397958755493,0.1498351721584797,-0.12668693628311156
1782858421873078000,8.800078125,0.09046236121356487,0.12826543764621018,-0.11474356490792706
1782858421883057200,8.81005712890625,0.0956324573278427,0.08427811962068081,-0.10884206751286983
1782858421893006000,8.820006103515626,0.11850538339316845,0.0512345126748085,-0.09315130803659558
1782858421902954000,8.8299541015625,0.17322481557428837,0.039106852507591244,-0.06427475764229894
1782858421912903200,8.839903076171876,0.20211714805960654,-0.0007809212446212769,-0.03437310198396444
1782858421922852400,8.849852294921876,0.21773206582069396,-0.0385489263638854,-0.007683247978985309
1782858421932831000,8.8598310546875,0.1942015526294708,-0.060194064199924464,-0.011429448769986628
1782858421942780200,8.8697802734375,0.1603834541797638,-0.07833440878540276,-0.036518005058169364
1782858421952728300,8.879728271484375,0.1320148533076048,-0.06769523361027241,-0.0500808125950396
1782858421962677200,8.88967724609375,0.1008136593580246,-0.05496376233100891,-0.06950798212066292
1782858421972656000,8.89965625,0.07801672113835811,-0.018780688315629956,-0.08404111426072194
1782858421982605300,8.909605224609376,0.03463818266093731,-0.0014525368958711623,-0.08498334528058767
1782858421992554200,8.91955419921875,0.047988662621378894,0.0026256723284721374,-0.07169117137864231
1782858422002503200,8.929503173828126,0.0409825832515955,0.03662438804209232,-0.058333823285996914
1782858422012482000,8.93948193359375,0.05931786588728428,0.054013037477433676,-0.029569208833575247
1782858422022431200,8.94943115234375,0.07858429189324379,0.04336158734261989,0.0017325228810310363
1782858422032379100,8.959379150390625,0.05978899053037166,0.0438011478036642,0.030987094541173425
1782858422042328000,8.969328125,0.06794073280394076,0.05899462528228759,0.03805690506324172
1782858422052277000,8.979277099609375,0.08992401655316352,0.05565817433595657,0.043828474202007056
1782858422062256000,8.989256103515626,0.1083335334688425,0.05891980648040771,0.053529053352773186
1782858422072205000,8.999205078125,0.1293956107199192,0.059310559363663196,0.05894143379032612
1782858422082154200,9.009154296875,0.1275175418883562,0.06771393831074238,0.0767940474756062
1782858422092102100,9.01910205078125,0.1206727905601263,0.06940262205004692,0.07136469763694331
1782858422102081000,9.0290810546875,0.11329729335606098,0.056121115672588345,0.0642326720662415
1782858422112030200,9.0390302734375,0.10965338389575481,0.07384089675843715,0.06623246758133172
1782858422121979100,9.048979248046875,0.11354805324673652,0.10463964738696813,0.05970160450786352
1782858422131928300,9.05892822265625,0.12124269940257072,0.0980444869056344,0.04189779840037226
1782858422141876200,9.068876220703125,0.13257073362469673,0.07858049250096082,0.02664996038600802
1782858422151856000,9.078856201171876,0.11512743139266968,0.10270049601793288,0.016108546496927736
1782858422161804300,9.08880419921875,0.09074760789573193,0.08140402548909187,0.016852935123443602
1782858422171753200,9.098753173828126,0.11239654512405395,0.06050912149846553,0.03416618123501539
1782858422181702100,9.1087021484375,0.12177227623462676,0.06180880592018365,0.038726036496460434
1782858422191681000,9.118680908203125,0.09941548299789428,0.06670856066048145,0.025887597711384294
1782858422201630200,9.128630126953125,0.11045827053785323,0.05934650745987892,0.019031594336777924
1782858422211579100,9.1385791015625,0.1041764137893915,0.07025806983560323,0.005219780474901199
1782858422221527000,9.148527099609375,0.07989771257936953,0.08426262979060412,-0.010150953266769647
1782858422231507000,9.1585068359375,0.1012011973708868,0.1150344924122095,-0.028161095601320265
1782858422241455000,9.168455078125,0.10448387230336666,0.1293780750632286,-0.04017594304382801
1782858422251404000,9.178404052734376,0.0882306566387415,0.12000468204021453,-0.027627427116036413
1782858422261353200,9.188353271484376,0.12283318346440791,0.09916910702139138,-0.0027421383149921893
1782858422271301400,9.19830126953125,0.1496083776652813,0.07587415615171193,0.010851941142976284
1782858422281281300,9.20828125,0.12407295439243315,0.05683920081406831,0.020687837111204862
1782858422291229200,9.218229248046875,0.10592238067388533,0.05448445438146591,0.02422448680475354
1782858422301178000,9.22817822265625,0.09732114106714725,0.04801379706263542,0.008320376838743686
1782858422311127300,9.238127197265625,0.0908832169741392,0.050804304563999175,-0.009383476025611162
1782858422321106200,9.248106201171876,0.11719430079460143,0.0513216064363718,-0.027772388544678686
1782858422331055000,9.25805517578125,0.10559212580621243,0.09736614925265312,-0.04216653233915567
1782858422341004000,9.268004150390626,0.051178983095288275,0.10652589952498674,-0.02859919475764036
1782858422350952200,9.2779521484375,0.042883448436856264,0.07696984243392944,-0.01882861911058426
1782858422360901000,9.287901123046876,0.09109949007332324,0.08149228829443454,-0.027795331028848885
1782858422370880000,9.2978798828125,0.11153495985865593,0.11710662251114845,-0.023283698823302983
1782858422380829200,9.3078291015625,0.10951952838301658,0.11548983496427535,-0.02169160732626915
1782858422390778000,9.317778076171875,0.11249182219207286,0.06900427038222551,-0.00824952182592824
1782858422400727300,9.327727294921875,0.09205869049429893,0.04900865331888198,-0.020955694267153737
1782858422410706000,9.337705810546876,0.09766951611340045,0.06721446435600519,-0.055786330760270356
1782858422420654000,9.347654052734375,0.09887187764048576,0.07036065342724322,-0.08901289305761456
1782858422430603300,9.357603271484376,0.13502338747382164,0.046998774801194666,-0.09288434592979028
1782858422440552200,9.36755224609375,0.14848609563708304,0.03834229787588119,-0.08953414045274258
1782858422450531300,9.37753125,0.12103694769740105,0.01051613331735134,-0.08766016327440738
1782858422460480300,9.387480224609375,0.11166297015249728,-0.043939679491519924,-0.08032866960885003
1782858422470429200,9.39742919921875,0.10272036976218223,-0.029949148061871527,-0.08294307162463664
1782858422480373500,9.40737353515625,0.07644085012376307,0.004560439783334732,-0.08696312092095614
1782858422490322400,9.417322509765626,0.088822777312994,0.02033259393274784,-0.10257321637645363
1782858422500301300,9.42730126953125,0.07230594227612018,0.026142449255287647,-0.11628230051621793
1782858422510250200,9.437250244140625,0.0352004927188158,0.045216859820485115,-0.10903978204205632
1782858422520199400,9.447199462890625,0.07448737796843051,0.04325403531491756,-0.09424830949306487
1782858422530148600,9.457148681640625,0.12158990540504455,0.05051701205521822,-0.0831817026861012
1782858422540127500,9.46712744140625,0.12264029124081134,0.023505086489021776,-0.08213555463403463
1782858422550076400,9.477076416015626,0.09408756597340107,-0.015457681372761725,-0.07657835889831185
1782858422560024600,9.487024658203126,0.0844002846956253,-0.0374748673915863,-0.05497897816644981
1782858422569973500,9.496973388671876,0.0915764599353075,-0.06105038876831531,-0.05380699351131916
1782858422579922400,9.50692236328125,0.056437342014908784,-0.08962503360658884,-0.07106107504786924
1782858422589901600,9.516901611328125,-0.04495265592634678,-0.0962055810406804,-0.104827443310339
1782858422599850500,9.5268505859375,-0.17355331687629222,-0.11226064378470181,-0.16982377495914697
1782858422609798400,9.53679833984375,-0.19415712896585463,-0.13124036180377005,-0.21308818553760647
1782858422619747300,9.546747314453125,-0.12004033787548542,-0.12371288890838622,-0.271231600818038
1782858422629726500,9.5567265625,-0.05447744011878967,-0.08819149367213248,-0.29595512318611145
1782858422639675400,9.56667529296875,0.03369710241854191,-0.08929390195608139,-0.23690379928052424
1782858422649624300,9.576624267578126,0.12184124981760978,-0.10427052181363106,-0.16321546273529527
1782858422659573200,9.5865732421875,0.20187632504105565,-0.10626637180596589,-0.0840330588184297
1782858422669552400,9.596552490234375,0.28683132100999353,-0.03647650400400162,-0.016759265490621327
1782858422679501300,9.606501220703125,0.3477659744441509,0.02114391031563282,0.03742459850907325
1782858422689449200,9.61644921875,0.3887298529952764,0.05524111796766519,0.10799728725180029
1782858422699398400,9.6263984375,0.40237025581300256,0.06683101799637078,0.19448314604982733
1782858422709347600,9.63634765625,0.38879415040314197,0.056172553598880764,0.2859066073805094
1782858422719326500,9.646326416015626,0.29864860005378724,0.06951835738420487,0.41895533378049726
1782858422729275400,9.656275390625,0.23433014940023422,0.08942074320614338,0.505625463104248
1782858422739223600,9.6662236328125,0.1698731670588255,0.11476152068972587,0.5173344594679773
1782858422749172500,9.67617236328125,0.0701835432946682,0.18480244064331053,0.48660307498723265
1782858422759151400,9.6861513671875,-0.0004588496834039688,0.23900603225678205,0.4052246223308146
1782858422769100500,9.6961005859375,-0.060710197028517716,0.28342180482745166,0.32097996658831834
1782858422779049500,9.706049560546875,-0.10038988098800182,0.3202881849318743,0.25758915217369793
1782858422788998400,9.715998291015625,-0.10500175869762897,0.3057943801552057,0.1587498616285622
1782858422798946300,9.7259462890625,-0.14750234529674053,0.25830899088084697,0.02228723513185978
1782858422808926500,9.735926513671876,-0.2263970183134079,0.18209727333784104,-0.09285583222135901
1782858422818874400,9.745874267578126,-0.22000293336212634,0.10977321088314056,-0.18555939649045466
1782858422828823300,9.7558232421875,-0.08296879058778285,0.05817804820239544,-0.26511399472057817
1782858422838772200,9.765772216796876,0.08131517816185951,-0.018436989444494248,-0.3078178488068282
1782858422848751400,9.77575146484375,0.15854045666158198,-0.11829963168799877,-0.2578049868814647
1782858422858700500,9.785700439453125,0.14143793069124222,-0.15646365038752555,-0.16891791216060517
1782858422868649500,9.7956494140625,0.1240975043118,-0.15104454794824124,-0.12692132956087587
1782858422878597400,9.805597412109375,0.10972294200062752,-0.10628829137682914,-0.10081965070739388
1782858422888577500,9.81557763671875,0.13996902718245982,-0.040081250497698784,-0.053104544330388304
1782858422898525400,9.825525390625,0.22348726834654806,0.05449059186130762,-0.016663111639767886
1782858422908474400,9.835474365234376,0.23434651601314543,0.15521218902170658,0.03134089468121529
1782858422918423300,9.84542333984375,0.24818857888281343,0.22631723107546567,0.10267726127281784
1782858422928371500,9.855371337890626,0.2875958756417036,0.2505962245464325,0.21264234146624802
1782858422938351400,9.865351318359375,0.2909901942551136,0.2582376792103052,0.3181253078095615
1782858422948299500,9.875299560546875,0.28835575409829617,0.270396026776731,0.35570801948979497
1782858422958248400,9.88524853515625,0.25124972001910206,0.2850499905511737,0.37076530336812136
1782858422968197400,9.895197265625,0.20048633198738097,0.2754217459842562,0.3601242284968495
1782858422978176300,9.90517626953125,0.14796996280848979,0.24054157126098868,0.3352091290794313
1782858422988125400,9.91512548828125,0.04573474621474743,0.21224837371259928,0.2854318294756114
1782858422998074400,9.925074462890626,-0.04278758684694767,0.18837123904079198,0.19531988913491366
1782858423008022300,9.935022216796876,-0.14319617253541947,0.18194295955896375,0.10259148268550634
1782858423018002400,9.94500244140625,-0.24685762253999707,0.17869126428663729,-0.006100650396081619
1782858423027950600,9.95495068359375,-0.3256926743239164,0.19516718279123305,-0.10901157886087894
1782858423037899500,9.9648994140625,-0.38512978267669673,0.1964683285176754,-0.20768983362540602
1782858423047848400,9.974848388671875,-0.3942600145936012,0.15850304726064204,-0.27767142460718747
1782858423057796400,9.98479638671875,-0.37528409596681594,0.1317632166340947,-0.3488534774199128
1782858423067776500,9.994776611328126,-0.309656316280365,0.12131459559500217,-0.4011345765382051
1782858423077724400,10.004724365234376,-0.27801088569462296,0.13200316286981106,-0.4397381556987762
1782858423087673300,10.01467333984375,-0.1643693089455366,0.10174830985963344,-0.4347090754903853
1782858423097622300,10.024622314453126,-0.04149462442696094,0.07619885806143284,-0.4402158562131226
1782858423107601400,10.034601318359375,0.07436872002482414,0.06220277367383241,-0.42515521133393047
1782858423117550300,10.04455029296875,0.2016922006458044,0.057413785831630225,-0.3852212603524327
1782858423127499300,10.054499267578125,0.2890904981136322,0.02985094838440418,-0.3474041553944349
1782858423137447400,10.064447509765625,0.35549686095714567,-0.010225625938177108,-0.2698991831704974
1782858423147396400,10.074396240234375,0.45129123084843153,-0.0409258846282959,-0.20971403292939067
1782858423157375200,10.084375244140626,0.5363116932690143,-0.04328033879995346,-0.1739718345493078
1782858423167324400,10.094324462890626,0.6299982772260904,-0.04197451689839363,-0.16245836075767875
1782858423177273600,10.104273681640626,0.6996972518742084,-0.036307577177882196,-0.14434125091731548
1782858423187222500,10.114222412109376,0.6993406935214996,-0.05267477461099624,-0.10588772948561236
1782858423197201400,10.124201416015625,0.6449263817667961,-0.060601475957036015,-0.06305822145938873
1782858423207150300,10.134150390625,0.5618202285349368,-0.06011369244009256,-0.028839579384773967
1782858423217098500,10.144098388671875,0.5386620557874441,-0.0653337651759386,-0.005178425551205873
1782858423227047400,10.15404736328125,0.488154103821516,-0.03431523431688547,0.025486323434114454
1782858423237026600,10.164026611328126,0.37252398360371586,-0.002691431041061878,0.05192863241881132
1782858423246975500,10.1739755859375,0.27245266704559323,0.01790215191543102,0.0690973554931581
1782858423256924400,10.18392431640625,0.24013269819915292,0.03672258771955967,0.09648922028765082
1782858423266872300,10.193872314453126,0.1808873130261898,0.05110241072773933,0.11005451204255223
1782858423276821200,10.2038212890625,0.09155307905972003,0.07885229517966508,0.14022886542873456
1782858423286800400,10.21380029296875,0.02913374002575874,0.10987024151682853,0.16189225130751728
1782858423296749300,10.223749267578125,0.04884498718976974,0.10632365495115519,0.16754795724796132
1782858423306698200,10.2336982421875,0.10001461793482302,0.11921440844535827,0.17816475619450212
1782858423316647400,10.2436474609375,0.10432663591504096,0.10558452702164649,0.20530863757729528
1782858423326626300,10.253626220703126,0.05159691624641418,0.06551438243985176,0.21974530533924697
1782858423336575500,10.263575439453126,0.0651940644443035,0.06692541828155517,0.21237243848368526
1782858423346523600,10.273523681640626,0.12147592363655567,0.10915829385519027,0.20391835226267574
1782858423356472600,10.28347265625,0.1430810217231512,0.124293319144845,0.21054653823077676
1782858423366421500,10.29342138671875,0.150108728402853,0.07326368139237165,0.16522694868817925
1782858423376400400,10.303400390625,0.1581307068169117,0.05679360810667276,0.11129663932444527
1782858423386349300,10.313349365234375,0.1555547188490629,0.0699547029748559,0.09204321893053129
1782858423396297500,10.32329736328125,0.11794833403229713,0.039570962888002395,0.07789367928057908
1782858423406246400,10.333246337890625,0.09482990877330302,0.0014779635980725287,0.06958223466696217
1782858423416225500,10.3432255859375,0.08453998542726039,0.015233809489011764,0.030867724211513993
1782858423426174500,10.353174560546876,0.04157762653529644,0.011368950754404068,-0.02663841607868671
1782858423436123400,10.363123291015626,0.0394137264996767,0.029617724150419234,-0.05318389317691326
1782858423446072300,10.373072265625,0.0960118120342493,0.055551499091088766,-0.056574996919929975
1782858423456051500,10.383051513671875,0.13949790253937244,0.07397182966172695,-0.03884524242933839
1782858423466000400,10.39300048828125,0.11477730278074741,0.05815466732680797,0.0001708265222609043
1782858423475980000,10.40297998046875,0.11596914291381835,0.012499123828113079,0.02323094572275877
1782858423485929000,10.412928955078126,0.13293605980575085,0.004404664699733257,-0.00874557998087257
1782858423495878000,10.4228779296875,0.14262158751785756,0.02628478033542633,-0.039018735832720995
1782858423505857000,10.43285693359375,0.13323708857893943,0.030954525712132454,-0.019198475336283445
1782858423515806200,10.44280615234375,0.11255904220938683,0.03323357656002045,0.01674275274723768
1782858423525755100,10.452755126953125,0.1706049884647131,0.02626023041605949,0.029676468600332736
1782858423535703300,10.462703369140625,0.2264309205830097,0.01902151133418083,-0.04651727489456534
1782858423545682200,10.47268212890625,0.15336626889407634,-0.013670797955989836,-0.1063859065324068
1782858423555631000,10.482631103515626,0.08813537957072258,-0.04067337117195129,-0.07188172551468014
1782858423565580000,10.492580078125,0.15221242268383503,-0.051341480180621145,-0.012864742270112037
1782858423575529200,10.502529296875,0.19165011458098888,0.008937339693307875,0.026077567325532434
1782858423585477000,10.51247705078125,0.19832243195176125,0.03850041104704141,0.028104250847548244
1782858423595457000,10.52245703125,0.20890987693965435,0.01740676961392164,0.03201835555136204
1782858423605405200,10.5324052734375,0.19276129069328307,0.03317921602427959,0.04014028720855713
1782858423615354000,10.54235400390625,0.19120529342293738,0.033059096775949,0.03469404103402048
1782858423625303000,10.552302978515625,0.18921499638855457,0.018473522062599657,0.033726657306589185
1782858423635282000,10.562281982421876,0.17420564330518246,0.013306056296825408,0.0272695535890758
1782858423645231000,10.572231201171874,0.13091770572066305,0.009001637101173401,0.01412745568230748
1782858423655180000,10.582179931640624,0.1146598138809204,0.004911445178091525,0.005126110842078924
1782858423665128000,10.5921279296875,0.1384492702692747,0.014347089782357216,-0.012105594465881586
1782858423675108000,10.602108154296875,0.12296236280202864,0.03650280748903751,-0.011951134556531906
1782858423685056000,10.612055908203125,0.04668927046060562,0.007070084516704082,0.0018397826477885245
1782858423695005200,10.622005126953125,0.008490764969587325,-0.035030689109861846,-0.003965688760578632
1782858423704954000,10.6319541015625,0.032332828328013416,-0.030194062733650207,-0.03709127490147948
1782858423714902300,10.64190234375,0.012484803041815757,-0.01379091720432043,-0.06718870886024088
1782858423724882200,10.651882080078124,-0.012335165438055991,-0.012294833427667616,-0.07559124755710363
1782858423734830000,10.661830078125,0.013795885640382767,-0.0201426243185997,-0.07702318005636334
1782858423744779000,10.671779052734376,-0.003277414235472679,-0.03408551721423864,-0.07173530278131365
1782858423754728200,10.681728271484374,0.012989829954504966,-0.06792261262536048,-0.08447904902026057
1782858423764707000,10.69170703125,0.09142682233154774,-0.07120674886256456,-0.07680559178292751
1782858423774656000,10.701656005859375,0.09631985507011413,-0.056635787196457385,-0.05231222490891814
1782858423784605000,10.71160498046875,0.10112813213467597,-0.07001520099043845,-0.06534457883089781
1782858423794553000,10.721552978515625,0.13678805905878544,-0.05053396319001913,-0.0768649207547307
1782858423804502000,10.731501953125,0.15854221022725104,-0.005977028582990169,-0.08035228794645517
1782858423814481000,10.74148095703125,0.19892215141057967,0.03963789064437151,-0.07378006994929165
1782858423824430000,10.75143017578125,0.24851591114103794,0.036521804450452326,-0.026845482958108183
1782858423834379300,10.761379150390624,0.28916064074039455,-0.0010626607954502105,0.021600714172422885
1782858423844328200,10.771328125,0.30858488765656944,-0.024004852704703806,0.05616104582417756
1782858423854307000,10.78130712890625,0.27567396717965603,-0.015394260747730731,0.07412384188566357
1782858423864255200,10.791255126953125,0.22601591004133223,0.023201427367329597,0.08282455981150269
1782858423874204200,10.8012041015625,0.22966098854541778,0.0372615169018507,0.07014905650317668
1782858423884153000,10.811153076171875,0.20921499736607074,0.04946311908811331,0.04847454644218087
1782858423894132200,10.82113232421875,0.16197569180727003,0.06321750367432832,0.02979633212033659
1782858423904081200,10.8310810546875,0.10104746811389922,0.07331015088260173,0.03688391576111316
1782858423914030000,10.841030029296874,0.03310615078806877,0.06803162595778703,0.015410335099697112
1782858423923978000,10.85097802734375,0.07011515423357487,0.1006125838279724,-0.005727583866566419
1782858423933927200,10.86092724609375,0.07403788063526154,0.13108370993733406,-0.012461568296700715
1782858423943906000,10.870906005859375,0.053878305181860923,0.12621961103230714,-0.004721037172526121
1782858423953855000,10.88085498046875,0.06558510958850383,0.12576719108968973,-0.006519136103056371
1782858423963804000,10.890803955078125,0.09609539866447449,0.15197218418717384,-0.03469517354518175
1782858423973753000,10.900753173828125,0.1385533151656389,0.16779110008776188,-0.021555705986917018
1782858423983732000,10.91073193359375,0.14029986657202242,0.1389163032591343,-0.0171330672390759
1782858423993681200,10.92068115234375,0.14975100100636482,0.0888160553112626,-0.032822657671570776
1782858424003629000,10.930629150390626,0.16415245132446288,0.06154197167754173,-0.032720804732292885
1782858424013578200,10.940578125,0.16704232754707335,0.03347381505668163,-0.04031389020979404
1782858424023527200,10.950527099609374,0.1910211690276861,-0.005516717594861984,-0.056840223727375266
1782858424033506000,10.960506103515625,0.19592121602892876,-0.033444588962197305,-0.0674771704128012
1782858424043455200,10.970455322265625,0.2106903306156397,-0.05981149462312459,-0.06275525645744055
1782858424053403100,10.980403076171875,0.19869301882982252,-0.07967910139262675,-0.07641673859581351
1782858424063352000,10.99035205078125,0.1670183621495962,-0.07701192800998688,-0.09961622973438351
1782858424073331200,11.000331298828126,0.15052490798830986,-0.09477321015000342,-0.09118015409409999
1782858424083280100,11.010280029296876,0.1377478440016508,-0.10623685345053673,-0.08060776054486632
1782858424093229000,11.02022900390625,0.10050736988782882,-0.0997153427273035,-0.04747705983743071
1782858424103178000,11.030177978515624,0.057384267476201054,-0.10102613306492567,-0.034554851759038864
1782858424113157000,11.0401572265625,0.10215221448540687,-0.073660279494524,-0.054458589287847275
1782858424123106000,11.05010595703125,0.13130056755840777,-0.013674305087327957,-0.040414574105292554
1782858424133054000,11.060053955078125,0.11090133813023567,0.033363924941420556,0.014440174893289803
1782858424143003000,11.0700029296875,0.1176268469929695,0.008860767325758934,0.057213733214884994
1782858424152952300,11.079952392578125,0.1325806704968214,-0.005566694216430187,0.06124123516529798
1782858424162931000,11.089930908203126,0.15868483356833457,0.0033688919112086295,0.07255527739468962
1782858424172880100,11.099880126953124,0.1708317829579115,-0.00765489866733551,0.08374839665815234
1782858424182828300,11.109828369140626,0.15661679512262344,-0.021757658299803733,0.09589256956875324
1782858424192777200,11.119777099609376,0.15677227794528006,-0.00971709189414978,0.10416969178766011
1782858424202756000,11.129756103515625,0.16209259618520735,-0.004869651862978935,0.09944222487434744
1782858424212705000,11.139705078125,0.17013678643107413,-0.0020849895805120466,0.08178469536975026
1782858424222654200,11.149654296875,0.11743337024748325,0.019357611420750615,0.07050722229108214
1782858424232603100,11.15960302734375,0.0639747517824173,0.03866144682765007,0.05264014168903231
1782858424242582000,11.16958203125,0.09777473005354403,0.08142565279901028,0.042168724296241994
1782858424252531000,11.179531005859374,0.1982581345438957,0.08133972808122635,-0.04451689485758543
1782858424262479000,11.18947900390625,0.1364110424399376,0.09275602510869503,-0.07637216880172491
1782858424272428000,11.199427978515626,0.12492986348271369,0.06857055514007807,-0.06259630303606391
1782858424282377000,11.209376953125,0.16221008508503437,0.06334054553210736,-0.04923807816058397
1782858424292356000,11.219356201171875,0.1700339105784893,0.06607844606339931,-0.16874007137566804
1782858424302305000,11.229304931640625,0.1421609842687845,0.03147854958623648,-0.24230476327491923
1782858424312254200,11.239254150390625,0.14959844079315662,0.05286942040026187,-0.33954379728287454
1782858424322201900,11.249201904296875,0.16206278556883333,0.07212620179504156,-0.3445701010122895
1782858424332182300,11.259182373046874,0.20122282956838605,0.09803075064122677,-0.2682891176253557
1782858424342130200,11.269130126953126,0.18882453576624392,0.113405429905653,-0.19871566905304788
1782858424352079000,11.2790791015625,0.1965893245488405,0.07481178761720657,-0.11362740209326147
1782858424362028000,11.289028076171874,0.2456710431039333,0.050561143457889555,-0.05649360224679112
1782858424371976200,11.29897607421875,0.31875089236199855,0.04106909249126911,-0.022765520168095826
1782858424381956000,11.3089560546875,0.3374269512593746,0.06556815845370292,-0.048017011933028694
1782858424391904000,11.318904052734375,0.35345278790891166,0.02166705740690231,-0.10221943450272082
1782858424401853200,11.328853271484375,0.3434644778579473,-0.014607202023267745,-0.13803046033531427
1782858424411802000,11.338802001953125,0.21947686366140842,-0.03636778293251991,-0.17425898092761635
1782858424421781000,11.348781005859376,0.12268062325119972,-0.05945727435797452,-0.1569730612143874
1782858424431730000,11.35872998046875,0.18505495409965514,-0.023106150299310683,-0.12924071241915225
1782858424441679000,11.36867919921875,0.22007541407644748,0.0425529013082385,-0.1300681031540036
1782858424451627000,11.378626953125,0.2483160046547651,0.06118950497806072,-0.15473200428932904
1782858424461607000,11.38860693359375,0.2628910579741001,0.0022960019826889035,-0.14689181218296288
1782858424471555000,11.39855517578125,0.2500900285899639,-0.05969108311384916,-0.12668868984878062
1782858424481511000,11.408510986328125,0.2594312729090452,-0.05499795686155557,-0.12250599733665585
1782858424491459800,11.4184599609375,0.2641197229862213,0.009017419192194938,-0.1316578565634787
1782858424501407700,11.42840771484375,0.20162848775982856,0.05849076741337776,-0.1358190678961575
1782858424511388200,11.43838818359375,0.20140636944174764,0.07819441579282284,-0.13979747000783682
1782858424521335800,11.448335693359375,0.21427812597453594,0.09978694665879011,-0.15500833701267838
1782858424531285000,11.458284912109375,0.15796528712213037,0.09261310950666665,-0.1307368053289596
1782858424541234000,11.46823388671875,0.1698077006071806,0.03479980296343565,-0.06761895350366831
1782858424551213000,11.478213134765625,0.10016133292913436,-0.01975099465250969,-0.004827566286921501
1782858424561162000,11.488161865234375,-0.01383621765077114,-0.08135609469413757,0.03140972213372588
1782858424571111000,11.49811083984375,0.03493453525900841,-0.13591536787748337,0.047945261871069664
1782858424581059000,11.50805908203125,0.018393150302767752,-0.18270488384217023,0.05341901710703969
1782858424591008000,11.518008056640625,-0.06055296064019203,-0.234373404020071,0.007741115646064281
1782858424600987000,11.52798681640625,-0.046621465921401976,-0.2898217349976301,-0.07007571727233007
1782858424610935800,11.537935791015625,0.05268471148312091,-0.30328678124845027,-0.0880120454519987
1782858424620885000,11.547885009765626,0.01283317808806896,-0.30555706426799295,-0.04803600889444351
1782858424630834000,11.557833984375,-0.07414192553162574,-0.3404711412608623,0.025008312392514196
1782858424640812800,11.567812744140625,-0.0651075552046299,-0.33787761763632296,0.09290463979914784
1782858424650761700,11.57776171875,-0.09320786052942276,-0.23831951129734516,0.12116729607880115
1782858424660710000,11.5877099609375,-0.1434159527659416,-0.09388561366051434,0.08709493060708046
1782858424670659000,11.5976591796875,-0.1359270583152771,0.04730769461989402,0.02791822675615549
1782858424680638000,11.607637939453125,-0.10235504358112811,0.13167290800213813,-0.022120061871409413
1782858424690587100,11.617587158203126,-0.0990443115979433,0.1212912147194147,-0.058071519088000054
1782858424700536000,11.6275361328125,-0.08222060256898403,0.09625994157642126,-0.058396988182701164
1782858424710484000,11.63748388671875,-0.09351181191205978,0.10131225652992724,-0.006623802053928375
1782858424720433000,11.647432861328125,-0.06996843923926353,0.08051876708716153,0.03602028466910124
1782858424730412000,11.657412109375,0.043811084675788876,0.08742898486703633,0.0787194260476157
1782858424740361000,11.66736083984375,0.10738660800755023,0.10607318732142448,0.10889715870097279
1782858424750310000,11.677309814453125,0.08962298777997493,0.14417816931009292,0.1086556050300598
1782858424760258800,11.6872587890625,0.19019874672889708,0.14078560426235198,0.08071852744296193
1782858424770238000,11.697238037109376,0.27328911786973475,0.20062164880484343,0.10232446577977389
1782858424780187000,11.707186767578126,0.2931400657653808,0.22828297819048166,0.10776026362553238
1782858424790134800,11.717134765625,0.33604747959971426,0.19640578467547892,0.13272767775207758
1782858424800084000,11.727083984375,0.3138222037881613,0.17539397630691528,0.1543219621837139
1782858424810033000,11.737032958984376,0.33624387895464897,0.16357465143650768,0.19269418027382343
1782858424820011800,11.74701171875,0.40807986563146115,0.15969079574048517,0.20161153662502765
1782858424829961000,11.7569609375,0.39925943031609057,0.1639528370991349,0.22742427900191395
1782858424839908900,11.766908935546875,0.36302258028686046,0.15257248816788196,0.27787293852865697
1782858424849858000,11.776858154296875,0.3675695760667324,0.12244681449532509,0.28296178610026834
1782858424859837000,11.7868369140625,0.33416707268059254,0.10413052882105112,0.2400109349830076
1782858424869786000,11.7967861328125,0.3044312751084566,0.09507190083563327,0.17684004692938177
1782858424879735000,11.806735107421876,0.34976328574120996,0.11484276923239231,0.14540025845095514
1782858424889684000,11.81668408203125,0.3006844897955656,0.11935849309116602,0.18263883286863564
1782858424899662800,11.826662841796875,0.30240298415124417,0.10739362227022647,0.24058131874948738
1782858424909612000,11.836612060546875,0.34328093798458575,0.12462357401251792,0.2639294611111283
1782858424919560000,11.846559814453125,0.3152496062427759,0.16853373514860867,0.2888942448891699
1782858424929508900,11.8565087890625,0.3121002023011446,0.18277298064231873,0.3347439957857132
1782858424939457800,11.866457763671875,0.311261997911334,0.18381927482485771,0.3500638761229813
1782858424949437000,11.87643701171875,0.2887777789026499,0.18451281004697084,0.2750711789809167
1782858424959385900,11.8863857421875,0.25824352442920206,0.22288579532206057,-0.0651940644443035
1782858424969334800,11.896334716796876,-0.029736966615915298,-0.0664794280797243,-1.5709538703285157
1782858424979283000,11.906282958984375,-1.0151613776504993,-0.8580816411912441,-1.5827718800246715
1782858424989261800,11.91626171875,-1.133987079039216,-1.0692255607932806,-0.8649928088191896
1782858424999211000,11.9262109375,-0.6209907949060202,-0.5890092642337084,-0.5314707560438663
1782858425009160000,11.936159912109375,-0.18671382722258567,-0.08767565310448408,-0.38097171314917505
1782858425019109000,11.946109130859375,-0.07032090593874454,0.03953472253084182,-0.2621100636642426
1782858425029088000,11.956087890625,-0.08523498195409775,-0.0734881377980113,-0.11824673245698213
1782858425039037000,11.966036865234376,-0.11662146934270858,-0.012639409081637859,-0.015470686984807252
1782858425048985000,11.975985107421875,-0.06530746169090271,0.1803559826284647,0.09034808718413113
1782858425058934000,11.98593408203125,0.12959960885941982,0.32044688262492416,0.17658523191809652
1782858425068883000,11.995883056640626,0.2652209622263908,0.36563948478698727,0.25546149249523875
1782858425078861800,12.00586181640625,0.2792506566226482,0.37894787917137146,0.3105212625466287
1782858425088811000,12.01581103515625,0.2908931636214256,0.38607963074743745,0.28246567314639687
1782858425098760000,12.025760009765625,0.30054712715148924,0.32682226287573574,0.2286965274274349
1782858425108707800,12.035707763671875,0.2940957590550184,0.21120646344423294,0.14237652671560644
1782858425118687700,12.045687744140626,0.26103695454001424,0.16537556337863205,0.06218026958107948
1782858425128636000,12.055635986328125,0.22319676096737384,0.12394786670804023,0.009658347444236277
1782858425138584800,12.065584716796875,0.14947101502120494,0.05457184040397405,-0.04985489488467574
1782858425148534000,12.075533935546876,0.09832008897662162,-0.006274842485785484,-0.06645443976894021
1782858425158482000,12.08548193359375,0.11880290503501892,-0.017529519210755823,-0.05850114267691969
1782858425168462000,12.095462158203125,0.15081424632370471,-0.03705839554518461,-0.08654679520502687
1782858425178410000,12.105409912109375,0.13420856395959854,-0.059663026063144206,-0.05147391092125326
1782858425188359000,12.11535888671875,0.13427695302069187,-0.038728082323074335,0.001562865402549505
1782858425198308000,12.12530810546875,0.010323825615644454,-0.02256985146552324,0.024589228463917968
1782858425208287000,12.135286865234375,-0.1855178954362869,-0.06516688417643308,0.08243468371108174
1782858425218236000,12.14523583984375,-0.1784732376217842,-0.02003331872522831,0.04451389918290078
1782858425228184800,12.155184814453126,-0.05500409434139728,0.10287468354105948,-0.007537555897980928
1782858425238133000,12.165133056640625,0.42801089302599427,0.20603022985011338,0.05839234854020178
1782858425248113000,12.17511279296875,0.5222574489533901,0.18070406541377304,0.32658268196620044
1782858425258061000,12.18506103515625,-0.07757482258975505,0.12402853072881698,0.30483152647241946
1782858425268010000,12.195010009765625,-0.11238251659870147,0.11266893232464789,0.030884675346314904
1782858425277959000,12.204958984375,-0.14997078123688698,0.08440671443641186,-0.05518383482247591
1782858425287907800,12.214907958984375,-0.06374386563599109,0.07852554744333029,-0.04542191740591079
1782858425297887000,12.224886962890626,0.017736147698760033,0.13154372866451738,-0.03862257612198591
1782858425307835000,12.2348349609375,0.061764089995622634,0.12738193280994892,-0.11179010366350411
1782858425317784000,12.2447841796875,0.037759529551863666,0.06244856512844562,-0.1707921815998852
1782858425327733000,12.25473291015625,-0.03493745786845684,0.007516659240424633,-0.21107640732377767
1782858425337712000,12.264712158203125,-0.05486673169732093,0.007953589352965354,-0.13892667852267623
