time,seconds_elapsed,z,y,x
1782858413330979600,0.2579794921875,0.06225362420082092,0.035187337547540665,-0.21472515165805817
1782858413340958700,0.267958740234375,0.09003954380750656,0.0971638411283493,-0.27281567454338074
1782858413350907600,0.27790771484375,0.12973661720752716,0.1666148155927658,-0.31184855103492737
1782858413360856600,0.287856689453125,0.16274020075798035,0.2212032973766327,-0.31578564643859863
1782858413370804500,0.297804443359375,0.1906253695487976,0.21623170375823975,-0.29243823885917664
1782858413380753400,0.30775341796875,0.20672255754470825,0.17206718027591705,-0.23094987869262695
1782858413390732500,0.317732666015625,0.22041413187980652,0.11529923230409622,-0.16327974200248718
1782858413400681500,0.327681396484375,0.21699446439743042,0.033645063638687134,-0.09291321039199829
1782858413410630400,0.33763037109375,0.20359982550144196,-0.040599074214696884,-0.037082966417074203
1782858413420579300,0.347579345703125,0.18307112157344818,-0.09343422949314117,-0.002998453564941883
1782858413430558500,0.357558349609375,0.15569674968719482,-0.14606255292892456,0.008685898967087269
1782858413440507600,0.367507568359375,0.13496671617031097,-0.19316887855529785,-0.005407883320003748
1782858413450455600,0.37745556640625,0.12902572751045227,-0.21625421941280365,-0.029799774289131165
1782858413460404700,0.38740478515625,0.126146137714386,-0.21040356159210205,-0.04757508635520935
1782858413470388200,0.39738818359375,0.12070397287607193,-0.18508382141590118,-0.06197719648480415
1782858413480337200,0.407337158203125,0.11148419231176376,-0.14229901134967804,-0.08674316108226776
1782858413490286000,0.4172861328125,0.12123935669660568,-0.10779429972171783,-0.12039992213249207
1782858413500234200,0.427234130859375,0.10742944478988647,-0.06562522053718567,-0.1439097374677658
1782858413510183200,0.43718310546875,0.08518140017986298,-0.02472919225692749,-0.14507833123207092
1782858413520162000,0.447162109375,0.08128217607736588,-0.011584902182221413,-0.15291178226470947
1782858413530111000,0.457111083984375,0.08981893956661224,0.030571341514587402,-0.13596662878990173
1782858413540060200,0.46706005859375,0.09429233521223068,0.028985731303691864,-0.1245722621679306
1782858413550009000,0.477009033203125,0.11239943653345108,-0.022171728312969208,-0.1059437245130539
1782858413559988000,0.486988037109375,0.1239924505352974,-0.07709383219480515,-0.07356660813093185
1782858413569937000,0.49693701171875,0.12066935747861862,-0.11041636765003204,-0.04720024764537811
1782858413579885000,0.506885009765625,0.11227896809577942,-0.12374331802129745,-0.01625373400747776
1782858413589834000,0.516833984375,0.11257165670394897,-0.14434392750263214,-0.0018612141720950603
1782858413599783200,0.526783203125,0.11763379722833633,-0.1993250846862793,-0.013105550780892372
1782858413609762300,0.53676220703125,0.135306254029274,-0.2414056956768036,-0.03783539682626724
1782858413619711200,0.546711181640625,0.16833336651325226,-0.23023201525211334,-0.05442935228347778
1782858413629659100,0.5566591796875,0.18496747314929962,-0.2101355344057083,-0.05660754814743996
1782858413639608000,0.566608154296875,0.19549033045768738,-0.19562755525112152,-0.059459444135427475
1782858413649587200,0.576587158203125,0.199628084897995,-0.16662944853305817,-0.05869724228978157
1782858413659536100,0.5865361328125,0.1924637407064438,-0.14107869565486908,-0.06185371056199074
1782858413669485000,0.596485107421875,0.17849040031433105,-0.1144510880112648,-0.07380970567464828
1782858413679434000,0.60643408203125,0.16150040924549103,-0.09404940903186798,-0.09306386858224869
1782858413689413000,0.6164130859375,0.13649438321590424,-0.09399321675300598,-0.12129071354866028
1782858413699362000,0.626362060546875,0.11373892426490784,-0.08245284110307693,-0.14375914633274078
1782858413709310000,0.63631005859375,0.09046581387519836,-0.054584722965955734,-0.16279888153076172
1782858413719259100,0.646259033203125,0.07168130576610565,-0.05328398942947388,-0.18004125356674194
1782858413729208000,0.6562080078125,0.06331764906644821,-0.07402388751506805,-0.19028083980083466
1782858413739187000,0.66618701171875,0.059256769716739655,-0.09709078818559647,-0.18960025906562805
1782858413749136000,0.676135986328125,0.05279886722564697,-0.11312488466501236,-0.18804976344108582
1782858413759085000,0.6860849609375,0.04988323897123337,-0.10612402856349945,-0.1779537945985794
1782858413769033200,0.696033203125,0.05373363941907883,-0.07626466453075409,-0.15955640375614166
1782858413779011800,0.70601171875,0.06585856527090073,-0.06378711760044098,-0.13087835907936096
1782858413788961300,0.715961181640625,0.09614430367946625,-0.0846865326166153,-0.08742915093898773
1782858413798910200,0.72591015625,0.13961081206798553,-0.11480975896120071,-0.03126034513115883
1782858413808859100,0.735859130859375,0.19548100233078003,-0.14262089133262634,0.04178670421242714
1782858413818807000,0.74580712890625,0.24242614209651947,-0.15492838621139526,0.11834937334060669
1782858413828787200,0.755787109375,0.27054858207702637,-0.16044379770755768,0.1820191591978073
1782858413838735000,0.765735107421875,0.2754509449005127,-0.15816427767276764,0.21928676962852478
1782858413848684000,0.77568408203125,0.2587348222732544,-0.1689319610595703,0.2190963476896286
1782858413858633000,0.785633056640625,0.22495298087596893,-0.16987663507461548,0.18234921991825104
1782858413868612000,0.795612060546875,0.17845390737056732,-0.13753600418567657,0.12690220773220062
1782858413878561000,0.80556103515625,0.1312498152256012,-0.060077011585235596,0.05648548901081085
1782858413888510000,0.815510009765625,0.08635611832141876,0.04061391204595566,-0.028155628591775894
1782858413898458000,0.8254580078125,0.060322120785713196,0.135157510638237,-0.13479366898536682
1782858413908438000,0.83543798828125,0.06644659489393234,0.19458968937397003,-0.25880667567253113
1782858413918386000,0.845385986328125,0.10406774282455444,0.22381466627120972,-0.3812263607978821
1782858413928335000,0.855335205078125,0.15530243515968323,0.23733419179916382,-0.47865626215934753
1782858413938284000,0.865283935546875,0.1869335025548935,0.23438666760921478,-0.5529442429542542
1782858413948232200,0.875232177734375,0.17993603646755219,0.23530572652816772,-0.6222293376922607
1782858413958212000,0.885212158203125,0.14793427288532257,0.26010143756866455,-0.6762295961380005
1782858413968160300,0.89516015625,0.11215762048959732,0.2843084931373596,-0.7179789543151855
1782858413978109200,0.905109130859375,0.10592636466026306,0.3087581396102905,-0.7389436960220337
1782858413988058000,0.91505810546875,0.1252254843711853,0.3403205871582031,-0.7460452318191528
1782858413998037000,0.925037109375,0.16617007553577423,0.3390239477157593,-0.7426230311393738
1782858414007986200,0.934986083984375,0.21393094956874847,0.3236319422721863,-0.7203342318534851
1782858414017935000,0.94493505859375,0.2588992118835449,0.3168237507343292,-0.6857728958129883
1782858414027883000,0.954883056640625,0.298870325088501,0.2860479950904846,-0.6529001593589783
1782858414037832000,0.96483203125,0.3374517261981964,0.23911383748054504,-0.6229533553123474
1782858414047811000,0.97481103515625,0.3655241131782532,0.21408039331436157,-0.6009694933891296
1782858414057760000,0.984760009765625,0.3843068480491638,0.2147473394870758,-0.5713926553726196
1782858414067709000,0.994708984375,0.3703438937664032,0.21494653820991516,-0.5236272215843201
1782858414077658000,1.004658203125,0.3211962580680847,0.2143961787223816,-0.45057421922683716
1782858414087637200,1.01463720703125,0.2447483390569687,0.19439131021499634,-0.3651208281517029
1782858414097585000,1.0245849609375,0.1549544334411621,0.1638137698173523,-0.2907516658306122
1782858414107534000,1.0345341796875,0.08158542215824127,0.1366410106420517,-0.23662294447422028
1782858414117483300,1.044483154296875,0.038780346512794495,0.1146109476685524,-0.21280352771282196
1782858414127462100,1.054462158203125,0.01997789740562439,0.09166008979082108,-0.2153252810239792
1782858414137411000,1.0644111328125,0.012354154139757156,0.046909429132938385,-0.2368078976869583
1782858414147360000,1.074360107421875,0.006772167980670929,-0.007475514896214008,-0.27052298188209534
1782858414157308200,1.08430810546875,0.011061366647481918,-0.026443645358085632,-0.30299466848373413
1782858414167257000,1.094257080078125,0.024900216609239578,-0.01896575838327408,-0.322951078414917
1782858414177236000,1.104236083984375,0.040866218507289886,-0.026176905259490013,-0.32422739267349243
1782858414187185200,1.11418505859375,0.05262380838394165,-0.027743376791477203,-0.30712562799453735
1782858414197134000,1.124134033203125,0.04485678672790527,-0.016075236722826958,-0.26970070600509644
1782858414207083000,1.1340830078125,0.011229855939745903,-0.01687737926840782,-0.22622035443782806
1782858414217062000,1.144061767578125,-0.027372309938073158,-0.03851507976651192,-0.18351474404335022
1782858414227011000,1.154010986328125,-0.05604416877031326,-0.06893743574619293,-0.15181221067905426
1782858414236959000,1.163958984375,-0.06387634575366974,-0.10224400460720062,-0.1285516321659088
1782858414246908200,1.173908203125,-0.06653471291065216,-0.16181012988090515,-0.11438548564910889
1782858414256857000,1.183857177734375,-0.06194724142551422,-0.21100792288780212,-0.10409464687108994
1782858414266836200,1.193836181640625,-0.05145278945565224,-0.22378310561180115,-0.09114369750022888
1782858414276785200,1.20378515625,-0.0502714142203331,-0.21164879202842712,-0.08747819066047668
1782858414286733000,1.213733154296875,-0.050543587654829025,-0.17655232548713684,-0.09614650905132294
1782858414296682200,1.22368212890625,-0.0529695488512516,-0.11816956102848053,-0.10981640219688416
1782858414306661000,1.2336611328125,-0.05210668593645096,-0.07065530121326447,-0.12657621502876282
1782858414316610000,1.243610107421875,-0.04499435797333717,-0.04465923085808754,-0.1419491469860077
1782858414326559000,1.25355908203125,-0.033633578568696976,-0.04099259153008461,-0.1521671712398529
1782858414336508200,1.263508056640625,-0.025919023901224136,-0.019441189244389534,-0.15118096768856049
1782858414346487000,1.273487060546875,-0.02220764197409153,0.02355341613292694,-0.1321289837360382
1782858414356436000,1.28343603515625,-0.02308710664510727,0.05611952021718025,-0.11599085479974747
1782858414366384000,1.293384033203125,-0.02677212283015251,0.051550332456827164,-0.09605789184570312
1782858414376333000,1.3033330078125,-0.019647013396024704,0.02493160218000412,-0.08379900455474854
1782858414386282000,1.313281982421875,-0.01594974659383297,-0.026724934577941895,-0.08010200411081314
1782858414396260900,1.3232607421875,-0.0096319280564785,-0.08289854973554611,-0.08162273466587067
1782858414406210300,1.333210205078125,-0.011354727670550346,-0.10837221890687943,-0.08856745064258575
1782858414416158000,1.343157958984375,-0.02332599088549614,-0.10862254351377487,-0.09831889718770981
1782858414426107100,1.353107177734375,-0.039005085825920105,-0.0946715772151947,-0.11610934883356094
1782858414436086300,1.363086181640625,-0.044721562415361404,-0.07772776484489441,-0.12983901798725128
1782858414446035200,1.37303515625,-0.05511321872472763,-0.10275828838348389,-0.1516612321138382
1782858414455984000,1.382984130859375,-0.06868521869182587,-0.14634639024734497,-0.18263977766036987
1782858414465933000,1.39293310546875,-0.06977285444736481,-0.16056819260120392,-0.20263905823230743
1782858414475917800,1.402917724609375,-0.07159445434808731,-0.1333470195531845,-0.2099742740392685
1782858414485898000,1.41289794921875,-0.0808342918753624,-0.11343163996934891,-0.21750569343566895
1782858414495846000,1.422845947265625,-0.0907585620880127,-0.12150327116250992,-0.21696893870830536
1782858414505795000,1.432795166015625,-0.09244753420352936,-0.12679363787174225,-0.20935682952404022
1782858414515744000,1.442743896484375,-0.08981376141309738,-0.1446927934885025,-0.18706591427326202
1782858414525723000,1.452722900390625,-0.09519840031862259,-0.15752895176410675,-0.1586744785308838
1782858414535672000,1.462672119140625,-0.11008201539516449,-0.1530335694551468,-0.1283472627401352
1782858414545621000,1.47262109375,-0.12063479423522949,-0.13839177787303925,-0.09342017024755478
1782858414555569000,1.48256884765625,-0.12406094372272491,-0.12351272255182266,-0.060873426496982574
1782858414565548800,1.492548828125,-0.1296440064907074,-0.12680678069591522,-0.03881926089525223
1782858414575497000,1.5024970703125,-0.13212978839874268,-0.14060960710048676,-0.030851006507873535
1782858414585446000,1.51244580078125,-0.13817809522151947,-0.15863974392414093,-0.0337194949388504
1782858414595394800,1.522394775390625,-0.13913071155548096,-0.1809602975845337,-0.03607486933469772
1782858414605343000,1.532343017578125,-0.14355875551700592,-0.1871281862258911,-0.028572214767336845
1782858414615323000,1.542322998046875,-0.14684686064720154,-0.16440066695213318,-0.016627049073576927
1782858414625270800,1.552270751953125,-0.1495787352323532,-0.1340198516845703,-0.004213788080960512
1782858414635219700,1.5622197265625,-0.15449386835098267,-0.09855967015028,0.010578944347798824
1782858414645169000,1.5721689453125,-0.16486766934394836,-0.07898223400115967,0.03424565866589546
1782858414655148000,1.58214794921875,-0.17766709625720978,-0.07751470804214478,0.051785897463560104
1782858414665097000,1.592096923828125,-0.1944015920162201,-0.08546051383018494,0.06381486356258392
1782858414675046000,1.6020458984375,-0.20973607897758484,-0.11858803033828735,0.055832650512456894
1782858414684994000,1.611994140625,-0.2170613706111908,-0.16136318445205688,0.040424931794404984
1782858414694943000,1.62194287109375,-0.21754491329193115,-0.18107444047927856,0.015175111591815948
1782858414704921900,1.631921875,-0.21418480575084686,-0.16505339741706848,-0.012066628783941269
1782858414714871000,1.64187109375,-0.20993520319461823,-0.11350569874048233,-0.032500989735126495
1782858414724820000,1.651820068359375,-0.21349744498729706,-0.056859731674194336,-0.0527665801346302
1782858414734767900,1.661767822265625,-0.2167987823486328,-0.023455454036593437,-0.06396038830280304
1782858414744747800,1.671747802734375,-0.22113920748233795,0.009245767258107662,-0.05980931594967842
1782858414754696000,1.681696044921875,-0.21370205283164978,0.025142507627606392,-0.0451192632317543
1782858414764644900,1.691644775390625,-0.1957361102104187,0.006874287500977516,-0.02567552588880062
1782858414774593800,1.70159375,-0.16392385959625244,-0.023376967757940292,0.00002649705857038498
1782858414784573000,1.711572998046875,-0.1298665553331375,-0.056075260043144226,0.023932894691824913
1782858414794521900,1.72152197265625,-0.1057625487446785,-0.08554920554161072,0.035425033420324326
1782858414804471000,1.731470947265625,-0.08544635772705078,-0.10328212380409241,0.037296172231435776
1782858414814419000,1.7414189453125,-0.07736694812774658,-0.11962548643350601,0.024978969246149063
1782858414824368000,1.7513681640625,-0.07067122310400009,-0.12289345264434814,0.007097441703081131
1782858414834347000,1.761346923828125,-0.06036647781729698,-0.08096520602703094,-0.0040785446763038635
1782858414844296000,1.7712958984375,-0.04320346936583519,-0.04184523969888687,-0.014539973810315132
1782858414854244900,1.781244873046875,-0.008431997150182724,-0.028135769069194794,-0.020642828196287155
1782858414864193800,1.79119384765625,0.026510009542107582,-0.03172145038843155,-0.02356857806444168
1782858414874173000,1.8011728515625,0.06186444312334061,-0.044083189219236374,-0.0201428160071373
1782858414884121900,1.811121826171875,0.089114710688591,-0.0482126846909523,-0.005250951740890741
1782858414894070000,1.821070068359375,0.09880311042070389,-0.049842603504657745,0.00852870475500822
1782858414904019000,1.83101904296875,0.09787872433662415,-0.05882491171360016,0.021522535011172295
1782858414913967900,1.8409677734375,0.085051529109478,-0.0666627511382103,0.01917533576488495
1782858414923946800,1.85094677734375,0.06849891692399979,-0.07926402986049652,0.006075511686503887
1782858414933896000,1.86089599609375,0.06171255558729172,-0.08604738116264343,-0.008135402575135231
1782858414943843800,1.87084375,0.06178659200668335,-0.10135523229837418,-0.026500027626752853
1782858414953792800,1.880792724609375,0.06250688433647156,-0.10517674684524536,-0.04334065318107605
1782858414963772000,1.89077197265625,0.06620734930038452,-0.09503223747015,-0.05928579717874527
1782858414973721000,1.90072119140625,0.06763232499361038,-0.055948980152606964,-0.0685834139585495
1782858414983670000,1.910669921875,0.07270538061857224,-0.013787410221993923,-0.06872722506523132
1782858414993619000,1.920618896484375,0.06926288455724716,0.034484561532735825,-0.06314118951559067
1782858415003598000,1.93059814453125,0.05955193191766739,0.07095788419246674,-0.04600401595234871
1782858415013547000,1.940547119140625,0.049248434603214264,0.08501152694225311,-0.02613508701324463
1782858415023495000,1.950494873046875,0.04544916749000549,0.06914493441581726,-0.006631959695369005
1782858415033443800,1.96044384765625,0.03636690229177475,0.03549181669950485,0.0033755656331777573
1782858415043393000,1.97039306640625,0.02390463836491108,0.004687832668423653,0.0017933817580342293
1782858415053372000,1.980371826171875,0.015194769948720932,-0.024749087169766426,-0.005081200506538153
1782858415063320800,1.99032080078125,0.017800670117139816,-0.02809241972863674,-0.012992387637495995
1782858415073269000,2.00026904296875,0.022486595436930656,0.005738850682973862,-0.0075461785309016705
1782858415083218000,2.010218017578125,0.026012351736426353,0.03967870771884918,0.006596271879971027
1782858415093196800,2.02019677734375,0.03435586020350456,0.05000988394021988,0.013438427820801735
1782858415103145700,2.030145751953125,0.0460633784532547,0.03261011838912964,0.026556093245744705
1782858415113095000,2.040094970703125,0.05953089892864227,0.009854719042778015,0.04275503009557724
1782858415123044000,2.050044189453125,0.07647605985403061,-0.006776188500225544,0.06907984614372253
1782858415132992000,2.059991943359375,0.09506341069936752,-0.02529052644968033,0.088335782289505
1782858415142972000,2.069971923828125,0.11483445763587952,-0.03741323575377464,0.09882517158985138
1782858415152920000,2.079920166015625,0.13369078934192657,-0.028389569371938705,0.10720168799161911
1782858415162869000,2.089868896484375,0.14296923577785492,-0.020984116941690445,0.1109442263841629
1782858415172818000,2.09981787109375,0.14642807841300964,-0.005914636421948671,0.11624975502490997
1782858415182797000,2.109797119140625,0.13987907767295837,0.00897642970085144,0.12215318530797958
1782858415192746000,2.11974609375,0.12686723470687866,0.014385855756700039,0.12697219848632812
1782858415202695000,2.12969482421875,0.10249372571706772,0.012305394746363163,0.12369357794523239
1782858415212642800,2.139642822265625,0.07392138242721558,0.0072622150182724,0.10863956809043884
1782858415222592000,2.149592041015625,0.04862374812364578,0.0028964951634407043,0.08276695758104324
1782858415232571000,2.15957080078125,0.03471396118402481,0.01156484242528677,0.05529437214136124
1782858415242519800,2.169519775390625,0.02635749615728855,0.023409519344568253,0.030683036893606186
1782858415252468700,2.17946875,0.021418310701847076,0.026697319000959396,0.005652895197272301
1782858415262417000,2.1894169921875,0.020080339163541794,0.01306886039674282,-0.0172183308750391
1782858415272396800,2.199396728515625,0.020250514149665833,-0.011888954788446426,-0.03647724911570549
1782858415282344700,2.2093447265625,0.021868649870157242,-0.024628451094031334,-0.04217161983251572
1782858415292294100,2.219294189453125,0.027984334155917168,-0.009533262811601162,-0.03302646055817604
1782858415302243000,2.2292431640625,0.025918250903487206,0.014117738232016563,-0.013812286779284477
1782858415312222000,2.239221923828125,0.021969318389892578,0.03749950975179672,0.0009040948934853077
1782858415322171000,2.2491708984375,0.013574767857789993,0.06219526752829552,-0.00869074184447527
1782858415332120000,2.2591201171875,0.007263874635100365,0.10228534787893295,-0.03927350416779518
1782858415342068000,2.26906787109375,0.0014888104051351547,0.13222621381282806,-0.08903387188911438
1782858415352017000,2.279016845703125,0.0014354567974805832,0.1547766923904419,-0.1581754833459854
1782858415361996000,2.28899609375,0.005777476355433464,0.18375055491924286,-0.2388484925031662
1782858415371945000,2.298945068359375,0.026637041941285133,0.21388086676597595,-0.32063326239585876
1782858415381894000,2.308893798828125,0.06545794010162354,0.2504196763038635,-0.3870692849159241
1782858415391841800,2.318841796875,0.10243788361549377,0.3355834186077118,-0.4135356843471527
1782858415401822000,2.328822021484375,0.1133672297000885,0.4526280164718628,-0.3866580128669739
1782858415411769900,2.338769775390625,0.09950415045022964,0.5335137844085693,-0.31463733315467834
1782858415421718800,2.34871875,0.0736142247915268,0.5750628113746643,-0.2142992913722992
1782858415431667700,2.358667724609375,0.04221484065055847,0.5768802165985107,-0.10740421712398529
1782858415441617000,2.368616943359375,0.01959981583058834,0.5176685452461243,-0.02497752010822296
1782858415451596000,2.378595947265625,0.008427143096923828,0.39252057671546936,0.02428814023733139
1782858415461545000,2.388544921875,0.02215813472867012,0.2602461576461792,0.04614203795790672
1782858415471496700,2.39849658203125,0.05670385807752609,0.1734885722398758,0.051440831273794174
1782858415481445600,2.408445556640625,0.09389037638902664,0.10803339630365372,0.03632019832730293
1782858415491424500,2.418424560546875,0.12293322384357452,0.05780570209026337,0.005726132076233625
1782858415501373400,2.42837353515625,0.14876800775527954,0.06849270313978195,-0.02100588008761406
1782858415511322600,2.438322509765625,0.1501910239458084,0.15041816234588623,-0.04439350590109825
1782858415521270500,2.4482705078125,0.13916286826133728,0.2797814607620239,-0.05770931392908096
1782858415531250400,2.45825048828125,0.12624113261699677,0.43020743131637573,-0.057634204626083374
1782858415541198600,2.468198486328125,0.12454469501972198,0.5518305897712708,-0.04617595672607422
1782858415551147500,2.4781474609375,0.12854307889938354,0.6193801760673523,-0.027085766196250916
1782858415561096400,2.488096435546875,0.1363522708415985,0.6338709592819214,0.0003719562664628029
1782858415571045600,2.498045654296875,0.1464064121246338,0.6216829419136047,0.025134172290563583
1782858415581024800,2.508024658203125,0.1583578735589981,0.58468097448349,0.04466526210308075
1782858415590973700,2.5179736328125,0.17330938577651978,0.5331318974494934,0.05307888984680176
1782858415600921600,2.527921630859375,0.18789738416671753,0.4710714817047119,0.05001012980937958
1782858415610870500,2.53787060546875,0.19750359654426575,0.4051664173603058,0.037264712154865265
1782858415620849700,2.547849609375,0.19598345458507538,0.3068174719810486,0.006266048178076744
1782858415630798600,2.557798583984375,0.18080627918243408,0.17990925908088684,-0.043379850685596466
1782858415640747500,2.56774755859375,0.16029009222984314,0.08171851933002472,-0.1103208065032959
1782858415650696400,2.577696533203125,0.1537972092628479,0.01517411693930626,-0.19187027215957642
1782858415660644600,2.58764453125,0.17100417613983154,-0.03133878856897354,-0.2752322554588318
1782858415670624500,2.59762451171875,0.20935527980327606,-0.09963562339544296,-0.3689558804035187
1782858415680572400,2.607572509765625,0.25601544976234436,-0.19867245852947235,-0.4650976061820984
1782858415690521600,2.617521484375,0.28590747714042664,-0.35046088695526123,-0.5537421703338623
1782858415700470500,2.627470458984375,0.29870715737342834,-0.3653183877468109,-0.579172670841217
1782858415710449400,2.637449462890625,0.28407689929008484,-0.2430879920721054,-0.5157044529914856
1782858415720398300,2.6473984375,0.2642430067062378,-0.05445363000035286,-0.3865787088871002
1782858415730346500,2.657346435546875,0.23258550465106964,0.13795603811740875,-0.24832496047019958
1782858415740295700,2.667295654296875,0.20128004252910614,0.18146543204784393,-0.12663154304027557
1782858415750274300,2.6772744140625,0.19596436619758606,0.10069693624973297,-0.01668361760675907
1782858415760223700,2.6872236328125,0.197832852602005,0.0048215389251708984,0.09520164132118225
1782858415770172700,2.697172607421875,0.18586425483226776,-0.08233876526355743,0.17726951837539673
1782858415780121600,2.70712158203125,0.16655100882053375,-0.16061440110206604,0.233846515417099
1782858415790069500,2.717069580078125,0.15919765830039978,-0.22998541593551636,0.2594190239906311
1782858415800049700,2.727049560546875,0.15931057929992676,-0.299830824136734,0.23847699165344238
1782858415809997600,2.73699755859375,0.1662190854549408,-0.3801432251930237,0.18546946346759796
1782858415819946500,2.746946533203125,0.18326038122177124,-0.3928598165512085,0.13576209545135498
1782858415829895400,2.7568955078125,0.19898411631584167,-0.34302908182144165,0.10939522087574005
1782858415839874600,2.76687451171875,0.20411416888237,-0.27218395471572876,0.09929677844047546
1782858415849823500,2.776823486328125,0.1966063678264618,-0.16290761530399323,0.11534092575311661
1782858415859771400,2.786771484375,0.17382116615772247,-0.06052292883396149,0.14208972454071045
1782858415869720600,2.796720458984375,0.1329735964536667,-0.015363314189016819,0.16394107043743134
1782858415879669500,2.80666943359375,0.09842574596405029,0.004133421927690506,0.17731119692325592
1782858415889648400,2.8166484375,0.07196296751499176,0.00855114683508873,0.18527653813362122
1782858415899597600,2.82659765625,0.0533197782933712,-0.020417120307683945,0.17823009192943573
1782858415909546500,2.83654638671875,0.04352317005395889,-0.051683209836483,0.15782780945301056
1782858415919494700,2.84649462890625,0.03299383074045181,-0.06462883949279785,0.11558316648006439
1782858415929474600,2.856474609375,0.028540844097733498,-0.061357781291007996,0.04834303259849548
1782858415939422700,2.866422607421875,0.030411982908844948,-0.040180593729019165,-0.032088689506053925
1782858415949371600,2.87637158203125,0.025408346205949783,0.005711833946406841,-0.1005268543958664
1782858415959320600,2.886320556640625,0.012158319354057312,0.10400751233100891,-0.14948640763759613
1782858415969299500,2.896299560546875,-0.008468128740787506,0.197250634431839,-0.1655479222536087
1782858415979248600,2.90624853515625,-0.041918493807315826,0.2802749276161194,-0.15607373416423798
1782858415989197600,2.916197509765625,-0.06242581456899643,0.3283192217350006,-0.13514365255832672
1782858415999145500,2.9261455078125,-0.06679739058017731,0.3356013596057892,-0.10021868348121643
1782858416009094400,2.936094482421875,-0.05474516749382019,0.31953465938568115,-0.0514664351940155
1782858416019073500,2.946073486328125,-0.037318773567676544,0.3102293014526367,0.021342258900403976
1782858416029022500,2.9560224609375,-0.0337265245616436,0.31435322761535645,0.10695838928222656
1782858416038971400,2.965971435546875,-0.04171920195221901,0.3217967748641968,0.1984315812587738
1782858416048919600,2.97591943359375,-0.053546834737062454,0.2966022193431854,0.2818559408187866
1782858416058899700,2.985899658203125,-0.05104532837867737,0.24392330646514893,0.34399253129959106
1782858416068847600,2.99584765625,-0.023648055270314217,0.1842411905527115,0.38788819313049316
1782858416078796500,3.005796630859375,0.009049702435731888,0.11593803763389587,0.40147802233695984
1782858416088745500,3.015745361328125,0.02910383604466915,0.040638890117406845,0.3796226978302002
1782858416098694700,3.025694580078125,0.03422456234693527,-0.01711175963282585,0.33555272221565247
1782858416108673500,3.035673583984375,0.021966030821204185,-0.041550736874341965,0.282112181186676
1782858416118622500,3.04562255859375,0.004761477932333946,-0.03080861270427704,0.23977108299732208
1782858416128570600,3.055570556640625,-0.002607664093375206,0.025983067229390144,0.21806347370147705
1782858416138519600,3.06551953125,-0.0017171036452054977,0.0765511691570282,0.2076403945684433
1782858416148498400,3.07549853515625,-0.002553338184952736,0.10030264407396317,0.20131435990333557
1782858416158447600,3.085447509765625,-0.004525940865278244,0.08125464618206024,0.189045712351799
1782858416168396500,3.095396484375,-0.005729246884584427,0.031720295548439026,0.17844203114509583
1782858416178344400,3.105344482421875,-0.005420319736003876,-0.03351090848445892,0.1721135675907135
1782858416188324400,3.115324462890625,-0.014855807647109032,-0.08299887925386429,0.17075203359127045
1782858416198272500,3.1252724609375,-0.03549930080771446,-0.11746231466531754,0.17226257920265198
1782858416208221400,3.135221435546875,-0.058875199407339096,-0.13763949275016785,0.17324961721897125
1782858416218170600,3.145170654296875,-0.07502114772796631,-0.1503017544746399,0.15769702196121216
1782858416228119600,3.15511962890625,-0.0828404501080513,-0.15337496995925903,0.11694324761629105
1782858416238098700,3.1650986328125,-0.08526712656021118,-0.14565180242061615,0.06241555139422417
1782858416248047600,3.175047607421875,-0.08929400146007538,-0.11410191655158997,-0.004981154575943947
1782858416257995500,3.18499560546875,-0.09496573358774185,-0.07108361274003983,-0.06612680107355118
1782858416267944400,3.1949443359375,-0.0933273583650589,-0.038787249475717545,-0.11782250553369522
1782858416277923600,3.204923583984375,-0.08596691489219666,-0.019113413989543915,-0.14990372955799103
1782858416287872500,3.21487255859375,-0.07049039751291275,-0.01820119097828865,-0.16963237524032593
1782858416297821400,3.224821533203125,-0.04736350476741791,-0.0443078950047493,-0.18935708701610565
1782858416307770400,3.234770263671875,-0.025444095954298973,-0.09106621146202087,-0.20678651332855225
1782858416317718500,3.244718505859375,-0.008233150467276573,-0.14351823925971985,-0.22354871034622192
1782858416327698400,3.254698486328125,-0.0007870383560657501,-0.1860528141260147,-0.23786820471286774
1782858416337646600,3.264646484375,0.012597210705280304,-0.21230225265026093,-0.23556296527385712
1782858416347595500,3.274595458984375,0.034711383283138275,-0.23205342888832092,-0.2170572578907013
1782858416357544400,3.28454443359375,0.04991590231657028,-0.20053145289421082,-0.17954318225383759
1782858416367523300,3.2945234375,0.056388191878795624,-0.13520397245883942,-0.14035438001155853
1782858416377472500,3.304472412109375,0.06589114665985107,-0.07705891132354736,-0.10381235182285309
1782858416387420700,3.314420654296875,0.06685955822467804,-0.04260439798235893,-0.07258345931768417
1782858416397369600,3.32436962890625,0.05814036726951599,-0.03447776287794113,-0.044307611882686615
1782858416407348700,3.3343486328125,0.030872443690896034,-0.04290049523115158,-0.010388483293354511
1782858416417297700,3.344297607421875,0.0036280397325754166,-0.05655398219823837,0.025485362857580185
1782858416427246600,3.35424658203125,-0.01808915287256241,-0.06639119982719421,0.06172510236501694
1782858416437195500,3.364195556640625,-0.02965552732348442,-0.08750420808792114,0.08655854314565659
1782858416447143700,3.374143798828125,-0.031459107995033264,-0.12088663876056671,0.10010048002004623
1782858416457123600,3.38412353515625,-0.029276380315423012,-0.1378488391637802,0.10234818607568741
1782858416467071500,3.394071533203125,-0.022958120331168175,-0.10999518632888794,0.10683739930391312
1782858416477036800,3.404036865234375,-0.012776588089764118,-0.056112248450517654,0.11586924642324448
1782858416486986000,3.413986083984375,-0.006328897550702095,-0.005314408801496029,0.1319839358329773
1782858416496964900,3.42396484375,-0.009589405730366707,0.031560517847537994,0.15121355652809143
1782858416506913800,3.433913818359375,-0.013027101755142212,0.037024106830358505,0.16299575567245483
1782858416516862000,3.443862060546875,-0.021234165877103806,0.01520029827952385,0.16295288503170013
1782858416526811000,3.453810791015625,-0.019316956400871277,-0.017497461289167404,0.15972326695919037
1782858416536759800,3.463759765625,-0.014916614629328251,-0.04167363792657852,0.15387976169586182
1782858416546739000,3.473739013671875,-0.01092729065567255,-0.07491356134414673,0.13854531943798065
1782858416556688000,3.48368798828125,-0.012450619600713253,-0.09824764728546143,0.11539233475923538
1782858416566636800,3.49363671875,-0.014886879362165928,-0.1090153381228447,0.0908968448638916
1782858416576584700,3.503584716796875,-0.014522292651236057,-0.10231535881757736,0.073346346616745
1782858416586564900,3.51356494140625,-0.014893624000251293,-0.09206981211900711,0.05719517916440964
1782858416596512800,3.5235126953125,-0.021117964759469032,-0.0918881818652153,0.04450921341776848
1782858416606461700,3.533461669921875,-0.022425133734941483,-0.07493884116411209,0.03353505954146385
1782858416616410600,3.54341064453125,-0.01676085591316223,-0.06707106530666351,0.024530645459890366
1782858416626389800,3.5533896484375,-0.01235891506075859,-0.0703851729631424,0.010820602998137474
1782858416636338700,3.563338623046875,-0.013039885088801384,-0.0820050835609436,-0.006655593402683735
1782858416646286800,3.573286865234375,-0.016670310869812965,-0.09767564386129379,-0.02028028666973114
1782858416656236000,3.583236083984375,-0.02982259914278984,-0.09944131970405579,-0.02402016520500183
1782858416666185000,3.59318505859375,-0.04583991318941116,-0.0777454823255539,-0.024007746949791908
1782858416676163800,3.603163818359375,-0.06145802140235901,-0.05342336744070053,-0.025921761989593506
1782858416686112800,3.61311279296875,-0.06987467408180237,-0.04495284706354141,-0.033915236592292786
1782858416696062000,3.62306201171875,-0.070574551820755,-0.04297918081283569,-0.04171670228242874
1782858416706009900,3.633009765625,-0.06100039929151535,-0.03701760247349739,-0.04301009699702263
1782858416715989800,3.64298974609375,-0.04640361666679382,-0.019767507910728455,-0.03774796053767204
1782858416725938000,3.65293798828125,-0.035143058747053146,-0.009027467109262943,-0.030553113669157028
1782858416735886800,3.662886962890625,-0.022745246067643166,-0.018657192587852478,-0.025839049369096756
1782858416745835800,3.672835693359375,-0.018709935247898102,-0.048502951860427856,-0.019946269690990448
1782858416755784700,3.68278466796875,-0.024986738339066505,-0.07325942814350128,-0.01844531111419201
1782858416765763800,3.692763916015625,-0.0420350506901741,-0.08998284488916397,-0.022705398499965668
1782858416775712800,3.702712646484375,-0.05608642101287842,-0.09365587681531906,-0.022709660232067108
1782858416785660700,3.71266064453125,-0.06447458267211914,-0.06962130963802338,-0.020593689754605293
1782858416795609600,3.722609619140625,-0.05555246025323868,-0.05211341753602028,-0.018088188022375107
1782858416805588700,3.732588623046875,-0.04021646827459335,-0.050166741013526917,-0.02083480730652809
1782858416815538000,3.742537841796875,-0.01823633536696434,-0.054126329720020294,-0.024354973807930946
1782858416825486800,3.75248681640625,-0.0018126219511032104,-0.05025908723473549,-0.02482656016945839
1782858416835435000,3.76243505859375,0.009004605934023857,-0.045179106295108795,-0.02471843734383583
1782858416845384000,3.772384033203125,0.016226476058363914,-0.048787906765937805,-0.025643037632107735
1782858416855362800,3.78236279296875,0.012624816969037056,-0.04886593669652939,-0.03150571882724762
1782858416865311700,3.792311767578125,0.00392347015440464,-0.05034447833895683,-0.04295579344034195
1782858416875261000,3.802260986328125,-0.008733736351132393,-0.05015752464532852,-0.05391736328601837
1782858416885209900,3.8122099609375,-0.015230514109134674,-0.04564378410577774,-0.07073381543159485
1782858416895188700,3.822188720703125,-0.011254947632551193,-0.05074639618396759,-0.08982361853122711
1782858416905137700,3.8321376953125,-0.00000690855085849762,-0.05417770892381668,-0.10495579987764359
1782858416915085800,3.8420859375,0.021566560491919518,-0.05448903515934944,-0.11455196887254715
1782858416925034800,3.85203466796875,0.0404653325676918,-0.055761776864528656,-0.11517089605331421
1782858416935014000,3.862013916015625,0.05697799474000931,-0.06399387121200562,-0.1068250834941864
1782858416944962800,3.871962890625,0.06486858427524567,-0.06474704295396805,-0.09076838195323944
1782858416954912000,3.881912109375,0.05814729630947113,-0.07265743613243103,-0.07323599606752396
1782858416964859600,3.891859619140625,0.04756726324558258,-0.08456609398126602,-0.05684457719326019
1782858416974808800,3.901808837890625,0.03275822848081589,-0.08450218290090561,-0.0450931191444397
1782858416984788000,3.9117880859375,0.023389138281345367,-0.07222045212984085,-0.03979073464870453
1782858416994737000,3.92173681640625,0.01775575429201126,-0.06383735686540604,-0.04780498519539833
1782858417004685800,3.931685791015625,0.01362634263932705,-0.05091233178973198,-0.06111821159720421
1782858417014634800,3.941634765625,0.010959720239043236,-0.029523953795433044,-0.08002958446741104
1782858417024614000,3.95161376953125,0.009925968945026398,0.005314607173204422,-0.09184400737285614
1782858417034562800,3.961562744140625,0.0030113384127616882,0.03509008139371872,-0.08783035725355148
1782858417044510700,3.9715107421875,-0.008467774838209152,0.05710460990667343,-0.07490251958370209
1782858417054460000,3.9814599609375,-0.01898939162492752,0.04680856689810753,-0.05831875279545784
1782858417064408800,3.991408935546875,-0.02212943322956562,0.021354427561163902,-0.044784773141145706
1782858417074387700,4.0013876953125,-0.024523615837097168,-0.01223575696349144,-0.031887881457805634
1782858417084336600,4.011336669921875,-0.028154127299785614,-0.025253908708691597,-0.015200307592749596
1782858417094285800,4.021285888671875,-0.036756403744220734,-0.019292689859867096,-0.0007332181558012962
1782858417104233700,4.031233642578125,-0.04517269879579544,-0.007446061819791794,0.012256141752004623
1782858417114214000,4.0412138671875,-0.05184897780418396,0.018124278634786606,0.02029436081647873
1782858417124161800,4.051161865234375,-0.05621505528688431,0.042856365442276,0.026094302535057068
1782858417134111000,4.061111083984375,-0.058835871517658234,0.04839307814836502,0.028239477425813675
1782858417144060000,4.071059814453125,-0.0607895702123642,0.05624814331531525,0.018545936793088913
1782858417154038800,4.081038818359375,-0.06448070704936981,0.05380069464445114,0.001822617370635271
1782858417163988000,4.090988037109375,-0.060813091695308685,0.043586790561676025,-0.019853010773658752
1782858417173935900,4.100935791015625,-0.056471340358257294,0.03498823940753937,-0.03859607130289078
1782858417183884800,4.110884765625,-0.057715125381946564,0.015583416447043419,-0.06253627687692642
1782858417193833700,4.120833740234375,-0.06318392604589462,0.005516135133802891,-0.08092167228460312
1782858417203812900,4.130812744140625,-0.06624549627304077,0.012621521949768066,-0.09430477023124695
1782858417213761800,4.14076171875,-0.06156499311327934,0.032172590494155884,-0.0961008071899414
1782858417223710700,4.150710693359375,-0.043572232127189636,0.04845200479030609,-0.09011928737163544
1782858417233659000,4.160658935546875,-0.014467877335846424,0.04539016634225845,-0.080717533826828
1782858417243638800,4.170638671875,0.008581254631280899,0.024704260751605034,-0.0676811933517456
1782858417253586700,4.180586669921875,0.028174929320812225,0.008602786809206009,-0.04958820715546608
1782858417263535600,4.19053564453125,0.03541508689522743,0.012698023580014706,-0.030222132802009583
1782858417273485000,4.200485107421875,0.03331198915839195,0.013104421086609364,-0.007487259805202484
1782858417283432700,4.2104326171875,0.02746492624282837,0.008863981813192368,0.018755370751023293
1782858417293412900,4.220412841796875,0.03459367901086807,-0.0006996951997280121,0.03907289355993271
1782858417303361000,4.230361083984375,0.05050819367170334,-0.02328803390264511,0.05145084112882614
1782858417313310000,4.24031005859375,0.07408595830202103,-0.03628372773528099,0.053862065076828
1782858417323259000,4.2502587890625,0.10028764605522156,-0.012793801724910736,0.053887635469436646
1782858417333237800,4.26023779296875,0.10495591163635254,0.02954992651939392,0.0525994598865509
1782858417343187000,4.27018701171875,0.08856308460235596,0.06426449865102768,0.040995001792907715
1782858417353135900,4.280135986328125,0.05818067491054535,0.08860073238611221,0.02130385860800743
1782858417363083800,4.290083740234375,0.031464286148548126,0.0846705436706543,-0.0037803486920893192
1782858417373063700,4.300063720703125,0.010257268324494362,0.06910809874534607,-0.023232875391840935
1782858417383011800,4.31001171875,-0.0025436580181121826,0.055436648428440094,-0.040289200842380524
1782858417392960800,4.319960693359375,-0.011593080125749111,0.04511477053165436,-0.054193295538425446
1782858417402909700,4.32990966796875,-0.01583860069513321,0.040770307183265686,-0.06358498334884644
1782858417412858600,4.339858642578125,-0.01040282379835844,0.04808788001537323,-0.0700005441904068
1782858417422837800,4.349837646484375,0.0036531612277030945,0.07507456839084625,-0.0660238265991211
1782858417432787000,4.359786865234375,0.018562333658337593,0.11094681918621063,-0.05434426665306091
1782858417442734600,4.369734619140625,0.03439562767744064,0.1389331966638565,-0.03584619611501694
1782858417452684000,4.37968408203125,0.04341495409607887,0.15691006183624268,-0.010032708756625652
1782858417462663000,4.389662841796875,0.044470012187957764,0.15821115672588348,0.01402538362890482
1782858417472618200,4.3996181640625,0.041518434882164,0.13587602972984314,0.03881328925490379
1782858417482567400,4.4095673828125,0.033996328711509705,0.10573644936084747,0.0489547997713089
1782858417492515600,4.419515625,0.025644389912486076,0.06088482216000557,0.042984262108802795
1782858417502464500,4.429464599609375,0.029518315568566322,0.016202809289097786,0.02011513151228428
1782858417512443600,4.439443603515625,0.059248775243759155,-0.02294912189245224,-0.010235318914055824
1782858417522392600,4.449392578125,0.10404892265796661,-0.05004248023033142,-0.04281850904226303
1782858417532341500,4.459341552734375,0.1540476381778717,-0.07499309629201889,-0.07807370275259018
1782858417542290400,4.46929052734375,0.20033195614814758,-0.07983162254095078,-0.09670390188694
1782858417552269600,4.47926953125,0.22901791334152222,-0.07813651859760284,-0.10647637397050858
1782858417562218500,4.489218505859375,0.2345457524061203,-0.08520004153251648,-0.108521468937397
1782858417572166400,4.49916650390625,0.22973261773586273,-0.08978387713432312,-0.1015024408698082
1782858417582115300,4.509115234375,0.22364376485347748,-0.09322018176317215,-0.09204266220331192
1782858417592094500,4.519094482421875,0.2155192643404007,-0.10805612057447433,-0.0795537680387497
1782858417602043400,4.52904345703125,0.20801730453968048,-0.12103745341300964,-0.06032197177410126
1782858417611992300,4.538992431640625,0.19960357248783112,-0.1328807920217514,-0.041529908776283264
1782858417621940500,4.5489404296875,0.19433461129665375,-0.1456451714038849,-0.03403060883283615
1782858417631889400,4.558889404296875,0.19611360132694244,-0.1556416004896164,-0.026423292234539986
1782858417641868300,4.568868408203125,0.20334389805793762,-0.1518857330083847,-0.0226352009922266
1782858417651817500,4.5788173828125,0.215266615152359,-0.12956152856349945,-0.01228589192032814
1782858417661766700,4.5887666015625,0.22845306992530823,-0.0933811217546463,0.0037863263860344887
1782858417671715600,4.598715576171875,0.2343786060810089,-0.06717535108327866,0.015843255445361137
1782858417681694500,4.608694580078125,0.23245590925216675,-0.055147718638181686,0.03042859211564064
1782858417691643400,4.618643310546875,0.2253873348236084,-0.030832793563604355,0.0627702847123146
1782858417701591600,4.628591552734375,0.19908444583415985,-0.010627740062773228,0.09830399602651596
1782858417711540500,4.63854052734375,0.16710200905799866,-0.008093742653727531,0.1302744448184967
1782858417721489400,4.648489501953125,0.1392814666032791,-0.007575980853289366,0.1558949202299118
1782858417731468500,4.658468505859375,0.12488708645105362,-0.004434249829500914,0.1722688227891922
1782858417741417500,4.66841748046875,0.12036193907260895,-0.004864415153861046,0.17483359575271606
1782858417751366400,4.678366455078125,0.12019708752632141,-0.017330404371023178,0.15876461565494537
1782858417761314300,4.688314208984375,0.11939360201358795,-0.04903032258152962,0.1291121244430542
1782858417771293400,4.69829345703125,0.1143019050359726,-0.08415687829256058,0.09123105555772781
1782858417781242400,4.708242431640625,0.10493246465921402,-0.09430750459432602,0.05734558776021004
1782858417791191300,4.71819140625,0.09004352986812592,-0.06400179117918015,0.03947098180651665
1782858417801140500,4.728140380859375,0.07030728459358215,-0.02665450982749462,0.027256550267338753
1782858417811119600,4.73811962890625,0.04849519953131676,-0.008939695544540882,0.017342401668429375
1782858417821068500,4.748068603515625,0.04290691018104553,-0.0007370705716311932,0.000013853423297405243
1782858417831016400,4.758016357421875,0.05329350382089615,-0.0013309554196894169,-0.010131992399692535
1782858417840965600,4.767965576171875,0.06617921590805054,0.0000327015295624733,-0.010968673974275589
1782858417850914600,4.77791455078125,0.07875598967075348,0.001191442832350731,-0.001541883684694767
1782858417860893400,4.7878935546875,0.09019435942173004,-0.003292487934231758,0.016676565632224083
1782858417870842400,4.79784228515625,0.09894710034132004,-0.019022449851036072,0.03020036220550537
1782858417880791600,4.80779150390625,0.09373901784420013,-0.041689805686473846,0.045652441680431366
1782858417890739500,4.817739501953125,0.08019258826971054,-0.05571294575929642,0.06005881354212761
1782858417900719400,4.82771923828125,0.058294832706451416,-0.05374212563037872,0.07437661290168762
1782858417910667500,4.83766748046875,0.031453367322683334,-0.04887785762548447,0.08131866902112961
1782858417920616400,4.847616455078125,0.020737161859869957,-0.05040556192398071,0.08062689751386642
1782858417930565400,4.8575654296875,0.023746000602841377,-0.04840046912431717,0.07607288658618927
1782858417940513300,4.86751318359375,0.03837092965841293,-0.056390635669231415,0.06726410239934921
1782858417950493400,4.877493408203125,0.055031128227710724,-0.07317733764648438,0.05786846950650215
1782858417960441300,4.88744140625,0.06830663233995438,-0.07955336570739746,0.04447740316390991
1782858417970390500,4.897390625,0.07006298750638962,-0.0795123502612114,0.03536752611398697
1782858417980339500,4.90733935546875,0.07029806077480316,-0.0652301087975502,0.024083398282527924
1782858417990318600,4.917318603515625,0.06888817995786667,-0.0557284876704216,0.015416939742863178
1782858418000267500,4.927267578125,0.06502091884613037,-0.02033889666199684,0.019805464893579483
1782858418010216400,4.937216552734375,0.05322630703449249,0.020177103579044342,0.03980766981840134
1782858418020164600,4.94716455078125,0.03564358502626419,0.03499400243163109,0.059205278754234314
1782858418030144500,4.95714453125,0.012454906478524208,0.03448027744889259,0.07621888816356659
1782858418040092400,4.967092529296875,0.0027162618935108185,0.035347141325473785,0.09122573584318161
1782858418050041300,4.977041259765625,0.00022567249834537506,0.03309410810470581,0.10236520320177078
1782858418059990500,4.986990478515625,0.0013970211148262024,0.02209041267633438,0.0978550910949707
1782858418069939500,4.996939453125,-0.0008640028536319733,-0.010013461112976074,0.08047609776258469
1782858418079918300,5.00691845703125,-0.0008088778704404831,-0.015923943370580673,0.057572007179260254
1782858418089866500,5.016866455078125,-0.0026368722319602966,-0.018812939524650574,0.02819041535258293
1782858418099815400,5.0268154296875,-0.008157337084412575,-0.013009646907448769,-0.0017445809207856655
1782858418109764400,5.036764404296875,-0.012152079492807388,0.011976929381489754,-0.02554205432534218
1782858418119743200,5.0467431640625,-0.01740116812288761,0.032768622040748596,-0.042752087116241455
1782858418129692700,5.056692626953125,-0.026435941457748413,0.04289475828409195,-0.04476757347583771
1782858418139641600,5.0666416015625,-0.027170533314347267,0.02690858207643032,-0.045720987021923065
1782858418149589500,5.076589599609375,-0.02586451917886734,0.0028053773567080498,-0.04478222131729126
1782858418159538400,5.086538330078125,-0.0220162495970726,-0.02895248308777809,-0.042681463062763214
1782858418169517600,5.096517578125,-0.014062718488276005,-0.05550659820437431,-0.03303256630897522
1782858418179466500,5.106466552734375,-0.0056086014956235886,-0.05683255195617676,-0.024389784783124924
1782858418189415400,5.11641552734375,-0.0036341343075037003,-0.05763816088438034,-0.01781071349978447
1782858418199364400,5.1263642578125,-0.0070555005222558975,-0.049613844603300095,-0.018864285200834274
1782858418209343500,5.136343505859375,0.0004753861576318741,-0.019773922860622406,-0.022594574838876724
1782858418219292400,5.14629248046875,0.013337038457393646,0.012884331867098808,-0.019608477130532265
1782858418229240300,5.156240234375,0.03754676878452301,0.0327291414141655,-0.019312867894768715
1782858418239189500,5.166189453125,0.06498043239116669,0.0223576407879591,-0.01936330273747444
1782858418249168400,5.17616845703125,0.07733696699142456,-0.008059920743107796,-0.020484760403633118
1782858418259117300,5.186117431640625,0.07438787817955017,-0.04694884270429611,-0.02423560619354248
1782858418269066500,5.19606640625,0.05553855374455452,-0.0675145760178566,-0.02332160994410515
1782858418279014400,5.206014404296875,0.03904559463262558,-0.05377459153532982,-0.020523807033896446
1782858418288963600,5.215963623046875,0.025494366884231567,-0.03782518208026886,-0.012452829629182816
1782858418298942500,5.2259423828125,0.010415369644761086,-0.01391956489533186,-0.000533530954271555
1782858418308891600,5.2358916015625,0.006234472617506981,0.0009126439690589905,0.017236145213246346
1782858418318840600,5.245840576171875,0.006864488124847412,-0.01267183106392622,0.03258533030748367
1782858418328789500,5.25578955078125,0.013818267732858658,-0.033724118024110794,0.043905362486839294
1782858418338768400,5.265768310546875,0.021077072247862816,-0.043430257588624954,0.0580831915140152
1782858418348717600,5.275717529296875,0.02899518422782421,-0.047281455248594284,0.06352296471595764
1782858418358665500,5.28566552734375,0.029871981590986252,-0.04828350991010666,0.06237795203924179
1782858418368614400,5.295614501953125,0.021506991237401962,-0.03974434733390808,0.05588409677147865
1782858418378563300,5.305563232421875,0.0013632848858833313,-0.03605051338672638,0.04902191460132599
1782858418388542500,5.31554248046875,-0.02787742391228676,-0.013379022479057312,0.03325493633747101
1782858418398491400,5.325491455078125,-0.06405273824930191,0.012645801529288292,0.02973281219601631
1782858418408439300,5.335439208984375,-0.09526046365499496,0.05313543975353241,0.037456244230270386
1782858418418388500,5.345388427734375,-0.10919269919395447,0.09352642297744751,0.04488183185458183
1782858418428367400,5.355367431640625,-0.1169574111700058,0.08510071784257889,0.040556591004133224
1782858418438316300,5.36531640625,-0.10136948525905609,0.06246095895767212,0.028301846235990524
1782858418448265500,5.375265380859375,-0.07901410758495331,0.0287163145840168,0.006215984467417002
1782858418458214400,5.38521435546875,-0.07109227031469345,0.0029082875698804855,-0.01611558347940445
1782858418468193500,5.395193603515625,-0.06673587113618851,-0.008960622362792492,-0.04047525301575661
1782858418478162400,5.405162353515625,-0.07703973352909088,-0.01330686453729868,-0.0727575421333313
1782858418488110600,5.415110595703125,-0.09683234244585037,-0.03315460681915283,-0.12614646553993225
1782858418498059500,5.4250595703125,-0.11177054792642593,-0.03491987660527229,-0.18833965063095093
1782858418508008400,5.435008544921875,-0.11687156558036804,0.006238745525479317,-0.24982938170433044
1782858418517987600,5.444987548828125,-0.1197153776884079,0.06579486280679703,-0.30173400044441223
1782858418527936800,5.454936767578125,-0.12729527056217194,0.12871311604976654,-0.3401458263397217
1782858418537885700,5.4648857421875,-0.13379302620887756,0.20379748940467834,-0.35630694031715393
1782858418547833600,5.47483349609375,-0.14226266741752625,0.2584729790687561,-0.337813138961792
1782858418557813800,5.484813720703125,-0.1604762077331543,0.2779272198677063,-0.29530584812164307
1782858418567761700,5.49476171875,-0.1852574646472931,0.2587372660636902,-0.24029210209846497
1782858418577710600,5.504710693359375,-0.21105168759822845,0.20264790952205658,-0.17940999567508698
1782858418587659500,5.514659423828125,-0.23439057171344757,0.14188256859779358,-0.11711040139198303
1782858418597607700,5.524607666015625,-0.24145805835723877,0.07448561489582062,-0.06488598138093948
1782858418607587600,5.534587646484375,-0.23585529625415802,-0.003439543303102255,-0.032239895313978195
1782858418617535500,5.544535400390625,-0.22489967942237854,-0.06448047608137131,-0.01992720179259777
1782858418627484700,5.554484619140625,-0.20681920647621155,-0.08817275613546371,-0.02178369276225567
1782858418637433600,5.56443359375,-0.18305590748786926,-0.07896456867456436,-0.021860390901565552
1782858418647412500,5.57441259765625,-0.16093622148036957,-0.05257903039455414,-0.02661253698170185
1782858418657361400,5.584361328125,-0.14506210386753082,-0.025284670293331146,-0.0341876782476902
1782858418667310600,5.594310546875,-0.13337641954421997,-0.003562064841389656,-0.04413298889994621
1782858418677258500,5.604258544921875,-0.11931901425123215,0.022151537239551544,-0.05889788269996643
1782858418687238700,5.61423876953125,-0.0977223739027977,0.033476896584033966,-0.07833922654390335
1782858418697186600,5.6241865234375,-0.08127282559871674,0.025547128170728683,-0.10437583178281784
1782858418707135700,5.6341357421875,-0.0644773319363594,0.0011453842744231224,-0.13389378786087036
1782858418717084700,5.644084716796875,-0.04695764183998108,-0.026743348687887192,-0.15320660173892975
1782858418727032600,5.654032470703125,-0.03713936358690262,-0.022375497967004776,-0.15476614236831665
1782858418737012700,5.6640126953125,-0.03353317826986313,0.008930227719247341,-0.13675598800182343
1782858418746960600,5.673960693359375,-0.03926669806241989,0.03277590498328209,-0.11461418867111206
1782858418756909600,5.68390966796875,-0.0588599294424057,0.032165948301553726,-0.10189525038003922
1782858418766858500,5.6938583984375,-0.08383265882730484,0.009039056487381458,-0.11185174435377121
1782858418776837600,5.703837646484375,-0.10087626427412033,-0.025257708504796028,-0.12944334745407104
1782858418786786600,5.71378662109375,-0.10620445013046265,-0.05698714405298233,-0.14999310672283173
1782858418796735500,5.723735595703125,-0.10180065035820007,-0.09579028189182281,-0.1624346822500229
1782858418806683600,5.73368359375,-0.10150343924760818,-0.13644956052303314,-0.1482599973678589
1782858418816632600,5.743632568359375,-0.12120293825864792,-0.16901876032352448,-0.09835533052682877
1782858418826611500,5.753611572265625,-0.15477848052978516,-0.1937752366065979,-0.020460529252886772
1782858418836560400,5.763560302734375,-0.1840670257806778,-0.2212754786014557,0.06876500695943832
1782858418846509600,5.773509521484375,-0.20416243374347687,-0.22275352478027344,0.16345717012882233
1782858418856458800,5.783458740234375,-0.21363264322280884,-0.19422614574432373,0.2587297856807709
1782858418866437600,5.793437744140625,-0.2157229632139206,-0.16382910311222076,0.340049147605896
1782858418876386600,5.803386474609375,-0.2075551301240921,-0.1332971751689911,0.3970232903957367
1782858418886334700,5.813334716796875,-0.1990141123533249,-0.09635806828737259,0.42432254552841187
1782858418896283600,5.82328369140625,-0.18741098046302795,-0.07342712581157684,0.4146069586277008
1782858418906262500,5.833262451171875,-0.18372942507266998,-0.0504312664270401,0.3698030114173889
1782858418916211700,5.843211669921875,-0.18715335428714752,-0.027805950492620468,0.30308640003204346
1782858418926160600,5.85316064453125,-0.19291538000106812,-0.008881526067852974,0.22793543338775635
1782858418936108500,5.863108642578125,-0.20547723770141602,0.011483666487038136,0.14754977822303772
1782858418946057500,5.873057373046875,-0.21944577991962433,0.014539909549057484,0.07437729835510254
1782858418956036600,5.88303662109375,-0.2327813059091568,0.007234987802803516,0.012337259948253632
1782858418965985500,5.892985595703125,-0.24532319605350494,0.013236687518656254,-0.028177941218018532
1782858418975934500,5.9029345703125,-0.2529699206352234,0.03613261878490448,-0.04282676428556442
1782858418985883400,5.91288330078125,-0.2543334662914276,0.06392697244882584,-0.038455985486507416
1782858418995862500,5.922862548828125,-0.24648317694664001,0.08451907336711884,-0.016040150076150894
1782858419005811700,5.932811767578125,-0.22950871288776398,0.08238375186920166,0.005509616807103157
1782858419015759400,5.94275927734375,-0.21420921385288239,0.06673866510391235,0.026071816682815552
1782858419025708800,5.952708740234375,-0.19943958520889282,0.04281442612409592,0.04953719675540924
1782858419035657700,5.96265771484375,-0.18619392812252045,0.014518104493618011,0.0723331868648529
1782858419045636600,5.97263671875,-0.18271850049495697,-0.0036124293692409992,0.09509336203336716
1782858419055585500,5.98258544921875,-0.18791767954826355,-0.029755648225545883,0.11493884027004242
1782858419065533700,5.99253369140625,-0.19788269698619843,-0.04610772430896759,0.12317493557929993
1782858419075482600,6.002482666015625,-0.2000805288553238,-0.0418676882982254,0.12040716409683228
1782858419085461500,6.01246142578125,-0.191453218460083,-0.03854459524154663,0.10662157833576202
1782858419095410700,6.02241064453125,-0.16954898834228516,-0.019183967262506485,0.08218371123075485
1782858419105359600,6.032359619140625,-0.14944905042648315,0.021985307335853577,0.05744853615760803
1782858419115308500,6.04230859375,-0.13574689626693726,0.050154492259025574,0.040152378380298615
1782858419125287400,6.052287353515625,-0.12398744374513626,0.06627913564443588,0.035647377371788025
1782858419135236600,6.062236572265625,-0.10473297536373138,0.0871487557888031,0.04873520880937576
1782858419145184500,6.0721845703125,-0.09036149084568024,0.09636888653039932,0.06543136388063431
1782858419155133400,6.082133544921875,-0.08282695710659027,0.09414591640233994,0.07333030551671982
1782858419165082600,6.09208251953125,-0.08835701644420624,0.09384258836507797,0.08166706562042236
1782858419175061500,6.1020615234375,-0.09849673509597778,0.10672976076602936,0.09575182944536209
1782858419185010700,6.1120107421875,-0.1080995574593544,0.12280192971229553,0.1131659746170044
1782858419194959600,6.121959716796875,-0.11043843626976013,0.11754976212978363,0.11636054515838623
1782858419204907800,6.13190771484375,-0.09259206056594849,0.09828817844390869,0.10353156179189682
1782858419214886700,6.14188671875,-0.04931578040122986,0.07046012580394745,0.08355636149644852
1782858419224835600,6.151835693359375,0.013781961053609848,0.055574651807546616,0.06736540794372559
1782858419234784500,6.161784423828125,0.08417818695306778,0.07015952467918396,0.06266218423843384
1782858419244733700,6.171733642578125,0.13679371774196625,0.09905029833316803,0.06620152294635773
1782858419254712600,6.181712646484375,0.15603266656398773,0.0952807366847992,0.07141262292861938
1782858419264661500,6.19166162109375,0.14737872779369354,0.06764084845781326,0.0699409544467926
1782858419274609700,6.201609619140625,0.12007244676351547,0.015857728198170662,0.06846252828836441
1782858419284558600,6.21155859375,0.0904141515493393,-0.053926147520542145,0.06343314796686172
1782858419294507500,6.221507568359375,0.06826002895832062,-0.09348443150520325,0.0697462260723114
1782858419304486400,6.231486328125,0.05117665231227875,-0.09088092297315598,0.08660003542900085
1782858419314435600,6.241435546875,0.05090438574552536,-0.07104393094778061,0.10942424833774567
1782858419324384800,6.251384765625,0.06299886107444763,-0.030762553215026855,0.12898969650268555
1782858419334332400,6.26133251953125,0.07890556752681732,0.010344984009861946,0.15351590514183044
1782858419344312600,6.2713125,0.09299875050783157,0.03805331140756607,0.15973065793514252
1782858419354260700,6.2812607421875,0.09160111844539642,0.033389121294021606,0.15802441537380219
1782858419364209700,6.291209716796875,0.07430762052536011,0.005540709942579269,0.13663950562477112
1782858419374158600,6.30115869140625,0.0509345680475235,-0.017908843234181404,0.10660048574209213
1782858419384106800,6.311106689453125,0.027075840160250664,-0.04507601633667946,0.06405941396951675
1782858419394086700,6.321086669921875,0.010380659252405167,-0.08115175366401672,0.02088850922882557
1782858419404034600,6.33103466796875,-0.000011263415217399597,-0.09727080166339874,-0.01624234765768051
1782858419413983500,6.3409833984375,0.002463703975081444,-0.062063124030828476,-0.04652605950832367
1782858419423932700,6.3509326171875,0.006210239604115486,0.037345752120018005,-0.07020768523216248
1782858419433911600,6.36091162109375,0.014063190668821335,0.11463224142789841,-0.09718368947505951
1782858419443860500,6.370860595703125,0.02390090748667717,0.13544325530529022,-0.12393034994602203
1782858419453809400,6.380809326171875,0.02779214084148407,0.10708027333021164,-0.14894281327724457
1782858419463757600,6.390757568359375,0.025237902998924255,0.04488055408000946,-0.1639350801706314
1782858419473756700,6.400756591796875,0.021823465824127197,-0.023944523185491562,-0.1708371490240097
1782858419483704600,6.41070458984375,0.019275885075330734,-0.06397582590579987,-0.18213242292404175
1782858419493653500,6.420653564453125,0.027092086151242256,-0.0855729803442955,-0.19188697636127472
1782858419503602400,6.4306025390625,0.04237889498472214,-0.08164188265800476,-0.19305184483528137
1782858419513551400,6.44055126953125,0.056399375200271606,-0.04112521559000015,-0.18727535009384155
1782858419523530500,6.450530517578125,0.06314142793416977,0.009431167505681515,-0.1961095929145813
1782858419533478400,6.460478515625,0.07341848313808441,0.021179676055908203,-0.21036659181118011
1782858419543427600,6.470427490234375,0.09246034920215607,0.03137265890836716,-0.20417208969593048
1782858419553376500,6.48037646484375,0.1067286878824234,0.04533259570598602,-0.17413754761219025
1782858419563355400,6.49035546875,0.10661150515079498,0.025848643854260445,-0.1405806541442871
1782858419573304600,6.5003046875,0.09640191495418549,-0.029752520844340324,-0.113192118704319
1782858419583253500,6.51025341796875,0.08561797440052032,-0.1006847470998764,-0.08790300786495209
1782858419593201700,6.52020166015625,0.07490061223506927,-0.14606744050979614,-0.05214625969529152
1782858419603150600,6.530150634765625,0.055899493396282196,-0.15930333733558655,-0.012831076979637146
1782858419613129700,6.540129638671875,0.03660178929567337,-0.14902396500110626,0.019894886761903763
1782858419623078700,6.55007861328125,0.020318424329161644,-0.15035341680049896,0.03504321351647377
1782858419633027600,6.560027587890625,0.01057613454759121,-0.14541369676589966,0.04051458090543747
1782858419642976500,6.5699765625,-0.0026222243905067444,-0.08449868857860565,0.03570038452744484
1782858419652955600,6.57995556640625,-0.02068334072828293,-0.0061646196991205215,0.014853263273835182
1782858419662904600,6.589904541015625,-0.033586353063583374,0.030050642788410187,-0.013277173973619938
1782858419672852500,6.5998525390625,-0.03232321888208389,0.035753339529037476,-0.036357149481773376
1782858419682801400,6.609801513671875,-0.023241838440299034,0.02332676388323307,-0.05122530832886696
1782858419692780500,6.619780517578125,-0.008221698924899101,-0.0014047692529857159,-0.06287354975938797
1782858419702729500,6.6297294921875,0.0019190851598978043,-0.021764103323221207,-0.05968974903225899
1782858419712678400,6.639678466796875,0.013275783509016037,-0.027040649205446243,-0.03994639590382576
1782858419722626600,6.64962646484375,0.022819221019744873,-0.02528669312596321,-0.009504065848886967
1782858419732575700,6.65957568359375,0.02956491708755493,-0.015127018094062805,0.019334711134433746
1782858419742554400,6.669554443359375,0.0347152054309845,-0.008857403881847858,0.04289836436510086
1782858419752503600,6.679503662109375,0.028919899836182594,-0.011241937056183815,0.050845883786678314
1782858419762452500,6.689452392578125,0.01047750748693943,0.0070180268958210945,0.04906556010246277
1782858419772401700,6.699401611328125,-0.020668867975473404,0.05505315214395523,0.03952765837311745
1782858419782380500,6.709380615234375,-0.047760143876075745,0.07279673218727112,0.024556167423725128
1782858419792329500,6.71932958984375,-0.06309817731380463,0.06273169070482254,0.007661443203687668
1782858419802277600,6.729277587890625,-0.056950267404317856,0.03720209747552872,-0.010337264277040958
1782858419812226600,6.7392265625,-0.03652266412973404,0.006425837054848671,-0.026776961982250214
1782858419822175500,6.749175537109375,-0.013833865523338318,-0.013467177748680115,-0.040075190365314484
1782858419832154600,6.759154541015625,0.007085176184773445,-0.01127362810075283,-0.05303018167614937
1782858419842103600,6.769103515625,0.021396735683083534,0.0036659063771367073,-0.06242182105779648
1782858419852051500,6.779051513671875,0.02421480603516102,0.02671455219388008,-0.06354275345802307
1782858419862000400,6.78900048828125,0.027184495702385902,0.04194037616252899,-0.05970247462391853
1782858419871979500,6.7989794921875,0.0305675957351923,0.03163762018084526,-0.059146665036678314
1782858419881928400,6.808928466796875,0.04085325449705124,0.005369264632463455,-0.0556936077773571
1782858419891877600,6.818877685546875,0.045364297926425934,-0.021875157952308655,-0.04947492480278015
1782858419901826600,6.82882666015625,0.04757578670978546,-0.041548192501068115,-0.046188849955797195
1782858419911805700,6.8388056640625,0.05162201449275017,-0.06976975500583649,-0.04059706628322601
1782858419921754600,6.848754638671875,0.056848201900720596,-0.09717554599046707,-0.0389363169670105
1782858419931702500,6.85870263671875,0.06070792302489281,-0.10852567106485367,-0.0374516025185585
1782858419941651500,6.8686513671875,0.062254685908555984,-0.10209440439939499,-0.03148745745420456
1782858419951600600,6.8786005859375,0.06496382504701614,-0.10422170907258987,-0.022074643522500992
1782858419961579500,6.88857958984375,0.07092291861772537,-0.11572949588298798,-0.009995609521865845
1782858419971528400,6.898528564453125,0.07737646996974945,-0.1503332406282425,-0.002401011995971203
1782858419981477400,6.908477294921875,0.07766462117433548,-0.17222842574119568,0.00665506673976779
1782858419991425500,6.918425537109375,0.07114032655954361,-0.176353320479393,0.013879339210689068
1782858420001405400,6.928405517578125,0.058289237320423126,-0.18443521857261658,0.017330795526504517
1782858420011353600,6.938353515625,0.04382454976439476,-0.18613125383853912,0.01946946792304516
1782858420021302500,6.948302490234375,0.03424648940563202,-0.18295356631278992,0.022838899865746498
1782858420031251500,6.95825146484375,0.04314429312944412,-0.17463068664073944,0.030936511233448982
1782858420041199400,6.968199462890625,0.04926077276468277,-0.16878743469715118,0.040458373725414276
1782858420051179500,6.978179443359375,0.050044625997543335,-0.16286888718605042,0.048153214156627655
1782858420061127400,6.98812744140625,0.04354172199964523,-0.16389046609401703,0.049414221197366714
1782858420071076600,6.99807666015625,0.03881797939538956,-0.1678362935781479,0.04503325745463371
1782858420081025500,7.008025634765625,0.03924302011728287,-0.16225376725196838,0.03988643363118172
1782858420091004700,7.018004638671875,0.0392136424779892,-0.140382781624794,0.021593764424324036
1782858420100953600,7.02795361328125,0.03435763344168663,-0.12831173837184906,-0.008412336930632591
1782858420110902500,7.037902587890625,0.028162050992250443,-0.11878594756126404,-0.04931614547967911
1782858420120850700,7.0478505859375,0.022178195416927338,-0.09319429844617844,-0.08947421610355377
1782858420130830600,7.05783056640625,0.011784324422478676,-0.058000050485134125,-0.1106138527393341
1782858420140778500,7.067778564453125,0.0012920033186674118,-0.01645313948392868,-0.10991424322128296
1782858420150727400,7.0777275390625,-0.005292043089866638,0.03308819979429245,-0.09910718351602554
1782858420160676400,7.08767626953125,-0.004900291562080383,0.04421835020184517,-0.08552266657352448
1782858420170624500,7.09762451171875,-0.0027950629591941833,0.019690509885549545,-0.0686037689447403
1782858420180604400,7.1076044921875,0.000005517154932022095,-0.011106018908321857,-0.04828678071498871
1782858420190552600,7.117552490234375,0.002799263224005699,-0.03214044123888016,-0.03264390677213669
1782858420200501500,7.12750146484375,-0.0011251717805862427,-0.05012396723031998,-0.023111652582883835
1782858420210450700,7.13745068359375,-0.005174420773983002,-0.05621526762843132,-0.01993267983198166
1782858420220429300,7.14742919921875,-0.006202667951583862,-0.047411657869815826,-0.017991237342357635
1782858420230378800,7.157378662109375,-0.009570322930812836,-0.029700322076678276,-0.02468009479343891
1782858420240327700,7.16732763671875,-0.011346385814249516,-0.013036124408245087,-0.030622141435742378
1782858420250275600,7.177275634765625,-0.015300913713872433,-0.012380721047520638,-0.04314166307449341
1782858420260224500,7.187224609375,-0.02283366397023201,-0.020022928714752197,-0.05180119723081589
1782858420270203600,7.19720361328125,-0.031395282596349716,-0.0237288698554039,-0.06447374075651169
1782858420280152600,7.207152587890625,-0.03509761020541191,-0.03498711436986923,-0.0731138363480568
1782858420290101500,7.2171015625,-0.036792535334825516,-0.04573934152722359,-0.07461625337600708
1782858420300050400,7.227050537109375,-0.034620460122823715,-0.05874248966574669,-0.07402902841567993
1782858420310029600,7.237029541015625,-0.033784493803977966,-0.07592105865478516,-0.07351181656122208
1782858420319978500,7.246978515625,-0.02531404048204422,-0.08602908253669739,-0.07390676438808441
1782858420329926400,7.256926513671875,-0.016710344702005386,-0.08480314165353775,-0.07154177129268646
1782858420339875600,7.26687548828125,-0.010226348415017128,-0.08169736713171005,-0.06754010170698166
1782858420349854500,7.2768544921875,0.001101939007639885,-0.08106227219104767,-0.06320106983184814
1782858420359803400,7.286803466796875,0.017409540712833405,-0.06710943579673767,-0.05274682864546776
1782858420369752600,7.296752685546875,0.025387393310666084,-0.04775509238243103,-0.045643266290426254
1782858420379700500,7.306700439453125,0.030100921168923378,-0.03158731013536453,-0.03563883528113365
1782858420389649700,7.316649658203125,0.028171110898256302,-0.023433728143572807,-0.026637624949216843
1782858420399628500,7.326628662109375,0.027221161872148514,-0.020280811935663223,-0.02042953111231327
1782858420409577700,7.33657763671875,0.029293101280927658,-0.016845334321260452,-0.019654549658298492
1782858420419526700,7.346526611328125,0.038962505757808685,-0.013261784799396992,-0.016308022662997246
1782858420429475600,7.3564755859375,0.04830300807952881,-0.01897519640624523,-0.01907462067902088
1782858420439454500,7.366454345703125,0.05259176343679428,-0.03348463028669357,-0.02947665937244892
1782858420449403600,7.376403564453125,0.05583016574382782,-0.044390950351953506,-0.03830007463693619
1782858420459351600,7.3863515625,0.059068307280540466,-0.05167043209075928,-0.045858390629291534
1782858420469300500,7.396300537109375,0.05941850692033768,-0.06473622471094131,-0.053444258868694305
1782858420479255600,7.406255615234375,0.056097544729709625,-0.07620486617088318,-0.06248116493225098
1782858420489234700,7.416234619140625,0.053107619285583496,-0.0793052464723587,-0.06279563158750534
1782858420499183600,7.42618359375,0.04086533188819885,-0.09151904284954071,-0.06272611767053604
1782858420509131800,7.4361318359375,0.02212102897465229,-0.09187747538089752,-0.05722717195749283
1782858420519080700,7.446080810546875,0.01152484305202961,-0.06876550614833832,-0.047084785997867584
1782858420529059600,7.4560595703125,0.012744924053549767,-0.038866255432367325,-0.03211486339569092
1782858420539008500,7.466008544921875,0.01703820563852787,-0.015940165147185326,-0.016375048086047173
1782858420548957700,7.475957763671875,0.02244211547076702,-0.0066889128647744656,-0.0013194619677960873
1782858420558906600,7.48590673828125,0.02663605846464634,-0.003085123375058174,0.0075275590643286705
1782858420568885500,7.495885498046875,0.030770357698202133,-0.0069002918899059296,0.008983751758933067
1782858420578834400,7.50583447265625,0.03068513423204422,-0.012712107971310616,0.00254635838791728
1782858420588782600,7.515782470703125,0.02996501326560974,-0.024593204259872437,-0.011170138604938984
1782858420598731500,7.5257314453125,0.023386206477880478,-0.03374861925840378,-0.029678311198949814
1782858420608680400,7.535680419921875,0.01821913942694664,-0.034526191651821136,-0.05335323140025139
1782858420618659600,7.54565966796875,0.013128772377967834,-0.021653272211551666,-0.07079800218343735
1782858420628608500,7.5556083984375,0.01112927496433258,0.002681965008378029,-0.07564437389373779
1782858420638557700,7.5655576171875,0.009409405291080475,0.026783840730786324,-0.07563398033380508
1782858420648505600,7.575505615234375,0.011132914572954178,0.0276207122951746,-0.06809526681900024
1782858420658484700,7.585484619140625,0.01657002419233322,0.03358513116836548,-0.044564105570316315
1782858420668433700,7.59543359375,0.023861847817897797,0.03671835735440254,-0.01511534582823515
1782858420678382600,7.605382568359375,0.025365732610225677,0.011538433842360973,0.012271536514163017
1782858420688331500,7.61533154296875,0.02300173230469227,-0.015638435259461403,0.02387589029967785
1782858420698279700,7.62527978515625,0.020197955891489983,-0.030254928395152092,0.026184318587183952
1782858420708259600,7.635259521484375,0.0216236375272274,-0.025265006348490715,0.0202504713088274
1782858420718207500,7.64520751953125,0.027043703943490982,0.003836686722934246,0.0045846933498978615
1782858420728156700,7.65515673828125,0.03185727447271347,0.03801560774445534,-0.017894094809889793
1782858420738105600,7.665105712890625,0.03593777120113373,0.04513370245695114,-0.04639098420739174
1782858420748084500,7.67508447265625,0.033046554774045944,0.02398904785513878,-0.07178710401058197
1782858420758033400,7.685033447265625,0.026967890560626984,0.00844231341034174,-0.07753659784793854
1782858420767982600,7.694982666015625,0.014527911320328712,-0.0027481969445943832,-0.0698995292186737
1782858420777930500,7.704930419921875,0.0034377090632915497,-0.016960687935352325,-0.04523732513189316
1782858420787910400,7.714910400390625,-0.0006711911410093307,-0.020100653171539307,-0.014230107888579369
1782858420797858600,7.724858642578125,0.00011337548494338989,-0.02210787683725357,0.01572060026228428
1782858420807807700,7.734807861328125,0.0027733389288187027,-0.039386339485645294,0.04254017770290375
1782858420817756700,7.744756591796875,0.009988909587264061,-0.060621052980422974,0.053653016686439514
1782858420827704600,7.75470458984375,0.017370125278830528,-0.0719262957572937,0.04968016594648361
1782858420837684700,7.764684814453125,0.016831902787089348,-0.07242803275585175,0.039170000702142715
1782858420847632600,7.774632568359375,0.015604451298713684,-0.05079963803291321,0.01837027445435524
1782858420857581600,7.78458154296875,0.013329043984413147,-0.007551497779786587,-0.0037584626115858555
1782858420867530500,7.794530517578125,0.0057332683354616165,0.045025572180747986,-0.024071067571640015
1782858420877509600,7.804509521484375,0.003321245312690735,0.0685519352555275,-0.03657620772719383
1782858420887458600,7.81445849609375,0.007177496328949928,0.07217808812856674,-0.047303300350904465
1782858420897407500,7.824407470703125,0.010760245844721794,0.05507872998714447,-0.051824018359184265
1782858420907355600,7.834355712890625,0.014945494011044502,0.03173855319619179,-0.05305494740605354
1782858420917304600,7.8443046875,0.020600715652108192,0.019771907478570938,-0.04691210016608238
1782858420927283500,7.854283447265625,0.019497016444802284,0.016068562865257263,-0.041303493082523346
1782858420937232400,7.864232421875,0.01279810257256031,0.020412713289260864,-0.0372626818716526
1782858420947181600,7.874181640625,0.008207432925701141,0.021955369040369987,-0.035780735313892365
1782858420957130800,7.884130859375,0.005220429971814156,0.01132243312895298,-0.0408889502286911
1782858420967109600,7.894109619140625,0.009585000574588776,-0.012659357860684395,-0.043545495718717575
1782858420977057800,7.904057861328125,0.01635262370109558,-0.03725391626358032,-0.0447058342397213
1782858420987006700,7.9140068359375,0.020144788548350334,-0.05485086143016815,-0.05098514258861542
1782858420996955600,7.92395556640625,0.02198636345565319,-0.05945679545402527,-0.05032547935843468
1782858421006934500,7.9339345703125,0.021658526733517647,-0.03689849376678467,-0.0466814748942852
1782858421016883700,7.9438837890625,0.02366175688803196,-0.013866943307220936,-0.04659492149949074
1782858421026832600,7.95383251953125,0.024222351610660553,0.008350744843482971,-0.045313093811273575
1782858421036780500,7.963780517578125,0.0246250182390213,0.025998180732131004,-0.03975933790206909
1782858421046729500,7.9737294921875,0.019990762695670128,0.026614882051944733,-0.032112978398799896
1782858421056708600,7.98370849609375,0.015631968155503273,0.01907946728169918,-0.024329356849193573
1782858421066657500,7.993657470703125,0.014826364815235138,-0.004689909517765045,-0.018728088587522507
1782858421076606500,8.0036064453125,0.015288155525922775,-0.026296934112906456,-0.01381588913500309
1782858421086555400,8.013555419921875,0.015585716813802719,-0.038267359137535095,-0.007844279520213604
1782858421096534500,8.023534423828124,0.016519956290721893,-0.039471905678510666,0.003433408448472619
1782858421106483700,8.033483642578124,0.01471628062427044,-0.03215200453996658,0.008863093331456184
1782858421116431400,8.043431396484374,0.005024772137403488,-0.025660283863544464,0.0033607366494834423
1782858421126380800,8.053380859375,-0.0035425275564193726,-0.015216278843581676,-0.006069884169846773
1782858421136329700,8.063329833984374,-0.009573522955179214,0.0023443391546607018,-0.01921418122947216
1782858421146308600,8.07330859375,-0.010278811678290367,0.02172715589404106,-0.03171642869710922
1782858421156257500,8.083257568359375,-0.011764856055378914,0.0324903205037117,-0.041118718683719635
1782858421166205700,8.093205810546875,-0.010169623419642448,0.030376765877008438,-0.04716307669878006
1782858421176154600,8.103154541015625,-0.007725372910499573,0.019887905567884445,-0.041409850120544434
1782858421186133500,8.113133544921874,-0.005566971376538277,-0.0016190656460821629,-0.038444265723228455
1782858421196082700,8.123082763671874,-0.004768555983901024,-0.014354301616549492,-0.025458429008722305
1782858421206031600,8.133031494140624,-0.008267592638731003,-0.014378850348293781,-0.007743180729448795
1782858421215980500,8.14298046875,-0.005948245525360107,-0.00003080349415540695,0.01506892405450344
1782858421225959400,8.15295947265625,-0.004743965342640877,0.029411442577838898,0.03575076535344124
1782858421235908600,8.16290869140625,-0.00927240401506424,0.03898923471570015,0.045481953769922256
1782858421245856500,8.1728564453125,-0.02093580551445484,0.021454893052577972,0.03819383680820465
1782858421255805400,8.182805419921875,-0.027990784496068954,-0.0013976921327412128,0.024028481915593147
1782858421265754400,8.19275439453125,-0.02671957015991211,-0.018505483865737915,0.0018604411743581295
1782858421275733500,8.2027333984375,-0.024121390655636787,-0.02077609673142433,-0.021805208176374435
1782858421285682700,8.2126826171875,-0.012918450869619846,-0.02712266333401203,-0.04210880398750305
1782858421295630600,8.222630615234374,0.00677029974758625,-0.010942096821963787,-0.05330713093280792
1782858421305579800,8.232579833984374,0.023162677884101868,-0.0017857793718576431,-0.053919631987810135
1782858421315558700,8.24255859375,0.03357617184519768,0.006393587216734886,-0.04859623685479164
1782858421325507600,8.252507568359375,0.03506052494049072,0.014795225113630295,-0.026437968015670776
1782858421335456500,8.26245654296875,0.03047695942223072,0.0169270858168602,-0.004112686961889267
1782858421345405700,8.27240576171875,0.02657010592520237,0.009692157618701458,0.020558275282382965
1782858421355353600,8.282353515625,0.021471219137310982,0.002658483572304249,0.03165353834629059
1782858421365333500,8.29233349609375,0.017906485125422478,-0.0074731456115841866,0.032477691769599915
1782858421375281700,8.30228173828125,0.014059817418456078,-0.013111056759953499,0.01639007031917572
1782858421385230600,8.312230712890624,0.015181541442871094,0.0076012155041098595,0.0056123025715351105
1782858421395179500,8.322179443359374,0.013979122042655945,0.04255254194140434,-0.002759610302746296
1782858421405158400,8.332158447265625,0.015470223501324654,0.06865458190441132,-0.006152566988021135
1782858421415107600,8.342107666015625,0.01503772847354412,0.07644805312156677,-0.0068260799162089825
1782858421425056800,8.352056884765625,0.013599442318081856,0.05440109968185425,-0.005501972045749426
1782858421435004400,8.36200439453125,0.005069604143500328,0.020264439284801483,0.0020715254358947277
1782858421444984600,8.371984619140624,-0.004826787859201431,-0.0004355311393737793,0.007223081775009632
1782858421454932700,8.3819326171875,-0.016515668481588364,-0.012176076881587505,0.016156122088432312
1782858421464881700,8.391881591796874,-0.030035115778446198,-0.012297761626541615,0.020942091941833496
1782858421474854100,8.401854248046876,-0.04190855473279953,0.006244497373700142,0.028038883581757545
1782858421484802300,8.41180224609375,-0.05208156257867813,0.03336352854967117,0.03262415528297424
1782858421494782200,8.4217822265625,-0.05495698004961014,0.043127741664648056,0.03870921581983566
1782858421504730000,8.431730224609375,-0.05084248259663582,0.03380944952368736,0.04749477282166481
1782858421514679300,8.44167919921875,-0.05356955900788307,0.02879605069756508,0.04844285920262337
1782858421524628200,8.451628173828125,-0.054425857961177826,0.0004424871876835823,0.04732922464609146
1782858421534607000,8.461607177734376,-0.050997037440538406,-0.011757985688745975,0.04400906339287758
1782858421544556000,8.47155615234375,-0.04199572652578354,-0.0029390426352620125,0.04575785622000694
1782858421554505200,8.481505126953126,-0.03520014137029648,0.014121965505182743,0.052272748202085495
1782858421564453000,8.491453125,-0.04002250358462334,0.020363975316286087,0.059855878353118896
1782858421574433000,8.50143310546875,-0.04826764762401581,0.01409995649009943,0.06736200302839279
1782858421584381200,8.511381103515625,-0.05389074236154556,0.005013816058635712,0.06983540952205658
1782858421594330000,8.521330078125,-0.05164622887969017,-0.003200971055775881,0.06918160617351532
1782858421604279300,8.531279296875,-0.04848194867372513,-0.008094541728496552,0.059384290128946304
1782858421614227000,8.54122705078125,-0.03962480649352074,-0.00764846196398139,0.047349732369184494
1782858421624207400,8.551207275390626,-0.032361213117837906,0.002732229419052601,0.033246640115976334
1782858421634155300,8.5611552734375,-0.02094397507607937,0.010155790485441685,0.022079741582274437
1782858421644104200,8.571104248046876,-0.007155369967222214,0.02800644002854824,0.020743435248732567
1782858421654053000,8.58105322265625,-0.00051158107817173,0.03439909219741821,0.028024783357977867
1782858421664032300,8.5910322265625,-0.0019421428442001343,0.018049977719783783,0.04251449555158615
1782858421673981200,8.600981201171875,-0.0065020062029361725,0.008986707776784897,0.06103731691837311
1782858421683930000,8.61093017578125,-0.006471112370491028,0.0013421680778265,0.07053766399621964
1782858421693878300,8.620878173828125,0.0011127721518278122,-0.008235890418291092,0.07051129639148712
1782858421703827200,8.6308271484375,0.012132398784160614,0.001970076933503151,0.06525496393442154
1782858421713806000,8.64080615234375,0.0212518610060215,0.018891002982854843,0.05275541543960571
1782858421723755000,8.650755126953126,0.02699195221066475,0.03492407500743866,0.036828912794589996
1782858421733704200,8.6607041015625,0.038801468908786774,0.03653661906719208,0.019485076889395714
1782858421743653000,8.670653076171876,0.051348865032196045,0.02283775806427002,0.002583226189017296
1782858421753632000,8.680632080078125,0.055980898439884186,-0.0017797020263969898,-0.01123405247926712
1782858421763581200,8.690581298828125,0.0502738356590271,-0.017032533884048462,-0.02071256935596466
1782858421773529000,8.700529052734375,0.03993091732263565,-0.012499567121267319,-0.01812237873673439
1782858421783478300,8.710478271484375,0.0291676614433527,0.0013853274285793304,-0.010239411145448685
1782858421793457200,8.72045703125,0.02766350843012333,0.00872260145843029,0.0007208292372524738
1782858421803406300,8.73040625,0.03291011601686478,0.010402378626167774,0.009846723638474941
1782858421813355300,8.740355224609376,0.04133129492402077,0.0021287351846694946,0.015690231695771217
1782858421823303200,8.75030322265625,0.051135897636413574,-0.013010766357183456,0.022593000903725624
1782858421833252000,8.760252197265626,0.05929210036993027,-0.002455593552440405,0.030674362555146217
1782858421843231200,8.770231201171875,0.06100042909383774,0.013392859138548374,0.043678466230630875
1782858421853180200,8.78018017578125,0.058814503252506256,0.019876059144735336,0.04628383368253708
1782858421863129000,8.790129150390625,0.056303322315216064,0.022270886227488518,0.044898610562086105
1782858421873078000,8.800078125,0.04723925143480301,0.01982131041586399,0.04070466384291649
1782858421883057200,8.81005712890625,0.03650307282805443,0.016312487423419952,0.038733020424842834
1782858421893006000,8.820006103515626,0.026072267442941666,0.013069556094706059,0.032276451587677
1782858421902954000,8.8299541015625,0.01788216456770897,-0.0003395499661564827,0.020635399967432022
1782858421912903200,8.839903076171876,0.012658637017011642,-0.019330017268657684,0.0022033960558474064
1782858421922852400,8.849852294921876,0.013579471036791801,-0.03971454128623009,-0.01696326769888401
1782858421932831000,8.8598310546875,0.013789327815175056,-0.0481082908809185,-0.037870679050683975
1782858421942780200,8.8697802734375,0.013835756108164787,-0.050653789192438126,-0.0472540520131588
1782858421952728300,8.879728271484375,0.009483618661761284,-0.037478335201740265,-0.04965036362409592
1782858421962677200,8.88967724609375,0.0033601224422454834,-0.020584192126989365,-0.044275734573602676
1782858421972656000,8.89965625,0.0014069601893424988,-0.006789283361285925,-0.025063689798116684
1782858421982605300,8.909605224609376,-0.0006928518414497375,0.0004801033064723015,-0.005278007593005896
1782858421992554200,8.91955419921875,-0.009946005418896675,-0.0000714380294084549,0.017892558127641678
1782858422002503200,8.929503173828126,-0.014785503037273884,-0.0003619315102696419,0.04066990315914154
1782858422012482000,8.93948193359375,-0.017962388694286346,-0.009864889085292816,0.051410432904958725
1782858422022431200,8.94943115234375,-0.02384539693593979,-0.015052801929414272,0.052766866981983185
1782858422032379100,8.959379150390625,-0.023091988638043404,-0.014639479108154774,0.04483596980571747
1782858422042328000,8.969328125,-0.02023947797715664,-0.0049973055720329285,0.0347401425242424
1782858422052277000,8.979277099609375,-0.01783917099237442,0.012681289575994015,0.020869065076112747
1782858422062256000,8.989256103515626,-0.01784316822886467,0.024811655282974243,0.0038484842516481876
1782858422072205000,8.999205078125,-0.016080686822533607,0.01834150403738022,-0.012559249997138977
1782858422082154200,9.009154296875,-0.010679441504180431,0.005866476334631443,-0.020399533212184906
1782858422092102100,9.01910205078125,-0.0017141755670309067,-0.003108908887952566,-0.018348898738622665
1782858422102081000,9.0290810546875,0.0016327090561389923,-0.009986692108213902,-0.003040740732103586
1782858422112030200,9.0390302734375,0.0022747963666915894,-0.005411115474998951,0.010152825154364109
1782858422121979100,9.048979248046875,0.00539611279964447,0.00728239119052887,0.029277313500642776
1782858422131928300,9.05892822265625,0.011278238147497177,0.01919391192495823,0.042572613805532455
1782858422141876200,9.068876220703125,0.012855088338255882,0.014028379693627357,0.04277900606393814
1782858422151856000,9.078856201171876,0.018052248284220695,0.003940059803426266,0.03598395362496376
1782858422161804300,9.08880419921875,0.019279878586530685,-0.0042511820793151855,0.030390620231628418
1782858422171753200,9.098753173828126,0.016017772257328033,-0.015093177556991577,0.016595978289842606
1782858422181702100,9.1087021484375,0.015663929283618927,-0.011958208866417408,0.0028730768244713545
1782858422191681000,9.118680908203125,0.013293448835611343,-0.0045743281953036785,-0.003561919555068016
1782858422201630200,9.128630126953125,0.012683404609560966,0.003764296881854534,-0.0034334175288677216
1782858422211579100,9.1385791015625,0.014643756672739983,0.005971258506178856,0.0053275832906365395
1782858422221527000,9.148527099609375,0.016657816246151924,0.004552174359560013,0.017037872225046158
1782858422231507000,9.1585068359375,0.01867569424211979,0.0032935645431280136,0.03135688975453377
1782858422241455000,9.168455078125,0.024710239842534065,0.00593903474509716,0.039757728576660156
1782858422251404000,9.178404052734376,0.030787838622927666,0.009121245704591274,0.04916667938232422
1782858422261353200,9.188353271484376,0.03590386360883713,0.0007382500916719437,0.05268047749996185
1782858422271301400,9.19830126953125,0.03755049780011177,-0.014699827879667282,0.04265633970499039
1782858422281281300,9.20828125,0.029468867927789688,-0.027733199298381805,0.023098185658454895
1782858422291229200,9.218229248046875,0.01750541478395462,-0.032356712967157364,0.003008895553648472
1782858422301178000,9.22817822265625,0.009613756090402603,-0.018343746662139893,-0.008550005033612251
1782858422311127300,9.238127197265625,0.00700412318110466,0.008096650242805481,-0.01497967541217804
1782858422321106200,9.248106201171876,0.006848154589533806,0.008640424348413944,-0.00932184886187315
1782858422331055000,9.25805517578125,0.014547085389494896,-0.00010965671390295029,-0.007382800802588463
1782858422341004000,9.268004150390626,0.029035035520792007,-0.0021970155648887157,0.008366059511899948
1782858422350952200,9.2779521484375,0.043389737606048584,0.003214527852833271,0.026321889832615852
1782858422360901000,9.287901123046876,0.050602205097675323,0.0057155899703502655,0.0463138222694397
1782858422370880000,9.2978798828125,0.054157257080078125,0.0005756886675953865,0.06090661138296127
1782858422380829200,9.3078291015625,0.051438525319099426,-0.01135525107383728,0.0652369037270546
1782858422390778000,9.317778076171875,0.03924950212240219,-0.016189420595765114,0.06359879672527313
1782858422400727300,9.327727294921875,0.02354981191456318,-0.011886040680110455,0.05755795165896416
1782858422410706000,9.337705810546876,0.007655000314116478,0.00983310304582119,0.05437840521335602
1782858422420654000,9.347654052734375,-0.011155260726809502,0.02738862857222557,0.05127876624464989
1782858422430603300,9.357603271484376,-0.019469650462269783,0.030533555895090103,0.03819252550601959
1782858422440552200,9.36755224609375,-0.023979444056749344,0.013516363687813282,0.028515752404928207
1782858422450531300,9.37753125,-0.02419968880712986,0.00378570519387722,0.02515857294201851
1782858422460480300,9.387480224609375,-0.02507009543478489,-0.004709865432232618,0.02415444888174534
1782858422470429200,9.39742919921875,-0.02514120191335678,0.001540839672088623,0.02549881301820278
1782858422480373500,9.40737353515625,-0.018957344815135002,0.006468421779572964,0.036763403564691544
1782858422490322400,9.417322509765626,-0.017088603228330612,0.002752247266471386,0.04180769622325897
1782858422500301300,9.42730126953125,-0.009897185489535332,0.0016850559040904045,0.04915192723274231
1782858422510250200,9.437250244140625,-0.00495062954723835,-0.003042055293917656,0.055136848241090775
1782858422520199400,9.447199462890625,0.001199234277009964,-0.00728563079610467,0.06051704287528992
1782858422530148600,9.457148681640625,0.001705234870314598,-0.021519958972930908,0.05541016161441803
1782858422540127500,9.46712744140625,0.0012753047049045563,-0.03420571982860565,0.04752013832330704
1782858422550076400,9.477076416015626,0.0007011275738477707,-0.04165484756231308,0.0394694022834301
1782858422560024600,9.487024658203126,0.010559536516666412,-0.054209575057029724,0.0380084291100502
1782858422569973500,9.496973388671876,0.023194104433059692,-0.07187991589307785,0.03335189446806908
1782858422579922400,9.50692236328125,0.038912348449230194,-0.10804052650928497,0.03225000947713852
1782858422589901600,9.516901611328125,0.048605188727378845,-0.12201040238142014,0.03653823584318161
1782858422599850500,9.5268505859375,0.05316442251205444,-0.10066220164299011,0.05707339942455292
1782858422609798400,9.53679833984375,0.04917314648628235,-0.06774872541427612,0.09700803458690643
1782858422619747300,9.546747314453125,0.036346301436424255,-0.05343594402074814,0.1447526514530182
1782858422629726500,9.5567265625,0.020926067605614662,-0.0837046355009079,0.18650862574577332
1782858422639675400,9.56667529296875,-0.0012308098375797272,-0.14716501533985138,0.2177308350801468
1782858422649624300,9.576624267578126,-0.03411046415567398,-0.20360565185546875,0.23022079467773438
1782858422659573200,9.5865732421875,-0.0754021555185318,-0.22375623881816864,0.2087690681219101
1782858422669552400,9.596552490234375,-0.11558925360441208,-0.1909721940755844,0.15668322145938873
1782858422679501300,9.606501220703125,-0.14917349815368652,-0.12471842765808105,0.08890023082494736
1782858422689449200,9.61644921875,-0.1644592434167862,-0.05732499808073044,0.018865223973989487
1782858422699398400,9.6263984375,-0.17653526365756989,-0.01127491146326065,-0.0509149543941021
1782858422709347600,9.63634765625,-0.18367759883403778,0.002534378319978714,-0.10667302459478378
1782858422719326500,9.646326416015626,-0.178593710064888,-0.010397866368293762,-0.13566794991493225
1782858422729275400,9.656275390625,-0.16512636840343475,-0.037247590720653534,-0.13762643933296204
1782858422739223600,9.6662236328125,-0.1376306414604187,-0.05482940375804901,-0.11715389043092728
1782858422749172500,9.67617236328125,-0.10666899383068085,-0.053591564297676086,-0.07886402308940887
1782858422759151400,9.6861513671875,-0.0738535225391388,-0.03374755382537842,-0.028049256652593613
1782858422769100500,9.6961005859375,-0.03406909853219986,-0.010391898453235626,0.02986278012394905
1782858422779049500,9.706049560546875,0.01857049949467182,-0.0020484551787376404,0.08425810933113098
1782858422788998400,9.715998291015625,0.06424850225448608,-0.022697806358337402,0.11768078058958054
1782858422798946300,9.7259462890625,0.10179543495178223,-0.05778242275118828,0.13215263187885284
1782858422808926500,9.735926513671876,0.12701104581356049,-0.07325698435306549,0.14005637168884277
1782858422818874400,9.745874267578126,0.13905644416809082,-0.04647452384233475,0.15268997848033905
1782858422828823300,9.7558232421875,0.13137535750865936,-0.007663212716579437,0.1595555990934372
1782858422838772200,9.765772216796876,0.0981091856956482,-0.010093356482684612,0.15636767446994781
1782858422848751400,9.77575146484375,0.05096324533224106,-0.04466171935200691,0.138739675283432
1782858422858700500,9.785700439453125,0.000264730304479599,-0.08947937190532684,0.11606254428625107
1782858422868649500,9.7956494140625,-0.04279725253582001,-0.10008034855127335,0.09228770434856415
1782858422878597400,9.805597412109375,-0.0657079815864563,-0.06228072568774223,0.07415369898080826
1782858422888577500,9.81557763671875,-0.06464670598506927,-0.004469358362257481,0.06302115321159363
1782858422898525400,9.825525390625,-0.048396456986665726,0.03962457925081253,0.054402898997068405
1782858422908474400,9.835474365234376,-0.02568075992166996,0.06144598871469498,0.049824658781290054
1782858422918423300,9.84542333984375,-0.006458953022956848,0.048076286911964417,0.049983344972133636
1782858422928371500,9.855371337890626,0.003675706684589386,0.013365713879466057,0.0521269217133522
1782858422938351400,9.865351318359375,0.005103781819343567,-0.022815842181444168,0.05502673611044884
1782858422948299500,9.875299560546875,0.0050124358385801315,-0.05750511586666107,0.04793766885995865
1782858422958248400,9.88524853515625,0.012275677174329758,-0.07733000814914703,0.042065005749464035
1782858422968197400,9.895197265625,0.029041342437267303,-0.08676318824291229,0.02830764837563038
1782858422978176300,9.90517626953125,0.053573403507471085,-0.09019405394792557,0.013801788911223412
1782858422988125400,9.91512548828125,0.08186149597167969,-0.08073344081640244,-0.0005097719840705395
1782858422998074400,9.925074462890626,0.10624673962593079,-0.07020271569490433,-0.00026249373331665993
1782858423008022300,9.935022216796876,0.12251146137714386,-0.05861610174179077,0.012843454256653786
1782858423018002400,9.94500244140625,0.13560345768928528,-0.05972059816122055,0.04157564416527748
1782858423027950600,9.95495068359375,0.1442326456308365,-0.07108190655708313,0.08134596049785614
1782858423037899500,9.9648994140625,0.15227806568145752,-0.080853171646595,0.12933163344860077
1782858423047848400,9.974848388671875,0.16063345968723297,-0.08414803445339203,0.18775738775730133
1782858423057796400,9.98479638671875,0.15615765750408173,-0.10226467251777649,0.23915252089500427
1782858423067776500,9.994776611328126,0.13715572655200958,-0.11122674494981766,0.2856989800930023
1782858423077724400,10.004724365234376,0.10725890845060349,-0.09723420441150665,0.3183269500732422
1782858423087673300,10.01467333984375,0.08024247735738754,-0.07354991137981415,0.3400980234146118
1782858423097622300,10.024622314453126,0.05451314151287079,-0.04618287459015846,0.3496709167957306
1782858423107601400,10.034601318359375,0.03520122915506363,-0.03540612757205963,0.33382856845855713
1782858423117550300,10.04455029296875,0.01758255623281002,-0.04602654650807381,0.30107381939888
1782858423127499300,10.054499267578125,-0.003611145541071892,-0.06529451906681061,0.2552168667316437
1782858423137447400,10.064447509765625,-0.02750946767628193,-0.07710263133049011,0.2052382379770279
1782858423147396400,10.074396240234375,-0.055942174047231674,-0.07125991582870483,0.15308795869350433
1782858423157375200,10.084375244140626,-0.08048603683710098,-0.056213490664958954,0.10617879778146744
1782858423167324400,10.094324462890626,-0.10176602751016617,-0.04836435616016388,0.06643218547105789
1782858423177273600,10.104273681640626,-0.12389814108610153,-0.05527723580598831,0.027152318507432938
1782858423187222500,10.114222412109376,-0.13451643288135529,-0.08324815332889557,-0.005365142598748207
1782858423197201400,10.124201416015625,-0.1378265619277954,-0.09748975932598114,-0.025346951559185982
1782858423207150300,10.134150390625,-0.13912326097488403,-0.08641819655895233,-0.03414204344153404
1782858423217098500,10.144098388671875,-0.13569337129592896,-0.07154963910579681,-0.03177112713456154
1782858423227047400,10.15404736328125,-0.14136803150177002,-0.0649830773472786,-0.0288376547396183
1782858423237026600,10.164026611328126,-0.14279291033744812,-0.06289132684469223,-0.02039213478565216
1782858423246975500,10.1739755859375,-0.14008234441280365,-0.05891229584813118,-0.007400967180728912
1782858423256924400,10.18392431640625,-0.13082653284072876,-0.06879223138093948,-0.0028539751656353474
1782858423266872300,10.193872314453126,-0.12490712106227875,-0.08630330860614777,-0.0058351182378828526
1782858423276821200,10.2038212890625,-0.1118997111916542,-0.08964265882968903,-0.012886103242635727
1782858423286800400,10.21380029296875,-0.0918588936328888,-0.07466129958629608,-0.012199539691209793
1782858423296749300,10.223749267578125,-0.06899379193782806,-0.057258762419223785,-0.003753934521228075
1782858423306698200,10.2336982421875,-0.05213279277086258,-0.05522783845663071,-0.004359538201242685
1782858423316647400,10.2436474609375,-0.03571218252182007,-0.07747866213321686,0.0007507014088332653
1782858423326626300,10.253626220703126,-0.029238572344183922,-0.09871364384889603,0.009943666867911816
1782858423336575500,10.263575439453126,-0.030719727277755737,-0.11216641962528229,0.025599118322134018
1782858423346523600,10.273523681640626,-0.028060562908649445,-0.11936627328395844,0.046935297548770905
1782858423356472600,10.28347265625,-0.022857721894979477,-0.11948636174201965,0.06362318992614746
1782858423366421500,10.29342138671875,-0.012955823913216591,-0.12039422988891602,0.07590328902006149
1782858423376400400,10.303400390625,-0.008209625259041786,-0.13026925921440125,0.07922239601612091
1782858423386349300,10.313349365234375,-0.012485330924391747,-0.13342750072479248,0.07149603217840195
1782858423396297500,10.32329736328125,-0.01509247999638319,-0.12671472132205963,0.05768256634473801
1782858423406246400,10.333246337890625,-0.013584332540631294,-0.12003365159034729,0.04994421824812889
1782858423416225500,10.3432255859375,-0.009738104417920113,-0.09078412503004074,0.048607826232910156
1782858423426174500,10.353174560546876,-0.008308518677949905,-0.06697626411914825,0.06522754579782486
1782858423436123400,10.363123291015626,-0.01810087263584137,-0.030633356422185898,0.08730420470237732
1782858423446072300,10.373072265625,-0.028130337595939636,-0.02709854394197464,0.10231377929449081
1782858423456051500,10.383051513671875,-0.037079714238643646,-0.05383283644914627,0.10867325216531754
1782858423466000400,10.39300048828125,-0.032618653029203415,-0.07279694080352783,0.10196874290704727
1782858423475980000,10.40297998046875,-0.021675366908311844,-0.07963438332080841,0.08107005804777145
1782858423485929000,10.412928955078126,-0.01184137910604477,-0.07698933035135269,0.05787232518196106
1782858423495878000,10.4228779296875,-0.011042253114283085,-0.08304624259471893,0.04215928912162781
1782858423505857000,10.43285693359375,-0.022321538999676704,-0.05955502390861511,0.029012328013777733
1782858423515806200,10.44280615234375,-0.046381160616874695,0.001150844618678093,0.009216939099133015
1782858423525755100,10.452755126953125,-0.044756896793842316,0.050913870334625244,-0.008580965921282768
1782858423535703300,10.462703369140625,-0.02856612205505371,0.05211588740348816,-0.02583080530166626
1782858423545682200,10.47268212890625,-0.012150662951171398,0.037951335310935974,-0.02955523505806923
1782858423555631000,10.482631103515626,-0.010648015886545181,0.026355700567364693,-0.019304750487208366
1782858423565580000,10.492580078125,-0.016881678253412247,0.012354662641882896,-0.005196921061724424
1782858423575529200,10.502529296875,-0.024387177079916,0.004550425335764885,0.007480953820049763
1782858423585477000,10.51247705078125,-0.03385151922702789,-0.005010589025914669,0.01585473120212555
1782858423595457000,10.52245703125,-0.03683008626103401,-0.01657118834555149,0.01219436340034008
1782858423605405200,10.5324052734375,-0.03675125539302826,-0.016420453786849976,-0.003316686488687992
1782858423615354000,10.54235400390625,-0.03189196437597275,-0.003590324893593788,-0.02053976058959961
1782858423625303000,10.552302978515625,-0.021721087396144867,0.006737413816154003,-0.048970337957143784
1782858423635282000,10.562281982421876,-0.012017503380775452,0.014211799949407578,-0.07202618569135666
1782858423645231000,10.572231201171874,-0.00043514929711818695,0.031819820404052734,-0.08504078537225723
1782858423655180000,10.582179931640624,0.007275234907865524,0.048796944320201874,-0.09136978536844254
1782858423665128000,10.5921279296875,0.014154713600873947,0.03227762132883072,-0.09171946346759796
1782858423675108000,10.602108154296875,0.01838558353483677,0.0003726501017808914,-0.08120635151863098
1782858423685056000,10.612055908203125,0.024676239117980003,-0.019414901733398438,-0.0653858333826065
1782858423695005200,10.622005126953125,0.025175850838422775,-0.025635693222284317,-0.04011593759059906
1782858423704954000,10.6319541015625,0.020107854157686234,-0.02879313752055168,-0.016873998567461967
1782858423714902300,10.64190234375,0.014082452282309532,-0.021088823676109314,0.0061254482716321945
1782858423724882200,10.651882080078124,0.007413098588585854,-0.017793960869312286,0.0166808869689703
1782858423734830000,10.661830078125,0.0030286479741334915,-0.022800587117671967,0.018467970192432404
1782858423744779000,10.671779052734376,0.006512859836220741,-0.016043882817029953,0.013851648196578026
1782858423754728200,10.681728271484374,0.007940934970974922,-0.01184452697634697,0.00764473807066679
1782858423764707000,10.69170703125,0.007767828181385994,-0.01606004312634468,-0.0022843251936137676
1782858423774656000,10.701656005859375,0.006715888157486916,-0.0161278136074543,-0.007179982028901577
1782858423784605000,10.71160498046875,0.00012056715786457062,-0.007208620198071003,-0.004737064242362976
1782858423794553000,10.721552978515625,-0.013107890263199806,0.0010275403037667274,0.002863435773178935
1782858423804502000,10.731501953125,-0.023074770346283913,0.010976576246321201,0.018401648849248886
1782858423814481000,10.74148095703125,-0.026790501549839973,0.01459917426109314,0.03881554305553436
1782858423824430000,10.75143017578125,-0.019594639539718628,0.013546427711844444,0.05214519798755646
1782858423834379300,10.761379150390624,-0.015319026075303555,-0.0023971530608832836,0.0509587824344635
1782858423844328200,10.771328125,-0.020036283880472183,-0.037134893238544464,0.03506450355052948
1782858423854307000,10.78130712890625,-0.026755258440971375,-0.049676116555929184,0.01584022119641304
1782858423864255200,10.791255126953125,-0.03310716524720192,-0.03708415850996971,-0.004136150237172842
1782858423874204200,10.8012041015625,-0.03488784283399582,-0.010072155855596066,-0.022298984229564667
1782858423884153000,10.811153076171875,-0.033667050302028656,0.02000238746404648,-0.04372544586658478
1782858423894132200,10.82113232421875,-0.026578066870570183,0.03148413822054863,-0.05635472387075424
1782858423904081200,10.8310810546875,-0.016804533079266548,0.03625812008976936,-0.05537734180688858
1782858423914030000,10.841030029296874,-0.011629125103354454,0.04512592405080795,-0.0474088229238987
1782858423923978000,10.85097802734375,-0.00438293069601059,0.036544956266880035,-0.036374282091856
1782858423933927200,10.86092724609375,0.002685900777578354,0.025193972513079643,-0.016060614958405495
1782858423943906000,10.870906005859375,0.00928441435098648,0.014678746461868286,0.000165493693202734
1782858423953855000,10.88085498046875,0.007527701556682587,0.015236051753163338,0.019510123878717422
1782858423963804000,10.890803955078125,0.00568452849984169,0.024021020159125328,0.02803277224302292
1782858423973753000,10.900753173828125,0.010141773149371147,0.027310065925121307,0.024245819076895714
1782858423983732000,10.91073193359375,0.01808997429907322,0.02197309210896492,0.012529508210718632
1782858423993681200,10.92068115234375,0.029234593734145164,0.007821396924555302,-0.003480226267129183
1782858424003629000,10.930629150390626,0.04201669991016388,-0.007803103420883417,-0.02023417130112648
1782858424013578200,10.940578125,0.05224226787686348,-0.012079228647053242,-0.033417392522096634
1782858424023527200,10.950527099609374,0.05741119757294655,-0.015275554731488228,-0.03886622190475464
1782858424033506000,10.960506103515625,0.05508989840745926,-0.010772507637739182,-0.0356755405664444
1782858424043455200,10.970455322265625,0.04406867176294327,-0.0162503644824028,-0.02870418317615986
1782858424053403100,10.980403076171875,0.031438007950782776,-0.022268405184149742,-0.023267105221748352
1782858424063352000,10.99035205078125,0.018173864111304283,-0.03852167725563049,-0.013714345172047615
1782858424073331200,11.000331298828126,0.005282305181026459,-0.052388742566108704,-0.009542848914861679
1782858424083280100,11.010280029296876,-0.0018626898527145386,-0.06849181652069092,-0.007135617081075907
1782858424093229000,11.02022900390625,-0.0008448325097560883,-0.058018412441015244,0.0007045404054224491
1782858424103178000,11.030177978515624,0.000267568975687027,-0.024459654465317726,0.013597436249256134
1782858424113157000,11.0401572265625,-0.001072091981768608,-0.004988785833120346,0.025495663285255432
1782858424123106000,11.05010595703125,-0.009038671851158142,0.00024911947548389435,0.025750527158379555
1782858424133054000,11.060053955078125,-0.01441754400730133,0.005987426266074181,0.01721075177192688
1782858424143003000,11.0700029296875,-0.01970258727669716,0.011922813951969147,0.0072052557952702045
1782858424152952300,11.079952392578125,-0.02957865409553051,0.023147698491811752,-0.007027783431112766
1782858424162931000,11.089930908203126,-0.03813725337386131,0.03089669719338417,-0.02640414610505104
1782858424172880100,11.099880126953124,-0.041690800338983536,0.045711178332567215,-0.043510593473911285
1782858424182828300,11.109828369140626,-0.04213954135775566,0.05144762620329857,-0.052419133484363556
1782858424192777200,11.119777099609376,-0.0380537211894989,0.05585217475891113,-0.05189701169729233
1782858424202756000,11.129756103515625,-0.035608138889074326,0.04807467758655548,-0.047858864068984985
1782858424212705000,11.139705078125,-0.03894677013158798,0.01785128191113472,-0.040549132972955704
1782858424222654200,11.149654296875,-0.05381226912140846,-0.008846906945109367,-0.032002247869968414
1782858424232603100,11.15960302734375,-0.06728049367666245,-0.009983891621232033,-0.017695607617497444
1782858424242582000,11.16958203125,-0.08241310715675354,0.0038975700736045837,-0.00864405557513237
1782858424252531000,11.179531005859374,-0.0900476798415184,0.002186015248298645,-0.007130874786525965
1782858424262479000,11.18947900390625,-0.10421409457921982,-0.02251427248120308,0.00407357607036829
1782858424272428000,11.199427978515626,-0.10381720215082169,-0.02910865843296051,0.01309608668088913
1782858424282377000,11.209376953125,-0.09802349656820297,-0.017504466697573662,0.012627370655536652
1782858424292356000,11.219356201171875,-0.08881402015686035,0.020136117935180664,0.004611522424966097
1782858424302305000,11.229304931640625,-0.0833825021982193,0.05976075679063797,-0.003871444147080183
1782858424312254200,11.239254150390625,-0.09021811932325363,0.08604016900062561,-0.013021521270275116
1782858424322201900,11.249201904296875,-0.11145602911710739,0.08770890533924103,-0.02231382392346859
1782858424332182300,11.259182373046874,-0.13773059844970703,0.05391980707645416,-0.01970989815890789
1782858424342130200,11.269130126953126,-0.16651351749897003,0.026439445093274117,-0.013368379324674606
1782858424352079000,11.2790791015625,-0.1837036907672882,0.024389097467064857,-0.0007674619555473328
1782858424362028000,11.289028076171874,-0.18963614106178284,0.042046919465065,0.0023463061079382896
1782858424371976200,11.29897607421875,-0.1816302388906479,0.06765858083963394,-0.0010502319782972336
1782858424381956000,11.3089560546875,-0.1574103832244873,0.11016476154327393,-0.032767683267593384
1782858424391904000,11.318904052734375,-0.12731622159481049,0.13408038020133972,-0.077977254986763
1782858424401853200,11.328853271484375,-0.10048780590295792,0.12277872115373611,-0.13733965158462524
1782858424411802000,11.338802001953125,-0.08248244225978851,0.1376303881406784,-0.19514285027980804
1782858424421781000,11.348781005859376,-0.08187682926654816,0.17272979021072388,-0.23709748685359955
1782858424431730000,11.35872998046875,-0.08721398562192917,0.19875086843967438,-0.2671438157558441
1782858424441679000,11.36867919921875,-0.09523037075996399,0.20852945744991302,-0.2873463034629822
1782858424451627000,11.378626953125,-0.09761390089988708,0.20517194271087646,-0.30650749802589417
1782858424461607000,11.38860693359375,-0.09420186281204224,0.1930316686630249,-0.31349456310272217
1782858424471555000,11.39855517578125,-0.09417921304702759,0.18974435329437256,-0.31506165862083435
1782858424481511000,11.408510986328125,-0.09543249756097794,0.18476609885692596,-0.30639225244522095
1782858424491459800,11.4184599609375,-0.0944809541106224,0.19342683255672455,-0.2890104353427887
1782858424501407700,11.42840771484375,-0.09331635385751724,0.21903392672538757,-0.2660537362098694
1782858424511388200,11.43838818359375,-0.10396837443113327,0.23605148494243622,-0.253627747297287
1782858424521335800,11.448335693359375,-0.11309689283370972,0.23389750719070435,-0.24608485400676727
1782858424531285000,11.458284912109375,-0.12298467755317688,0.2055940181016922,-0.2561775743961334
1782858424541234000,11.46823388671875,-0.11988209187984467,0.13910020887851715,-0.2777997851371765
1782858424551213000,11.478213134765625,-0.10343050956726074,0.08953535556793213,-0.29104146361351013
1782858424561162000,11.488161865234375,-0.08192361891269684,0.0964324101805687,-0.3047063946723938
1782858424571111000,11.49811083984375,-0.06799200177192688,0.1301065981388092,-0.32646095752716064
1782858424581059000,11.50805908203125,-0.06340549886226654,0.17131954431533813,-0.3480946123600006
1782858424591008000,11.518008056640625,-0.06166166812181473,0.2220190167427063,-0.36438992619514465
1782858424600987000,11.52798681640625,-0.0637168288230896,0.22742177546024323,-0.38176172971725464
1782858424610935800,11.537935791015625,-0.062101177871227264,0.15376250445842743,-0.3998216390609741
1782858424620885000,11.547885009765626,-0.05799777805805206,0.06377749145030975,-0.4022570848464966
1782858424630834000,11.557833984375,-0.05723380297422409,0.012367069721221924,-0.3821136951446533
1782858424640812800,11.567812744140625,-0.05423588678240776,-0.01148473285138607,-0.33016473054885864
1782858424650761700,11.57776171875,-0.05057848244905472,0.0036510759964585304,-0.25517186522483826
1782858424660710000,11.5877099609375,-0.041113875806331635,0.058639489114284515,-0.1614949256181717
1782858424670659000,11.5976591796875,-0.03268904611468315,0.12912605702877045,-0.08362223953008652
1782858424680638000,11.607637939453125,-0.027318516746163368,0.19079208374023438,-0.02328219637274742
1782858424690587100,11.617587158203126,-0.021618373692035675,0.20882850885391235,-0.0012963158078491688
1782858424700536000,11.6275361328125,-0.022646885365247726,0.17250539362430573,0.0002389969304203987
1782858424710484000,11.63748388671875,-0.022156689316034317,0.12356112152338028,-0.00819424819201231
1782858424720433000,11.647432861328125,-0.018893519416451454,0.08672401309013367,-0.01791159063577652
1782858424730412000,11.657412109375,-0.016507592052221298,0.05103699862957001,-0.028135910630226135
1782858424740361000,11.66736083984375,-0.001271914690732956,0.046682462096214294,-0.029168155044317245
1782858424750310000,11.677309814453125,0.011898573487997055,0.07673870772123337,-0.024350376799702644
1782858424760258800,11.6872587890625,0.020800452679395676,0.09638325124979019,-0.024355702102184296
1782858424770238000,11.697238037109376,0.031036049127578735,0.10249721258878708,-0.030512575060129166
1782858424780187000,11.707186767578126,0.04328472167253494,0.096413753926754,-0.039783839136362076
1782858424790134800,11.717134765625,0.04922099411487579,0.07270935922861099,-0.05565361678600311
1782858424800084000,11.727083984375,0.054469555616378784,0.07034819573163986,-0.07412104308605194
1782858424810033000,11.737032958984376,0.05724012851715088,0.07203492522239685,-0.08999012410640717
1782858424820011800,11.74701171875,0.05598204582929611,0.06280361115932465,-0.10639066994190216
1782858424829961000,11.7569609375,0.05896204710006714,0.05866913124918938,-0.1287650614976883
1782858424839908900,11.766908935546875,0.0683845728635788,0.07656770944595337,-0.1468905359506607
1782858424849858000,11.776858154296875,0.08621646463871002,0.10898590832948685,-0.1609208583831787
1782858424859837000,11.7868369140625,0.10096345841884613,0.15649165213108063,-0.16603413224220276
1782858424869786000,11.7967861328125,0.1036527156829834,0.17367923259735107,-0.16131097078323364
1782858424879735000,11.806735107421876,0.09838898479938507,0.1501603126525879,-0.15466424822807312
1782858424889684000,11.81668408203125,0.09169033169746399,0.10745679587125778,-0.15254703164100647
1782858424899662800,11.826662841796875,0.09273988008499146,0.027752382680773735,-0.13999049365520477
1782858424909612000,11.836612060546875,0.10299155116081238,-0.07047702372074127,-0.1217108964920044
1782858424919560000,11.846559814453125,0.12215512990951538,-0.15322516858577728,-0.09861250221729279
1782858424929508900,11.8565087890625,0.1489386260509491,-0.1909140646457672,-0.0768260806798935
1782858424939457800,11.866457763671875,0.17866136133670807,-0.19864416122436523,-0.07204890251159668
1782858424949437000,11.87643701171875,0.09687285125255585,0.15497291088104248,-0.0004951902665197849
1782858424959385900,11.8863857421875,-0.20440444350242615,0.47259536385536194,0.09721405804157257
1782858424969334800,11.896334716796876,-0.2759241759777069,0.3412412106990814,0.11445030570030212
1782858424979283000,11.906282958984375,-0.18178033828735352,0.12633050978183746,0.11615259945392609
1782858424989261800,11.91626171875,-0.0923893079161644,0.009744951501488686,0.11616107821464539
1782858424999211000,11.9262109375,-0.045966148376464844,-0.037787146866321564,0.12456947565078735
1782858425009160000,11.936159912109375,-0.006346037611365318,-0.0578010231256485,0.12404444068670273
1782858425019109000,11.946109130859375,0.04417439550161362,-0.04756969213485718,0.08785581588745117
1782858425029088000,11.956087890625,0.08430352807044983,-0.04391207545995712,0.028297655284404755
1782858425039037000,11.966036865234376,0.08785165846347809,-0.03247219696640968,-0.013714775443077087
1782858425048985000,11.975985107421875,0.05441583693027496,0.005896313115954399,-0.019306929782032967
1782858425058934000,11.98593408203125,0.010550647974014282,0.03467389941215515,-0.015222439542412758
1782858425068883000,11.995883056640626,-0.03178224340081215,0.032827071845531464,-0.001481649000197649
1782858425078861800,12.00586181640625,-0.07066359370946884,0.012789180502295494,0.01808060146868229
1782858425088811000,12.01581103515625,-0.10704868286848068,0.008480911143124104,0.04606914520263672
1782858425098760000,12.025760009765625,-0.12914946675300598,-0.005582709796726704,0.0701768770813942
1782858425108707800,12.035707763671875,-0.13364896178245544,-0.03652331605553627,0.088568314909935
1782858425118687700,12.045687744140626,-0.120759516954422,-0.05151025578379631,0.0956411361694336
1782858425128636000,12.055635986328125,-0.09260271489620209,-0.04041252285242081,0.08175545185804367
1782858425138584800,12.065584716796875,-0.06787979602813721,-0.005336293485015631,0.05719923973083496
1782858425148534000,12.075533935546876,-0.03894374519586563,0.04512002319097519,0.03444629907608032
1782858425158482000,12.08548193359375,-0.021702975034713745,0.09176182746887207,-0.0007313927635550499
1782858425168462000,12.095462158203125,-0.008930899202823639,0.13787081837654114,-0.03170090541243553
1782858425178410000,12.105409912109375,-0.006445636972784996,0.15280556678771973,-0.048805590718984604
1782858425188359000,12.11535888671875,-0.004069386050105095,0.1446235179901123,-0.07393072545528412
1782858425198308000,12.12530810546875,0.002814086154103279,0.14397850632667542,-0.0963665246963501
1782858425208287000,12.135286865234375,0.01863938756287098,0.14185082912445068,-0.07939105480909348
1782858425218236000,12.14523583984375,0.02423575334250927,0.12068375945091248,-0.01724458858370781
1782858425228184800,12.155184814453126,-0.014398019760847092,0.0944787934422493,0.16070428490638733
1782858425238133000,12.165133056640625,-0.06224783509969711,-0.04584050178527832,0.2520328760147095
1782858425248113000,12.17511279296875,-0.0544273667037487,-0.12228740751743317,0.2865658402442932
1782858425258061000,12.18506103515625,-0.011792289093136787,-0.16885703802108765,0.28361159563064575
1782858425268010000,12.195010009765625,0.005569480359554291,-0.15220460295677185,0.25545233488082886
1782858425277959000,12.204958984375,-0.002493772655725479,-0.11151789873838425,0.19856509566307068
1782858425287907800,12.214907958984375,0.001987351104617119,-0.07184456288814545,0.11677190661430359
1782858425297887000,12.224886962890626,0.020864104852080345,-0.025329258292913437,0.017091650515794754
1782858425307835000,12.2348349609375,0.0465671569108963,0.051537565886974335,-0.08791564404964447
