time,seconds_elapsed,z,y,x
1783169598629667600,0.09866748046875,-0.7393646240234375,-0.631927490234375,0.0378570556640625
1783169598639616500,0.108616455078125,-0.7342376708984375,-0.6383209228515625,0.0330047607421875
1783169598649564400,0.118564453125,-0.726348876953125,-0.6428375244140625,0.025238037109375
1783169598659544600,0.128544677734375,-0.738067626953125,-0.6463623046875,0.018585205078125
1783169598669492500,0.138492431640625,-0.7591552734375,-0.65863037109375,0.0106658935546875
1783169598679441400,0.14844140625,-0.7805938720703125,-0.66656494140625,0.0081939697265625
1783169598689390600,0.158390625,-0.80853271484375,-0.66302490234375,0.00701904296875
1783169598699369700,0.16836962890625,-0.830780029296875,-0.65814208984375,-0.0018463134765625
1783169598709318700,0.178318603515625,-0.85107421875,-0.65631103515625,-0.016082763671875
1783169598719266600,0.1882666015625,-0.8616790771484375,-0.65362548828125,-0.0239105224609375
1783169598729246700,0.198246826171875,-0.8518524169921875,-0.6474456787109375,-0.028106689453125
1783169598739194600,0.208194580078125,-0.8381195068359375,-0.6355133056640625,-0.033172607421875
1783169598749143600,0.2181435546875,-0.833587646484375,-0.6246490478515625,-0.034881591796875
1783169598759092500,0.228092529296875,-0.8294525146484375,-0.6243133544921875,-0.0372314453125
1783169598769071600,0.238071533203125,-0.8003082275390625,-0.6349639892578125,-0.0331268310546875
1783169598779020500,0.2480205078125,-0.7592010498046875,-0.6522979736328125,-0.0151214599609375
1783169598788969500,0.257969482421875,-0.7598724365234375,-0.664031982421875,0.00189208984375
1783169598798948600,0.267948486328125,-0.796173095703125,-0.6660614013671875,0.0023651123046875
1783169598808897500,0.2778974609375,-0.8175201416015625,-0.67919921875,-0.005218505859375
1783169598818845400,0.287845458984375,-0.8268280029296875,-0.6896514892578125,-0.0069732666015625
1783169598828794400,0.29779443359375,-0.84014892578125,-0.67938232421875,-0.0103912353515625
1783169598838773500,0.3077734375,-0.858795166015625,-0.651824951171875,-0.0220184326171875
1783169598848722400,0.317722412109375,-0.8946990966796875,-0.6304168701171875,-0.0416107177734375
1783169598858671600,0.327671630859375,-0.9187774658203125,-0.6170654296875,-0.06622314453125
1783169598868650800,0.337650634765625,-0.9178009033203125,-0.5972900390625,-0.0887603759765625
1783169598878599700,0.347599609375,-0.9032135009765625,-0.571502685546875,-0.0983734130859375
1783169598888547600,0.357547607421875,-0.8813934326171875,-0.545867919921875,-0.094573974609375
1783169598898496500,0.36749658203125,-0.8642120361328125,-0.5276336669921875,-0.0831756591796875
1783169598908475600,0.3774755859375,-0.8523712158203125,-0.522674560546875,-0.073760986328125
1783169598918424600,0.387424560546875,-0.835479736328125,-0.5257415771484375,-0.0627593994140625
1783169598928373500,0.39737353515625,-0.820770263671875,-0.525482177734375,-0.0518035888671875
1783169598938352600,0.4073525390625,-0.8042144775390625,-0.520843505859375,-0.04376220703125
1783169598948301600,0.417301513671875,-0.7848663330078125,-0.5238800048828125,-0.033294677734375
1783169598958250500,0.42725048828125,-0.77276611328125,-0.5301666259765625,-0.0229644775390625
1783169598968198700,0.43719873046875,-0.7772216796875,-0.527008056640625,-0.0226287841796875
1783169598978178600,0.447178466796875,-0.7974700927734375,-0.52520751953125,-0.0343475341796875
1783169598988126500,0.45712646484375,-0.8048858642578125,-0.529541015625,-0.04864501953125
1783169598998075400,0.467075439453125,-0.803131103515625,-0.5260009765625,-0.0575714111328125
1783169599008054500,0.477054443359375,-0.805999755859375,-0.5170745849609375,-0.0630340576171875
1783169599018003500,0.48700341796875,-0.8057861328125,-0.51495361328125,-0.0654296875
1783169599027952600,0.49695263671875,-0.792205810546875,-0.51666259765625,-0.064910888671875
1783169599037901600,0.506901611328125,-0.77459716796875,-0.51788330078125,-0.0625152587890625
1783169599047880700,0.516880615234375,-0.759857177734375,-0.5200347900390625,-0.0536041259765625
1783169599057828600,0.52682861328125,-0.745269775390625,-0.523193359375,-0.0405426025390625
1783169599067777500,0.536777587890625,-0.7321624755859375,-0.5286865234375,-0.0304107666015625
1783169599077726700,0.546726806640625,-0.724273681640625,-0.5338287353515625,-0.025665283203125
1783169599087705600,0.55670556640625,-0.7136077880859375,-0.542266845703125,-0.0242462158203125
1783169599097654500,0.566654541015625,-0.69830322265625,-0.549285888671875,-0.0233612060546875
1783169599107603500,0.576603515625,-0.689361572265625,-0.551300048828125,-0.0239105224609375
1783169599117582600,0.58658251953125,-0.6826629638671875,-0.5577392578125,-0.03009033203125
1783169599127531500,0.596531494140625,-0.6796417236328125,-0.57196044921875,-0.0354766845703125
1783169599137479400,0.6064794921875,-0.6745452880859375,-0.5865325927734375,-0.04052734375
1783169599147428600,0.6164287109375,-0.66131591796875,-0.594085693359375,-0.045379638671875
1783169599157407500,0.626407470703125,-0.6490936279296875,-0.5960693359375,-0.04888916015625
1783169599167356400,0.6363564453125,-0.6455230712890625,-0.5965576171875,-0.05377197265625
1783169599177305300,0.646305419921875,-0.6490020751953125,-0.6016082763671875,-0.059295654296875
1783169599187284500,0.656284423828125,-0.6589202880859375,-0.6079559326171875,-0.0610504150390625
1783169599197233700,0.666233642578125,-0.6741790771484375,-0.6135711669921875,-0.0618896484375
1783169599207182600,0.6761826171875,-0.689453125,-0.61944580078125,-0.06732177734375
1783169599217130800,0.686130859375,-0.7079925537109375,-0.6211700439453125,-0.076263427734375
1783169599227109600,0.696109619140625,-0.734832763671875,-0.6258087158203125,-0.0853118896484375
1783169599237058600,0.70605859375,-0.747406005859375,-0.6284332275390625,-0.0900726318359375
1783169599247007500,0.716007568359375,-0.755096435546875,-0.6204681396484375,-0.0886688232421875
1783169599256986600,0.725986572265625,-0.7701416015625,-0.6157073974609375,-0.086334228515625
1783169599266958600,0.73595849609375,-0.7779998779296875,-0.616851806640625,-0.0811614990234375
1783169599276907800,0.74590771484375,-0.7933349609375,-0.6164703369140625,-0.07342529296875
1783169599286855400,0.75585546875,-0.8024139404296875,-0.6197052001953125,-0.066162109375
1783169599296835600,0.765835693359375,-0.8107452392578125,-0.6227874755859375,-0.05078125
1783169599306783700,0.77578369140625,-0.836090087890625,-0.6256866455078125,-0.0355224609375
1783169599316732700,0.785732666015625,-0.8626708984375,-0.632781982421875,-0.0221710205078125
1783169599326711600,0.795711669921875,-0.88751220703125,-0.63507080078125,-0.0146484375
1783169599336660700,0.80566064453125,-0.912567138671875,-0.623046875,-0.0126800537109375
1783169599346609700,0.815609619140625,-0.9261627197265625,-0.605804443359375,-0.0146331787109375
1783169599356558600,0.82555859375,-0.9233551025390625,-0.5931243896484375,-0.017974853515625
1783169599366537500,0.835537353515625,-0.9116973876953125,-0.5876617431640625,-0.0163726806640625
1783169599376486700,0.845486572265625,-0.885589599609375,-0.59271240234375,-0.009368896484375
1783169599386434600,0.8554345703125,-0.8404998779296875,-0.620697021484375,0.026702880859375
1783169599396413400,0.865413330078125,-0.8253326416015625,-0.6664886474609375,0.0768585205078125
1783169599406362600,0.875362548828125,-0.833953857421875,-0.708221435546875,0.10272216796875
1783169599416311600,0.8853115234375,-0.82379150390625,-0.737152099609375,0.113555908203125
1783169599426260500,0.895260498046875,-0.820953369140625,-0.7473297119140625,0.1081695556640625
1783169599436239400,0.9052392578125,-0.87060546875,-0.7294158935546875,0.0809478759765625
1783169599446188800,0.915188720703125,-0.9569091796875,-0.699859619140625,0.0413055419921875
1783169599456136400,0.925136474609375,-1.0013427734375,-0.6757354736328125,0.0042724609375
1783169599466116600,0.93511669921875,-0.979644775390625,-0.6417236328125,-0.0279388427734375
1783169599476064800,0.945064697265625,-0.968536376953125,-0.588226318359375,-0.04766845703125
1783169599486013700,0.955013671875,-0.9672698974609375,-0.5358428955078125,-0.06097412109375
1783169599495962600,0.964962646484375,-0.9398956298828125,-0.501922607421875,-0.07086181640625
1783169599505941500,0.97494140625,-0.9029083251953125,-0.4801177978515625,-0.062957763671875
1783169599515890700,0.984890625,-0.86572265625,-0.4715423583984375,-0.03289794921875
1783169599525839600,0.994839599609375,-0.8394622802734375,-0.4828643798828125,0.0071563720703125
1783169599535818500,1.004818603515625,-0.8404388427734375,-0.5034637451171875,0.0375518798828125
1783169599545767400,1.014767333984375,-0.850341796875,-0.5220489501953125,0.0541839599609375
1783169599555715600,1.024715576171875,-0.8516387939453125,-0.5348968505859375,0.069183349609375
1783169599565664500,1.03466455078125,-0.8473663330078125,-0.5391845703125,0.0703277587890625
1783169599575643600,1.0446435546875,-0.85174560546875,-0.532318115234375,0.0583648681640625
1783169599585592600,1.054592529296875,-0.8706207275390625,-0.5225982666015625,0.0354461669921875
1783169599595541500,1.06454150390625,-0.886199951171875,-0.514556884765625,0.007049560546875
1783169599605520400,1.074520263671875,-0.87420654296875,-0.5061798095703125,-0.0174560546875
1783169599615469600,1.084469482421875,-0.8452606201171875,-0.4917755126953125,-0.0297088623046875
1783169599625417500,1.09441748046875,-0.828704833984375,-0.4837493896484375,-0.03021240234375
1783169599635366700,1.10436669921875,-0.815643310546875,-0.4860382080078125,-0.0305938720703125
1783169599645345800,1.114345703125,-0.8054046630859375,-0.4894256591796875,-0.0267486572265625
1783169599655294700,1.124294677734375,-0.7979736328125,-0.488555908203125,-0.0189208984375
1783169599665243600,1.13424365234375,-0.797271728515625,-0.484405517578125,-0.015045166015625
1783169599675222500,1.144222412109375,-0.80523681640625,-0.4839935302734375,-0.0187225341796875
1783169599685171700,1.154171630859375,-0.796722412109375,-0.4837646484375,-0.017852783203125
1783169599695120600,1.16412060546875,-0.77325439453125,-0.478729248046875,-0.012451171875
1783169599705068500,1.174068603515625,-0.741241455078125,-0.474853515625,-0.0077056884765625
1783169599715048400,1.18404833984375,-0.716766357421875,-0.4754791259765625,-0.002593994140625
1783169599724996600,1.19399658203125,-0.7126617431640625,-0.487548828125,0.00103759765625
1783169599734945500,1.203945556640625,-0.694671630859375,-0.5027008056640625,0.006500244140625
1783169599744924700,1.213924560546875,-0.6794586181640625,-0.5108184814453125,0.0111236572265625
1783169599754873600,1.22387353515625,-0.68353271484375,-0.5180206298828125,0.015350341796875
1783169599764822500,1.233822509765625,-0.69085693359375,-0.531036376953125,0.0224761962890625
1783169599774770400,1.2437705078125,-0.6900482177734375,-0.5433197021484375,0.0287628173828125
1783169599784750300,1.253750244140625,-0.6817169189453125,-0.5487518310546875,0.0330810546875
1783169599794698500,1.263698486328125,-0.6806488037109375,-0.5538787841796875,0.0418548583984375
1783169599804647700,1.273647705078125,-0.689453125,-0.5675811767578125,0.0503692626953125
1783169599814626600,1.28362646484375,-0.712188720703125,-0.5865325927734375,0.051666259765625
1783169599824575700,1.29357568359375,-0.7313690185546875,-0.60491943359375,0.0484161376953125
1783169599834524700,1.303524658203125,-0.7437286376953125,-0.6150665283203125,0.0445556640625
1783169599844473600,1.3134736328125,-0.760986328125,-0.62066650390625,0.0375213623046875
1783169599854452700,1.32345263671875,-0.783935546875,-0.62445068359375,0.03533935546875
1783169599864401700,1.333401611328125,-0.8057861328125,-0.6286468505859375,0.03570556640625
1783169599874349600,1.343349609375,-0.8166656494140625,-0.6305389404296875,0.035064697265625
1783169599884329500,1.35332958984375,-0.8165740966796875,-0.6337127685546875,0.0364227294921875
1783169599894277600,1.363277587890625,-0.8195648193359375,-0.63616943359375,0.046356201171875
1783169599904226600,1.3732265625,-0.822540283203125,-0.6446075439453125,0.0499114990234375
1783169599914175500,1.383175537109375,-0.833770751953125,-0.6572113037109375,0.04754638671875
1783169599924154600,1.393154541015625,-0.8650665283203125,-0.666229248046875,0.0358123779296875
1783169599934103600,1.403103515625,-0.89776611328125,-0.6627655029296875,0.0058441162109375
1783169599944051500,1.413051513671875,-0.8941650390625,-0.656341552734375,0.07708740234375
1783169599954000400,1.42300048828125,-0.9046478271484375,-0.6666412353515625,0.0731201171875
1783169599963979500,1.4329794921875,-0.958740234375,-0.65771484375,0.02691650390625
1783169599973928400,1.442928466796875,-0.971343994140625,-0.6376495361328125,0.0093841552734375
1783169599983877600,1.452877685546875,-0.975311279296875,-0.6277008056640625,-0.0172119140625
1783169599993856800,1.462856689453125,-0.9786224365234375,-0.619293212890625,-0.041656494140625
1783169600003805700,1.4728056640625,-0.9642486572265625,-0.605865478515625,-0.0537261962890625
1783169600013754600,1.482754638671875,-0.9395904541015625,-0.5939788818359375,-0.054901123046875
1783169600023702500,1.49270263671875,-0.9028167724609375,-0.598663330078125,-0.04718017578125
1783169600033682700,1.5026826171875,-0.8522186279296875,-0.621307373046875,-0.0183258056640625
1783169600043630600,1.512630615234375,-0.8403472900390625,-0.6430816650390625,0.011566162109375
1783169600053579500,1.52257958984375,-0.87872314453125,-0.65673828125,0.0294952392578125
1783169600063558700,1.53255859375,-0.911285400390625,-0.66912841796875,0.03546142578125
1783169600073507600,1.542507568359375,-0.9189605712890625,-0.669219970703125,0.0349578857421875
1783169600083456500,1.55245654296875,-0.946380615234375,-0.6458892822265625,0.0304107666015625
1783169600093404400,1.562404296875,-0.980255126953125,-0.6068572998046875,0.0001220703125
1783169600103384600,1.572384521484375,-0.97088623046875,-0.567901611328125,-0.0359649658203125
1783169600113332500,1.58233251953125,-0.946380615234375,-0.53125,-0.067230224609375
1783169600123281400,1.592281494140625,-0.932403564453125,-0.4917144775390625,-0.092803955078125
1783169600133260500,1.602260498046875,-0.8988037109375,-0.463165283203125,-0.1011962890625
1783169600143209500,1.61220947265625,-0.8558197021484375,-0.4526519775390625,-0.08648681640625
1783169600153158700,1.62215869140625,-0.8356475830078125,-0.4577484130859375,-0.0503692626953125
1783169600163107600,1.632107666015625,-0.835052490234375,-0.48480224609375,-0.0133819580078125
1783169600173086700,1.642086669921875,-0.831878662109375,-0.523834228515625,0.005615234375
1783169600183035600,1.65203564453125,-0.8274383544921875,-0.5478057861328125,0.0225830078125
1783169600192983600,1.661983642578125,-0.83551025390625,-0.54327392578125,0.0302886962890625
1783169600202963700,1.671963623046875,-0.85595703125,-0.5246124267578125,0.0218048095703125
1783169600212911600,1.68191162109375,-0.8821258544921875,-0.5324859619140625,0.0025634765625
1783169600222860500,1.691860595703125,-0.8622894287109375,-0.5495147705078125,-0.0093536376953125
1783169600232809500,1.7018095703125,-0.851287841796875,-0.47943115234375,-0.0204925537109375
1783169600242788600,1.71178857421875,-0.8395538330078125,-0.3986358642578125,-0.0005035400390625
1783169600252737500,1.721737548828125,-0.7431488037109375,-0.545013427734375,0.051055908203125
1783169600262713600,1.731713623046875,-0.6625213623046875,-0.731781005859375,0.08245849609375
1783169600272693800,1.74169384765625,-0.783203125,-0.63818359375,0.035919189453125
1783169600282642000,1.751641845703125,-0.8556671142578125,-0.52972412109375,-0.0255126953125
1783169600292590800,1.7615908203125,-0.7925872802734375,-0.51544189453125,-0.029296875
1783169600302539800,1.771539794921875,-0.710662841796875,-0.5295257568359375,-0.017852783203125
1783169600312519000,1.781518798828125,-0.6886138916015625,-0.5300750732421875,-0.0032501220703125
1783169600322467800,1.7914677734375,-0.6995697021484375,-0.5269927978515625,0.005706787109375
1783169600332416800,1.801416748046875,-0.6942901611328125,-0.52105712890625,0.0098724365234375
1783169600342396000,1.81139599609375,-0.65252685546875,-0.5025177001953125,0.01373291015625
1783169600352344800,1.8213447265625,-0.6068878173828125,-0.483917236328125,0.0284576416015625
1783169600362292700,1.831292724609375,-0.5759429931640625,-0.4646759033203125,0.0420074462890625
1783169600372241700,1.84124169921875,-0.5859375,-0.4639892578125,0.0352325439453125
1783169600382220800,1.851220703125,-0.652374267578125,-0.4946136474609375,-0.0026397705078125
1783169600392169700,1.861169677734375,-0.70611572265625,-0.509857177734375,-0.0400543212890625
1783169600402118700,1.87111865234375,-0.705291748046875,-0.537689208984375,-0.0645599365234375
1783169600412097800,1.881097900390625,-0.6897735595703125,-0.548919677734375,-0.0627899169921875
1783169600422046700,1.891046630859375,-0.66839599609375,-0.5338134765625,-0.0509033203125
1783169600431994600,1.90099462890625,-0.6658477783203125,-0.518829345703125,-0.0450897216796875
1783169600441943800,1.91094384765625,-0.6993560791015625,-0.52301025390625,-0.04327392578125
1783169600451923000,1.9209228515625,-0.7278289794921875,-0.5410919189453125,-0.049560546875
1783169600461871900,1.930871826171875,-0.74163818359375,-0.5537261962890625,-0.0509033203125
1783169600471820800,1.94082080078125,-0.7479248046875,-0.57611083984375,-0.05230712890625
1783169600481800000,1.950800048828125,-0.7500152587890625,-0.5998382568359375,-0.0487518310546875
1783169600491748900,1.960748779296875,-0.7774810791015625,-0.621307373046875,-0.0502166748046875
1783169600501697800,1.97069775390625,-0.8052825927734375,-0.6376190185546875,-0.0577850341796875
1783169600511645700,1.980645751953125,-0.7933349609375,-0.6303863525390625,-0.0565185546875
1783169600521625900,1.9906259765625,-0.7686004638671875,-0.616943359375,-0.053955078125
1783169600531573800,2.00057373046875,-0.778350830078125,-0.6155242919921875,-0.042999267578125
1783169600541522700,2.010522705078125,-0.81585693359375,-0.6248016357421875,-0.0298614501953125
1783169600551501800,2.020501708984375,-0.84393310546875,-0.631744384765625,-0.0170135498046875
1783169600561450800,2.03045068359375,-0.846282958984375,-0.631072998046875,-0.0120391845703125
1783169600571399700,2.040399658203125,-0.8372802734375,-0.628204345703125,-0.0123443603515625
1783169600581348900,2.050348876953125,-0.842315673828125,-0.6316986083984375,-0.013916015625
1783169600591327700,2.06032763671875,-0.85430908203125,-0.633575439453125,-0.01593017578125
1783169600601275600,2.070275634765625,-0.8514251708984375,-0.628631591796875,-0.0098724365234375
1783169600611224800,2.080224853515625,-0.85211181640625,-0.6207427978515625,-0.00994873046875
1783169600621173800,2.090173828125,-0.868560791015625,-0.6121063232421875,-0.0250244140625
1783169600631153000,2.10015283203125,-0.8834075927734375,-0.5975494384765625,-0.045166015625
1783169600641101800,2.110101806640625,-0.89288330078125,-0.5800933837890625,-0.0484771728515625
1783169600651050800,2.12005078125,-0.8691864013671875,-0.5875091552734375,-0.038238525390625
1783169600661030000,2.13002978515625,-0.8054351806640625,-0.620880126953125,0.004669189453125
1783169600670978800,2.139978759765625,-0.774566650390625,-0.6589508056640625,0.0621185302734375
1783169600680926700,2.1499267578125,-0.7981109619140625,-0.6889190673828125,0.099578857421875
1783169600690875600,2.159875732421875,-0.8636932373046875,-0.700164794921875,0.1219635009765625
1783169600700854800,2.169854736328125,-0.9559326171875,-0.69903564453125,0.1348724365234375
1783169600710803700,2.1798037109375,-1.0354156494140625,-0.6925201416015625,0.1395111083984375
1783169600720752600,2.189752685546875,-1.067169189453125,-0.6634979248046875,0.113433837890625
1783169600730731800,2.199731689453125,-1.0309600830078125,-0.600128173828125,0.0584259033203125
1783169600740680700,2.2096806640625,-0.9714813232421875,-0.5289764404296875,0.0032958984375
1783169600750629600,2.219629638671875,-0.922027587890625,-0.4819488525390625,-0.02886962890625
1783169600760577800,2.229577880859375,-0.877593994140625,-0.4672393798828125,-0.020172119140625
1783169600770556700,2.239556640625,-0.8498992919921875,-0.4755096435546875,0.0135498046875
1783169600780505900,2.249505859375,-0.830841064453125,-0.489654541015625,0.0510406494140625
1783169600790454800,2.259454833984375,-0.8255615234375,-0.5117950439453125,0.0919036865234375
1783169600800434000,2.269433837890625,-0.8341827392578125,-0.5338287353515625,0.138275146484375
1783169600810382800,2.2793828125,-0.847137451171875,-0.5377044677734375,0.1728668212890625
1783169600820331800,2.289331787109375,-0.8450927734375,-0.523223876953125,0.1790771484375
1783169600830280000,2.299280029296875,-0.8456573486328125,-0.503631591796875,0.164642333984375
1783169600840259800,2.309259765625,-0.8646240234375,-0.4915618896484375,0.13653564453125
1783169600850207700,2.319207763671875,-0.872711181640625,-0.49798583984375,0.1151885986328125
1783169600860156700,2.32915673828125,-0.864044189453125,-0.5071868896484375,0.1059722900390625
1783169600870135800,2.3391357421875,-0.844970703125,-0.498443603515625,0.1000518798828125
1783169600880084700,2.349084716796875,-0.811309814453125,-0.478546142578125,0.099395751953125
1783169600890033700,2.35903369140625,-0.76605224609375,-0.45941162109375,0.0978240966796875
1783169600899982600,2.368982666015625,-0.7258148193359375,-0.45379638671875,0.1028900146484375
1783169600909961700,2.378961669921875,-0.70928955078125,-0.4630584716796875,0.112548828125
1783169600919910700,2.38891064453125,-0.715423583984375,-0.47222900390625,0.1202239990234375
1783169600929858600,2.398858642578125,-0.7379150390625,-0.4783172607421875,0.121246337890625
1783169600939837700,2.408837646484375,-0.7447509765625,-0.4677581787109375,0.1147308349609375
1783169600949786600,2.41878662109375,-0.7507171630859375,-0.4527130126953125,0.1043853759765625
1783169600959735800,2.42873583984375,-0.7533721923828125,-0.4503631591796875,0.0904998779296875
1783169600969684700,2.438684814453125,-0.7481536865234375,-0.4542388916015625,0.090179443359375
1783169600979664000,2.448663818359375,-0.7571258544921875,-0.4631805419921875,0.101837158203125
1783169600989612800,2.45861279296875,-0.7622528076171875,-0.474884033203125,0.118621826171875
1783169600999561000,2.46856103515625,-0.761505126953125,-0.4869232177734375,0.1305999755859375
1783169601009540900,2.478540771484375,-0.7699127197265625,-0.4997711181640625,0.1370086669921875
1783169601019488800,2.48848876953125,-0.78460693359375,-0.5173797607421875,0.139404296875
1783169601029437700,2.498437744140625,-0.7895660400390625,-0.5350341796875,0.1331939697265625
1783169601039386600,2.50838671875,-0.7882843017578125,-0.5466461181640625,0.1290740966796875
1783169601049365800,2.51836572265625,-0.778839111328125,-0.5529327392578125,0.128936767578125
1783169601059314700,2.528314697265625,-0.7648468017578125,-0.5555267333984375,0.127655029296875
1783169601069263600,2.538263671875,-0.761474609375,-0.5529937744140625,0.121063232421875
1783169601079242800,2.54824267578125,-0.754364013671875,-0.548431396484375,0.106597900390625
1783169601089191700,2.558191650390625,-0.7502288818359375,-0.5463104248046875,0.093505859375
1783169601099139600,2.5681396484375,-0.7616424560546875,-0.552947998046875,0.085418701171875
1783169601109089000,2.578089111328125,-0.76995849609375,-0.56591796875,0.0835723876953125
1783169601119067600,2.588067626953125,-0.7657012939453125,-0.5832977294921875,0.0791473388671875
1783169601129016800,2.598016845703125,-0.7452392578125,-0.5902252197265625,0.0771331787109375
1783169601138965800,2.6079658203125,-0.7260894775390625,-0.585174560546875,0.0774993896484375
1783169601148945000,2.61794482421875,-0.72509765625,-0.57904052734375,0.07794189453125
1783169601158893800,2.627893798828125,-0.7358856201171875,-0.580169677734375,0.0730438232421875
1783169601168841700,2.637841796875,-0.751617431640625,-0.5831146240234375,0.066802978515625
1783169601178791000,2.647791015625,-0.7563629150390625,-0.58734130859375,0.058258056640625
1783169601188769800,2.657769775390625,-0.7681732177734375,-0.594146728515625,0.05926513671875
1783169601198718700,2.66771875,-0.7917327880859375,-0.5998077392578125,0.0599822998046875
1783169601208667600,2.677667724609375,-0.8084869384765625,-0.5992279052734375,0.0549163818359375
1783169601218646800,2.687646728515625,-0.826690673828125,-0.5886077880859375,0.05145263671875
1783169601228595700,2.697595703125,-0.8437957763671875,-0.5756072998046875,0.0445098876953125
1783169601238544600,2.707544677734375,-0.8592376708984375,-0.57110595703125,0.0363616943359375
1783169601248492800,2.717492919921875,-0.882293701171875,-0.57452392578125,0.0201263427734375
1783169601258472700,2.72747265625,-0.89666748046875,-0.579833984375,-0.0017242431640625
1783169601268450300,2.7374501953125,-0.876922607421875,-0.58233642578125,-0.0036468505859375
1783169601278399200,2.747399169921875,-0.8609771728515625,-0.5847320556640625,-0.000762939453125
1783169601288378000,2.757378173828125,-0.8824310302734375,-0.5758056640625,-0.0050506591796875
1783169601298327300,2.767327392578125,-0.9172515869140625,-0.5719146728515625,-0.0142059326171875
1783169601308276200,2.777276123046875,-0.9403228759765625,-0.5825653076171875,-0.0166778564453125
1783169601318224100,2.78722412109375,-0.9437103271484375,-0.5877685546875,-0.015899658203125
1783169601328204000,2.7972041015625,-0.95001220703125,-0.5807037353515625,-0.0181427001953125
1783169601338152200,2.807152099609375,-0.9528961181640625,-0.5653076171875,-0.0346527099609375
1783169601348101000,2.81710107421875,-0.9481353759765625,-0.5395050048828125,-0.064239501953125
1783169601358050000,2.827050048828125,-0.9475555419921875,-0.5076141357421875,-0.094879150390625
1783169601368029200,2.837029296875,-0.9504241943359375,-0.4859619140625,-0.10980224609375
1783169601377978000,2.84697802734375,-0.940948486328125,-0.4809722900390625,-0.1121673583984375
1783169601387927000,2.856927001953125,-0.9219207763671875,-0.4792327880859375,-0.1075439453125
1783169601397906200,2.86690625,-0.8945770263671875,-0.475372314453125,-0.0941925048828125
1783169601407855400,2.87685546875,-0.869537353515625,-0.4752960205078125,-0.076171875
1783169601417803000,2.886802978515625,-0.863189697265625,-0.4886932373046875,-0.067596435546875
1783169601427752200,2.896752197265625,-0.857391357421875,-0.4969329833984375,-0.0659942626953125
1783169601437731300,2.9067314453125,-0.8506317138671875,-0.4934539794921875,-0.0669708251953125
1783169601447680300,2.91668017578125,-0.8476104736328125,-0.4951629638671875,-0.0778656005859375
1783169601457629200,2.926629150390625,-0.8448638916015625,-0.49560546875,-0.0882415771484375
1783169601467608300,2.9366083984375,-0.831146240234375,-0.488739013671875,-0.094818115234375
1783169601477557200,2.94655712890625,-0.8157958984375,-0.483642578125,-0.0948028564453125
1783169601487505200,2.956505126953125,-0.8061370849609375,-0.4824066162109375,-0.093841552734375
1783169601497454000,2.9664541015625,-0.7981719970703125,-0.491485595703125,-0.086944580078125
1783169601507433200,2.97643310546875,-0.79302978515625,-0.499053955078125,-0.0711212158203125
1783169601517382100,2.986382080078125,-0.780517578125,-0.500732421875,-0.052490234375
1783169601527331000,2.9963310546875,-0.7753753662109375,-0.4986572265625,-0.035552978515625
1783169601537310200,3.006310302734375,-0.78460693359375,-0.4954986572265625,-0.031402587890625
1783169601547259100,3.016259033203125,-0.7889251708984375,-0.47601318359375,-0.0547027587890625
1783169601557208000,3.0262080078125,-0.7666473388671875,-0.4859771728515625,-0.02105712890625
1783169601567156000,3.036156005859375,-0.778717041015625,-0.4954986572265625,-0.0119171142578125
1783169601577136000,3.04613623046875,-0.790252685546875,-0.4702911376953125,-0.0116424560546875
1783169601587084000,3.056083984375,-0.7790374755859375,-0.459747314453125,-0.0354156494140625
1783169601597033200,3.066033203125,-0.7828369140625,-0.4598846435546875,-0.042633056640625
1783169601607012400,3.076012451171875,-0.7929840087890625,-0.4702911376953125,-0.0413360595703125
1783169601616961300,3.085961181640625,-0.799041748046875,-0.4810791015625,-0.0311126708984375
1783169601626910200,3.09591015625,-0.79833984375,-0.488555908203125,-0.017242431640625
1783169601636858000,3.105858154296875,-0.7845916748046875,-0.49609375,-0.01763916015625
1783169601646838300,3.11583837890625,-0.7659149169921875,-0.4983673095703125,-0.0297393798828125
1783169601656786200,3.1257861328125,-0.7555999755859375,-0.5012664794921875,-0.04559326171875
1783169601666735000,3.135735107421875,-0.7603912353515625,-0.4989776611328125,-0.0570526123046875
1783169601676714200,3.14571435546875,-0.7810211181640625,-0.50634765625,-0.06884765625
1783169601686663200,3.1556630859375,-0.78497314453125,-0.5128936767578125,-0.0684051513671875
1783169601696612000,3.165612060546875,-0.7840576171875,-0.51300048828125,-0.06817626953125
1783169601706561000,3.17556103515625,-0.794677734375,-0.51080322265625,-0.070953369140625
1783169601716540200,3.1855400390625,-0.8059844970703125,-0.51019287109375,-0.07122802734375
1783169601726489000,3.195489013671875,-0.82147216796875,-0.513153076171875,-0.0704498291015625
1783169601736437000,3.20543701171875,-0.830810546875,-0.5144500732421875,-0.065948486328125
1783169601746417200,3.215417236328125,-0.832916259765625,-0.5145263671875,-0.0648956298828125
1783169601756365000,3.225364990234375,-0.8363494873046875,-0.51861572265625,-0.070556640625
1783169601766314200,3.235314208984375,-0.8369598388671875,-0.528533935546875,-0.068817138671875
1783169601776263200,3.24526318359375,-0.84222412109375,-0.5374603271484375,-0.059661865234375
1783169601786242300,3.2552421875,-0.8551177978515625,-0.544464111328125,-0.0591888427734375
1783169601796191200,3.265191162109375,-0.864410400390625,-0.5473480224609375,-0.0628662109375
1783169601806139100,3.27513916015625,-0.8797607421875,-0.5518646240234375,-0.0592498779296875
1783169601816119300,3.285119384765625,-0.8939208984375,-0.5571746826171875,-0.048797607421875
1783169601826067200,3.295067138671875,-0.9009552001953125,-0.56365966796875,-0.0410003662109375
1783169601836016000,3.30501611328125,-0.9057464599609375,-0.5668487548828125,-0.035797119140625
1783169601845965000,3.314965087890625,-0.924774169921875,-0.5689239501953125,-0.0311431884765625
1783169601855944200,3.324944091796875,-0.942291259765625,-0.57379150390625,-0.0272064208984375
1783169601865893000,3.33489306640625,-0.949066162109375,-0.576446533203125,-0.0269927978515625
1783169601875842000,3.344842041015625,-0.953521728515625,-0.5749359130859375,-0.02911376953125
1783169601885821200,3.3548212890625,-0.9534912109375,-0.5772552490234375,-0.0290985107421875
1783169601895770000,3.36477001953125,-0.93060302734375,-0.59320068359375,-0.00469970703125
1783169601905718000,3.374718017578125,-0.9076080322265625,-0.6204833984375,0.0344085693359375
1783169601915667000,3.3846669921875,-0.9024505615234375,-0.6397552490234375,0.0717926025390625
1783169601925646000,3.39464599609375,-0.909698486328125,-0.644012451171875,0.0958251953125
1783169601935595000,3.404594970703125,-0.941375732421875,-0.640472412109375,0.108978271484375
1783169601945544200,3.414544189453125,-1.0247955322265625,-0.63482666015625,0.121337890625
1783169601955523300,3.4245234375,-1.109619140625,-0.61279296875,0.115081787109375
1783169601965472300,3.43447216796875,-1.1518402099609375,-0.5593109130859375,0.0813446044921875
1783169601975420200,3.444420166015625,-1.17572021484375,-0.5050201416015625,0.0530853271484375
1783169601985369000,3.454369140625,-1.162750244140625,-0.45379638671875,0.035247802734375
1783169601995348200,3.46434814453125,-1.1210784912109375,-0.401763916015625,0.0140380859375
1783169602005297200,3.474297119140625,-1.0903778076171875,-0.377044677734375,-0.002532958984375
1783169602015246000,3.48424609375,-1.0636138916015625,-0.378509521484375,-0.00762939453125
1783169602025195000,3.494195068359375,-1.017791748046875,-0.3875579833984375,0.017486572265625
1783169602035174100,3.504174072265625,-0.9664459228515625,-0.39215087890625,0.067657470703125
1783169602045123000,3.514123046875,-0.936920166015625,-0.397857666015625,0.1158599853515625
1783169602055071200,3.5240712890625,-0.91815185546875,-0.4007720947265625,0.155029296875
1783169602065051100,3.534051025390625,-0.8989715576171875,-0.401611328125,0.1611328125
1783169602074999000,3.5439990234375,-0.8846893310546875,-0.4013824462890625,0.1493072509765625
1783169602084948000,3.553947998046875,-0.8780975341796875,-0.395721435546875,0.1355743408203125
1783169602094897200,3.563897216796875,-0.8729248046875,-0.3887939453125,0.1229248046875
1783169602104876000,3.5738759765625,-0.8669891357421875,-0.380157470703125,0.1120452880859375
1783169602114825200,3.5838251953125,-0.855377197265625,-0.3756866455078125,0.10565185546875
1783169602124773400,3.5937734375,-0.8363494873046875,-0.3737030029296875,0.105010986328125
1783169602134753300,3.603753173828125,-0.8168487548828125,-0.3719635009765625,0.1038818359375
1783169602144701200,3.613701171875,-0.802032470703125,-0.3741455078125,0.0997772216796875
1783169602154650000,3.623650146484375,-0.779327392578125,-0.3782806396484375,0.0945281982421875
1783169602164599300,3.633599365234375,-0.75067138671875,-0.377899169921875,0.091949462890625
1783169602174578200,3.643578125,-0.7297210693359375,-0.3772125244140625,0.09521484375
1783169602184527000,3.653527099609375,-0.715484619140625,-0.3805999755859375,0.1002960205078125
1783169602194476000,3.66347607421875,-0.6981353759765625,-0.3856964111328125,0.10382080078125
1783169602204455200,3.673455078125,-0.685516357421875,-0.3875579833984375,0.1080322265625
1783169602214404000,3.683404052734375,-0.6910552978515625,-0.392303466796875,0.1095123291015625
1783169602224352000,3.69335205078125,-0.6923980712890625,-0.4020843505859375,0.1062469482421875
1783169602234301200,3.70330126953125,-0.69189453125,-0.40509033203125,0.1051788330078125
1783169602244280000,3.713280029296875,-0.6996917724609375,-0.403717041015625,0.1028594970703125
1783169602254229000,3.72322900390625,-0.71624755859375,-0.4115447998046875,0.0946197509765625
1783169602264188700,3.733188720703125,-0.7337493896484375,-0.4212646484375,0.084808349609375
1783169602274167800,3.743167724609375,-0.738861083984375,-0.42486572265625,0.076141357421875
1783169602284116700,3.75311669921875,-0.746307373046875,-0.4277801513671875,0.0725555419921875
1783169602294065700,3.763065673828125,-0.75421142578125,-0.43890380859375,0.071533203125
1783169602304013800,3.773013916015625,-0.757110595703125,-0.4519195556640625,0.0717315673828125
1783169602313992700,3.78299267578125,-0.765411376953125,-0.4605560302734375,0.07281494140625
1783169602323941600,3.792941650390625,-0.77703857421875,-0.46746826171875,0.072784423828125
1783169602333890600,3.802890625,-0.781402587890625,-0.4730682373046875,0.0695953369140625
1783169602343869700,3.81286962890625,-0.7967071533203125,-0.480621337890625,0.0687255859375
1783169602353819000,3.82281884765625,-0.8150482177734375,-0.48480224609375,0.0789337158203125
1783169602363767800,3.832767822265625,-0.824188232421875,-0.486175537109375,0.085235595703125
1783169602373716000,3.842716064453125,-0.8376007080078125,-0.4890289306640625,0.079010009765625
1783169602383696000,3.85269580078125,-0.859100341796875,-0.496551513671875,0.069671630859375
1783169602393643800,3.862643798828125,-0.8734283447265625,-0.506988525390625,0.0680389404296875
1783169602403592700,3.8725927734375,-0.89117431640625,-0.5164337158203125,0.06878662109375
1783169602413571800,3.88257177734375,-0.906524658203125,-0.52606201171875,0.0685577392578125
1783169602423520800,3.892520751953125,-0.927398681640625,-0.5316009521484375,0.0645904541015625
1783169602433469700,3.9024697265625,-0.9506988525390625,-0.532745361328125,0.0525054931640625
1783169602443418600,3.912418701171875,-0.9717254638671875,-0.5343170166015625,0.0327301025390625
1783169602453397800,3.922397705078125,-0.991790771484375,-0.53411865234375,0.011749267578125
1783169602463346700,3.9323466796875,-1.0061492919921875,-0.524566650390625,-0.0057525634765625
1783169602473294800,3.942294921875,-1.0124053955078125,-0.5109100341796875,-0.0270233154296875
1783169602483273700,3.952273681640625,-1.009124755859375,-0.501617431640625,-0.0444488525390625
1783169602493222700,3.96222265625,-1.0101165771484375,-0.4936981201171875,-0.0540008544921875
1783169602503171600,3.972171630859375,-1.009246826171875,-0.489044189453125,-0.062530517578125
1783169602513120800,3.982120849609375,-0.982879638671875,-0.4877166748046875,-0.0696563720703125
1783169602523099600,3.992099609375,-0.9379425048828125,-0.4997406005859375,-0.0651702880859375
1783169602533048800,4.002048828125,-0.9008026123046875,-0.519317626953125,-0.0474395751953125
1783169602542997000,4.0119970703125,-0.882354736328125,-0.5270538330078125,-0.0342864990234375
1783169602552977000,4.021976806640625,-0.8786773681640625,-0.532867431640625,-0.028350830078125
1783169602562924800,4.0319248046875,-0.8875885009765625,-0.54931640625,-0.0239715576171875
1783169602572873700,4.041873779296875,-0.8926544189453125,-0.5629425048828125,-0.015167236328125
1783169602582823000,4.051822998046875,-0.89739990234375,-0.5617218017578125,-0.0153961181640625
1783169602592801800,4.0618017578125,-0.9196319580078125,-0.5501861572265625,-0.0218353271484375
1783169602602750700,4.071750732421875,-0.9725494384765625,-0.5326995849609375,-0.040252685546875
1783169602612699600,4.08169970703125,-1.0169219970703125,-0.5186767578125,-0.0690155029296875
1783169602622678800,4.0916787109375,-1.031585693359375,-0.50653076171875,-0.0890350341796875
1783169602632627700,4.101627685546875,-1.041351318359375,-0.4885101318359375,-0.099609375
1783169602642575600,4.11157568359375,-1.041412353515625,-0.4583587646484375,-0.107391357421875
1783169602652524800,4.12152490234375,-1.0277557373046875,-0.430633544921875,-0.124176025390625
1783169602662503700,4.131503662109375,-0.99163818359375,-0.4177398681640625,-0.136566162109375
1783169602672452600,4.14145263671875,-0.9647979736328125,-0.420257568359375,-0.1282196044921875
1783169602682401800,4.15140185546875,-0.965576171875,-0.4269561767578125,-0.1220550537109375
1783169602692380700,4.161380615234375,-0.95977783203125,-0.42315673828125,-0.1197967529296875
1783169602702329900,4.171329833984375,-0.9463043212890625,-0.4116363525390625,-0.1149444580078125
1783169602712278000,4.181278076171875,-0.9207611083984375,-0.40301513671875,-0.1172027587890625
1783169602722227000,4.19122705078125,-0.9000701904296875,-0.39373779296875,-0.127288818359375
1783169602732205800,4.201205810546875,-0.8837127685546875,-0.3967742919921875,-0.1348419189453125
1783169602742154800,4.21115478515625,-0.8540191650390625,-0.41278076171875,-0.13421630859375
1783169602752103700,4.221103759765625,-0.8271942138671875,-0.4384765625,-0.1256103515625
1783169602762052900,4.231052978515625,-0.8111724853515625,-0.46429443359375,-0.111328125
1783169602772031700,4.24103173828125,-0.797576904296875,-0.4833526611328125,-0.096160888671875
1783169602781980700,4.250980712890625,-0.7681427001953125,-0.4914093017578125,-0.085357666015625
1783169602791928800,4.2609287109375,-0.7395477294921875,-0.4929962158203125,-0.0797271728515625
1783169602801908700,4.27090869140625,-0.72491455078125,-0.4971466064453125,-0.0752105712890625
1783169602811856600,4.280856689453125,-0.7173614501953125,-0.5086212158203125,-0.075225830078125
1783169602821805800,4.290805908203125,-0.7163238525390625,-0.5231781005859375,-0.0745697021484375
1783169602831754800,4.300754638671875,-0.7282867431640625,-0.53692626953125,-0.072601318359375
1783169602841733600,4.310733642578125,-0.743927001953125,-0.54864501953125,-0.0740814208984375
1783169602851682600,4.3206826171875,-0.7484130859375,-0.5530548095703125,-0.076812744140625
1783169602861630700,4.330630615234375,-0.7502593994140625,-0.552459716796875,-0.0772857666015625
1783169602871611000,4.34061083984375,-0.756927490234375,-0.546417236328125,-0.0749359130859375
1783169602881558800,4.350558837890625,-0.7686309814453125,-0.5391998291015625,-0.0688629150390625
1783169602891508000,4.360508056640625,-0.78192138671875,-0.5348052978515625,-0.0653839111328125
1783169602901457000,4.370456787109375,-0.7835540771484375,-0.5326080322265625,-0.06561279296875
1783169602911435800,4.380435791015625,-0.7822265625,-0.5339508056640625,-0.061553955078125
1783169602921384700,4.390384765625,-0.78057861328125,-0.5333404541015625,-0.0522003173828125
1783169602931334000,4.400333984375,-0.774383544921875,-0.5282135009765625,-0.04345703125
1783169602941312800,4.410312744140625,-0.767333984375,-0.52728271484375,-0.036346435546875
1783169602951261700,4.42026171875,-0.769378662109375,-0.5290069580078125,-0.0386199951171875
1783169602961209900,4.4302099609375,-0.7609710693359375,-0.5295867919921875,-0.0418243408203125
1783169602971158800,4.44015869140625,-0.7540740966796875,-0.5230560302734375,-0.0354766845703125
1783169602981137700,4.4501376953125,-0.75714111328125,-0.518463134765625,-0.0249176025390625
1783169602991086800,4.4600869140625,-0.7573394775390625,-0.5226898193359375,-0.016448974609375
1783169603001035800,4.470035888671875,-0.756500244140625,-0.5273284912109375,-0.0144195556640625
1783169603011014700,4.4800146484375,-0.764312744140625,-0.5237884521484375,-0.0174102783203125
1783169603020963600,4.489963623046875,-0.7703704833984375,-0.52154541015625,-0.0164794921875
1783169603030911700,4.499911865234375,-0.76507568359375,-0.5247344970703125,-0.0145721435546875
1783169603040861000,4.50986083984375,-0.7631988525390625,-0.5270843505859375,-0.012298583984375
1783169603050839600,4.519839599609375,-0.7763671875,-0.53045654296875,-0.0088043212890625
1783169603060789000,4.5297890625,-0.7825927734375,-0.5398406982421875,-0.0025634765625
1783169603070738000,4.539738037109375,-0.790679931640625,-0.548309326171875,0.0036468505859375
1783169603080716800,4.549716796875,-0.8061370849609375,-0.5530548095703125,0.0077362060546875
1783169603090665700,4.559665771484375,-0.821533203125,-0.559173583984375,0.012237548828125
1783169603100615000,4.569614990234375,-0.8347625732421875,-0.56817626953125,0.01397705078125
1783169603110562800,4.579562744140625,-0.8484344482421875,-0.57073974609375,0.0190887451171875
1783169603120542700,4.589542724609375,-0.858123779296875,-0.56842041015625,0.02587890625
1783169603130491000,4.599490966796875,-0.8512420654296875,-0.57861328125,0.0398712158203125
1783169603140439800,4.609439697265625,-0.823638916015625,-0.612640380859375,0.076568603515625
1783169603150418700,4.619418701171875,-0.8230438232421875,-0.646728515625,0.1192474365234375
1783169603160367600,4.62936767578125,-0.8701171875,-0.653594970703125,0.14178466796875
1783169603170316800,4.63931689453125,-0.940093994140625,-0.646209716796875,0.1383056640625
1783169603180264700,4.6492646484375,-1.01202392578125,-0.6400299072265625,0.1310577392578125
1783169603190244600,4.65924462890625,-1.0795135498046875,-0.625335693359375,0.124664306640625
1783169603200192800,4.66919287109375,-1.1134185791015625,-0.5849151611328125,0.1075592041015625
1783169603210142000,4.679141845703125,-1.09912109375,-0.5280609130859375,0.0733489990234375
1783169603220120600,4.68912060546875,-1.0570831298828125,-0.4638519287109375,0.0392608642578125
1783169603230069800,4.69906982421875,-1.0028533935546875,-0.4047088623046875,0.0208892822265625
1783169603240019000,4.70901904296875,-0.9472198486328125,-0.3720550537109375,0.02081298828125
1783169603249967900,4.7189677734375,-0.90032958984375,-0.3775177001953125,0.0430145263671875
1783169603259946800,4.72894677734375,-0.86395263671875,-0.40869140625,0.0839996337890625
1783169603269929700,4.7389296875,-0.8371124267578125,-0.4386749267578125,0.1206512451171875
1783169603279877600,4.748877685546875,-0.818878173828125,-0.466278076171875,0.14605712890625
1783169603289857500,4.758857421875,-0.8039703369140625,-0.4871826171875,0.1706390380859375
1783169603299805700,4.7688056640625,-0.805084228515625,-0.49658203125,0.19580078125
1783169603309754600,4.778754638671875,-0.83489990234375,-0.5031280517578125,0.2058563232421875
1783169603319703600,4.78870361328125,-0.8662567138671875,-0.4993743896484375,0.1865081787109375
1783169603329682700,4.7986826171875,-0.8784332275390625,-0.47821044921875,0.146697998046875
1783169603339631900,4.8086318359375,-0.8884735107421875,-0.4536590576171875,0.111541748046875
1783169603349579800,4.818579833984375,-0.900482177734375,-0.435516357421875,0.0839996337890625
1783169603359559700,4.8285595703125,-0.892669677734375,-0.42657470703125,0.0711517333984375
1783169603369507800,4.8385078125,-0.8734588623046875,-0.425201416015625,0.07696533203125
1783169603379456800,4.848456787109375,-0.8578033447265625,-0.424957275390625,0.090179443359375
1783169603389405700,4.85840576171875,-0.840576171875,-0.428802490234375,0.0980682373046875
1783169603399384800,4.868384765625,-0.8243255615234375,-0.435699462890625,0.09783935546875
1783169603409333800,4.878333740234375,-0.8112030029296875,-0.432830810546875,0.0918426513671875
1783169603419282700,4.88828271484375,-0.8008880615234375,-0.41888427734375,0.076629638671875
1783169603429261600,4.898261474609375,-0.783538818359375,-0.40716552734375,0.060333251953125
1783169603439210800,4.908210693359375,-0.760833740234375,-0.4023284912109375,0.05657958984375
1783169603449158700,4.91815869140625,-0.7394866943359375,-0.401641845703125,0.0669708251953125
1783169603459107600,4.928107666015625,-0.7299652099609375,-0.40643310546875,0.08331298828125
1783169603469086700,4.938086669921875,-0.7216033935546875,-0.4140625,0.098846435546875
1783169603479035600,4.94803564453125,-0.71417236328125,-0.42333984375,0.1113433837890625
1783169603488984600,4.957984619140625,-0.705078125,-0.4345855712890625,0.120361328125
1783169603498932500,4.967932373046875,-0.699676513671875,-0.4484710693359375,0.1281890869140625
1783169603508913000,4.977912841796875,-0.7044525146484375,-0.4651031494140625,0.1343231201171875
1783169603518860500,4.987860595703125,-0.704437255859375,-0.4718017578125,0.13507080078125
1783169603528809700,4.997809814453125,-0.7046356201171875,-0.46923828125,0.13299560546875
1783169603538788900,5.007788818359375,-0.7193756103515625,-0.4677734375,0.1314849853515625
1783169603548737800,5.01773779296875,-0.73529052734375,-0.4716339111328125,0.12811279296875
1783169603558686700,5.027686767578125,-0.7507781982421875,-0.4770355224609375,0.1292724609375
1783169603568635600,5.0376357421875,-0.7776336669921875,-0.481048583984375,0.131195068359375
1783169603578614800,5.04761474609375,-0.8065948486328125,-0.483734130859375,0.129913330078125
1783169603588563700,5.057563720703125,-0.8385772705078125,-0.49212646484375,0.12396240234375
1783169603598511600,5.06751171875,-0.8691558837890625,-0.4995574951171875,0.11968994140625
1783169603608491800,5.07749169921875,-0.8900604248046875,-0.5029296875,0.1161041259765625
1783169603618439700,5.087439697265625,-0.8841705322265625,-0.4983062744140625,0.1170501708984375
1783169603628388600,5.097388671875,-0.88726806640625,-0.496856689453125,0.1238555908203125
1783169603638337500,5.107337646484375,-0.9072113037109375,-0.511444091796875,0.13189697265625
1783169603648316700,5.117316650390625,-0.933929443359375,-0.5344696044921875,0.13458251953125
1783169603658265600,5.127265625,-0.961669921875,-0.5514984130859375,0.12994384765625
1783169603668213500,5.137213623046875,-0.984954833984375,-0.5611572265625,0.126373291015625
1783169603678194000,5.14719384765625,-1.0153656005859375,-0.5707855224609375,0.12213134765625
1783169603688141600,5.1571416015625,-1.0625,-0.577880859375,0.10888671875
1783169603698090800,5.1670908203125,-1.0934295654296875,-0.57830810546875,0.0898284912109375
1783169603708039700,5.177039794921875,-1.102874755859375,-0.563079833984375,0.0706939697265625
1783169603718018800,5.187018798828125,-1.108917236328125,-0.53643798828125,0.048126220703125
1783169603727967700,5.1969677734375,-1.108856201171875,-0.515838623046875,0.0223846435546875
1783169603737916700,5.206916748046875,-1.0801849365234375,-0.518218994140625,0.013916015625
1783169603747895800,5.216895751953125,-1.031982421875,-0.54345703125,0.0272064208984375
1783169603757844700,5.2268447265625,-0.9939117431640625,-0.5633697509765625,0.053375244140625
1783169603767792600,5.236792724609375,-0.984100341796875,-0.57513427734375,0.0700531005859375
1783169603777741600,5.246741455078125,-0.9831085205078125,-0.5933837890625,0.0822906494140625
1783169603787720700,5.256720703125,-0.978912353515625,-0.60858154296875,0.0937347412109375
1783169603797669600,5.266669677734375,-0.972869873046875,-0.6085205078125,0.1013031005859375
1783169603807618600,5.27661865234375,-0.9746551513671875,-0.589996337890625,0.090179443359375
1783169603817597700,5.28659765625,-0.9848785400390625,-0.5614166259765625,0.044525146484375
1783169603827546600,5.296546630859375,-0.9741973876953125,-0.53094482421875,-0.0101318359375
1783169603837495800,5.306495849609375,-0.941162109375,-0.4926300048828125,-0.0582275390625
1783169603847443500,5.316443359375,-0.914825439453125,-0.4511260986328125,-0.09503173828125
1783169603857422600,5.326422607421875,-0.887481689453125,-0.4257354736328125,-0.1147003173828125
1783169603867371800,5.336371826171875,-0.8560638427734375,-0.4235076904296875,-0.1014862060546875
1783169603877320700,5.34632080078125,-0.832550048828125,-0.4344940185546875,-0.071990966796875
1783169603887299800,5.3562998046875,-0.8203125,-0.4461822509765625,-0.049835205078125
1783169603897248800,5.366248779296875,-0.82818603515625,-0.4529571533203125,-0.03680419921875
1783169603907197700,5.37619775390625,-0.8399810791015625,-0.4573211669921875,-0.03369140625
1783169603917145900,5.386145751953125,-0.8599700927734375,-0.457977294921875,-0.046234130859375
1783169603927125800,5.396125732421875,-0.87579345703125,-0.4537353515625,-0.070098876953125
1783169603937073700,5.40607373046875,-0.8755035400390625,-0.4456024169921875,-0.0951995849609375
1783169603947022600,5.416022705078125,-0.8656158447265625,-0.436737060546875,-0.115875244140625
1783169603957001700,5.426001708984375,-0.8462371826171875,-0.4289703369140625,-0.13397216796875
1783169603966950700,5.43595068359375,-0.8250732421875,-0.4244232177734375,-0.1421661376953125
1783169603976899600,5.445899658203125,-0.8087615966796875,-0.42864990234375,-0.137420654296875
1783169603986848500,5.4558486328125,-0.780670166015625,-0.4395751953125,-0.1222686767578125
1783169603996827600,5.46582763671875,-0.7462310791015625,-0.44830322265625,-0.1020355224609375
1783169604006776800,5.47577685546875,-0.7234344482421875,-0.4539337158203125,-0.082916259765625
1783169604016724500,5.485724365234375,-0.70611572265625,-0.457366943359375,-0.06378173828125
1783169604026703600,5.49570361328125,-0.6977691650390625,-0.4631195068359375,-0.045654296875
1783169604036652800,5.50565283203125,-0.686981201171875,-0.4633331298828125,-0.032135009765625
1783169604046601700,5.515601806640625,-0.6758270263671875,-0.4580535888671875,-0.02490234375
1783169604056550700,5.525550537109375,-0.6796417236328125,-0.45703125,-0.020263671875
1783169604066529800,5.53552978515625,-0.6894073486328125,-0.458740234375,-0.0163421630859375
1783169604076478700,5.545478759765625,-0.7046051025390625,-0.4649200439453125,-0.019775390625
1783169604086426600,5.555426513671875,-0.716217041015625,-0.472015380859375,-0.03265380859375
1783169604096406800,5.56540673828125,-0.71240234375,-0.47528076171875,-0.0478057861328125
1783169604106354700,5.575354736328125,-0.70947265625,-0.478179931640625,-0.0577239990234375
1783169604116303600,5.5853037109375,-0.7124176025390625,-0.4910736083984375,-0.0610504150390625
1783169604126252500,5.59525244140625,-0.717071533203125,-0.511260986328125,-0.05963134765625
1783169604136231700,5.605231689453125,-0.7230987548828125,-0.529327392578125,-0.06317138671875
1783169604146180600,5.6151806640625,-0.7247161865234375,-0.5409698486328125,-0.073883056640625
1783169604156129500,5.625129638671875,-0.7331085205078125,-0.5492706298828125,-0.08087158203125
1783169604166077700,5.63507763671875,-0.74346923828125,-0.5625,-0.0801849365234375
1783169604176057600,5.6450576171875,-0.742706298828125,-0.5728607177734375,-0.075286865234375
1783169604186005500,5.655005615234375,-0.752349853515625,-0.5781402587890625,-0.067413330078125
1783169604195954700,5.66495458984375,-0.77020263671875,-0.583648681640625,-0.0605316162109375
1783169604205933800,5.674933837890625,-0.779937744140625,-0.587799072265625,-0.0524444580078125
1783169604215882800,5.6848828125,-0.78765869140625,-0.5908966064453125,-0.0419921875
1783169604225831700,5.694831787109375,-0.80224609375,-0.595306396484375,-0.03021240234375
1783169604235779800,5.70477978515625,-0.8214874267578125,-0.6029815673828125,-0.0172271728515625
1783169604245759700,5.714759765625,-0.8280487060546875,-0.6111602783203125,-0.0019073486328125
1783169604255707600,5.724707763671875,-0.837066650390625,-0.614593505859375,0.015533447265625
1783169604265668400,5.73466845703125,-0.85125732421875,-0.6201934814453125,0.030609130859375
1783169604275647500,5.7446474609375,-0.8608551025390625,-0.6302337646484375,0.043853759765625
1783169604285596400,5.754596435546875,-0.861572265625,-0.637451171875,0.051483154296875
1783169604295545300,5.76454541015625,-0.8652801513671875,-0.641265869140625,0.0558013916015625
1783169604305494300,5.774494384765625,-0.873138427734375,-0.6442108154296875,0.0601806640625
1783169604315473400,5.784473388671875,-0.876190185546875,-0.6463470458984375,0.06829833984375
1783169604325422300,5.79442236328125,-0.8770904541015625,-0.642669677734375,0.0758209228515625
1783169604335370200,5.804370361328125,-0.8872833251953125,-0.6348114013671875,0.0788421630859375
1783169604345350400,5.814350341796875,-0.89410400390625,-0.629150390625,0.0723419189453125
1783169604355298600,5.824298583984375,-0.889495849609375,-0.6206207275390625,0.07257080078125
1783169604365247500,5.83424755859375,-0.8826141357421875,-0.615325927734375,0.07781982421875
1783169604375196400,5.844196533203125,-0.853057861328125,-0.6216583251953125,0.1007843017578125
1783169604385175600,5.854175537109375,-0.80645751953125,-0.6460113525390625,0.1393585205078125
1783169604395124500,5.86412451171875,-0.777801513671875,-0.6679534912109375,0.18072509765625
1783169604405072400,5.874072265625,-0.760986328125,-0.6896514892578125,0.2163543701171875
1783169604415052300,5.88405224609375,-0.768524169921875,-0.7081451416015625,0.248260498046875
1783169604425000400,5.89400048828125,-0.8568115234375,-0.7183990478515625,0.2732391357421875
1783169604434949400,5.903949462890625,-1.000244140625,-0.7185821533203125,0.2733612060546875
1783169604444898300,5.913898193359375,-1.0730743408203125,-0.679931640625,0.2176971435546875
1783169604454877400,5.92387744140625,-1.077728271484375,-0.6076507568359375,0.1436767578125
1783169604464826400,5.933826416015625,-1.0652008056640625,-0.5266265869140625,0.0836334228515625
1783169604474775300,5.943775390625,-1.0362548828125,-0.4490966796875,0.018096923828125
1783169604484754400,5.95375439453125,-0.9583892822265625,-0.3811798095703125,-0.029754638671875
1783169604494703400,5.963703369140625,-0.8812255859375,-0.3382415771484375,-0.0430755615234375
1783169604504651300,5.9736513671875,-0.8476715087890625,-0.340850830078125,-0.009002685546875
1783169604514600400,5.983600341796875,-0.856597900390625,-0.3848114013671875,0.0533905029296875
1783169604524579300,5.993579345703125,-0.851104736328125,-0.43548583984375,0.1026153564453125
1783169604534528500,6.003528564453125,-0.827667236328125,-0.46600341796875,0.15509033203125
1783169604544477400,6.0134775390625,-0.8256683349609375,-0.476806640625,0.186126708984375
1783169604554456600,6.02345654296875,-0.829681396484375,-0.47882080078125,0.1866607666015625
1783169604564405500,6.033405517578125,-0.829742431640625,-0.4748992919921875,0.1657257080078125
1783169604574353400,6.043353515625,-0.842864990234375,-0.458953857421875,0.1344146728515625
1783169604584302300,6.05330224609375,-0.8564300537109375,-0.4346771240234375,0.1043701171875
1783169604594281500,6.063281494140625,-0.8536376953125,-0.4101715087890625,0.0830078125
1783169604604230400,6.07323046875,-0.8453369140625,-0.3887481689453125,0.067840576171875
1783169604614179300,6.083179443359375,-0.8438720703125,-0.375030517578125,0.0566253662109375
1783169604624158500,6.093158447265625,-0.85040283203125,-0.3737945556640625,0.0471038818359375
1783169604634107400,6.103107421875,-0.8531341552734375,-0.3751068115234375,0.0384368896484375
1783169604644056300,6.113056396484375,-0.8428955078125,-0.3740692138671875,0.035888671875
1783169604654004200,6.123004150390625,-0.8347015380859375,-0.3727569580078125,0.0396728515625
1783169604663984400,6.132984375,-0.8268280029296875,-0.3757476806640625,0.0452728271484375
1783169604673932300,6.142932373046875,-0.8230743408203125,-0.381378173828125,0.04736328125
1783169604683881500,6.152881591796875,-0.819793701171875,-0.385589599609375,0.0458526611328125
1783169604693860400,6.1628603515625,-0.8088531494140625,-0.3808135986328125,0.0384063720703125
1783169604703809500,6.1728095703125,-0.8081512451171875,-0.3717803955078125,0.02490234375
1783169604713758500,6.182758544921875,-0.822235107421875,-0.368988037109375,0.01055908203125
1783169604723706400,6.192706298828125,-0.811004638671875,-0.3752899169921875,-0.0025634765625
1783169604733686500,6.2026865234375,-0.783538818359375,-0.3910675048828125,-0.0052642822265625
1783169604743634400,6.212634521484375,-0.7693939208984375,-0.412078857421875,0.0011444091796875
1783169604753583400,6.222583251953125,-0.762542724609375,-0.4354248046875,0.0068359375
1783169604763562500,6.2325625,-0.74853515625,-0.4609375,0.010711669921875
1783169604773511400,6.242511474609375,-0.735870361328125,-0.4827728271484375,0.0161590576171875
1783169604783460400,6.25246044921875,-0.74273681640625,-0.506866455078125,0.02105712890625
1783169604793409300,6.2624091796875,-0.7585906982421875,-0.526458740234375,0.0224151611328125
1783169604803388400,6.272388427734375,-0.76873779296875,-0.5304107666015625,0.0206146240234375
1783169604813337300,6.28233740234375,-0.7775115966796875,-0.5268707275390625,0.009429931640625
1783169604823285200,6.29228515625,-0.7909393310546875,-0.5255279541015625,-0.00360107421875
1783169604833265400,6.302265380859375,-0.8067626953125,-0.529693603515625,-0.013397216796875
1783169604843213300,6.31221337890625,-0.8156585693359375,-0.5346527099609375,-0.02056884765625
1783169604853162200,6.322162353515625,-0.81878662109375,-0.5386962890625,-0.023406982421875
1783169604863111400,6.332111328125,-0.8205413818359375,-0.5468597412109375,-0.0159912109375
1783169604873090600,6.342090576171875,-0.8295135498046875,-0.556396484375,0.0000457763671875
1783169604883039500,6.35203955078125,-0.845672607421875,-0.567291259765625,0.0081024169921875
1783169604892987400,6.3619873046875,-0.8615570068359375,-0.5778961181640625,0.0092926025390625
1783169604902936600,6.3719365234375,-0.8777008056640625,-0.5848541259765625,0.01025390625
1783169604912915500,6.38191552734375,-0.8986968994140625,-0.5891571044921875,0.0016937255859375
1783169604922864400,6.391864501953125,-0.9253387451171875,-0.5925750732421875,-0.0124664306640625
1783169604932813300,6.401813232421875,-0.9515533447265625,-0.59576416015625,-0.026641845703125
1783169604942792400,6.41179248046875,-0.9725341796875,-0.600250244140625,-0.0341033935546875
1783169604952741400,6.421741455078125,-0.9954681396484375,-0.6022186279296875,-0.039337158203125
1783169604962690300,6.431690185546875,-1.0189666748046875,-0.5980987548828125,-0.0478057861328125
1783169604972638500,6.441638427734375,-1.030792236328125,-0.5950775146484375,-0.052490234375
1783169604982618400,6.451618408203125,-1.0086517333984375,-0.605682373046875,-0.0485382080078125
1783169604992566300,6.461566162109375,-0.9749755859375,-0.62860107421875,-0.024993896484375
1783169605002515200,6.47151513671875,-0.9949798583984375,-0.6524200439453125,0.0044403076171875
1783169605012494300,6.481494384765625,-1.046844482421875,-0.6741485595703125,0.01312255859375
1783169605022443300,6.491443359375,-1.0756378173828125,-0.6883392333984375,0.002532958984375
1783169605032392400,6.501392333984375,-1.1049346923828125,-0.67828369140625,-0.0218353271484375
1783169605042340600,6.511340576171875,-1.1476287841796875,-0.6439208984375,-0.0577239990234375
1783169605052320500,6.521320556640625,-1.1666107177734375,-0.59942626953125,-0.09564208984375
1783169605062268400,6.531268310546875,-1.163482666015625,-0.544647216796875,-0.144134521484375
1783169605072217300,6.54121728515625,-1.1461029052734375,-0.4813232421875,-0.1875152587890625
1783169605082196500,6.551196533203125,-1.1001434326171875,-0.429351806640625,-0.2117156982421875
1783169605092145400,6.5611455078125,-1.040283203125,-0.40093994140625,-0.21295166015625
1783169605102094300,6.57109423828125,-0.9848175048828125,-0.3885040283203125,-0.2001953125
1783169605112043300,6.581043212890625,-0.948272705078125,-0.38604736328125,-0.175323486328125
1783169605122022400,6.5910224609375,-0.922637939453125,-0.3890533447265625,-0.138153076171875
1783169605131971300,6.600971435546875,-0.8921966552734375,-0.392181396484375,-0.1105194091796875
1783169605141919500,6.61091943359375,-0.8607635498046875,-0.3942108154296875,-0.1014862060546875
1783169605151899400,6.6208994140625,-0.8503875732421875,-0.4006805419921875,-0.1002960205078125
1783169605161847300,6.630847412109375,-0.845611572265625,-0.41424560546875,-0.101654052734375
1783169605171796200,6.640796142578125,-0.839080810546875,-0.4236602783203125,-0.1044921875
1783169605181745400,6.650745361328125,-0.8270263671875,-0.4268798828125,-0.1119537353515625
1783169605191724300,6.660724365234375,-0.798797607421875,-0.4242095947265625,-0.120513916015625
1783169605201673500,6.670673583984375,-0.7678070068359375,-0.41864013671875,-0.1242218017578125
1783169605211621600,6.68062158203125,-0.7433624267578125,-0.4174346923828125,-0.12921142578125
1783169605221601500,6.6906015625,-0.726776123046875,-0.42010498046875,-0.13592529296875
1783169605231549400,6.700549560546875,-0.708465576171875,-0.4224700927734375,-0.1360626220703125
1783169605241498400,6.710498291015625,-0.710723876953125,-0.4286041259765625,-0.1413726806640625
1783169605251447600,6.720447509765625,-0.696380615234375,-0.433563232421875,-0.142791748046875
1783169605261426400,6.730426513671875,-0.670196533203125,-0.42254638671875,-0.1274566650390625
1783169605271392800,6.740392822265625,-0.6954498291015625,-0.407073974609375,-0.106597900390625
1783169605281341700,6.750341796875,-0.730316162109375,-0.4076385498046875,-0.085479736328125
1783169605291320800,6.76032080078125,-0.73394775390625,-0.4205474853515625,-0.07489013671875
1783169605301269800,6.770269775390625,-0.7372283935546875,-0.428436279296875,-0.07464599609375
1783169605311217700,6.7802177734375,-0.74957275390625,-0.426300048828125,-0.0743255615234375
1783169605321166800,6.790166748046875,-0.7647552490234375,-0.424591064453125,-0.0746307373046875
1783169605331145700,6.800145751953125,-0.7664031982421875,-0.429351806640625,-0.07513427734375
1783169605341094700,6.8100947265625,-0.7513275146484375,-0.432769775390625,-0.0840606689453125
1783169605351043800,6.8200439453125,-0.7346954345703125,-0.433380126953125,-0.095489501953125
1783169605361022700,6.830022705078125,-0.728302001953125,-0.43267822265625,-0.1053009033203125
1783169605370972000,6.839971923828125,-0.7257537841796875,-0.436492919921875,-0.1121368408203125
1783169605380919800,6.849919921875,-0.7299041748046875,-0.4474334716796875,-0.1097869873046875
1783169605390869000,6.859868896484375,-0.7353363037109375,-0.4635162353515625,-0.098297119140625
1783169605400848000,6.869847900390625,-0.7402496337890625,-0.47967529296875,-0.0875701904296875
1783169605410796800,6.879796875,-0.744415283203125,-0.494232177734375,-0.081451416015625
1783169605420745700,6.889745849609375,-0.7530975341796875,-0.502685546875,-0.0739898681640625
1783169605430724900,6.899724853515625,-0.764373779296875,-0.509490966796875,-0.073211669921875
1783169605440673800,6.909673828125,-0.7704620361328125,-0.514129638671875,-0.0746612548828125
1783169605450622700,6.919622802734375,-0.781524658203125,-0.5131072998046875,-0.0782318115234375
1783169605460571000,6.92957080078125,-0.7936859130859375,-0.5176544189453125,-0.08148193359375
1783169605470550800,6.93955078125,-0.7928009033203125,-0.521881103515625,-0.080657958984375
1783169605480498700,6.949498779296875,-0.791229248046875,-0.515716552734375,-0.076019287109375
1783169605490448000,6.95944775390625,-0.799346923828125,-0.5127105712890625,-0.068206787109375
1783169605500426800,6.9694267578125,-0.8054962158203125,-0.52197265625,-0.0518341064453125
1783169605510375700,6.979375732421875,-0.8148956298828125,-0.5330657958984375,-0.0333404541015625
1783169605520324600,6.98932470703125,-0.8305206298828125,-0.5391998291015625,-0.0186004638671875
1783169605530273800,6.999273681640625,-0.8435821533203125,-0.5404052734375,-0.010009765625
1783169605540253000,7.0092529296875,-0.8550262451171875,-0.54296875,-0.0085601806640625
1783169605550201900,7.019201904296875,-0.866180419921875,-0.541046142578125,-0.0102996826171875
1783169605560150000,7.02914990234375,-0.87982177734375,-0.532501220703125,-0.0086669921875
1783169605570129000,7.03912890625,-0.8875732421875,-0.5209197998046875,-0.007476806640625
1783169605580077800,7.049077880859375,-0.8878631591796875,-0.5094451904296875,-0.0062713623046875
1783169605590026800,7.05902685546875,-0.8884735107421875,-0.499176025390625,0.0020904541015625
1783169605599976000,7.068975830078125,-0.891632080078125,-0.4888916015625,0.0176544189453125
1783169605609954800,7.078954833984375,-0.87506103515625,-0.4937744140625,0.047515869140625
1783169605619903700,7.08890380859375,-0.8226318359375,-0.525360107421875,0.0934600830078125
1783169605629852000,7.098851806640625,-0.811614990234375,-0.5521240234375,0.1232452392578125
1783169605639800800,7.10880078125,-0.857940673828125,-0.557098388671875,0.14617919921875
1783169605649779700,7.11877978515625,-0.8999176025390625,-0.5666656494140625,0.1832733154296875
1783169605659728600,7.128728759765625,-0.9288177490234375,-0.5929412841796875,0.2243194580078125
1783169605669677800,7.138677734375,-0.978546142578125,-0.609832763671875,0.2422637939453125
1783169605679656700,7.14865673828125,-1.0628509521484375,-0.5891265869140625,0.226165771484375
1783169605689605600,7.158605712890625,-1.0980987548828125,-0.5430450439453125,0.170196533203125
1783169605699554800,7.168554931640625,-1.0390167236328125,-0.4995880126953125,0.1045989990234375
1783169605709503000,7.1785029296875,-0.9529266357421875,-0.454376220703125,0.058258056640625
1783169605719483000,7.18848291015625,-0.8787689208984375,-0.4038543701171875,0.0375213623046875
1783169605729431000,7.19843115234375,-0.82672119140625,-0.374847412109375,0.0509185791015625
1783169605739380000,7.2083798828125,-0.81268310546875,-0.38818359375,0.0919036865234375
1783169605749358800,7.21835888671875,-0.8225860595703125,-0.425079345703125,0.14031982421875
1783169605759307800,7.228307861328125,-0.8306121826171875,-0.4599151611328125,0.1953125
1783169605769256700,7.238256591796875,-0.8342437744140625,-0.484954833984375,0.2383575439453125
1783169605779204900,7.248204833984375,-0.8469085693359375,-0.496917724609375,0.25860595703125
1783169605789184800,7.258184814453125,-0.8597564697265625,-0.497314453125,0.2463531494140625
1783169605799133000,7.2681328125,-0.8807830810546875,-0.4820098876953125,0.20819091796875
1783169605809081900,7.278081787109375,-0.89776611328125,-0.463623046875,0.1593780517578125
1783169605819060700,7.288060791015625,-0.89764404296875,-0.453277587890625,0.1207275390625
1783169605829009700,7.298009765625,-0.8895416259765625,-0.4406585693359375,0.0890960693359375
1783169605838958800,7.307958740234375,-0.87322998046875,-0.423583984375,0.0668487548828125
1783169605848907800,7.31790771484375,-0.85113525390625,-0.4130706787109375,0.055023193359375
1783169605858886700,7.32788671875,-0.8264312744140625,-0.4127655029296875,0.0511932373046875
1783169605868835800,7.3378359375,-0.8065643310546875,-0.42352294921875,0.0546722412109375
1783169605878783700,7.34778369140625,-0.8038177490234375,-0.4438323974609375,0.0524139404296875
1783169605888764000,7.357763916015625,-0.8012542724609375,-0.4583587646484375,0.052154541015625
1783169605898711800,7.3677119140625,-0.799591064453125,-0.45794677734375,0.0604248046875
1783169605908661000,7.377660888671875,-0.817474365234375,-0.4503173828125,0.0653228759765625
1783169605918610000,7.38760986328125,-0.82562255859375,-0.4490814208984375,0.0654144287109375
1783169605928588800,7.3975888671875,-0.8114471435546875,-0.45220947265625,0.0609893798828125
1783169605938537700,7.407537841796875,-0.8083343505859375,-0.4494781494140625,0.048492431640625
1783169605948486000,7.41748583984375,-0.8165283203125,-0.444671630859375,0.0320587158203125
1783169605958465800,7.4274658203125,-0.8269195556640625,-0.444671630859375,0.0221710205078125
1783169605968414000,7.4374140625,-0.83355712890625,-0.454986572265625,0.0198516845703125
1783169605978363000,7.44736279296875,-0.833953857421875,-0.4738006591796875,0.025115966796875
1783169605988311800,7.457311767578125,-0.8427276611328125,-0.4933013916015625,0.036529541015625
1783169605998290700,7.467290771484375,-0.8507232666015625,-0.4972686767578125,0.04595947265625
1783169606008239900,7.477239990234375,-0.84014892578125,-0.494964599609375,0.0427703857421875
1783169606018188800,7.487188720703125,-0.832122802734375,-0.4989013671875,0.0338134765625
1783169606028167700,7.497167724609375,-0.8448486328125,-0.5097503662109375,0.0220947265625
1783169606038116900,7.507116943359375,-0.8526763916015625,-0.518524169921875,0.0047607421875
1783169606048064800,7.517064697265625,-0.8475189208984375,-0.5160369873046875,-0.01336669921875
1783169606058014000,7.527013916015625,-0.8417205810546875,-0.50994873046875,-0.0241851806640625
1783169606067992800,7.536992919921875,-0.83343505859375,-0.50689697265625,-0.031402587890625
1783169606077942000,7.54694189453125,-0.8221282958984375,-0.5085906982421875,-0.0319671630859375
1783169606087891000,7.556890869140625,-0.817962646484375,-0.5178680419921875,-0.0281982421875
1783169606097869800,7.566869873046875,-0.8182830810546875,-0.531005859375,-0.02392578125
1783169606107818800,7.57681884765625,-0.820343017578125,-0.54461669921875,-0.0184173583984375
1783169606117767000,7.586766845703125,-0.829620361328125,-0.5569915771484375,-0.019561767578125
1783169606127715800,7.5967158203125,-0.843109130859375,-0.5646209716796875,-0.03106689453125
1783169606137694700,7.60669482421875,-0.853485107421875,-0.5671844482421875,-0.0484161376953125
1783169606147644000,7.616643798828125,-0.84954833984375,-0.567474365234375,-0.0683135986328125
1783169606157592800,7.6265927734375,-0.8457794189453125,-0.5683135986328125,-0.08160400390625
1783169606167571700,7.63657177734375,-0.855255126953125,-0.5683135986328125,-0.0926055908203125
1783169606177520600,7.646520751953125,-0.8682403564453125,-0.56524658203125,-0.108123779296875
1783169606187469800,7.6564697265625,-0.8755340576171875,-0.566162109375,-0.1095733642578125
1783169606197417700,7.666417724609375,-0.8774261474609375,-0.593414306640625,-0.089111328125
1783169606207398000,7.67639794921875,-0.891632080078125,-0.6282806396484375,-0.0672149658203125
1783169606217345800,7.686345703125,-0.929290771484375,-0.64422607421875,-0.0637359619140625
1783169606227295000,7.696294921875,-0.9705352783203125,-0.6564483642578125,-0.075592041015625
1783169606237273900,7.70627392578125,-1.002593994140625,-0.6713104248046875,-0.0932159423828125
1783169606247222800,7.716222900390625,-1.020294189453125,-0.665283203125,-0.1119537353515625
1783169606257172000,7.726171875,-1.037872314453125,-0.6353302001953125,-0.134918212890625
1783169606267151000,7.736151123046875,-1.055206298828125,-0.5894012451171875,-0.169158935546875
1783169606277131000,7.746131103515625,-1.0206756591796875,-0.5411224365234375,-0.20660400390625
1783169606287079200,7.7560791015625,-0.9536285400390625,-0.496002197265625,-0.2349090576171875
1783169606297028000,7.766028076171875,-0.9081573486328125,-0.45806884765625,-0.2413330078125
1783169606307007000,7.776007080078125,-0.8781280517578125,-0.443939208984375,-0.2097625732421875
1783169606316956200,7.7859560546875,-0.86883544921875,-0.46002197265625,-0.159576416015625
1783169606326905000,7.795905029296875,-0.8763580322265625,-0.4789276123046875,-0.130462646484375
1783169606336854000,7.80585400390625,-0.8732757568359375,-0.4856414794921875,-0.1247406005859375
1783169606346833000,7.8158330078125,-0.847900390625,-0.4810943603515625,-0.12646484375
1783169606356782000,7.825781982421875,-0.8154296875,-0.46807861328125,-0.1252593994140625
1783169606366730000,7.83572998046875,-0.7975921630859375,-0.45928955078125,-0.1240081787109375
1783169606376679000,7.845678955078125,-0.78753662109375,-0.465118408203125,-0.128936767578125
1783169606386658000,7.855657958984375,-0.7756805419921875,-0.480987548828125,-0.1351165771484375
1783169606396607000,7.86560693359375,-0.7587738037109375,-0.4963836669921875,-0.14093017578125
1783169606406556200,7.87555615234375,-0.7436981201171875,-0.5026092529296875,-0.141082763671875
1783169606416535000,7.88553515625,-0.7391510009765625,-0.5086517333984375,-0.137939453125
1783169606426484200,7.895484130859375,-0.7388916015625,-0.5189361572265625,-0.1339874267578125
1783169606436432100,7.90543212890625,-0.736358642578125,-0.5289154052734375,-0.13311767578125
1783169606446381000,7.915381103515625,-0.73052978515625,-0.52923583984375,-0.1345977783203125
1783169606456360200,7.925360107421875,-0.7275848388671875,-0.52508544921875,-0.134735107421875
1783169606466309000,7.93530908203125,-0.726654052734375,-0.5207061767578125,-0.13623046875
1783169606476258000,7.945258056640625,-0.7301483154296875,-0.51971435546875,-0.1396026611328125
1783169606486237000,7.95523681640625,-0.73162841796875,-0.519287109375,-0.140960693359375
1783169606496186000,7.96518603515625,-0.722625732421875,-0.513763427734375,-0.1337127685546875
1783169606506135000,7.975135009765625,-0.7224578857421875,-0.50677490234375,-0.123748779296875
1783169606516083000,7.9850830078125,-0.7238311767578125,-0.5035400390625,-0.117706298828125
1783169606526062800,7.995062744140625,-0.722869873046875,-0.50567626953125,-0.1139068603515625
1783169606536011000,8.005010986328125,-0.724639892578125,-0.5121917724609375,-0.1114959716796875
1783169606545960000,8.0149599609375,-0.73388671875,-0.5203857421875,-0.111968994140625
1783169606555939000,8.02493896484375,-0.742431640625,-0.5264434814453125,-0.1182403564453125
1783169606565888000,8.034887939453125,-0.741851806640625,-0.5306396484375,-0.128387451171875
1783169606575837200,8.044837158203125,-0.7458343505859375,-0.5346527099609375,-0.13836669921875
1783169606585784800,8.054784912109374,-0.747955322265625,-0.5393218994140625,-0.14910888671875
1783169606595765000,8.064764892578125,-0.737579345703125,-0.5419158935546875,-0.1596527099609375
1783169606605713200,8.074713134765625,-0.7314300537109375,-0.5414886474609375,-0.168365478515625
1783169606615662000,8.084662109375,-0.7398529052734375,-0.5482635498046875,-0.1755218505859375
1783169606625641200,8.09464111328125,-0.74359130859375,-0.5610198974609375,-0.1793212890625
1783169606635590100,8.104590087890625,-0.73785400390625,-0.5673828125,-0.17486572265625
1783169606645539000,8.1145390625,-0.74468994140625,-0.5715179443359375,-0.165618896484375
1783169606655488000,8.124488037109375,-0.7579498291015625,-0.5819549560546875,-0.152374267578125
1783169606665467100,8.134467041015625,-0.767852783203125,-0.5966339111328125,-0.1430206298828125
1783169606675416000,8.144416015625,-0.7757568359375,-0.603179931640625,-0.1328125
1783169606685364000,8.154364013671875,-0.784515380859375,-0.6071014404296875,-0.119354248046875
1783169606695343900,8.16434375,-0.7893829345703125,-0.6095428466796875,-0.1103668212890625
1783169606705292000,8.1742919921875,-0.8026580810546875,-0.612884521484375,-0.1038970947265625
1783169606715241000,8.184240966796875,-0.81744384765625,-0.62109375,-0.0981597900390625
1783169606725190000,8.19418994140625,-0.832672119140625,-0.62823486328125,-0.09112548828125
1783169606735169000,8.2041689453125,-0.85772705078125,-0.6303558349609375,-0.08935546875
1783169606745118200,8.2141181640625,-0.872039794921875,-0.6265106201171875,-0.09197998046875
1783169606755065900,8.22406591796875,-0.8724212646484375,-0.6172943115234375,-0.0909271240234375
1783169606765046000,8.2340458984375,-0.8751220703125,-0.6035919189453125,-0.0861053466796875
1783169606774994200,8.243994140625,-0.8780364990234375,-0.596099853515625,-0.081268310546875
1783169606784943000,8.253943115234375,-0.8677520751953125,-0.6038818359375,-0.0741424560546875
1783169606794892000,8.26389208984375,-0.836578369140625,-0.635711669921875,-0.0350494384765625
1783169606804871200,8.27387109375,-0.8129119873046875,-0.6854095458984375,0.025115966796875
1783169606814820000,8.283820068359375,-0.8306884765625,-0.708831787109375,0.0605010986328125
1783169606824769000,8.29376904296875,-0.9096832275390625,-0.7085723876953125,0.079803466796875
1783169606834748000,8.303747802734375,-1.02398681640625,-0.7196197509765625,0.09100341796875
1783169606844697000,8.313697021484375,-1.12078857421875,-0.7178955078125,0.06365966796875
1783169606854645000,8.32364501953125,-1.1604461669921875,-0.664947509765625,-0.000274658203125
1783169606864594000,8.333593994140625,-1.117919921875,-0.5878753662109375,-0.0648040771484375
1783169606874573000,8.343572998046875,-1.0117340087890625,-0.4948272705078125,-0.1211700439453125
1783169606884522000,8.35352197265625,-0.9005584716796875,-0.404144287109375,-0.154693603515625
1783169606894471000,8.363470947265625,-0.8303070068359375,-0.3599700927734375,-0.1357421875
1783169606904450000,8.373449951171875,-0.80596923828125,-0.387237548828125,-0.067413330078125
1783169606914399200,8.383399169921875,-0.811065673828125,-0.446868896484375,0.0004730224609375
1783169606924347000,8.393346923828124,-0.8136138916015625,-0.4987030029296875,0.061920166015625
1783169606934296000,8.403296142578125,-0.798675537109375,-0.534759521484375,0.1193389892578125
1783169606944275200,8.413275146484375,-0.7855682373046875,-0.5556793212890625,0.154693603515625
1783169606954224000,8.42322412109375,-0.7844696044921875,-0.559356689453125,0.165802001953125
1783169606964173000,8.433173095703125,-0.79840087890625,-0.548736572265625,0.1516265869140625
1783169606974152200,8.443152099609375,-0.823883056640625,-0.5303802490234375,0.1089630126953125
1783169606984101000,8.45310107421875,-0.8441162109375,-0.5066375732421875,0.054168701171875
1783169606994050000,8.463050048828125,-0.8604278564453125,-0.4837646484375,0.013397216796875
1783169607003998000,8.472998046875,-0.8680267333984375,-0.464691162109375,-0.0206451416015625
1783169607013978000,8.48297802734375,-0.8576812744140625,-0.4569854736328125,-0.04693603515625
1783169607023926000,8.492926025390625,-0.8409881591796875,-0.458953857421875,-0.0661773681640625
1783169607033875000,8.502875,-0.8262939453125,-0.4616851806640625,-0.0727996826171875
1783169607043823900,8.512823974609375,-0.82183837890625,-0.470794677734375,-0.0666046142578125
1783169607053803000,8.522802978515625,-0.8181915283203125,-0.485748291015625,-0.0544281005859375
1783169607063752000,8.532751953125,-0.8085479736328125,-0.4904327392578125,-0.03924560546875
1783169607073701000,8.542701171875,-0.8004302978515625,-0.4896392822265625,-0.0290679931640625
1783169607083680000,8.552679931640625,-0.7844390869140625,-0.487945556640625,-0.0250396728515625
1783169607093628000,8.5626279296875,-0.767425537109375,-0.485443115234375,-0.0177154541015625
1783169607103577000,8.5725771484375,-0.7620697021484375,-0.4854888916015625,-0.006439208984375
1783169607113526000,8.582526123046875,-0.7562408447265625,-0.485107421875,0.0041961669921875
1783169607123505200,8.592505126953125,-0.7483062744140625,-0.4854888916015625,0.0125579833984375
1783169607133454000,8.6024541015625,-0.7423095703125,-0.4849853515625,0.0251312255859375
1783169607143403000,8.612403076171875,-0.7418212890625,-0.4876861572265625,0.0382080078125
1783169607153382100,8.622382080078125,-0.7360992431640625,-0.4958953857421875,0.052459716796875
1783169607163331000,8.6323310546875,-0.7348175048828125,-0.5037078857421875,0.0648956298828125
1783169607173279000,8.642279052734375,-0.744476318359375,-0.5137481689453125,0.07623291015625
1783169607183228000,8.652227783203125,-0.7644195556640625,-0.527191162109375,0.081695556640625
1783169607193207000,8.66220703125,-0.7845916748046875,-0.5398712158203125,0.08013916015625
1783169607203156000,8.672156005859375,-0.80859375,-0.547760009765625,0.066131591796875
1783169607213105000,8.68210498046875,-0.83843994140625,-0.5507659912109375,0.0386505126953125
1783169607223084000,8.692083984375,-0.855194091796875,-0.550140380859375,0.0140838623046875
1783169607233033000,8.702032958984375,-0.856903076171875,-0.54656982421875,0.001434326171875
1783169607242982000,8.71198193359375,-0.852813720703125,-0.54132080078125,-0.0047607421875
1783169607252930000,8.721929931640625,-0.8568878173828125,-0.54180908203125,-0.006500244140625
1783169607262910200,8.73191015625,-0.868927001953125,-0.551971435546875,-0.01019287109375
1783169607272887300,8.74188720703125,-0.8705902099609375,-0.570587158203125,-0.0182647705078125
1783169607282836200,8.751836181640625,-0.8665618896484375,-0.58282470703125,-0.025787353515625
1783169607292815000,8.761815185546874,-0.85595703125,-0.5861358642578125,-0.03076171875
1783169607302764300,8.771764404296874,-0.8531494140625,-0.586639404296875,-0.037109375
1783169607312713500,8.78171337890625,-0.8660125732421875,-0.587890625,-0.055816650390625
1783169607322661000,8.7916611328125,-0.8799591064453125,-0.5891265869140625,-0.0780487060546875
1783169607332641300,8.801641357421875,-0.883880615234375,-0.5845489501953125,-0.1024627685546875
1783169607342589400,8.81158935546875,-0.8814697265625,-0.5751800537109375,-0.1264190673828125
1783169607352538400,8.821538330078125,-0.87921142578125,-0.56317138671875,-0.1455078125
1783169607362517200,8.831517333984374,-0.8780517578125,-0.556121826171875,-0.1513519287109375
1783169607372466400,8.841466552734374,-0.871307373046875,-0.57464599609375,-0.13616943359375
1783169607382415400,8.851415283203124,-0.8566741943359375,-0.6105804443359375,-0.1135101318359375
1783169607392364300,8.8613642578125,-0.8734130859375,-0.616363525390625,-0.121307373046875
1783169607402343200,8.87134326171875,-0.90924072265625,-0.6049041748046875,-0.1435699462890625
1783169607412292400,8.881292236328125,-0.9377899169921875,-0.6085968017578125,-0.161468505859375
1783169607422240300,8.891240234375,-0.957305908203125,-0.618438720703125,-0.1833038330078125
1783169607432220200,8.90122021484375,-0.992645263671875,-0.6115264892578125,-0.2089080810546875
1783169607442168300,8.911168212890624,-1.027618408203125,-0.58734130859375,-0.236328125
1783169607452117200,8.9211171875,-1.0282745361328125,-0.5488128662109375,-0.2703399658203125
1783169607462066200,8.931066162109374,-0.988677978515625,-0.504730224609375,-0.2994537353515625
1783169607472045000,8.941045166015625,-0.9262237548828125,-0.4666595458984375,-0.316986083984375
1783169607481994500,8.950994384765625,-0.8774261474609375,-0.44384765625,-0.3125762939453125
1783169607491942100,8.960942138671875,-0.8545074462890625,-0.44525146484375,-0.27252197265625
1783169607501922300,8.97092236328125,-0.8430938720703125,-0.4686431884765625,-0.2236785888671875
1783169607511870500,8.980870361328124,-0.833251953125,-0.484375,-0.1925048828125
1783169607521819400,8.9908193359375,-0.8155517578125,-0.49664306640625,-0.1755523681640625
1783169607531768300,9.000768310546874,-0.8026275634765625,-0.5012359619140625,-0.1646728515625
1783169607541747500,9.01074755859375,-0.803863525390625,-0.4956817626953125,-0.164093017578125
1783169607551696400,9.0206962890625,-0.8097381591796875,-0.4898529052734375,-0.18487548828125
1783169607561645300,9.030645263671875,-0.8098297119140625,-0.484130859375,-0.214813232421875
1783169607571624200,9.040624267578124,-0.80169677734375,-0.4759979248046875,-0.23382568359375
1783169607581573000,9.050572998046874,-0.7877044677734375,-0.4671478271484375,-0.245147705078125
1783169607591521300,9.060521240234374,-0.76092529296875,-0.462493896484375,-0.251312255859375
1783169607601470200,9.07047021484375,-0.746124267578125,-0.4649505615234375,-0.24639892578125
1783169607611449300,9.080449462890625,-0.7325897216796875,-0.4803619384765625,-0.228485107421875
1783169607621398300,9.090398193359375,-0.71234130859375,-0.49542236328125,-0.204833984375
1783169607631347200,9.10034716796875,-0.7066497802734375,-0.502410888671875,-0.182342529296875
1783169607641326000,9.110326171875,-0.7064208984375,-0.5076141357421875,-0.1690826416015625
1783169607651275500,9.120275634765624,-0.6962432861328125,-0.508819580078125,-0.1656036376953125
1783169607661223200,9.13022314453125,-0.6909942626953125,-0.505889892578125,-0.1650390625
1783169607671172400,9.14017236328125,-0.695343017578125,-0.50604248046875,-0.16241455078125
1783169607681151500,9.1501513671875,-0.7023773193359375,-0.5079803466796875,-0.160400390625
1783169607691100400,9.160100341796875,-0.7144012451171875,-0.510284423828125,-0.1609344482421875
1783169607701049300,9.17004931640625,-0.728515625,-0.51507568359375,-0.1667022705078125
1783169607711028200,9.1800283203125,-0.731048583984375,-0.516632080078125,-0.1714935302734375
1783169607720977400,9.189977294921874,-0.729522705078125,-0.516571044921875,-0.1719512939453125
1783169607730926300,9.19992626953125,-0.7297515869140625,-0.5213165283203125,-0.173431396484375
1783169607740874200,9.209874267578124,-0.726226806640625,-0.5288848876953125,-0.175048828125
1783169607750854100,9.219854248046875,-0.7205657958984375,-0.5362701416015625,-0.1754302978515625
1783169607760802300,9.22980224609375,-0.7218780517578125,-0.5389556884765625,-0.173004150390625
1783169607770751200,9.239751220703125,-0.723297119140625,-0.5406494140625,-0.1754608154296875
1783169607780700200,9.2497001953125,-0.7237701416015625,-0.544769287109375,-0.1820220947265625
1783169607790679300,9.25967919921875,-0.7280426025390625,-0.5471649169921875,-0.1898345947265625
1783169607800628200,9.269628173828124,-0.7302093505859375,-0.5485687255859375,-0.1895294189453125
1783169607810576100,9.279576171875,-0.73638916015625,-0.550628662109375,-0.1834259033203125
1783169607820556300,9.289556396484375,-0.7442779541015625,-0.5531158447265625,-0.1787261962890625
1783169607830504200,9.299504150390625,-0.7457427978515625,-0.55755615234375,-0.168792724609375
1783169607840453400,9.309453369140625,-0.7481689453125,-0.5673980712890625,-0.15277099609375
1783169607850402300,9.31940234375,-0.760711669921875,-0.580780029296875,-0.1328277587890625
1783169607860381400,9.32938134765625,-0.77667236328125,-0.5914764404296875,-0.112152099609375
1783169607870330400,9.339330322265624,-0.785003662109375,-0.603302001953125,-0.0933380126953125
1783169607880279300,9.349279296875,-0.7921142578125,-0.615692138671875,-0.07330322265625
1783169607890258400,9.359258544921875,-0.812255859375,-0.620635986328125,-0.051788330078125
1783169607900207400,9.369207275390625,-0.829620361328125,-0.6177978515625,-0.0355682373046875
1783169607910155300,9.3791552734375,-0.839385986328125,-0.6110687255859375,-0.027740478515625
1783169607920104200,9.389104248046875,-0.856414794921875,-0.603485107421875,-0.02166748046875
1783169607930083300,9.399083251953124,-0.8760986328125,-0.597991943359375,-0.0200653076171875
1783169607940032300,9.4090322265625,-0.8739166259765625,-0.6073150634765625,-0.0028839111328125
1783169607949981200,9.418981201171874,-0.843170166015625,-0.64825439453125,0.049652099609375
1783169607959960300,9.428960205078125,-0.84765625,-0.681915283203125,0.09771728515625
1783169607969909200,9.4389091796875,-0.9050750732421875,-0.6798858642578125,0.1138458251953125
1783169607979857200,9.448857177734375,-1.01312255859375,-0.6735687255859375,0.113861083984375
1783169607989806000,9.45880615234375,-1.156524658203125,-0.680389404296875,0.1114654541015625
1783169607999785200,9.46878515625,-1.244598388671875,-0.6585235595703125,0.0696868896484375
1783169608009734400,9.478734375,-1.23150634765625,-0.587158203125,0.008453369140625
1783169608019683300,9.488683349609374,-1.18560791015625,-0.494354248046875,-0.0489044189453125
1783169608029662500,9.498662353515625,-1.1170196533203125,-0.416107177734375,-0.0898284912109375
1783169608039611400,9.508611328125,-1.028717041015625,-0.3744354248046875,-0.0933837890625
1783169608049560300,9.518560302734375,-0.95941162109375,-0.380340576171875,-0.04046630859375
1783169608059508200,9.52850830078125,-0.9312896728515625,-0.417022705078125,0.0407257080078125
1783169608069488400,9.53848828125,-0.9253997802734375,-0.4629364013671875,0.119110107421875
1783169608079436300,9.548436279296874,-0.9383087158203125,-0.5059051513671875,0.1927337646484375
1783169608089385200,9.55838525390625,-0.9490203857421875,-0.5354461669921875,0.2369842529296875
1783169608099364400,9.5683642578125,-0.940582275390625,-0.542999267578125,0.2376556396484375
1783169608109313300,9.578313232421875,-0.937042236328125,-0.5148162841796875,0.1945037841796875
1783169608119262200,9.58826220703125,-0.9540863037109375,-0.46600341796875,0.1299896240234375
1783169608129210000,9.598210205078125,-0.95343017578125,-0.4338836669921875,0.0825958251953125
1783169608139190300,9.608190185546874,-0.9305877685546875,-0.413726806640625,0.0477142333984375
1783169608149138200,9.61813818359375,-0.8985595703125,-0.39678955078125,0.025665283203125
1783169608159087000,9.628087158203124,-0.8599090576171875,-0.3907470703125,0.0221405029296875
1783169608169066200,9.638066162109375,-0.8245697021484375,-0.4033660888671875,0.03564453125
1783169608179015200,9.64801513671875,-0.7878570556640625,-0.4232940673828125,0.05291748046875
1783169608188964400,9.65796435546875,-0.7606201171875,-0.43414306640625,0.0656890869140625
1783169608198913300,9.667913330078125,-0.7486419677734375,-0.43817138671875,0.07635498046875
1783169608208892400,9.677892333984374,-0.7402191162109375,-0.4429168701171875,0.086456298828125
1783169608218841300,9.68784130859375,-0.7366943359375,-0.4423675537109375,0.08306884765625
1783169608228789200,9.697789306640624,-0.733673095703125,-0.4319305419921875,0.0691375732421875
1783169608238769400,9.707769287109375,-0.7333526611328125,-0.42333984375,0.056640625
1783169608248717300,9.71771728515625,-0.73577880859375,-0.4194793701171875,0.0454254150390625
1783169608258666200,9.727666259765625,-0.735076904296875,-0.41845703125,0.0312652587890625
1783169608268640500,9.737640625,-0.7350311279296875,-0.4217529296875,0.024322509765625
1783169608278619600,9.74761962890625,-0.735076904296875,-0.4296722412109375,0.023284912109375
1783169608288568600,9.757568603515624,-0.73126220703125,-0.443023681640625,0.0246734619140625
1783169608298516500,9.7675166015625,-0.725006103515625,-0.4558258056640625,0.024566650390625
1783169608308496400,9.777496337890625,-0.7319488525390625,-0.4673004150390625,0.0211639404296875
1783169608318444500,9.787444580078125,-0.7476959228515625,-0.4804534912109375,0.0128021240234375
1783169608328393500,9.7973935546875,-0.760650634765625,-0.494140625,0.0036163330078125
1783169608338342400,9.80734228515625,-0.7752532958984375,-0.50341796875,0.0010833740234375
1783169608348321500,9.817321533203126,-0.794036865234375,-0.504852294921875,-0.0027923583984375
1783169608358270700,9.827270751953124,-0.8017425537109375,-0.5096282958984375,-0.012481689453125
1783169608368219600,9.8372197265625,-0.799530029296875,-0.52410888671875,-0.0277099609375
1783169608378198500,9.847198486328125,-0.787689208984375,-0.53704833984375,-0.0377349853515625
1783169608388147700,9.857147705078125,-0.799072265625,-0.545379638671875,-0.033843994140625
1783169608398095600,9.867095703125,-0.816925048828125,-0.566497802734375,-0.020751953125
1783169608408044500,9.87704443359375,-0.8108062744140625,-0.5853424072265625,-0.0079498291015625
1783169608418023700,9.887023681640626,-0.8083648681640625,-0.5892181396484375,0
1783169608427972600,9.89697265625,-0.816619873046875,-0.5882110595703125,0.0039215087890625
1783169608437921500,9.906921630859374,-0.83013916015625,-0.59259033203125,0.0067291259765625
1783169608447900400,9.916900390625,-0.8589630126953125,-0.5986785888671875,0.0045318603515625
1783169608457849600,9.926849609375,-0.8874664306640625,-0.607696533203125,-0.00006103515625
1783169608467797500,9.936797607421875,-0.9033203125,-0.6056060791015625,-0.006011962890625
1783169608477746400,9.946746337890625,-0.914642333984375,-0.5952606201171875,-0.0210418701171875
1783169608487725600,9.9567255859375,-0.917877197265625,-0.5879974365234375,-0.0478668212890625
1783169608497674500,9.966674560546876,-0.9276580810546875,-0.5828704833984375,-0.085540771484375
1783169608507623400,9.97662353515625,-0.9207611083984375,-0.5805816650390625,-0.1103668212890625
1783169608517572600,9.986572509765624,-0.8903350830078125,-0.5944366455078125,-0.1135101318359375
1783169608527551500,9.996551513671875,-0.89520263671875,-0.611358642578125,-0.0984954833984375
1783169608537500700,10.006500732421875,-0.936767578125,-0.6161041259765625,-0.0798492431640625
1783169608547448600,10.016448486328125,-0.97064208984375,-0.6168212890625,-0.075347900390625
1783169608557428500,10.026428466796874,-0.9897003173828125,-0.6114349365234375,-0.0876007080078125
1783169608567376600,10.036376708984376,-1.023223876953125,-0.587554931640625,-0.108245849609375
1783169608577325600,10.04632568359375,-1.05804443359375,-0.5506591796875,-0.1302642822265625
1783169608587274500,10.0562744140625,-1.05511474609375,-0.5038299560546875,-0.1568145751953125
1783169608597253600,10.066253662109375,-1.021575927734375,-0.450286865234375,-0.1869049072265625
1783169608607202600,10.07620263671875,-0.9697723388671875,-0.3974761962890625,-0.21307373046875
1783169608617151500,10.0861513671875,-0.9072418212890625,-0.3594818115234375,-0.2241973876953125
1783169608627130600,10.096130615234374,-0.852142333984375,-0.351654052734375,-0.2033538818359375
1783169608637078500,10.10607861328125,-0.8312225341796875,-0.37091064453125,-0.1587066650390625
1783169608647027500,10.11602734375,-0.8325042724609375,-0.3901519775390625,-0.1181182861328125
1783169608656976400,10.125976318359376,-0.836181640625,-0.403656005859375,-0.090118408203125
1783169608666955500,10.13595556640625,-0.832061767578125,-0.4162750244140625,-0.0706787109375
1783169608676904400,10.145904541015625,-0.8249969482421875,-0.4284820556640625,-0.0612030029296875
1783169608686853600,10.155853515625,-0.82073974609375,-0.442138671875,-0.0664520263671875
1783169608696832500,10.16583251953125,-0.826812744140625,-0.443267822265625,-0.0848846435546875
1783169608706781700,10.17578173828125,-0.8481292724609375,-0.4430084228515625,-0.110107421875
1783169608716729600,10.1857294921875,-0.8506927490234375,-0.4455413818359375,-0.13006591796875
1783169608726678500,10.195678466796876,-0.82977294921875,-0.4466552734375,-0.137908935546875
1783169608736657700,10.20565771484375,-0.8014068603515625,-0.4447784423828125,-0.1318817138671875
1783169608746606600,10.215606689453125,-0.77362060546875,-0.451690673828125,-0.110565185546875
1783169608756555500,10.225555419921875,-0.751953125,-0.4676361083984375,-0.089080810546875
1783169608766534700,10.23553466796875,-0.7482452392578125,-0.484771728515625,-0.0703582763671875
1783169608776483600,10.245483642578124,-0.759368896484375,-0.4999542236328125,-0.053619384765625
1783169608786432500,10.2554326171875,-0.7595367431640625,-0.51287841796875,-0.0397796630859375
1783169608796380400,10.26538037109375,-0.7459259033203125,-0.5141143798828125,-0.0324554443359375
1783169608806360600,10.275360595703125,-0.7466583251953125,-0.5077972412109375,-0.0355224609375
1783169608816308500,10.28530859375,-0.7554779052734375,-0.5025177001953125,-0.03594970703125
1783169608826257400,10.29525732421875,-0.760009765625,-0.5024871826171875,-0.0338592529296875
1783169608836236500,10.305236572265626,-0.766754150390625,-0.504364013671875,-0.039459228515625
1783169608846185500,10.315185546875,-0.7642059326171875,-0.5096588134765625,-0.046112060546875
1783169608856134400,10.325134521484374,-0.7594451904296875,-0.512054443359375,-0.049407958984375
1783169608866082300,10.335082275390626,-0.7649383544921875,-0.515533447265625,-0.0508270263671875
1783169608876062700,10.345062744140625,-0.7700958251953125,-0.5211639404296875,-0.052459716796875
1783169608886010600,10.3550107421875,-0.7641448974609375,-0.5257110595703125,-0.052734375
1783169608895959600,10.36495947265625,-0.7629241943359375,-0.5312957763671875,-0.0546112060546875
1783169608905938700,10.374938720703126,-0.7694549560546875,-0.538787841796875,-0.0589752197265625
1783169608915887600,10.3848876953125,-0.7764434814453125,-0.5449371337890625,-0.0598907470703125
1783169608925836500,10.39483642578125,-0.780181884765625,-0.5495758056640625,-0.060150146484375
1783169608935785500,10.404785400390624,-0.7902679443359375,-0.553619384765625,-0.06024169921875
1783169608945764600,10.4147646484375,-0.7963714599609375,-0.5555877685546875,-0.065032958984375
1783169608955713500,10.424713623046875,-0.7911376953125,-0.550994873046875,-0.0704498291015625
1783169608965661400,10.434661376953125,-0.790802001953125,-0.54791259765625,-0.071502685546875
1783169608975641600,10.4446416015625,-0.7913665771484375,-0.5482940673828125,-0.0669708251953125
1783169608985589500,10.454589599609376,-0.79205322265625,-0.5509796142578125,-0.0603179931640625
1783169608995538400,10.464538330078126,-0.7977142333984375,-0.558441162109375,-0.0504608154296875
1783169609005487400,10.4744873046875,-0.796783447265625,-0.57049560546875,-0.0380706787109375
1783169609015466500,10.484466552734375,-0.7940216064453125,-0.580291748046875,-0.0276947021484375
1783169609025415400,10.49441552734375,-0.7919158935546875,-0.5838623046875,-0.0186767578125
1783169609035363300,10.50436328125,-0.8010711669921875,-0.58648681640625,-0.0107574462890625
1783169609045343700,10.51434375,-0.817352294921875,-0.5989532470703125,-0.005096435546875
1783169609055291400,10.52429150390625,-0.8409576416015625,-0.611053466796875,-0.0016021728515625
1783169609065240600,10.534240478515626,-0.86993408203125,-0.6126861572265625,0.001678466796875
1783169609075189500,10.544189453125,-0.894287109375,-0.605560302734375,0.0006256103515625
1783169609085168600,10.554168701171875,-0.91180419921875,-0.6014556884765625,-0.004852294921875
1783169609095117600,10.56411767578125,-0.9105072021484375,-0.5897064208984375,-0.0024566650390625
1783169609105066500,10.57406640625,-0.9007568359375,-0.5746612548828125,0.008636474609375
1783169609115045600,10.584045654296874,-0.879791259765625,-0.588775634765625,0.0456695556640625
1783169609124994600,10.59399462890625,-0.849700927734375,-0.6322479248046875,0.104766845703125
1783169609134942500,10.6039423828125,-0.8654632568359375,-0.6593780517578125,0.14422607421875
1783169609144891400,10.613891357421876,-0.9330902099609375,-0.651947021484375,0.176544189453125
1783169609154870500,10.62387060546875,-1.02032470703125,-0.6436920166015625,0.2010955810546875
1783169609164819500,10.6338193359375,-1.0761566162109375,-0.64349365234375,0.192291259765625
1783169609174768400,10.643768310546875,-1.08489990234375,-0.6092071533203125,0.1407470703125
1783169609184747500,10.65374755859375,-1.0739898681640625,-0.538360595703125,0.0888671875
1783169609194696400,10.663696533203124,-1.0588836669921875,-0.4704742431640625,0.064178466796875
1783169609204644400,10.673644287109376,-1.0355377197265625,-0.4260406494140625,0.0514068603515625
1783169609214593500,10.683593505859376,-1.0026092529296875,-0.400634765625,0.050567626953125
1783169609224572400,10.693572509765625,-0.9703826904296875,-0.3957366943359375,0.0697479248046875
1783169609234521600,10.703521484375,-0.9469757080078125,-0.407012939453125,0.10418701171875
1783169609244470500,10.713470458984375,-0.9281158447265625,-0.4254150390625,0.1452484130859375
1783169609254419500,10.72341943359375,-0.90771484375,-0.450225830078125,0.190948486328125
1783169609264398600,10.733398681640624,-0.8814849853515625,-0.46380615234375,0.2174224853515625
1783169609274340600,10.743340576171875,-0.867706298828125,-0.4621124267578125,0.229034423828125
1783169609284288800,10.753288818359374,-0.8611602783203125,-0.4618988037109375,0.2210235595703125
1783169609294268700,10.7632685546875,-0.8550567626953125,-0.4651947021484375,0.19952392578125
1783169609304216600,10.773216552734375,-0.8607635498046875,-0.46319580078125,0.1724700927734375
1783169609314165500,10.78316552734375,-0.868560791015625,-0.4564666748046875,0.143463134765625
1783169609324114700,10.79311474609375,-0.8655548095703125,-0.451263427734375,0.123443603515625
1783169609334093800,10.80309375,-0.8549041748046875,-0.4489593505859375,0.113983154296875
1783169609344042800,10.813042724609375,-0.837310791015625,-0.44879150390625,0.113311767578125
1783169609353991000,10.822990966796874,-0.81036376953125,-0.4471588134765625,0.1134490966796875
1783169609363970800,10.832970703125,-0.801605224609375,-0.4412689208984375,0.11627197265625
1783169609373918700,10.842918701171875,-0.8024749755859375,-0.441009521484375,0.1194610595703125
1783169609383867600,10.85286767578125,-0.79052734375,-0.4362640380859375,0.116058349609375
1783169609393816800,10.86281689453125,-0.780242919921875,-0.4253997802734375,0.1071929931640625
1783169609403795700,10.872795654296874,-0.7664642333984375,-0.42242431640625,0.096435546875
1783169609413744600,10.88274462890625,-0.75677490234375,-0.4290771484375,0.0949249267578125
1783169609423693600,10.892693603515625,-0.75726318359375,-0.4337158203125,0.092926025390625
1783169609433672700,10.902672607421875,-0.738525390625,-0.4315338134765625,0.086029052734375
1783169609443621600,10.91262158203125,-0.7161712646484375,-0.4248809814453125,0.084442138671875
1783169609453569500,10.922569580078125,-0.7063140869140625,-0.4273681640625,0.085540771484375
1783169609463518700,10.932518798828125,-0.710296630859375,-0.44091796875,0.08343505859375
1783169609473497600,10.94249755859375,-0.71466064453125,-0.460540771484375,0.0809478759765625
1783169609483446500,10.952446533203124,-0.71148681640625,-0.479766845703125,0.07769775390625
1783169609493395700,10.962395751953125,-0.7072906494140625,-0.48785400390625,0.0729522705078125
1783169609503374600,10.97237451171875,-0.7100677490234375,-0.4857177734375,0.0680694580078125
1783169609513323800,10.98232373046875,-0.7178192138671875,-0.4886932373046875,0.067047119140625
1783169609523271700,10.992271728515625,-0.7248992919921875,-0.4960784912109375,0.07568359375
1783169609533220900,11.002220947265625,-0.743377685546875,-0.5001678466796875,0.08184814453125
1783169609543199700,11.01219970703125,-0.766571044921875,-0.505645751953125,0.08160400390625
1783169609553148700,11.022148681640624,-0.7903594970703125,-0.51348876953125,0.07427978515625
1783169609563097600,11.03209765625,-0.81597900390625,-0.5169219970703125,0.05902099609375
1783169609573076700,11.04207666015625,-0.830902099609375,-0.51702880859375,0.0469207763671875
1783169609583025700,11.052025634765625,-0.8408050537109375,-0.5223236083984375,0.050140380859375
1783169609592974600,11.061974609375,-0.8479461669921875,-0.5437774658203125,0.0703887939453125
1783169609602922800,11.0719228515625,-0.849395751953125,-0.5725555419921875,0.1000823974609375
1783169609612902700,11.081902587890625,-0.852020263671875,-0.59588623046875,0.119537353515625
1783169609622850600,11.0918505859375,-0.8550262451171875,-0.610198974609375,0.1323394775390625
1783169609632799700,11.1017998046875,-0.867462158203125,-0.6231842041015625,0.1425018310546875
1783169609642778600,11.111778564453125,-0.8804473876953125,-0.64080810546875,0.1396331787109375
1783169609652727600,11.1217275390625,-0.8941497802734375,-0.6535491943359375,0.1233673095703125
1783169609662676700,11.1316767578125,-0.915802001953125,-0.651275634765625,0.0973968505859375
1783169609672624600,11.141624755859375,-0.9502105712890625,-0.6464385986328125,0.0748443603515625
1783169609682604800,11.151604736328125,-0.9820709228515625,-0.642730712890625,0.05072021484375
1783169609692552700,11.161552734375,-0.9969940185546875,-0.6297607421875,0.0245208740234375
1783169609702502000,11.171501953125,-0.9977569580078125,-0.613616943359375,0.0049896240234375
1783169609712480800,11.181480712890625,-0.982879638671875,-0.6173553466796875,0.0027618408203125
1783169609722429700,11.1914296875,-0.9734649658203125,-0.634490966796875,0.0084075927734375
1783169609732378600,11.201378662109375,-0.999908447265625,-0.6333770751953125,-0.0018310546875
1783169609742327800,11.211327880859375,-1.02093505859375,-0.61846923828125,-0.0202178955078125
1783169609752306700,11.221306640625,-1.015228271484375,-0.6126708984375,-0.03070068359375
1783169609762255600,11.231255615234375,-1.0073394775390625,-0.604522705078125,-0.041534423828125
1783169609772203800,11.241203857421874,-1.0139312744140625,-0.58282470703125,-0.056671142578125
1783169609782183700,11.25118359375,-1.0207977294921875,-0.5491943359375,-0.0783233642578125
1783169609792131600,11.261131591796875,-0.999237060546875,-0.5112762451171875,-0.1062774658203125
1783169609802080500,11.27108056640625,-0.963134765625,-0.47564697265625,-0.1283111572265625
1783169609812029700,11.28102978515625,-0.9285430908203125,-0.45050048828125,-0.138092041015625
1783169609822008600,11.291008544921874,-0.8904571533203125,-0.4391021728515625,-0.13287353515625
1783169609831957500,11.30095751953125,-0.8630523681640625,-0.4355316162109375,-0.115509033203125
1783169609841905700,11.31090576171875,-0.847015380859375,-0.436431884765625,-0.0963287353515625
1783169609851885800,11.3208857421875,-0.833251953125,-0.440643310546875,-0.0836334228515625
1783169609861833700,11.330833740234375,-0.823699951171875,-0.4478607177734375,-0.0762786865234375
1783169609871782700,11.34078271484375,-0.8263092041015625,-0.45098876953125,-0.068206787109375
1783169609881731800,11.35073193359375,-0.826019287109375,-0.4535675048828125,-0.0656280517578125
1783169609891710700,11.360710693359374,-0.8214111328125,-0.45111083984375,-0.071533203125
1783169609901659600,11.37065966796875,-0.820098876953125,-0.4501953125,-0.0836334228515625
1783169609911608600,11.380608642578125,-0.81341552734375,-0.4532928466796875,-0.0905609130859375
1783169609921587700,11.390587646484375,-0.796722412109375,-0.4563140869140625,-0.09149169921875
1783169609931536600,11.40053662109375,-0.7807159423828125,-0.4596405029296875,-0.090789794921875
1783169609941484800,11.41048486328125,-0.7603759765625,-0.4654998779296875,-0.0862274169921875
1783169609951433700,11.420433837890625,-0.733612060546875,-0.471160888671875,-0.0723876953125
1783169609961412600,11.43041259765625,-0.7200164794921875,-0.479888916015625,-0.05364990234375
1783169609971361500,11.440361572265624,-0.7085723876953125,-0.488037109375,-0.03643798828125
1783169609981310700,11.450310791015625,-0.694976806640625,-0.4940643310546875,-0.01910400390625
1783169609991260000,11.460260009765625,-0.6951904296875,-0.50177001953125,-0.0029754638671875
1783169610001238500,11.470238525390625,-0.7065887451171875,-0.514251708984375,0.01416015625
1783169610011186700,11.480186767578125,-0.71612548828125,-0.5242919921875,0.030364990234375
1783169610021136000,11.490135986328125,-0.728363037109375,-0.5269622802734375,0.0440521240234375
1783169610031114500,11.500114501953124,-0.731231689453125,-0.5223388671875,0.0408935546875
1783169610041063700,11.510063720703124,-0.73431396484375,-0.516143798828125,0.018218994140625
1783169610051012900,11.520012939453125,-0.7435455322265625,-0.518646240234375,-0.0026397705078125
1783169610060961800,11.5299619140625,-0.7492828369140625,-0.52557373046875,-0.0128936767578125
1783169610070940700,11.539940673828125,-0.758026123046875,-0.5301361083984375,-0.0237579345703125
1783169610080889600,11.5498896484375,-0.7440338134765625,-0.5241241455078125,-0.0293121337890625
1783169610090837800,11.559837646484375,-0.7052154541015625,-0.5080108642578125,-0.0244598388671875
1783169610100817700,11.569817626953125,-0.6732025146484375,-0.501739501953125,-0.0007476806640625
1783169610110765600,11.579765625,-0.6760101318359375,-0.5392913818359375,0.023284912109375
1783169610120714800,11.58971484375,-0.704833984375,-0.5883636474609375,0.0445098876953125
1783169610130663700,11.59966357421875,-0.7140655517578125,-0.6115570068359375,0.0561370849609375
1783169610140642600,11.609642578125,-0.69921875,-0.6146697998046875,0.0535125732421875
1783169610150591500,11.619591552734375,-0.6805267333984375,-0.60107421875,0.0509185791015625
1783169610160540700,11.629540771484375,-0.6775054931640625,-0.5912322998046875,0.0538787841796875
1783169610170519600,11.63951953125,-0.68048095703125,-0.5992279052734375,0.0596923828125
1783169610180467700,11.6494677734375,-0.698028564453125,-0.61334228515625,0.06134033203125
1783169610190417000,11.6594169921875,-0.736083984375,-0.626556396484375,0.0653076171875
1783169610200365800,11.66936572265625,-0.77716064453125,-0.638519287109375,0.0599822998046875
1783169610210344700,11.6793447265625,-0.80328369140625,-0.645660400390625,0.043121337890625
1783169610220294000,11.6892939453125,-0.8251800537109375,-0.6422271728515625,0.0343170166015625
1783169610230242800,11.699242919921875,-0.8457794189453125,-0.63116455078125,0.0392608642578125
1783169610240221700,11.7092216796875,-0.8466796875,-0.6305389404296875,0.0481719970703125
1783169610250170600,11.719170654296875,-0.8560028076171875,-0.633758544921875,0.0572662353515625
1783169610260118800,11.729118896484374,-0.881988525390625,-0.635223388671875,0.06561279296875
1783169610270099700,11.739099609375,-0.8909149169921875,-0.64581298828125,0.064544677734375
1783169610280078300,11.749078369140625,-0.8996734619140625,-0.652374267578125,0.0570831298828125
1783169610290027500,11.759027587890625,-0.9395599365234375,-0.6498260498046875,0.049224853515625
1783169610299976700,11.768976806640625,-0.9530792236328125,-0.6460418701171875,0.044708251953125
1783169610309955600,11.77895556640625,-0.94317626953125,-0.6231536865234375,0.041534423828125
1783169610319904500,11.788904541015626,-0.9161376953125,-0.5808868408203125,0.024444580078125
1783169610329853400,11.798853515625,-0.8703155517578125,-0.564117431640625,0.038360595703125
1783169610339801600,11.808801513671876,-0.858612060546875,-0.6129608154296875,0.115203857421875
1783169610349780500,11.818780517578125,-0.73358154296875,-0.691619873046875,0.2599029541015625
1783169610359729400,11.8287294921875,-0.8661956787109375,-0.79156494140625,0.3717803955078125
1783169610369678600,11.8386787109375,-0.991424560546875,-0.7798919677734375,0.3410491943359375
1783169610379657500,11.848657470703126,-1.0813446044921875,-0.7245330810546875,0.280426025390625
1783169610389606400,11.8586064453125,-1.1179656982421875,-0.70013427734375,0.2354888916015625
