time,seconds_elapsed,z,y,x
1783169598793961500,0.26296142578125,0.1447550924152136,-0.3103963209927082,0.07917728935033083
1783169598803910400,0.272910400390625,-0.22202421005666254,-0.3171533940374851,0.08892433799132704
1783169598813859600,0.282859619140625,-0.43655777209699154,-0.4398229113727808,0.028389214401924982
1783169598823838500,0.29283837890625,-0.5268547136157751,-0.5437058951735496,0.02447876295992173
1783169598833787600,0.30278759765625,-0.6500614065676927,-0.4521726898580789,-0.002064960572635755
1783169598843736600,0.312736572265625,-0.8188292427331209,-0.199216165921092,-0.11411970652169548
1783169598853684700,0.322684814453125,-1.1505267104297876,-0.014397358664870262,-0.30667320881634946
1783169598863664600,0.33266455078125,-1.3619681516736746,0.08594751413762569,-0.5511201169528067
1783169598873612500,0.342612548828125,-1.3268798871576786,0.24805823050141332,-0.7791092267632485
1783169598883561700,0.352561767578125,-1.1613713450491427,0.4727852697759866,-0.8854052630551159
1783169598893540600,0.36254052734375,-0.9304892902761697,0.702930242446065,-0.8669649126097559
1783169598903489500,0.372489501953125,-0.751990918213129,0.8691805428326129,-0.780274617280811
1783169598913438500,0.3824384765625,-0.6332552331954241,0.9145669140011071,-0.7165513560414314
1783169598923386600,0.39238671875,-0.47207039950489993,0.8901637096285819,-0.6358319518156349
1783169598933366500,0.402366455078125,-0.33739889420866964,0.9048077365309,-0.5503622843228281
1783169598943314400,0.412314453125,-0.187104872366786,0.9654922145962714,-0.4871931498348713
1783169598953263600,0.422263671875,-0.008646247792243957,0.949875543269515,-0.39547552786320445
1783169598963242500,0.432242431640625,0.10301496879458427,0.8969844955593347,-0.30039120593741536
1783169598973191400,0.44219140625,0.06059855334758758,0.926346783643961,-0.2972442862138152
1783169598983140400,0.452140380859375,-0.1260094754129648,0.9289455679655074,-0.4080326654888689
1783169598993089800,0.46208984375,-0.1760673455238342,0.8576777365654706,-0.545859273815155
1783169599003068700,0.472068603515625,-0.1275742405116558,0.8522352532505989,-0.6371520945034921
1783169599013017600,0.482017578125,-0.11962415829002856,0.8928186080515385,-0.7021439143739641
1783169599022965800,0.4919658203125,-0.08074819192886352,0.8649982887119054,-0.744539287032932
1783169599032945700,0.501945556640625,0.08576338974237442,0.803435274246335,-0.7632695603355765
1783169599042893600,0.5118935546875,0.2850520363777876,0.7551379840672016,-0.7631899192281066
1783169599052842500,0.521842529296875,0.44832361321449277,0.7081231349140406,-0.6953371569685638
1783169599062791700,0.531791748046875,0.6024181963831186,0.661661243468523,-0.5816399045094848
1783169599072770600,0.5417705078125,0.7361579737871885,0.6003980887323618,-0.4909960492491722
1783169599082719500,0.551719482421875,0.8151110989928245,0.5476444036662578,-0.44885465135127306
1783169599092667600,0.561667724609375,0.9195756820738316,0.4649667049795389,-0.43810266345143317
1783169599102647600,0.5716474609375,1.069192827567458,0.3966489555567503,-0.43308278946280476
1783169599112595500,0.581595458984375,1.1569424226909875,0.3766875330239534,-0.44197161383926864
1783169599122544600,0.591544677734375,1.2238508898377418,0.31180560326874257,-0.5044349381454288
1783169599132493600,0.60149365234375,1.2559668605446814,0.16895488317012786,-0.5567055158697068
1783169599142472400,0.611472412109375,1.3091829024255275,0.02168459306359291,-0.6041618251800537
1783169599152421400,0.62142138671875,1.4419102879166603,-0.05644026462435722,-0.6502313563071191
1783169599162370600,0.63137060546875,1.5637515377342701,-0.07860708824694156,-0.6844086434580385
1783169599172349400,0.641349365234375,1.5995190166860818,-0.0844353560090065,-0.7324414374820888
1783169599182298600,0.651298583984375,1.4445429745078087,0.03223696673810482,-0.574010578674823
1783169599192246800,0.661246826171875,1.2981383613198996,0.033466800794005394,-0.5093786781579256
1783169599202195700,0.67119580078125,1.1114198579221963,0.024810031607747078,-0.45378450896888967
1783169599212174600,0.681174560546875,0.9257499867945909,0.01106383032798767,-0.4494437032856047
1783169599222123500,0.69112353515625,0.7069973457545041,0.038333530047535896,-0.4808117782346904
1783169599232072700,0.70107275390625,0.40315468418896194,0.04050444434583187,-0.5129777255631983
1783169599242051600,0.711051513671875,0.23724223745465278,0.06397825891375541,-0.5078318505747244
1783169599252000500,0.72100048828125,0.12084522451758384,0.18856559256911276,-0.4470445331893861
1783169599261971500,0.730971435546875,-0.06828618524074553,0.2819073086112737,-0.3827230137959122
1783169599271920600,0.740920654296875,-0.18558453093171118,0.3158908267557621,-0.30356559818983075
1783169599281899500,0.7508994140625,-0.37038521800935265,0.3585369593054056,-0.2132848406208679
1783169599291848700,0.7608486328125,-0.4873153149098158,0.3581242868512869,-0.13171163257732987
1783169599301797600,0.770797607421875,-0.582573678228259,0.34189854371547695,0.037697131840139626
1783169599311776500,0.780776611328125,-0.8295259933143854,0.3102852618336677,0.20344445114061235
1783169599321725700,0.7907255859375,-1.085896125087142,0.23456804980933665,0.3484178624816239
1783169599331674600,0.800674560546875,-1.3209119186639784,0.2011123549312353,0.4351724552184343
1783169599341622500,0.81062255859375,-1.5552128419697284,0.30469080282747746,0.46781946406215424
1783169599351602400,0.8206025390625,-1.6807120297729967,0.46384033129811286,0.4583918566338718
1783169599361550600,0.830550537109375,-1.64678170312047,0.5806850880026817,0.4267283424021676
1783169599371499500,0.84049951171875,-1.5302975964218377,0.6327361777573823,0.4319035530829802
1783169599381478700,0.850478759765625,-1.3025064934015274,0.6180477271914482,0.4754359304152429
1783169599391427600,0.860427490234375,-0.8961766863077878,0.38744799649119377,0.7949278504028916
1783169599401376500,0.87037646484375,-0.7900853788077831,-0.011111176601052283,1.2561696896404027
1783169599411325400,0.880325439453125,-0.9218968184977769,-0.3666635671377182,1.4940926028355954
1783169599421304600,0.8903046875,-0.8714064021885395,-0.5970575461328029,1.6072453731544314
1783169599431252500,0.90025244140625,-0.8896832326352596,-0.6499924329847097,1.5920765917256474
1783169599441201700,0.91020166015625,-1.4131266765028236,-0.4415384831190109,1.3980641319274902
1783169599451180500,0.9201806640625,-2.2812626787185666,-0.13853285689949987,1.1109488794095814
1783169599461129700,0.930129638671875,-2.723660409015417,0.09243629163503646,0.8592873637191951
1783169599471078700,0.94007861328125,-2.505558925360441,0.40673254267573355,0.6484564555890858
1783169599481027600,0.950027587890625,-2.383423076510429,0.9044482555687428,0.5440472559571266
1783169599491006700,0.9600068359375,-2.354267709174752,1.3899375240951777,0.47932606972157954
1783169599500955600,0.96995556640625,-2.0703110668182374,1.6997464005887508,0.41956586689427494
1783169599510903600,0.979903564453125,-1.6971406020045279,1.9005705862283706,0.5071899359419941
1783169599520883500,0.989883544921875,-1.3295885615944862,1.9831699589818714,0.7923644296556711
1783169599530831600,0.99983154296875,-1.076977490094304,1.880088354691863,1.169473622157797
1783169599540780500,1.009780517578125,-1.0970739371836185,1.6908792035222053,1.4588250362299382
1783169599550729500,1.0197294921875,-1.2075292851120232,1.5220727889120578,1.6273951578661798
1783169599560708600,1.02970849609375,-1.233613574439287,1.4070119930148124,1.7948634557403622
1783169599570657500,1.039657470703125,-1.2028045946776866,1.3712223022311925,1.8389479505300521
1783169599580606500,1.0496064453125,-1.2525497455775736,1.4382470892339945,1.7646571180470287
1783169599590585300,1.05958544921875,-1.4389303953230381,1.5256079773008822,1.5908447118431328
1783169599600533500,1.069533447265625,-1.5870061565935611,1.5896978798955679,1.3633729039050637
1783169599610482400,1.079482421875,-1.459147253921628,1.6528776819080113,1.1632903304129838
1783169599620431600,1.089431640625,-1.160344924610853,1.7735335213333367,1.065215886760503
1783169599630410800,1.09941064453125,-0.978842694556713,1.8310966525077819,1.0621914243727921
1783169599640359700,1.109359619140625,-0.8289613451689481,1.7879320490419863,1.043656381381303
1783169599650308600,1.11930859375,-0.7051783136337995,1.7342863835722206,1.0556647990830241
1783169599660287700,1.129287841796875,-0.607840805953741,1.721936020565033,1.1016684253670275
1783169599670236700,1.139236572265625,-0.5758586907595395,1.740332093477249,1.1110532165668905
1783169599680184600,1.1491845703125,-0.6284896262288093,1.7203034509271382,1.0517837198659776
1783169599690133500,1.159133544921875,-0.5196405444532632,1.6977309691131115,1.0403989870205521
1783169599700112600,1.169112548828125,-0.26446517542302606,1.7225468459397553,1.0726671526145188
1783169599710061600,1.1790615234375,0.0737514649093151,1.7373165450483559,1.0945869426734745
1783169599720010500,1.189010498046875,0.3380512206375599,1.7084411636978387,1.1157746921308338
1783169599729959400,1.19895947265625,0.4027203844249248,1.567692384314537,1.117767473383248
1783169599739938600,1.2089384765625,0.6033738896727562,1.3974579827278852,1.1325403873622417
1783169599749887500,1.218887451171875,0.7760112607479095,1.2970762850463389,1.136928393188119
1783169599759835400,1.22883544921875,0.7588046898812055,1.2059048987805843,1.1385549714766443
1783169599769815800,1.23881591796875,0.7088835978925228,1.0579010337024926,1.171414307896793
1783169599779763500,1.248763427734375,0.7377233234077691,0.917543883985281,1.198552928582579
1783169599789712600,1.258712646484375,0.8479168055295944,0.8355956686168908,1.2012818420898168
1783169599799661600,1.26866162109375,0.885930017581582,0.7567869203180074,1.251380847928673
1783169599809640700,1.278640625,0.8272142092406749,0.5925947215050459,1.3043969833232463
1783169599819589600,1.288589599609375,0.6330366220086813,0.37438977747559543,1.2919374608531593
1783169599829537500,1.29853759765625,0.4753805469661951,0.1588841555327177,1.2376657724395395
1783169599839517700,1.308517578125,0.38560558349490165,0.022449147695302964,1.177682866772264
1783169599849465600,1.318465576171875,0.24710779790878296,-0.06896656872034072,1.086437830748409
1783169599859414500,1.32841455078125,0.05092471607327461,-0.14063947378993033,1.0429586083754896
1783169599869363500,1.338363525390625,-0.1371592304587364,-0.21324001509845256,1.0240706602931022
1783169599879342600,1.348342529296875,-0.22210604312121868,-0.25769290480911733,0.9947223276685923
1783169599889291500,1.35829150390625,-0.2051163298755884,-0.30758360165953635,0.9855163271017372
1783169599899240400,1.368240478515625,-0.22411972103118896,-0.3431745550006628,1.0622796871781348
1783169599909219600,1.378219482421875,-0.24871114145219325,-0.43039165068268775,1.0812665655903517
1783169599919168500,1.38816845703125,-0.35964871993958947,-0.5523176561743021,1.0519849415265023
1783169599929116400,1.398116455078125,-0.6716448773443698,-0.6346639309495687,0.9434778050564229
1783169599939065300,1.4080654296875,-1.0002689289450646,-0.5912269402831792,0.6599288667179644
1783169599949044500,1.41804443359375,-0.9758850137948989,-0.5145329921811819,1.3655565315544604
1783169599958993700,1.42799365234375,-1.0919061791568994,-0.5992401508688926,1.3368759421236813
1783169599968942600,1.437942626953125,-1.6362041950047015,-0.4950263276785612,0.897106222242862
1783169599978921700,1.447921630859375,-1.7727853333145378,-0.28250761259198187,0.7358768918234855
1783169599988870700,1.45787060546875,-1.8222183495253323,-0.17170739674866198,0.47883930911794303
1783169599998818600,1.467818603515625,-1.8627502663999795,-0.07824877632856368,0.23360760727934538
1783169600008767500,1.477767578125,-1.7283827124863862,0.06376432390213012,0.09781170106306672
1783169600018746600,1.48774658203125,-1.4932967762827873,0.19221476272642612,0.05432973874378949
1783169600028695600,1.497695556640625,-1.1412369040369987,0.16194412762522697,0.08021850549895315
1783169600038644500,1.50764453125,-0.6563841798484324,-0.04026069871783256,0.29947175300493833
1783169600048623600,1.51762353515625,-0.5535235248327255,-0.23188743242323398,0.5288545091308653
1783169600058572500,1.527572509765625,-0.9426093516588211,-0.34637013617157936,0.6523103545382618
1783169600068521500,1.537521484375,-1.2691805623829364,-0.4564052128612995,0.6687422877706587
1783169600078469600,1.5474697265625,-1.3369389243572949,-0.464668014293909,0.6215472597450018
1783169600088449500,1.557449462890625,-1.592149949222803,-0.2519108142763376,0.5487335140772164
1783169600098397400,1.5673974609375,-1.9071172313928604,0.10969780755937099,0.23473494907515122
1783169600108346400,1.577346435546875,-1.803203267931938,0.47663785355091093,-0.12573241203725338
1783169600118325500,1.587325439453125,-1.551990957313776,0.8225409567326307,-0.4434219587780535
1783169600128274700,1.597274658203125,-1.4056325213551522,1.1991115853786467,-0.7172489829167723
1783169600138223600,1.6072236328125,-1.0719523554086685,1.4748060108244418,-0.8374487491376698
1783169600148171800,1.617171875,-0.6538169597089291,1.58335289478302,-0.7433958160862326
1783169600158151700,1.627151611328125,-0.4671738596349954,1.5484160214364528,-0.4444887112267315
1783169600168099600,1.637099609375,-0.47860593875348567,1.3053484388291836,-0.13392813958302138
1783169600178048500,1.647048583984375,-0.4689736025333404,0.9496458261668681,0.008574205469340086
1783169600188027600,1.657027587890625,-0.44810207941830155,0.742746120005846,0.14111162134632468
1783169600197976600,1.6669765625,-0.5464759444087743,0.8108195392787456,0.1913962859503925
1783169600207925500,1.676925537109375,-0.7591688470184803,1.0086813679814337,0.09270195683389902
1783169600217874400,1.68687451171875,-1.0201941111207007,0.9366957437008618,-0.10692367580407298
1783169600227853600,1.696853515625,-0.8228069141924381,0.7659212438881396,-0.23430077717527745
1783169600237802500,1.706802490234375,-0.7045885310471057,1.4402829789757727,-0.34743922670781613
1783169600247750400,1.71675048828125,-0.5751806453675031,2.2147306436687706,-0.15130948249474166
1783169600257730600,1.72673046875,0.38359132106304167,0.7623404627919197,0.347372298951447
1783169600267707000,1.736706787109375,1.1886427983343602,-1.0872674134403466,0.6571306143015623
1783169600277655800,1.74665576171875,0.022553192591667173,-0.190637138146162,0.23576339707374572
1783169600287604700,1.756604736328125,-0.6692278793305159,0.8498609253346919,-0.30446620029136534
1783169600297583900,1.766583984375,-0.030718963390588758,0.9646347209841012,-0.27457097437381744
1783169600307532800,1.77653271484375,0.7935755590111017,0.7991536514043808,-0.10454816971123218
1783169600317480700,1.786480712890625,1.0313917969614266,0.764885471099615,0.08889160476550459
1783169600327460900,1.7964609375,0.9468483044028282,0.7639443908572197,0.22431115195006132
1783169600337408800,1.80640869140625,1.020163715982437,0.7922071932673453,0.3111033002182841
1783169600347357700,1.816357666015625,1.4520458974838255,0.9428507591992616,0.38524449509754777
1783169600357306600,1.826306640625,1.9233552494883537,1.092490701046586,0.549419596645236
1783169600367285800,1.83628564453125,2.25162098917067,1.2474462849587202,0.6851702754803002
1783169600377234700,1.846234619140625,2.178888345915079,1.2196791571110486,0.6174086986355484
1783169600387183600,1.85618359375,1.5544143850684164,0.8819862483918667,0.2467434946410358
1783169600397131800,1.8661318359375,1.0528116016089915,0.6967156057149172,-0.11287380724698304
1783169600407112000,1.87611181640625,1.0809171676307916,0.39510757133364677,-0.3428136127337813
1783169600417059600,1.8860595703125,1.2461007155686616,0.2664180630564689,-0.3222543704383075
1783169600427008800,1.8960087890625,1.4608622411459684,0.40760231124758717,-0.2116834333062172
1783169600436988000,1.90598779296875,1.4846709867566823,0.556862898388505,-0.1675280652374029
1783169600446936800,1.915936767578125,1.1507798084080219,0.5240419942826032,-0.16410685861706734
1783169600456885800,1.9258857421875,0.8649240544319152,0.3566384322077036,-0.2376096094623208
1783169600466834000,1.935833984375,0.7243968088448047,0.24026304658055303,-0.2581358262710273
1783169600476813800,1.945813720703125,0.6617676264524459,0.022303017222881315,-0.2761424614742398
1783169600486761700,1.95576171875,0.645747050499916,-0.21672201199531554,-0.24083865451142192
1783169600496710700,1.965710693359375,0.38572248787283897,-0.44084407111406326,-0.24602643241286276
1783169600506689800,1.975689697265625,0.12548574379980562,-0.6190098502218723,-0.307214037694782
1783169600516638700,1.985638671875,0.2555886260062456,-0.5668932940155267,-0.28744389995038505
1783169600526587600,1.995587646484375,0.5094698635727167,-0.45118367882072924,-0.26463994746804237
1783169600536536600,2.00553662109375,0.42206455184221264,-0.4486790025234222,-0.16602496719807386
1783169600546515700,2.015515625,0.05853285298943519,-0.5453577540338039,-0.04773103459849953
1783169600556464600,2.025464599609375,-0.2174953344553709,-0.6120289052933454,0.06872939896360039
1783169600566412800,2.035412841796875,-0.246904384291172,-0.595953384283185,0.10989128430485724
1783169600576393000,2.04539306640625,-0.17937807750701903,-0.5381225420832634,0.1087007593460381
1783169600586340600,2.055340576171875,-0.24608605364561079,-0.5478408030211925,0.09625321957468987
1783169600596289800,2.065289794921875,-0.38555297652482984,-0.5357330165982246,0.08539587160423398
1783169600606238700,2.07523876953125,-0.3821025438100099,-0.45283962933421135,0.1537248913397081
1783169600616217900,2.0852177734375,-0.41475744369924067,-0.3396843747973442,0.1573587177974172
1783169600626166800,2.095166748046875,-0.6009498773962259,-0.22062895630598067,0.006423621573019772
1783169600636115000,2.105114990234375,-0.7686842788606881,-0.047051089510321616,-0.20623612768575547
1783169600646094800,2.1150947265625,-0.8815180463582277,0.15232055923342705,-0.2716771343621425
1783169600656042800,2.125042724609375,-0.6697656394690275,0.10902502286434174,-0.2286822066411376
1783169600665991700,2.13499169921875,-0.06914134076535701,-0.18404899192750454,0.10979659175872802
1783169600675940900,2.14494091796875,0.20378537353277204,-0.5178296956390143,0.5795534536242485
1783169600685919700,2.154919677734375,-0.060030982592701905,-0.7697323266088962,0.8647194717705249
1783169600695868700,2.16486865234375,-0.7328139240562915,-0.8428250353485345,1.0366248753093183
1783169600705817600,2.174817626953125,-1.6568980234652757,-0.8068342690348624,1.1602942173369228
1783169600715796700,2.184796630859375,-2.4418249965965746,-0.7351222009986639,1.2413986753575503
1783169600725745700,2.19474560546875,-2.745874578911066,-0.45901218048930165,1.0376963039331137
1783169600735693600,2.204693603515625,-2.3754940370768307,0.14324819498360156,0.5420774171888828
1783169600745642800,2.214642822265625,-1.7739584687471388,0.8175935634583235,0.02205722576826811
1783169600755621600,2.22462158203125,-1.2718588416814802,1.2565841156601905,-0.30102541218772527
1783169600765570800,2.23457080078125,-0.8234218312203884,1.3841525109529493,-0.24527897504642604
1783169600775519700,2.244519775390625,-0.5453899027377367,1.294203944480419,0.04662205044329166
1783169600785499000,2.254498779296875,-0.3580032908201217,1.154220304250717,0.37832273301035163
1783169600795447800,2.26444775390625,-0.3096516401052475,0.9410159449875354,0.7544841963335871
1783169600805396000,2.27439599609375,-0.39880350324213504,0.7306698977649212,1.198123597254604
1783169600815345000,2.284344970703125,-0.5295008442103862,0.6973959891945123,1.536226840340346
1783169600825323800,2.29432373046875,-0.5092804784804582,0.8391992460668086,1.5977657432779668
1783169600835272700,2.304272705078125,-0.5069418063998222,1.0209574967086315,1.4523822898313403
1783169600845221600,2.3142216796875,-0.6752618987977504,1.1158546254992485,1.1662228767335414
1783169600855200800,2.32420068359375,-0.7275327687829732,1.0166811345636844,0.9416511741511523
1783169600865149700,2.334149658203125,-0.6094014793992042,0.881692818403244,0.8357675180524587
1783169600875098600,2.3440986328125,-0.3872445828735828,0.9194956025749444,0.7641850677452982
1783169600885046800,2.354046875,-0.024739304459095,1.0698562599122523,0.7465686009034515
1783169600895026700,2.364026611328125,0.4457610692501068,1.220305180054903,0.7236920215763151
1783169600904974600,2.373974609375,0.8604173906624316,1.2473749732881785,0.7731371666163206
1783169600914923800,2.383923828125,1.0373282012730836,1.1360726531416176,0.8772882998339832
1783169600924902700,2.393902587890625,0.9894459216356277,1.029578610059619,0.9723271751828491
1783169600934851800,2.403851806640625,0.7804109570115805,0.9544213700056076,1.008290468967706
1783169600944800800,2.41380078125,0.7255804656714201,1.041348542830348,0.9696630705401301
1783169600954749700,2.423749755859375,0.6803899093359709,1.1703583691030741,0.887954363016039
1783169600964728800,2.433728759765625,0.6681394995719194,1.1738707611382007,0.764100458201766
1783169600974676700,2.4436767578125,0.7325923902601004,1.1168524043649435,0.7688949990019202
1783169600984626000,2.4536259765625,0.656789838039875,1.0116039774298666,0.8896041760496795
1783169600994604800,2.463604736328125,0.6166933899730443,0.8820961385071278,1.0598454457685351
1783169601004553700,2.4735537109375,0.6312661052048206,0.7535469154834746,1.1832627127312123
1783169601014502700,2.483502685546875,0.552696426358819,0.6220253986507653,1.2558088935039937
1783169601024451800,2.493451904296875,0.4086129495948553,0.44956221509873867,1.29630033223778
1783169601034430700,2.5034306640625,0.3550163839638233,0.2839846994072199,1.2620447191536426
1783169601044379600,2.513379638671875,0.356954658550024,0.18581190994679928,1.256061991482228
1783169601054327800,2.523327880859375,0.43289165080487724,0.14834931751489638,1.2933106489025055
1783169601064276700,2.53327685546875,0.5482528909534216,0.15408990699350833,1.3211049570180475
1783169601074255600,2.543255615234375,0.5566928025186062,0.21354864265620707,1.294949063759297
1783169601084204800,2.553204833984375,0.6017693770855664,0.29251813447475433,1.185519844008237
1783169601094154000,2.563154052734375,0.6195902804583311,0.34450492682158945,1.084682803774625
1783169601104132900,2.5731328125,0.487732663539052,0.306370134216547,1.0313251614660024
1783169601114081800,2.583081787109375,0.388971260535717,0.20207272439599036,1.0391549783088265
1783169601124030700,2.59303076171875,0.41456747408509254,0.052903322669863695,1.0197812925361096
1783169601133979000,2.602978759765625,0.5985018997222185,0.006984452059864998,1.0200294220782815
1783169601143957800,2.612957763671875,0.7683505168616771,0.08018354378342628,1.0394425630785524
1783169601153907000,2.622906982421875,0.7599591206133365,0.16419453690052033,1.0565759225785731
1783169601163856000,2.63285595703125,0.6370908658355474,0.17549802120327948,1.0194693039774894
1783169601173834800,2.642834716796875,0.4679238012194633,0.16607202121019363,0.9665639354810118
1783169601183783700,2.65278369140625,0.4095060990422964,0.14015081349015235,0.887731514045596
1783169601193732900,2.66273291015625,0.2857616459518671,0.08372282382547855,0.9011052287511527
1783169601203680800,2.6726806640625,0.050879123365879055,0.03301730346083641,0.9130864661850034
1783169601213660700,2.68266064453125,-0.11330255405306816,0.038027240577340124,0.8726901583887636
1783169601223608800,2.69260888671875,-0.28761984103918076,0.135826520550251,0.8524833827927708
1783169601233557800,2.702557861328125,-0.44679216586351395,0.25094986028969285,0.8010457487612962
1783169601243536600,2.71253662109375,-0.5852624789208173,0.2766249842941761,0.7402715465858578
1783169601253485600,2.722485595703125,-0.7948112382858992,0.21958090855777262,0.6014999124944209
1783169601263464200,2.732464111328125,-0.9177426214277744,0.14219371749460696,0.40190234604030844
1783169601273413000,2.7424130859375,-0.7076023259103298,0.0950572877883911,0.38611996275782584
1783169601283392300,2.752392333984375,-0.5375502951532602,0.053261634588241576,0.4097077956268564
1783169601293341200,2.762341064453125,-0.736507517877221,0.12538286794722078,0.36441597087401895
1783169601303289000,2.7722890625,-1.0666682775259018,0.14773147787749766,0.2782442560590803
1783169601313268200,2.782268310546875,-1.2800129220426082,0.024724106889963147,0.2640463654890656
1783169601323217200,2.792217041015625,-1.2979203346550463,-0.04867313775420189,0.28636647997722026
1783169601333166000,2.802166015625,-1.341401748985052,-0.006285948401689529,0.2808577995583415
1783169601343115000,2.812114990234375,-1.348550451695919,0.11373977642655372,0.1336959382623434
1783169601353094100,2.82209423828125,-1.2779723561257124,0.33200843334197994,-0.14647840907648205
1783169601363043000,2.83204296875,-1.24595458509624,0.6067009882688522,-0.44345878365710373
1783169601372991000,2.841990966796875,-1.2457657845258712,0.7784007862329483,-0.5942674770228564
1783169601382971100,2.85197119140625,-1.1240414390861988,0.786318135228753,-0.6309587928213178
1783169601392919000,2.8619189453125,-0.910676920825243,0.7656172925055027,-0.6078451898679137
1783169601402868200,2.8718681640625,-0.6201414846003055,0.7722662290006875,-0.5050250129930675
1783169601412817200,2.881817138671875,-0.3581850771278143,0.7503034035176038,-0.35465423612054436
1783169601422796300,2.89179638671875,-0.2858049005717039,0.6048392860502004,-0.2880508894002065
1783169601432745200,2.9017451171875,-0.22360417272448538,0.5163280589044094,-0.27800792655255646
1783169601442694100,2.911694091796875,-0.15381927335858345,0.5448106415450573,-0.2829156088709831
1783169601452673300,2.92167333984375,-0.11913082181513308,0.5196341147124767,-0.3796361536964774
1783169601462622200,2.931622314453125,-0.08296469893455505,0.5006009129405021,-0.4731282379947602
1783169601472570000,2.941570068359375,0.06651274582743644,0.544900657916069,-0.5364360503010451
1783169601482519000,2.95151904296875,0.23795652320384977,0.563084549382329,-0.5435149026460945
1783169601492498200,2.961498291015625,0.3586158697605133,0.535620203873515,-0.5466453096263111
1783169601502447000,2.971447021484375,0.46556993156969545,0.4019879784971475,-0.4923673010697588
1783169601512396000,2.98139599609375,0.5456739803761244,0.2811602896362543,-0.3491937787575647
1783169601522375200,2.991375244140625,0.697542119666934,0.21817864054441452,-0.17662596578728407
1783169601532324000,3.001323974609375,0.7757488104194402,0.19328794491589069,-0.014653634980879723
1783169601542272000,3.01127197265625,0.712307142600417,0.1790659428179264,0.03012172814980149
1783169601552221200,3.02122119140625,0.6974275533765554,0.3237994079232216,-0.1948962203627452
1783169601562200000,3.031199951171875,0.9428460830241441,0.18019991528391838,0.13609627740234137
1783169601572149000,3.04114892578125,0.8504401865273714,0.042213001829385755,0.22484891208857297
1783169601582098200,3.05109814453125,0.7616489733964205,0.24741817903220653,0.22203312401548025
1783169601592077300,3.061077392578125,0.8939455662548541,0.3122811118260026,-0.022122692219913004
1783169601602026200,3.071026123046875,0.8763549645066261,0.276724060754478,-0.10450257700383662
1783169601611975200,3.08097509765625,0.7933540252149105,0.14544424372315407,-0.09778203657716512
1783169601621923300,3.09092333984375,0.7469774739652871,0.01593406671285629,0.0050597676075994965
1783169601631903200,3.1009033203125,0.7629653166919946,-0.0746364310503006,0.15160382579881698
1783169601641851100,3.11085107421875,0.9029910424977541,-0.15899989086687563,0.16139906096309423
1783169601651800000,3.120800048828125,1.0876783323287964,-0.18501111495792866,0.055404930227249856
1783169601661779200,3.130779296875,1.1862690549403427,-0.20961334903389214,-0.08863573030829429
1783169601671728000,3.14072802734375,1.1334925735205412,-0.17757248938977718,-0.18851824629604816
1783169601681677000,3.150677001953125,0.9234598300307989,-0.23679040203392504,-0.29185397147759795
1783169601691625200,3.160625244140625,0.876215263774991,-0.2862713490396738,-0.27942805901616813
1783169601701605000,3.170605224609375,0.8773404684126377,-0.2734083603352308,-0.27407632272467014
1783169601711553000,3.180552978515625,0.7670218986064196,-0.24074118548631668,-0.30161563316583634
1783169601721502000,3.190501953125,0.6520294917702675,-0.22731764028966425,-0.3050990913674235
1783169601731451100,3.200451171875,0.4974854112684726,-0.251678759086132,-0.2962932690992951
1783169601741430000,3.210429931640625,0.40352117941379545,-0.260418238119781,-0.2486940441869199
1783169601751379200,3.220379150390625,0.3800777599841356,-0.25664018088579177,-0.23283596531972287
1783169601761328000,3.230328125,0.34268472565710545,-0.29070027139782906,-0.28129093027859925
1783169601771307300,3.240307373046875,0.3279121039390564,-0.3730652508735657,-0.2558298874162137
1783169601781256200,3.250256103515625,0.26711481314897534,-0.4446604145318269,-0.16263868576064705
1783169601791204000,3.2602041015625,0.13235621409118176,-0.4985404732793569,-0.15963512003049254
1783169601801153300,3.2701533203125,0.03412672600746155,-0.5137915261641145,-0.20218407581597567
1783169601811132200,3.280132080078125,-0.12294950332045554,-0.5458955141723155,-0.17546072140019386
1783169601821081000,3.2900810546875,-0.26753274630010127,-0.587061052775383,-0.08425751522406935
1783169601831030000,3.300030029296875,-0.341919001981616,-0.6403361313670873,-0.019329700500518084
1783169601841009200,3.310009033203125,-0.3946913917481899,-0.660997226601839,0.024325170700252054
1783169601850958000,3.3199580078125,-0.5880237603276968,-0.6693459527522325,0.06535995906312018
1783169601860906200,3.32990625,-0.7665870143204927,-0.7049345680058002,0.09787745977565646
1783169601870855200,3.339855224609375,-0.8391022154331207,-0.7197633038252592,0.08951821223124862
1783169601880834000,3.349833984375,-0.8879436954915523,-0.6947621335595846,0.04915639122650027
1783169601890783000,3.359782958984375,-0.892522839975357,-0.7068599831104279,0.013259879067540168
1783169601900732200,3.369732177734375,-0.6735679543614387,-0.8509066349953412,0.1987653716799803
1783169601910711000,3.3797109375,-0.45705578572452066,-1.100616139835119,0.5226916025869548
1783169601920660200,3.38966015625,-0.41790392503142354,-1.2686433867663145,0.8371038812227547
1783169601930609200,3.399609130859375,-0.5004325706362724,-1.2904244259417057,1.0416808435246347
1783169601940557300,3.409557373046875,-0.8179857776463031,-1.24420160394907,1.1729838953010738
1783169601950537200,3.419537109375,-1.6337568018525839,-1.1936375378817319,1.333243723101169
1783169601960485000,3.429485107421875,-2.452598319545388,-1.0015502009272574,1.3347335232675075
1783169601970434300,3.439434326171875,-2.8438123905718324,-0.5190601142168044,1.0731497484996915
1783169601980413200,3.4494130859375,-3.0487691459715363,-0.04039280066490173,0.8550441731914877
1783169601990362000,3.459362060546875,-2.890620903497934,0.40553427280187604,0.7155036005541682
1783169602000311000,3.46931103515625,-2.453510173693299,0.8647928292676806,0.5176355247737839
1783169602010259200,3.47925927734375,-2.130310485228896,1.0682540854126215,0.3475641682617366
1783169602020239000,3.489239013671875,-1.8550807546854018,1.0322402304843068,0.2798455537758767
1783169602030187000,3.49918701171875,-1.404396257558465,0.9428530972868203,0.5020702548407018
1783169602040136200,3.50913623046875,-0.9108499393045901,0.9175976599991321,0.9673957101300358
1783169602050115000,3.519114990234375,-0.6408873355090617,0.8982508622333407,1.414356364428252
1783169602060064000,3.52906396484375,-0.4831172786980867,0.9173881089016794,1.7765100529260933
1783169602070013000,3.539012939453125,-0.3245809136897325,0.9615139586150646,1.8212750773258506
1783169602079962400,3.54896240234375,-0.21381693820357323,1.0144710572987794,1.6992739607714116
1783169602089941200,3.558941162109375,-0.17521277452111242,1.114064819473028,1.5680485042758285
1783169602099890200,3.56889013671875,-0.1452162801861763,1.2162702254503965,1.4559332603111863
1783169602109838300,3.57883837890625,-0.10166589227318763,1.3244810093224049,1.3673675264991818
1783169602119818200,3.588818359375,0.0032557869255542752,1.3820569999784231,1.3250782445631921
1783169602129766100,3.59876611328125,0.18585282647907733,1.4069950418800115,1.3381114752680063
1783169602139715000,3.608715087890625,0.3769710261404514,1.4232225385814905,1.3434760710410774
1783169602149664300,3.618664306640625,0.5247995346516371,1.3968623549222945,1.3150899345122278
1783169602159643100,3.62864306640625,0.7513385917842388,1.3495271877735853,1.2689013070501387
1783169602169592000,3.638592041015625,1.036575921601057,1.3463187471210956,1.2427948058910667
1783169602179540200,3.648540283203125,1.24589847099483,1.3468822262227536,1.270832128982246
1783169602189520100,3.65852001953125,1.3885744190484284,1.3088076393723487,1.3168985913693905
1783169602199468000,3.668468017578125,1.5608803662121296,1.2552899841964245,1.350280198097974
1783169602209417200,3.678417236328125,1.6858546533584593,1.2346353187024592,1.3969403885945677
1783169602219366100,3.6883662109375,1.631829633182287,1.1866788047850132,1.4250409861803055
1783169602229345000,3.698344970703125,1.6181436376571654,1.090192945498228,1.412987121901661
1783169602239294000,3.7082939453125,1.6222300301879644,1.060409217131138,1.4252631044983863
1783169602249243100,3.7182431640625,1.5453437743842602,1.0727443825691938,1.425311912076175
1783169602259222300,3.72822216796875,1.3833482088327407,0.9936398661941289,1.3649809236235917
1783169602269181700,3.738181640625,1.2128273915201424,0.8951490968257189,1.2835885885722935
1783169602279129900,3.7481298828125,1.1645943987488745,0.8559837921291589,1.2060688571706413
1783169602289078800,3.758078857421875,1.0940174722224474,0.8232002974241972,1.17204413023293
1783169602299057700,3.7680576171875,1.0189566782802342,0.7103010634750128,1.158754148288071
1783169602309006600,3.778006591796875,0.9921335532844066,0.5803729533135891,1.1561455732248722
1783169602318955800,3.787955810546875,0.9109218354970217,0.4955594116419553,1.1645267403401434
1783169602328934700,3.7979345703125,0.7953630269497632,0.43030338787734507,1.1647487125277518
1783169602338883800,3.8078837890625,0.749361154231429,0.38060558325052257,1.1352182282693684
1783169602348832000,3.81783203125,0.5951444059878588,0.31336393862664697,1.127649692711234
1783169602358781000,3.827781005859375,0.4110825545787811,0.2795668829649687,1.2256525324322283
1783169602368759800,3.837759765625,0.31767829469442366,0.2728273455768823,1.2825475550867615
1783169602378708700,3.847708740234375,0.18337445366680621,0.24984979009330271,1.2170944013148546
1783169602388658000,3.857657958984375,-0.029179332733154296,0.17907061899304388,1.1239069990515709
1783169602398636800,3.86763671875,-0.17050211261212825,0.07770984714627266,1.1120093482479452
1783169602408585700,3.877585693359375,-0.3446732691258192,-0.015620762979984283,1.129907554640621
1783169602418534700,3.88753466796875,-0.4955307700693607,-0.11105857451856135,1.1445656100682913
1783169602428482800,3.89748291015625,-0.7015437565237284,-0.16543956852555275,1.1290091444961725
1783169602438462700,3.907462646484375,-0.932982276135683,-0.17467267629504202,1.039211969193071
1783169602448410600,3.91741064453125,-1.1436690996199845,-0.18596622372567653,0.8764344594836234
1783169602458359800,3.92735986328125,-1.3465244988262652,-0.17723463573753834,0.6999139633648097
1783169602468308700,3.937308837890625,-1.4945874006152151,-0.07439034733474253,0.5522478058084845
1783169602478287600,3.94728759765625,-1.5636054072618484,0.07014145771861076,0.3603954466536641
1783169602488236500,3.957236572265625,-1.538531171759963,0.17185820339620111,0.1982460057146847
1783169602498186000,3.96718603515625,-1.5538468143135309,0.258389070379734,0.10694412493705749
1783169602508164900,3.977164794921875,-1.5495815580844878,0.3115004828423261,0.019308803842961787
1783169602518113000,3.987113037109375,-1.295127489066124,0.33271512030661105,-0.06256342367976904
1783169602528062000,3.99706201171875,-0.8602963946312665,0.22649814060032367,-0.03671714435946196
1783169602538011000,4.007010986328125,-0.5046177473664284,0.05049100083112716,0.11879457559809088
1783169602547989800,4.01698974609375,-0.3345698082625866,-0.006458966881036758,0.23560221516266464
1783169602557938700,4.026938720703125,-0.3099754652321339,-0.04498948080539703,0.2933944789178669
1783169602567888000,4.036887939453125,-0.40746261051595206,-0.19149404723644256,0.3485147469848394
1783169602577866800,4.04686669921875,-0.46362639628648755,-0.31707974427938457,0.4550054290659725
1783169602587815700,4.056815673828125,-0.5098720146328211,-0.30810441066324706,0.474195940291509
1783169602597763800,4.066763916015625,-0.7169505844920874,-0.2147767231464386,0.4299135117769241
1783169602607712800,4.076712646484375,-1.211742518892884,-0.08418108898699284,0.2649784587074071
1783169602617691600,4.086691650390625,-1.6098253066450356,-0.008474982878565789,-0.0072812430493533606
1783169602627640800,4.096640869140625,-1.7065648484319447,0.032437457746267315,-0.20456629477739333
1783169602637589800,4.10658984375,-1.749388675636053,0.1210170739531517,-0.3231501502342522
1783169602647568600,4.116568603515625,-1.6952561034321785,0.3248737591564655,-0.42739699891135097
1783169602657517600,4.126517578125,-1.5094640672296284,0.5085743760377168,-0.6281070566520095
1783169602667466800,4.136466796875,-1.1092360841423272,0.5552516637995839,-0.7869267686463892
1783169602677415000,4.146414794921875,-0.8073889803081751,0.4619780445575714,-0.7365912506379186
1783169602687393800,4.156393798828125,-0.7849684741854667,0.34175065967738627,-0.6998261389508843
1783169602697343000,4.166343017578125,-0.7086673247933387,0.34370267052799464,-0.6976284827761352
1783169602707292000,4.1762919921875,-0.5688204626858234,0.4439093039035797,-0.67125748546198
1783169602717270800,4.186270751953125,-0.3220592862576246,0.5381839168816804,-0.7185182722002268
1783169602727219700,4.1962197265625,-0.13256664197146892,0.6575783580690622,-0.8444326166756451
1783169602737169000,4.2061689453125,0.006956395009160041,0.6699310591638088,-0.9437485848218202
1783169602747116800,4.21611669921875,0.27173136703372003,0.5643278274416923,-0.956043125988543
1783169602757096700,4.2260966796875,0.5048457109034061,0.36854660440534354,-0.878131472659856
1783169602767044900,4.236044921875,0.6300467925429344,0.17319325139224528,-0.7300979430958628
1783169602776993800,4.245993896484375,0.7301344757139683,0.044779637446999546,-0.5633404238395393
1783169602786972700,4.25597265625,0.9846937586724758,0.02459375850856304,-0.43744653763026
1783169602796921900,4.265921875,1.2316530880212784,0.06595394290089607,-0.36479324322119355
1783169602806870800,4.275870849609375,1.3437421746313571,0.07805997575819491,-0.3067171575559303
1783169602816819700,4.28581982421875,1.3904080642163752,0.011073182678222656,-0.29621669673174617
1783169602826798600,4.295798583984375,1.3787024288535117,-0.09581950433254241,-0.28036417082250115
1783169602836747800,4.305747802734375,1.2460802573025225,-0.20596096400618552,-0.2524076578825712
1783169602846695700,4.31569580078125,1.0835451780468224,-0.30623744774758815,-0.26139157666396345
1783169602856674600,4.325674560546875,1.034610174486041,-0.34129473260343074,-0.28857831080779434
1783169602866624000,4.3356240234375,1.0136223315149544,-0.32996903646886344,-0.3014467063397169
1783169602876573000,4.345572998046875,0.9459843810498714,-0.26560207049846646,-0.29449162650480865
1783169602886521900,4.35552197265625,0.8287199376285076,-0.1888303809851408,-0.2574897469198331
1783169602896500700,4.365500732421875,0.6952706676036119,-0.13847206662297248,-0.25060148524343967
1783169602906450000,4.375449951171875,0.6750754363149404,-0.1079021563142538,-0.28246026631891724
1783169602916397800,4.385397705078125,0.6826297972172498,-0.1101589953303337,-0.27214623144492506
1783169602926377700,4.395377685546875,0.691838939589262,-0.09116904817819595,-0.20780323087200522
1783169602936326000,4.405325927734375,0.744351801636815,-0.026174305698275564,-0.14599018716812132
1783169602946274800,4.41527490234375,0.8043909675359725,-0.0013490765213966369,-0.09562442015185951
1783169602956223700,4.4252236328125,0.7747679826885462,-0.0020744681864976883,-0.13419773203833027
1783169602966202600,4.43520263671875,0.8471697865545749,0.00902735606431961,-0.1810324205853045
1783169602976151800,4.44515185546875,0.9050053049296141,0.08928045795261859,-0.13256678810194134
1783169602986100700,4.455100830078125,0.8659212487757205,0.14908230796456337,-0.040613311547785996
1783169602996079600,4.46507958984375,0.8561965580970048,0.12034312021434307,0.031724943829048426
1783169603006028800,4.47502880859375,0.8582184193134307,0.08499182084798812,0.04185089051872492
1783169603015976700,4.484976806640625,0.7771803045272827,0.12696926035583017,0.0036332419358193874
1783169603025926000,4.49492578125,0.7144160975784063,0.1545271293669939,0.0038749600035138426
1783169603035904800,4.50490478515625,0.76273150793612,0.12920681014955043,0.012883739231526851
1783169603045854000,4.51485400390625,0.7761959696650504,0.11414251200854778,0.02662512733885087
1783169603055803000,4.524802978515625,0.6399421636134386,0.09234919787347316,0.05478051471859216
1783169603065781800,4.53478173828125,0.5689169087976217,0.015911854881048203,0.11312997396513819
1783169603075730700,4.544730712890625,0.4758715453535318,-0.04590893373787403,0.17556743317767975
1783169603085678800,4.554678955078125,0.3082271602600813,-0.06787234374284744,0.22087314032539723
1783169603095627800,4.564627685546875,0.14000176040828227,-0.10174772533774375,0.2729550636097789
1783169603105607000,4.57460693359375,-0.0074836337536573405,-0.16333587424457072,0.298190353158582
1783169603115555800,4.584555908203125,-0.1599170057117939,-0.1609925259888172,0.3541401856511831
1783169603125504800,4.5945048828125,-0.27339374728798865,-0.11058394274413585,0.4188321457922458
1783169603135483600,4.604483642578125,-0.22446341990232466,-0.18248831848204136,0.5383820698022842
1783169603145432800,4.614432861328125,0.027644378250837324,-0.488027262571454,0.8663602247148752
1783169603155381800,4.6243818359375,0.016933014622330666,-0.7975245888978243,1.2528168720811605
1783169603165329700,4.63432958984375,-0.45528526892066,-0.8492226274311542,1.4569523742258548
1783169603175309800,4.644309814453125,-1.1418372080177068,-0.7764402998149394,1.4306266773581504
1783169603185257700,4.6542578125,-1.8350392526537178,-0.7341326054394245,1.3928756233736872
1783169603195207000,4.66420703125,-2.473412559515238,-0.6257078865557909,1.382049401193857
1783169603205155800,4.67415576171875,-2.7753368202388287,-0.2765402286201715,1.2700173054680228
1783169603215135000,4.684135009765625,-2.6029379340946672,0.23075053734779358,0.9787038706079125
1783169603225084000,4.694083984375,-2.162121920031309,0.8159165701568126,0.6659748688839375
1783169603235031800,4.70403173828125,-1.6090864709764718,1.36356155834496,0.4810851883485913
1783169603245011700,4.71401171875,-1.0517518634229899,1.6668290503710508,0.4557483563877642
1783169603254959900,4.7239599609375,-0.5901964281916618,1.6119792698085307,0.6422644690811634
1783169603264942600,4.733942626953125,-0.24013971246182916,1.3176152152061462,1.018412780661881
1783169603274891500,4.7438916015625,0.011026420927047729,1.0426140327215194,1.3647563210874796
1783169603284870700,4.75387060546875,0.1756143410593271,0.793662652772665,1.6162319588169454
1783169603294819600,4.763819580078125,0.308218392431736,0.6087386315762996,1.8753651255622505
1783169603304768800,4.773768798828125,0.2870937713384628,0.5306593665957451,2.1563091420993206
1783169603314748000,4.783747802734375,-0.009522446104884147,0.4705740234673023,2.302441075825691
1783169603324696800,4.79369677734375,-0.3139472914725542,0.4997732299447059,2.1641339905060826
1783169603334644700,4.803644775390625,-0.4227946196824312,0.6882669263213872,1.8189362591147422
1783169603344593700,4.81359375,-0.5035451496988534,0.8996358868509531,1.5055536157876253
1783169603354572800,4.82357275390625,-0.5975847848773003,1.0399883603930473,1.24782885453552
1783169603364521700,4.833521728515625,-0.4936445179313421,1.0857231066077948,1.1136992010310292
1783169603374470700,4.843470703125,-0.27700901517570015,1.056478891944885,1.1470616646677254
1783169603384449800,4.85344970703125,-0.09627660045027732,1.0177432108372448,1.2454792226694524
1783169603394398700,4.863398681640625,0.09710486796796321,0.9426736490666866,1.292415599758923
1783169603404346600,4.8733466796875,0.27712299694418907,0.8430003919154405,1.2647959175579249
1783169603414295600,4.883295654296875,0.421978042602539,0.8457318627059459,1.1867753970272839
1783169603424274700,4.893274658203125,0.5348083029687404,0.9641215107649564,1.0214492257483303
1783169603434223600,4.9032236328125,0.7128080778598785,1.0670850416332482,0.8408226094849407
1783169603444172500,4.913172607421875,0.9405191013813018,1.107582471716404,0.7725948764331638
1783169603454151700,4.923151611328125,1.1536299371421337,1.1097060397416352,0.8318487371735275
1783169603464100600,4.9331005859375,1.250993748307228,1.0575801311850548,0.9412536992661654
1783169603474049800,4.9430498046875,1.3382710497438908,0.9749889417380094,1.0401409206062555
1783169603483997700,4.952997802734375,1.4184049091666937,0.8723077349424362,1.1135019248932598
1783169603493977900,4.962977783203125,1.5170979231089352,0.7460650352954864,1.1623504192143679
1783169603503925800,4.97292578125,1.5817629952430725,0.590005874055624,1.2147886085905133
1783169603513874700,4.982874755859375,1.5479308682680128,0.40475919677615163,1.267961541981995
1783169603523853800,4.992853759765625,1.5611223582744598,0.3168786687493324,1.2849307969614863
1783169603533802800,5.002802734375,1.5709084237515925,0.32200024954676626,1.2885105551443994
1783169603543751700,5.012751708984375,1.4357085106670855,0.3202127816081047,1.3082878532819449
1783169603553699800,5.022699951171875,1.2861515709280966,0.2707499547809362,1.3150475566752253
1783169603563679700,5.0326796875,1.1382885756254195,0.2101268515139818,1.367698219758272
1783169603573627600,5.042627685546875,0.8773942444264888,0.1654711327075958,1.4273973400481044
1783169603583576600,5.05257666015625,0.5953928277909756,0.13427812206447123,1.45578143075034
1783169603593555700,5.0625556640625,0.2840186016768217,0.046345279328525064,1.4379216566719113
1783169603603504600,5.072504638671875,-0.013632219511270522,-0.0322881124034524,1.433891962764412
1783169603613453600,5.08245361328125,-0.21785306185185907,-0.06847352450639009,1.4295520338639616
1783169603623402500,5.092402587890625,-0.16205401774048805,-0.02098258227407932,1.4594868611395357
1783169603633381600,5.102381591796875,-0.19734920300543307,0.0009685527712106704,1.5393388348810373
1783169603643330800,5.112330810546875,-0.40016134759187694,-0.1301908527508378,1.6287242145128547
1783169603653278500,5.122278564453125,-0.6708429133117199,-0.3418199255213141,1.6674940901510416
1783169603663259000,5.1322587890625,-0.9522253212660551,-0.4938362411111593,1.6381456844612956
1783169603673206800,5.142206787109375,-1.1902724453628062,-0.57339610003829,1.6233865067467093
1783169603683155700,5.15215576171875,-1.4981062223911286,-0.6534206538677215,1.6075449406228959
1783169603693104600,5.162104736328125,-1.9694792872816322,-0.7098848838895558,1.5067830114521086
1783169603703083800,5.172083740234375,-2.281695224916935,-0.7011883672147989,1.3447064896188676
1783169603713032700,5.18203271484375,-2.383341827967763,-0.5378320347040891,1.1705325566262006
1783169603722980900,5.19198095703125,-2.452736266711354,-0.25952304284572597,0.9499513849847018
1783169603732960800,5.201960693359375,-2.4648978291481733,-0.03490589368641376,0.6849509336411953
1783169603742908700,5.21190869140625,-2.201109530073404,-0.02695581146478653,0.5760616659857333
1783169603752857600,5.221857666015625,-1.75168818475008,-0.23312018908858298,0.6716086369872093
1783169603762806500,5.231806640625,-1.4061533303588627,-0.38048867887258525,0.8948528903581201
1783169603772785700,5.24178564453125,-1.3394851017087697,-0.44672962202131744,1.0364457193501293
1783169603782734600,5.251734619140625,-1.357549166187644,-0.5811755018681287,1.1518009681493042
1783169603792683500,5.26168359375,-1.3394400935232638,-0.6947679787784814,1.2762652599468827
1783169603802662700,5.27166259765625,-1.2958522962093353,-0.671441463726759,1.3753835135638712
1783169603812611600,5.281611572265625,-1.3191191900283097,-0.4831611178398132,1.2974445338368414
1783169603822559500,5.2915595703125,-1.413866681215167,-0.21365970181524752,0.8770224885046481
1783169603832509000,5.301509033203125,-1.292583065280318,0.058494859066605565,0.35069486750289797
1783169603842487800,5.31148779296875,-0.9428606960713862,0.39496553251445293,-0.13706176143363116
1783169603852436700,5.321436767578125,-0.6535030714541673,0.7557371190041303,-0.5402957579365
1783169603862385700,5.3313857421875,-0.3539665826499462,0.9584680150479078,-0.7970727534770965
1783169603872364800,5.34136474609375,-0.019230770170688628,0.9410901792675256,-0.7438773159928619
1783169603882313700,5.351313720703125,0.22980478093028067,0.8061527165114879,-0.5320772705696523
1783169603892261600,5.36126171875,0.35917467268705366,0.6778349641561507,-0.3809229786366224
1783169603902210800,5.3712109375,0.28328678027093407,0.6099520990192889,-0.29828152030706406
1783169603912189700,5.381189697265625,0.16327333040237427,0.5745744961678981,-0.286679345318675
1783169603922138600,5.391138671875,-0.03990297132134437,0.5799380690276622,-0.40354543707221746
1783169603932087600,5.401087646484375,-0.2026373725414276,0.6337573374986648,-0.6149322255194187
1783169603942036700,5.41103662109375,-0.20651859788894653,0.7241197454690933,-0.833349935516715
1783169603952015600,5.421015625,-0.11489303811490535,0.8193588195651769,-1.014367596924305
1783169603961964500,5.430964599609375,0.07155833877921104,0.9012252018690109,-1.1843205512210726
1783169603971912700,5.44091259765625,0.27746377320587634,0.9487105911433696,-1.2730340229406951
1783169603981892600,5.450892578125,0.4367635238021612,0.908800605559349,-1.2474889550566672
1783169603991840500,5.460840576171875,0.7115443415343761,0.8033201234340668,-1.1297472495123744
1783169604001789700,5.470789794921875,1.0480693755179642,0.7200660861641168,-0.9678288408502935
1783169604011739000,5.48073876953125,1.2703309014618396,0.6670727471232414,-0.8179653193801641
1783169604021717800,5.4907177734375,1.4392302550524472,0.6347860960245132,-0.665299892231822
1783169604031666700,5.500666748046875,1.5208125597178934,0.5784808559566735,-0.518342905858159
1783169604041615600,5.51061572265625,1.6271289081454277,0.5750923825621604,-0.4125535039141774
1783169604051594800,5.5205947265625,1.7380033582687378,0.623982377937436,-0.362950684094429
1783169604061542700,5.530542724609375,1.7035153977334498,0.6289011296391487,-0.3307853212878108
1783169604071491800,5.540491943359375,1.6124562396705149,0.6043213996559381,-0.2961988688141107
1783169604081440800,5.550440673828125,1.4695511590361594,0.5337842206180096,-0.32436347154676914
1783169604091419600,5.560419677734375,1.361982180199027,0.45406654078066344,-0.44045331823080774
1783169604101368600,5.57036865234375,1.4042138867288827,0.41432548202276226,-0.5781377416074276
1783169604111317800,5.58031787109375,1.4350971007704734,0.3825608089715242,-0.6643403995499014
1783169604121296600,5.590296630859375,1.405552441856265,0.2574427294403314,-0.6844920839577913
1783169604131245600,5.60024560546875,1.3571324020802973,0.06430500665009022,-0.6552601442545652
1783169604141193700,5.61019384765625,1.293876027700305,-0.10580021559894084,-0.6720397218808531
1783169604151142700,5.620142578125,1.2737626294761895,-0.21280922246575354,-0.7579922044545412
1783169604161121500,5.63012158203125,1.1881307571589945,-0.2886445079118013,-0.8077326791793108
1783169604171070700,5.64007080078125,1.0846475863307714,-0.41527299200594425,-0.7866980744570493
1783169604181020000,5.65002001953125,1.0917816759943961,-0.5163111077696084,-0.7309250415697693
1783169604190998800,5.659998779296875,0.9981032753437757,-0.5695540376573801,-0.6514245116144418
1783169604200947700,5.66994775390625,0.8245406061172484,-0.6260568461239338,-0.58619011515975
1783169604210896600,5.679896728515625,0.729655752286315,-0.6677122140705585,-0.5122080563649535
1783169604220844800,5.6898447265625,0.653249973475933,-0.6969593513429164,-0.41720542137324806
1783169604230823700,5.69982373046875,0.507568998387456,-0.7358990305900573,-0.3078209175467491
1783169604240772600,5.709772705078125,0.31348259657025335,-0.8023322814404964,-0.18372604358345268
1783169604250721800,5.7197216796875,0.2397679565399885,-0.8672218099802732,-0.032705461032688614
1783169604260700700,5.72970068359375,0.13656710978448391,-0.8768722663789987,0.14641776493042707
1783169604270661400,5.739661376953125,-0.02344868012666702,-0.8981623071670531,0.3118503191933036
1783169604280610300,5.7496103515625,-0.14314356556534766,-0.9558885199487209,0.46554918104261156
1783169604290558500,5.759558349609375,-0.1790437309861183,-0.9813339268505573,0.5665785289779305
1783169604300538400,5.769538330078125,-0.24583003305792808,-0.9716764561891555,0.6356435896366834
1783169604310486300,5.779486328125,-0.35240123302936555,-0.9555401449024676,0.701924864795804
1783169604320435200,5.789435302734375,-0.4095277263522148,-0.9354448668569326,0.7982675162196159
1783169604330414300,5.799414306640625,-0.4399439074039459,-0.8670417772382497,0.8807929469540715
1783169604340363500,5.809363525390625,-0.5572913529336452,-0.7640028430461883,0.9121671593829989
1783169604350312400,5.8193125,-0.6382569870054722,-0.6874047565340995,0.8424617549940944
1783169604360261400,5.829261474609375,-0.6051952598810195,-0.5854957031548023,0.8307710249394178
1783169604370240500,5.839240478515625,-0.5501514180511236,-0.5147849211156368,0.8580895322367549
1783169604380189400,5.849189453125,-0.27606851945519445,-0.5533014065146445,1.0469830415859818
1783169604390137300,5.859137451171875,0.16011398958861828,-0.7615799998134374,1.379906543946266
1783169604400116500,5.869116455078125,0.41516894710958,-0.9394342287540435,1.7402058367490767
1783169604410065400,5.8790654296875,0.5510252782762051,-1.1110907720983028,2.0572309282317756
1783169604420014300,5.889014404296875,0.4510188436478376,-1.2556535568118095,2.3695082406654953
1783169604429963300,5.89896337890625,-0.42927638291716574,-1.3355588681757449,2.666988089200854
1783169604439942400,5.9089423828125,-1.8341700686037539,-1.3405343185007572,2.7774361306056377
1783169604449891300,5.918891357421875,-2.5330560040950774,-0.9873954188466072,2.3785402729049325
1783169604459839200,5.928839111328125,-2.555306414347887,-0.3206172707557678,1.8103212832435964
1783169604469819400,5.9388193359375,-2.406683540588617,0.424950920933485,1.3657149369865655
1783169604479767300,5.948767333984375,-2.100292948105931,1.1414309653043746,0.8278060376539826
1783169604489716200,5.95871630859375,-1.3211504035949706,1.778756808939576,0.40800687346048653
1783169604499665400,5.96866552734375,-0.5578139155030251,2.1906536025106904,0.2732563846439123
1783169604509644500,5.97864453125,-0.23163024279177188,2.173854443401098,0.5700973507538437
1783169604519593500,5.988593505859375,-0.3308522490441799,1.7650947788119316,1.1360624240085482
1783169604529542400,5.99854248046875,-0.2953033812791109,1.2991542603641748,1.577319459837675
1783169604539521500,6.008521484375,-0.08718962315320967,1.033955509969592,2.0637924787044524
1783169604549470500,6.018470458984375,-0.0883387931883335,0.9584119009464979,2.3599647517725826
1783169604559418400,6.02841845703125,-0.1433124923914671,0.9595745149850845,2.3779615962341425
1783169604569367300,6.0383671875,-0.1503840382128954,1.004145478117466,2.2030945664107797
1783169604579346400,6.048346435546875,-0.2736532750070095,1.1484779612064362,1.9374550865113733
1783169604589295400,6.05829541015625,-0.3886024272233248,1.3562316538482904,1.683732838898897
1783169604599244300,6.068244384765625,-0.33173955327272414,1.5506395427048205,1.5043760964408517
1783169604609192400,6.0781923828125,-0.2124883199483156,1.7038766322612762,1.3702942276008427
1783169604619172400,6.08817236328125,-0.15493571016788482,1.774657556927204,1.2600487230308353
1783169604629120300,6.098120361328125,-0.174251236012578,1.7209961093664168,1.155638135159388
1783169604639069400,6.1080693359375,-0.1582043565750122,1.6447697787761688,1.05403588270694
1783169604649048300,6.11804833984375,-0.019318448454141615,1.5971972957402467,1.0128406796179712
1783169604658997200,6.127997314453125,0.09417232164740562,1.5589987902492284,1.0404881266087294
1783169604668946400,6.137946533203125,0.1996440359443426,1.4843775567680597,1.09659820943065
1783169604678895400,6.147895263671875,0.2612327693730593,1.3877262777864932,1.127982431796938
1783169604688874500,6.15787451171875,0.31583179004490375,1.3077975855469703,1.1283720156364143
1783169604698823400,6.167823486328125,0.44418987441062924,1.3180886779367922,1.0685796641051768
1783169604708771600,6.177771484375,0.4722258823275566,1.3704577475994824,0.9432354476679116
1783169604718751500,6.18775146484375,0.3550906182438135,1.362801095366478,0.8007945504792034
1783169604728699400,6.197699462890625,0.48467619857788086,1.2696908499926327,0.6598411884345113
1783169604738648300,6.2076484375,0.7709855415403842,1.0886848790228367,0.6133243519313633
1783169604748597500,6.217597412109375,0.9240057734757662,0.8608958218291402,0.6543765663530677
1783169604758576400,6.227576416015625,1.0027519779324532,0.6142419051676988,0.6923533188521862
1783169604768525300,6.237525390625,1.1489543465465306,0.34994273396134373,0.720407154686749
1783169604778473500,6.247473388671875,1.2796698076933621,0.1243412499397993,0.7745623771138489
1783169604788453400,6.257453369140625,1.2172563138782977,-0.12211246797442435,0.834731014611572
1783169604798401300,6.2674013671875,1.0654700076520442,-0.32318682898283,0.8667949628703295
1783169604808350200,6.27735009765625,0.9687433253467083,-0.36928017937690016,0.8671509367011487
1783169604818299400,6.28729931640625,0.8849228863656521,-0.34011545969098805,0.76925886387825
1783169604828278300,6.2972783203125,0.755452456843853,-0.331407837100327,0.6454542050331831
1783169604838227500,6.3072275390625,0.6025508828520775,-0.37579993653446436,0.5460317077726126
1783169604848176400,6.31717626953125,0.5172264690488576,-0.4264490505367517,0.4659126075275242
1783169604858155500,6.327155517578125,0.48715574043393134,-0.4653367073357105,0.42470220686942334
1783169604868104400,6.3371044921875,0.4684299971759319,-0.5411579642564058,0.48587125358134503
1783169604878052400,6.34705224609375,0.3768798407256603,-0.6278782163321972,0.6392563733063638
1783169604888001500,6.35700146484375,0.2132949601560831,-0.7265402506142854,0.7245395783163606
1783169604897980400,6.36698046875,0.05164484704136848,-0.822256879094243,0.7513672333568334
1783169604907929300,6.376929443359375,-0.1125379994213581,-0.8832593370676041,0.782816702979058
1783169604917878300,6.386878173828125,-0.3235106541097164,-0.9202686327740549,0.724587509111315
1783169604927857400,6.396857421875,-0.5885971763014793,-0.951158568817377,0.6129428052678704
1783169604937806300,6.406806396484375,-0.848329477983713,-0.9819570271849631,0.5009292681120335
1783169604947754500,6.41675439453125,-1.0561387002050877,-1.026474798825383,0.4535651671297848
1783169604957703400,6.426703369140625,-1.2829261791408062,-1.0466291135817765,0.4273430767670274
1783169604967682300,6.436682373046875,-1.5155442639261483,-1.0066226818859576,0.36897359764575954
1783169604977631200,6.44663134765625,-1.6347440593242644,-0.9749211371988058,0.3434432889394462
1783169604987580400,6.456580322265625,-1.4229478132933377,-1.0717208847403525,0.39390857080742714
1783169604997559300,6.466559326171875,-1.099987778803706,-1.285617610181868,0.6348482745405286
1783169605007508500,6.476508544921875,-1.3031436222612858,-1.5111965901106594,0.945887204285711
1783169605017457400,6.48645751953125,-1.8152257141590118,-1.7257313211947678,1.0704749763324857
1783169605027405600,6.496405517578125,-2.0943501140534875,-1.880722560942173,1.018097431102395
1783169605037385500,6.506385498046875,-2.369317978790402,-1.8154419872581957,0.8353085222385823
1783169605047333400,6.51633349609375,-2.7656723353147505,-1.529414968368411,0.535268760087341
1783169605057282600,6.526282470703125,-2.9201906968533993,-1.1589268745064736,0.20264497132599352
1783169605067261400,6.536261474609375,-2.8509084863126275,-0.6972972049951552,-0.25196692837774753
1783169605077210400,6.54621044921875,-2.6391765376895666,-0.152813018925488,-0.6790326495081186
1783169605087159300,6.5561591796875,-2.148330126044154,0.287617502951622,-0.9444370054773986
1783169605097107500,6.566107421875,-1.5262094503253698,0.5114335648611188,-1.0097514083657413
1783169605107087400,6.57608740234375,-0.9561188215732573,0.5982090542554855,-0.9532051260836422
1783169605117035300,6.58603515625,-0.5837006364315748,0.6099608668476343,-0.7789341624572873
1783169605126984400,6.595984375,-0.33189971227049825,0.592020136487484,-0.4741143264226615
1783169605136963300,6.60596337890625,-0.04619476494193077,0.5952487431451678,-0.2477671386003494
1783169605146912300,6.615912353515625,0.23784487952291963,0.6270002644538879,-0.18381364880166948
1783169605156861200,6.625861083984375,0.30671617117524147,0.6268821910321712,-0.17422127926573155
1783169605166810600,6.635810546875,0.31583821978569027,0.5614344440877437,-0.16899945296421645
1783169605176789500,6.64578955078125,0.3416647349596023,0.5335431053385138,-0.16336963038370012
1783169605186738400,6.655738525390625,0.42519408203959463,0.5574515119314193,-0.19682313330471515
1783169605196686600,6.6656865234375,0.6741209120690822,0.626317542886734,-0.24336510424911975
1783169605206666500,6.67566650390625,0.9591326164364814,0.7085378531947731,-0.2502113168820739
1783169605216614400,6.685614501953125,1.1899737546771765,0.7321800100669265,-0.2803643169529736
1783169605226563300,6.695563232421875,1.3532085066348314,0.7038415120720863,-0.34067134000807997
1783169605236512500,6.705512451171875,1.5406816277921198,0.6685618166372179,-0.35099326592758295
1783169605246491400,6.715491455078125,1.529178237003088,0.5941682544320821,-0.42568800303637977
1783169605256440300,6.7254404296875,1.6788351299852131,0.537181461840868,-0.4783434884250164
1783169605266406000,6.735406005859375,1.9408406372964382,0.6453028138637542,-0.3780044608414173
1783169605276385800,6.7453857421875,1.6950357386797665,0.8028630273163319,-0.22502090765461324
1783169605286333700,6.755333740234375,1.353205584025383,0.8051748113900422,-0.06620572570487857
1783169605296283000,6.765282958984375,1.317367377924919,0.6856231338143348,-0.00489317886903882
1783169605306231800,6.775231689453125,1.2857312996894121,0.6123322721540928,-0.03639240591712296
1783169605316210700,6.785210693359375,1.1672200710773468,0.6321405499517917,-0.056921545335277914
1783169605326159600,6.79515966796875,1.0232944152235983,0.6421253528714179,-0.07453866976425051
1783169605336108800,6.80510888671875,1.0142530306339264,0.5842804821461439,-0.09043065090104938
1783169605346057000,6.815056884765625,1.1699860286593438,0.538294976040721,-0.189907947088778
1783169605356036900,6.825036865234375,1.3405711433798073,0.520967116881907,-0.3174796303171664
1783169605365985000,6.834985107421875,1.4098019159942865,0.518684266641736,-0.43366599617823953
1783169605375934000,6.844933837890625,1.440420341619849,0.4740203645288944,-0.5239215827733278
1783169605385912800,6.854912841796875,1.4050515065968037,0.3600052782922983,-0.5251739209219813
1783169605395861800,6.86486181640625,1.3570254345744848,0.195366797016561,-0.43487829457744953
1783169605405811000,6.87481103515625,1.3142179739832878,0.029071196183562277,-0.3469517354518175
1783169605415758800,6.8847587890625,1.279410864496231,-0.1234960312873125,-0.29769071480706333
1783169605425738800,6.89473876953125,1.2016916649997234,-0.21945903574377298,-0.228745773396641
1783169605435687000,6.90468701171875,1.10011111292243,-0.3026192572504282,-0.22135800123289226
1783169605445635800,6.9146357421875,1.051050437155366,-0.3677393796756863,-0.23479144676905123
1783169605455614700,6.92461474609375,0.9547299975633621,-0.3800590552836656,-0.27100129919350147
1783169605465563600,6.934563720703125,0.8480325408637523,-0.44730946773588653,-0.3094095019124448
1783169605475512800,6.944512939453125,0.8681821794450283,-0.5086839738920331,-0.31591201567426325
1783169605485461800,6.954461669921875,0.8931728283166885,-0.4640279628247022,-0.29227058945447204
1783169605495440600,6.964440673828125,0.8207277698308229,-0.4455491800650954,-0.24184238819386808
1783169605505389800,6.974389892578125,0.7650321860939264,-0.5426140082836151,-0.10879618254452943
1783169605515337700,6.984337646484375,0.675247870272398,-0.6538181287527084,0.04757657468914985
1783169605525318000,6.99431787109375,0.5226075775653124,-0.7135667872726917,0.17307269375249743
1783169605535266000,7.00426611328125,0.39251112509965896,-0.7207201661586761,0.2459706105723977
1783169605545215000,7.014215087890625,0.27720541453063485,-0.7395084532588719,0.2530121996469796
1783169605555164000,7.024163818359375,0.1637812799245119,-0.7125923892825842,0.2299156939588487
1783169605565142800,7.034142822265625,0.02509995446503162,-0.6189879306510091,0.23785437800362705
1783169605575091700,7.044091796875,-0.05730418797731399,-0.49253392634093757,0.23655425519049167
1783169605585040000,7.054039794921875,-0.06799275525212288,-0.36393034278154374,0.2265375958278775
1783169605595019800,7.064019775390625,-0.08044248698055743,-0.2493514851823449,0.27720453774780035
1783169605604968000,7.073968017578125,-0.12100596803724765,-0.12859569251388311,0.3877338276952505
1783169605614916900,7.083916748046875,0.02703764452934265,-0.1474246038854122,0.6185832953728735
1783169605624865800,7.09386572265625,0.5197206239521504,-0.4161223023116588,0.9897424203641713
1783169605634844700,7.1038447265625,0.5994125848263502,-0.6269935424521565,1.2034284256644547
1783169605644793900,7.1137939453125,0.11343524052202701,-0.6200409468352794,1.3665117864526808
1783169605654742800,7.12374267578125,-0.32844869503378865,-0.6617249563544988,1.6906227445431052
1783169605664721700,7.1337216796875,-0.6354851842045783,-0.8789297834306955,2.0799064320288596
1783169605674670800,7.1436708984375,-1.1345178249150514,-1.024658689314127,2.2769043373785913
1783169605684618800,7.15361865234375,-1.957503018283844,-0.8272539567291736,2.172242478159815
1783169605694568000,7.16356787109375,-2.2866882108986375,-0.4034562974840402,1.6868518477022647
1783169605704546800,7.173546875,-1.6842974870443344,-0.017529519210755823,1.0908654379323124
1783169605714496000,7.18349609375,-0.8169324692010879,0.3851546248570084,0.6503887388259172
1783169605724445000,7.19344482421875,-0.0718260498046875,0.8492907242313027,0.4262025284297764
1783169605734423800,7.203423828125,0.4478226779550314,1.1176368327409028,0.5140504693612457
1783169605744372700,7.213372802734375,0.585048543909192,0.987552362973988,0.8687475582428276
1783169605754322000,7.223322021484375,0.47848435820043084,0.6421823437556624,1.3082351001814008
1783169605764269800,7.233269775390625,0.38325229836702346,0.3295569485366344,1.8324515742480754
1783169605774249000,7.2432490234375,0.3266699949234724,0.12092208914607763,2.264202092193812
1783169605784198000,7.253197998046875,0.1804991904914379,0.042132337808609005,2.497382633167505
1783169605794146800,7.263146728515625,0.03501929093301296,0.07185001520216465,2.433189270198345
1783169605804125700,7.273125732421875,-0.18501345304548739,0.24478198530972003,2.1293391559787094
1783169605814075000,7.283074951171875,-0.35825989592969415,0.4345733202815056,1.7259360499866305
1783169605824023800,7.29302392578125,-0.35690906584262844,0.532886394995451,1.4189847548812626
1783169605833971700,7.3029716796875,-0.27229601517915725,0.6445154628783464,1.1715097310952842
1783169605843951600,7.31295166015625,-0.10462941825389861,0.7955991737931967,1.0028815956614912
1783169605853899800,7.322899658203125,0.11971125205159186,0.8829214834153651,0.9227565040670335
1783169605863849000,7.332848876953125,0.36769758636057376,0.8740086936414241,0.9109656746387481
1783169605873827800,7.342827880859375,0.565443679729104,0.7615086881428956,0.9682058574691415
1783169605883777000,7.352777099609375,0.5922025073170661,0.5602326670825482,0.9726704356625676
1783169605893726000,7.362725830078125,0.613797668531537,0.4206973551422357,1.0031316248998046
1783169605903675000,7.3726748046875,0.62307987613976,0.43237727154195305,1.1269909365415574
1783169605913653800,7.38265380859375,0.4374783940732479,0.5187462259620428,1.2277486279286443
1783169605923603000,7.39260302734375,0.34474633436203,0.5459405223578214,1.2837214211717247
1783169605933550800,7.40255078125,0.469959106439352,0.5322995350182056,1.2882573110356925
1783169605943529700,7.41252978515625,0.4878068978190422,0.5753437269747257,1.2022336629219352
1783169605953479000,7.42247900390625,0.397815076726675,0.635006460776925,1.066153752132505
1783169605963427800,7.432427734375,0.29041619375944133,0.6417372303366661,0.9856703486196696
1783169605973376800,7.442376708984375,0.22419453983306883,0.5409200638473034,0.9730027363568544
1783169605983355600,7.452355712890625,0.22338906866908073,0.350391646772623,1.0300200702168048
1783169605993304800,7.462304931640625,0.14334581013917921,0.14849427894353864,1.145510928094387
1783169606003252700,7.472252685546875,0.07139116551876068,0.09806231482326984,1.2419262063629926
1783169606013232600,7.482232666015625,0.17972879064083097,0.11191548360884189,1.2162060741730034
1783169606023180800,7.492180908203125,0.25983400849103927,0.06930617593824863,1.1384893588945268
1783169606033130000,7.5021298828125,0.1325280635267496,-0.03540390633642673,1.0392381265476345
1783169606043079000,7.512078857421875,0.04902326636612415,-0.1130868654757738,0.8875226936005055
1783169606053057800,7.522057861328125,0.08881927018165588,-0.07326631174087524,0.7260008099753409
1783169606063007000,7.532007080078125,0.13151391804814339,0.008365677285194396,0.6307062793649733
1783169606072956000,7.541955810546875,0.19573942972123623,0.06594283698499202,0.5642496476389467
1783169606082903800,7.55190380859375,0.28757483285367486,0.08091185805797577,0.55831748111099
1783169606092883700,7.5618837890625,0.3081342212796211,0.023523498928546903,0.5934468082897365
1783169606102831900,7.571831787109375,0.28394729000627994,-0.07124854217767715,0.6361332728497684
1783169606112780800,7.58178076171875,0.24231997911036013,-0.17143559406995773,0.697308895432949
1783169606122760000,7.591760009765625,0.130201666405797,-0.26167349887788294,0.7014525711089372
1783169606132708900,7.601708984375,-0.02196224096119404,-0.3089361853122711,0.6112652274444699
1783169606142657800,7.61165771484375,-0.14215630809366703,-0.30972645890712736,0.46727995035797354
1783169606152605700,7.621605712890625,-0.12051263156235217,-0.29055297188162804,0.29681736603863534
1783169606162585900,7.6315859375,-0.0997895770072937,-0.277630361944437,0.18836451703906057
1783169606172533800,7.64153369140625,-0.208352827578783,-0.2571089674413204,0.09965542923361062
1783169606182482700,7.651482666015625,-0.3502402556031942,-0.2073907045483589,-0.03848652865216136
1783169606192461800,7.6614619140625,-0.43470483770668505,-0.1977396636277437,-0.04687646359577775
1783169606202411000,7.671410888671875,-0.4645651384413242,-0.44798342147469516,0.15463395074233413
1783169606212360000,7.68135986328125,-0.6129799224078655,-0.7771522474765777,0.374668594416976
1783169606222308900,7.691308837890625,-0.9876058467268943,-0.9289566738814115,0.42667153418101367
1783169606232288000,7.7012880859375,-1.3929033881634474,-1.0545219126582146,0.345421457144618
1783169606242237000,7.71123681640625,-1.7034376563221216,-1.2160200500816105,0.22061821571625767
1783169606252184800,7.721184814453125,-1.8682751673012972,-1.1816121690452097,0.08953874356262385
1783169606262164700,7.731164794921875,-2.0276292784333227,-0.9196803114920854,-0.08348273145928979
1783169606272144100,7.74114404296875,-2.1821505625814197,-0.5033937585294246,-0.3761009653076529
1783169606282093000,7.751093017578125,-1.8275076881051062,-0.06007774434387683,-0.7219077685080468
1783169606292042000,7.7610419921875,-1.1559276926904916,0.36167584185302254,-1.0046443675503134
1783169606302021000,7.771021240234375,-0.7009054586201906,0.7258475921750068,-1.0939026136711238
1783169606311970000,7.780969970703125,-0.404751013469696,0.8702525559782981,-0.8195048039071261
1783169606321918000,7.79091796875,-0.32024960648715495,0.7297159580409527,-0.35639307914450763
1783169606331897900,7.80089794921875,-0.40845337511897084,0.5697720643222332,-0.0837771843612194
1783169606341846000,7.810845947265625,-0.3991407723724842,0.5353969165116548,-0.023682342752069232
1783169606351795000,7.820794921875,-0.17640110752284527,0.616488807311654,-0.025031784599646924
1783169606361744000,7.830743896484375,0.11261866344213485,0.783598939397931,0.009289075740426778
1783169606371723000,7.840722900390625,0.2569435477465391,0.909296864643693,0.04920899819657206
1783169606381672200,7.850672119140625,0.3257534646004438,0.8889461505323648,0.032382512688636775
1783169606391621000,7.86062109375,0.41444647805392737,0.7657564087152481,0.005476823975890875
1783169606401600000,7.87060009765625,0.5554448482841253,0.6423831270247697,-0.01676832557991147
1783169606411549200,7.880549072265625,0.682321754181385,0.6028127486586571,0.01704100504145026
1783169606421497000,7.8904970703125,0.7106804181814194,0.5576964266031981,0.08383227554932236
1783169606431446000,7.900446044921875,0.7027262443065643,0.46241643597483634,0.1587207816645503
1783169606441425200,7.910425048828125,0.7234545595586299,0.36118016729056834,0.201746122790128
1783169606451374000,7.9203740234375,0.7836649903714656,0.3454360701918602,0.21719328276887534
1783169606461323000,7.930322998046875,0.8233663016408681,0.36403847933113576,0.23910481645613907
1783169606471302100,7.94030224609375,0.8508470137625932,0.3759305771768093,0.24006460139900446
1783169606481251000,7.9502509765625,0.8406745793163776,0.348012058159709,0.2153397638566792
1783169606491199000,7.960198974609375,0.8535936821222305,0.31145664370059967,0.20273937161117792
1783169606501148000,7.97014794921875,0.9699228905200957,0.325473478615284,0.267899679916352
1783169606511127000,7.980126953125,0.9978121834427117,0.3573655774384737,0.3555103049606085
1783169606521076000,7.990075927734375,1.007162780112028,0.35769817039370533,0.4032726114802062
1783169606531025000,8.00002490234375,1.0350661015599965,0.3113116822719574,0.43052389876022934
1783169606541004000,8.010004150390625,1.0317366648763417,0.22736674012839792,0.448598192372173
1783169606550953000,8.019952880859375,0.9507155012249946,0.1314776776909828,0.44576150764152406
1783169606560902100,8.029902099609375,0.8725824602305888,0.06043488721847534,0.39374388176500796
1783169606570850000,8.03985009765625,0.8808698115825653,0.010587444987893104,0.3097222211234271
1783169606580830200,8.049830322265626,0.8421253626465797,-0.035143209573626516,0.23130057244598864
1783169606590778000,8.059778076171876,0.8200736898362636,-0.08479892862439155,0.1449475462473929
1783169606600727000,8.06972705078125,0.9195610690265893,-0.11136194137930869,0.05661737475693226
1783169606610706200,8.0797060546875,0.9769108497112989,-0.10599778399765492,-0.01778831627741456
1783169606620655000,8.089655029296875,0.8911246636152267,-0.16934359022676942,-0.08194660793319344
1783169606630604000,8.09960400390625,0.8517091835498809,-0.28944004220366476,-0.12141250301152468
1783169606640552000,8.109552001953125,0.9061854546248912,-0.34534956095218655,-0.08954393119439483
1783169606650532000,8.119531982421876,0.838835088929534,-0.37904257171750066,-0.019465747970342635
1783169606660480000,8.12947998046875,0.7105939089417457,-0.47583588951826095,0.08297127480581402
1783169606670429000,8.139428955078126,0.6175093825310468,-0.6161842714071274,0.141583768902719
1783169606680408000,8.149407958984375,0.54609249804914,-0.678958999750018,0.20425138360932468
1783169606690357000,8.15935693359375,0.46807811499834057,-0.7181897708982229,0.2957245293006301
1783169606700306000,8.169305908203125,0.4292810590922832,-0.7446738731980324,0.34257629684656854
1783169606710255000,8.179255126953125,0.30814591171741484,-0.7811538843333721,0.36719139040410514
1783169606720234000,8.18923388671875,0.1708826363623142,-0.8647282395988702,0.3889287365682423
1783169606730183200,8.19918310546875,0.026475334471464156,-0.9352245021045208,0.42953634902760385
1783169606740131000,8.209131103515626,-0.21837387085556983,-0.9515326628267764,0.4236480216413736
1783169606750111000,8.219111083984375,-0.36271921342611313,-0.9017682227045297,0.37424744639545676
1783169606760059100,8.22905908203125,-0.3749357209205627,-0.7910457482725382,0.3548641160115599
1783169606770008000,8.239008056640625,-0.41413901953995225,-0.628296149483323,0.3648727381981909
1783169606779957000,8.24895703125,-0.4588602047979831,-0.520004701590538,0.3675457567997277
1783169606789936000,8.25893603515625,-0.3758738785535097,-0.5571627581179142,0.3812834825120866
1783169606799885000,8.268885009765626,-0.08845102139115334,-0.8279027760267257,0.6953554232776165
1783169606809833000,8.2788330078125,0.12562544453144073,-1.2749381029963494,1.2127112177945674
1783169606819782100,8.2887822265625,-0.06482230852246285,-1.4715776964277028,1.506333660249412
1783169606829761000,8.298760986328125,-0.8502145610779523,-1.4513240129500626,1.683891536591947
1783169606839710000,8.3087099609375,-1.9722528436481952,-1.5645950028210878,1.8328306366935372
1783169606849659000,8.318658935546875,-2.910980969959497,-1.577151702055335,1.6423231162764131
1783169606859638000,8.328637939453126,-3.2789012591600417,-1.1057353825449943,1.1005059574589133
1783169606869587000,8.3385869140625,-2.834264810025692,-0.4028139079272747,0.5217518375188112
1783169606879535900,8.348535888671876,-1.7627496769905089,0.46467210594713687,-0.035792613393068315
1783169606889484000,8.358484130859376,-0.6455752010643482,1.3265332656770943,-0.4310718880318105
1783169606899464200,8.368464111328125,0.060435471740365024,1.7542250097513197,-0.35258711099028583
1783169606909412000,8.378412109375,0.3026157501190901,1.501855930313468,0.19969430482685566
1783169606919361000,8.388361083984375,0.2426566637188196,0.9482084868401288,0.7620669065475464
1783169606929340200,8.398340087890626,0.19624387211203573,0.4827110359847545,1.289921006464213
1783169606939289000,8.4082890625,0.3128746938049793,0.17915479014515875,1.8131442317098379
1783169606949238000,8.418238037109376,0.40689679332673545,0.02601063956916332,2.1553905659496784
1783169606959186200,8.428186279296876,0.38314182372987265,0.037433366337418554,2.2924133105471727
1783169606969166000,8.438166015625,0.21693010178804395,0.17778350179195404,2.2081186781831086
1783169606979114000,8.448114013671875,-0.052931379720568654,0.37693887743651866,1.860916767362505
1783169606989063000,8.45806298828125,-0.25835341454446314,0.6085398941338062,1.3995264595650136
1783169606999042000,8.4680419921875,-0.41111002710759637,0.8110270445495843,1.0701263820905238
1783169607008991000,8.477990966796876,-0.4657447036147117,0.9593594109296798,0.7926581519052386
1783169607018940000,8.48793994140625,-0.33551556468009947,0.9856289936959743,0.5730586847774685
1783169607028888800,8.497888916015626,-0.13880933575332163,0.913289733672142,0.4049574958272278
1783169607038868000,8.507867919921875,0.03822305541038513,0.8352882101029158,0.34797267599739135
1783169607048817000,8.51781689453125,0.1110392852962017,0.7012117480903863,0.41006621714308855
1783169607058765000,8.52776513671875,0.16992518950700758,0.5190653749138117,0.5285219892408698
1783169607068745200,8.5377451171875,0.2805985641002655,0.4481260448157787,0.6771157099708914
1783169607078692900,8.54769287109375,0.369202145704627,0.4415595259070396,0.7782770867880433
1783169607088642000,8.55764208984375,0.5291390251606702,0.45283962933421135,0.8199475792385638
1783169607098591000,8.567591064453126,0.6951525941818952,0.4783160158962011,0.8935971181433647
1783169607108570000,8.577570068359375,0.7456663913667202,0.4810609306901693,1.0039679295934736
1783169607118519000,8.58751904296875,0.8018272545278072,0.487098457288742,1.1046871156010776
1783169607128467200,8.59746728515625,0.8807856404304504,0.48283144749402995,1.1803976786889134
1783169607138447000,8.607447021484376,0.9427589892625808,0.4841664954900741,1.296924163224548
1783169607148395000,8.61739501953125,0.9520423659145831,0.4517337139189243,1.4196075629547238
1783169607158344000,8.627343994140626,1.0129027850687504,0.3645674716413021,1.5553262392163276
1783169607168293000,8.637293212890626,1.0295686731874942,0.2816927890777588,1.6763004969410598
1783169607178272000,8.64727197265625,0.9371417339026927,0.17863398114144802,1.792370762141794
1783169607188221000,8.657220947265625,0.7414958276838064,0.044458150407671926,1.85813342025429
1783169607198169900,8.667169921875,0.5412836364626884,-0.0800216312199831,1.8619718293733893
1783169607208149000,8.67714892578125,0.30158056185245513,-0.15571721593439578,1.7493213094882667
1783169607218098000,8.687097900390626,0.0030699089646339414,-0.18163257843554018,1.5061200174987315
1783169607228045800,8.6970458984375,-0.16791911038160323,-0.16942951494455336,1.2856823459811508
1783169607237995300,8.706995361328126,-0.19178981531262396,-0.1252735623538494,1.1708426454886793
1783169607247974000,8.716973876953125,-0.15993337232470511,-0.060824178797006606,1.109814760813117
1783169607257923000,8.726923095703125,-0.20966215661168097,-0.049698389148712156,1.0897270815521478
1783169607267901200,8.736901123046875,-0.3391045290827751,-0.13174597323834894,1.053785999599099
1783169607277880000,8.746880126953124,-0.3687608316779136,-0.2953723548620939,0.9823562556356191
1783169607287829200,8.756829345703125,-0.3443430142581463,-0.3954623761206865,0.9234282658487558
1783169607297777200,8.766777099609374,-0.2562567345261574,-0.40793139707148074,0.8940376284524798
1783169607307726300,8.776726318359374,-0.2435024668931961,-0.39534605626463887,0.853694366017729
1783169607317705500,8.78670556640625,-0.3812579096794128,-0.39511692368388174,0.6923774303801358
1783169607327654400,8.796654296875,-0.5250783515930175,-0.40100773528814315,0.4933275609366595
1783169607337603300,8.806603271484375,-0.5654910260021686,-0.35608196736872194,0.2662906372845173
1783169607347582500,8.81658251953125,-0.538975359520316,-0.26981588880121704,0.03675298285782337
1783169607357531400,8.826531494140625,-0.5105991598635912,-0.16180676498115062,-0.14900339750945568
1783169607367480300,8.836480224609375,-0.49197687698006626,-0.10405132610499858,-0.20468056880682706
1783169607377428200,8.84642822265625,-0.42012452369034287,-0.29511691879630086,-0.05276625228673219
1783169607387408400,8.856408447265625,-0.2732908714354038,-0.654443567174673,0.17715704045668243
1783169607397356300,8.866356201171875,-0.43509296024143695,-0.7189712766647338,0.1180453646659851
1783169607407305200,8.87630517578125,-0.7831938657283782,-0.618767858159542,-0.0712752840541303
1783169607417284400,8.886284423828124,-1.057070428097248,-0.67391983653903,-0.20927695668637752
1783169607427233300,8.8962333984375,-1.2372948933005332,-0.7983762372910976,-0.3828052852518856
1783169607437182200,8.90618212890625,-1.566384808847308,-0.7688555437743664,-0.5933151447340845
1783169607447131400,8.91613134765625,-1.885739512321353,-0.5783914241075515,-0.828285491733998
1783169607457110300,8.9261103515625,-1.8635791184395551,-0.25045067859590053,-1.1467083211854099
1783169607467059500,8.9360595703125,-1.4439508538335561,0.13600830685794352,-1.4480803548537193
1783169607477007400,8.94600732421875,-0.8015414233237504,0.47440965610742564,-1.6680990703068672
1783169607486956300,8.955956298828125,-0.29984219375252724,0.679043170902133,-1.6930378428608177
1783169607496935400,8.965935302734374,-0.06222118611335754,0.6633142713725566,-1.372887751225382
1783169607506884400,8.97588427734375,0.05108955124616622,0.4473147284328937,-0.9561397182308137
1783169607516833300,8.985833251953125,0.13806290130019186,0.3189443691074848,-0.6928929786868393
1783169607526812400,8.9958125,0.29329321050047874,0.23305530715882777,-0.5458456836812198
1783169607536761300,9.00576123046875,0.3957634048938751,0.22606676344573495,-0.43403731370866294
1783169607546709200,9.015709228515625,0.3572159398347139,0.3168295689105987,-0.4025114178493619
1783169607556658200,9.025658203125,0.27563597325682637,0.4033189348399639,-0.5696244725450873
1783169607566637300,9.03563720703125,0.25697102027535434,0.478722843131423,-0.8273831360667944
1783169607576586200,9.045586181640624,0.3277145355403423,0.5663958658874034,-0.9887098624460399
1783169607586535200,9.05553515625,0.4653361228138208,0.6508177778929471,-1.0927902685150503
1783169607596514300,9.065514404296875,0.7362883221685886,0.6862398044079542,-1.1646772547267377
1783169607606463200,9.075463134765625,0.8945733427643775,0.6473299357771873,-1.1401871027231216
1783169607616412200,9.085412109375,1.0414525877267122,0.4807774375736713,-0.9931500368505716
1783169607626360000,9.095360107421875,1.2526812630027533,0.31930326554775235,-0.7877518212936818
1783169607636340500,9.105340576171875,1.3187854280292988,0.239283972415328,-0.5881836270645261
1783169607646288400,9.115288330078124,1.329368781363964,0.1787526390850544,-0.47473216606006025
1783169607656237300,9.1252373046875,1.436425719025731,0.15863047303259373,-0.45515587038733063
1783169607666216400,9.135216552734375,1.4948369914621114,0.17909809152185915,-0.46238618696704503
1783169607676165400,9.145165283203125,1.4596663093596696,0.16799860535860062,-0.4475502176892012
1783169607686114300,9.1551142578125,1.399082953581214,0.13728548718690872,-0.4361842626094818
1783169607696062200,9.165062255859375,1.2907377296745777,0.10039806429445743,-0.4469664995171129
1783169607706042400,9.17504248046875,1.1624795985519885,0.037997429960966105,-0.5086266907468437
1783169607715990300,9.184990234375,1.1474123778015375,0.008362170153856277,-0.5629084621630609
1783169607725939200,9.194939208984374,1.170593346902728,-0.0023357494711875914,-0.5773682916048913
1783169607735918300,9.20491845703125,1.1736620868235825,-0.055145548638701435,-0.6032222062423825
1783169607745867300,9.2148671875,1.209719488632679,-0.12947861282825468,-0.6299373408190906
1783169607755816200,9.224816162109375,1.262237611377239,-0.1953957308501005,-0.6410248442836105
1783169607765765000,9.23476513671875,1.2422872947603463,-0.20958558424413204,-0.61966685282588
1783169607775744300,9.244744140625,1.2185171275943516,-0.21019524057507513,-0.6431902786891907
1783169607785693200,9.254693115234375,1.2029378656685352,-0.23307167377173899,-0.7061616255827248
1783169607795641000,9.26464111328125,1.1502630910575389,-0.239048994615674,-0.7830089376155287
1783169607805621500,9.27462158203125,1.11917120270133,-0.23609306741952896,-0.7840288552477955
1783169607815569200,9.284569091796875,1.0508856019824742,-0.24193653275072574,-0.7338727854594588
1783169607825518300,9.294518310546875,0.9687614455252885,-0.25507658483088014,-0.7055030886087567
1783169607835467300,9.30446728515625,0.9528554358631371,-0.290659354865551,-0.635622985240072
1783169607845446400,9.3144462890625,0.931121158438921,-0.3833113350778818,-0.5154862012527883
1783169607855395300,9.324395263671875,0.8136340121775865,-0.5152525386273861,-0.3635603404253721
1783169607865343200,9.33434326171875,0.6649748980611563,-0.6245113702476024,-0.20719211323633788
1783169607875323400,9.344323486328125,0.591854132270813,-0.7465151171505451,-0.0685471742644906
1783169607885271300,9.354271240234375,0.5299468344122171,-0.8740157079041003,0.08687646555081009
1783169607895220200,9.36422021484375,0.33833412923216816,-0.9269318900555372,0.26471082074716684
1783169607905169200,9.374169189453125,0.17165654334425925,-0.9010311406016349,0.39741511762365694
1783169607915148300,9.384148193359374,0.0772848997324705,-0.8340490236967801,0.45142954334057867
1783169607925097200,9.39409716796875,-0.08971475771665573,-0.75657707695961,0.4885616617091
1783169607935046100,9.404046142578125,-0.28303485133647915,-0.6983785704910754,0.47518984669968484
1783169607945025300,9.414025390625,-0.26153438266813755,-0.7841168257921933,0.5970252512983978
1783169607954974200,9.42397412109375,0.03965688760578632,-1.1779717667162417,1.0504466260433196
1783169607964922000,9.433922119140625,-0.0050122752040624614,-1.5010335080146788,1.4640784267134963
1783169607974871300,9.443871337890625,-0.5663602100521326,-1.4811498268932104,1.593033746320009
1783169607984850200,9.45385009765625,-1.6176269203066824,-1.4345125788807869,1.6140262654662132
1783169607994799400,9.46379931640625,-3.007179828998446,-1.536059813210368,1.6639802368111907
1783169608004748300,9.473748291015625,-3.847483236914873,-1.3719780890345572,1.3541440339192747
1783169608014727400,9.4837275390625,-3.69181687438488,-0.7300181558579206,0.8436511109091341
1783169608024676400,9.49367626953125,-3.2138498180568216,0.12546353196799753,0.3309845701869577
1783169608034624300,9.503624267578125,-2.5167256315410134,0.8520312551110982,-0.075901555615291
1783169608044573200,9.5135732421875,-1.6348375828266142,1.2418313676863908,-0.1643942972563207
1783169608054552300,9.52355224609375,-0.952255131882429,1.1896744794696568,0.2802816071055829
1783169608064501200,9.533501220703124,-0.6878735430896282,0.8578408181726932,1.0125178774043917
1783169608074450200,9.5434501953125,-0.653874827376008,0.4515899215340614,1.7505730631150305
1783169608084429300,9.55342919921875,-0.8131979588478803,0.08344868305921554,2.4860353097230194
1783169608094378200,9.563378173828125,-0.9558055178403854,-0.1506266147971153,2.9718256070226428
1783169608104327200,9.5733271484375,-0.910796163290739,-0.17324118218719958,3.0524276684790848
1783169608114275300,9.583275390625,-0.9090022656112908,0.14411211833655832,2.709595643305778
1783169608124255200,9.593255126953125,-1.1003788239479064,0.6496160008877515,2.149395417188108
1783169608134203100,9.603203125,-1.1073585998326538,0.9768839617043733,1.7362410247713327
1783169608144152000,9.613152099609374,-0.8865724071383476,1.175242634013295,1.418622351309657
1783169608154131200,9.623131103515625,-0.5681447553813457,1.3348597799956798,1.2004274902828036
1783169608164080400,9.633080322265625,-0.1813712971508503,1.3856430417716503,1.144970975998789
1783169608174029300,9.643029296875,0.17236849100589752,1.2556745995998382,1.2480083027556539
1783169608183977500,9.6529775390625,0.53628246717453,1.05876378801167,1.3898546681173145
1783169608193957400,9.662957275390625,0.8028829010605811,0.9560749824315309,1.4975357290267943
1783169608203905300,9.6729052734375,0.9158896870374679,0.9243822055727243,1.5975143988654017
1783169608213854200,9.682854248046874,0.9916203430652618,0.8877040415167808,1.7026456291615961
1783169608223803400,9.692803466796875,1.0190963790118694,0.9022668198764323,1.6815400050297378
1783169608233782300,9.7027822265625,1.0438865368753671,1.0100918193012476,1.5577221944421529
1783169608243731200,9.712731201171875,1.0456880333393812,1.0946692141294478,1.4456877606287597
1783169608253680000,9.72268017578125,1.0244926850974558,1.1271131016165017,1.3435278012283145
1783169608263659300,9.7326591796875,1.0370809485137462,1.1271657085865736,1.2104263217277824
1783169608273633500,9.742633544921874,1.045212817043066,1.0817641398489475,1.147803130684793
1783169608283581400,9.75258154296875,1.0531973860561847,0.9895739319294691,1.144268088426441
1783169608293530400,9.7625302734375,1.0986878021210431,0.8444593585520982,1.165380215364322
1783169608303509500,9.772509521484375,1.167460309574008,0.7055933241754769,1.1725631126057356
1783169608313458400,9.78245849609375,1.1067314078450203,0.5797194578409195,1.147810437208414
1783169608323407400,9.792407470703125,0.9604209026813506,0.43662090046107765,1.0716177166268228
1783169608333386500,9.802386474609374,0.8428408174395561,0.2874357166439295,0.9798437613580375
1783169608343335700,9.812335693359374,0.7100111406177282,0.18172434837222098,0.9436372334018349
1783169608353283600,9.82228369140625,0.5362357054233551,0.15461948382556437,0.8838461970448493
1783169608363232500,9.832232421875,0.47026656495332714,0.09781389302015304,0.7563312855049967
1783169608373211600,9.842211669921875,0.5000146374851465,-0.050290509822964666,0.5649518045589328
1783169608383160600,9.85216064453125,0.6222317348778248,-0.18000585401654243,0.42178909590169783
1783169608393109500,9.862109619140625,0.514486230430007,-0.26221301258206364,0.42129181390404696
1783169608403088600,9.872088623046874,0.34074762011468407,-0.4671043015301227,0.5193422190938145
1783169608413037600,9.88203759765625,0.3990753059208393,-0.6460422340542078,0.6226083131052553
1783169608422986500,9.891986572265624,0.4185422229349613,-0.6748024645924567,0.6864473096787929
1783169608432934400,9.901934326171874,0.33078561354875563,-0.6532213319033384,0.7204382804773748
1783169608442914600,9.91191455078125,0.1893050127595663,-0.6829115367680788,0.7571462551496922
1783169608452862500,9.921862548828125,-0.10425707781016826,-0.7284487145841121,0.7611024454295635
1783169608462811400,9.931811279296875,-0.39655835466384887,-0.8017629571199416,0.7545784504882991
1783169608472790500,9.94179052734375,-0.5664829596489668,-0.7648807949244976,0.7416108323656022
1783169608482739500,9.951739501953124,-0.6925812823891639,-0.6466191571593284,0.6400266270264983
1783169608492688400,9.9616884765625,-0.7379600547730922,-0.5608201115816831,0.41981238900125023
1783169608502636500,9.971636474609374,-0.844862678655982,-0.4999181913733482,0.0892738090161234
1783169608512616700,9.98161669921875,-0.7847668141335249,-0.47092824373245235,-0.12445610849112272
1783169608522564400,9.991564453125,-0.4901753805160522,-0.6044938336133957,-0.13547646500356494
1783169608532513500,10.001513427734375,-0.5379267272502184,-0.7738625582814216,0.030015418231114744
1783169608542492700,10.01149267578125,-0.9410971935302018,-0.8317419157981872,0.235244341635704
1783169608552441600,10.021441650390624,-1.2626198886930942,-0.8602052092164755,0.30208091259002684
1783169608562390500,10.031390625,-1.4301654895871876,-0.841891553890705,0.19954832048490642
1783169608572339500,10.04133935546875,-1.729984886986017,-0.6571545796990395,0.010016074840724467
1783169608582318600,10.051318603515625,-2.034002905118465,-0.3581833235621452,-0.19927841750234365
1783169608592267500,10.061267578125,-1.9621248328655958,0.03026362083852291,-0.46564029339216645
1783169608602215400,10.07121533203125,-1.5877788945317268,0.483448702609539,-0.7864625121355057
1783169608612195600,10.081195556640624,-1.0360632959038019,0.9357885657280683,-1.0923168057844042
1783169608622143500,10.0911435546875,-0.3858873230457306,1.2568027268469333,-1.2698216367654502
1783169608632092400,10.101092529296874,0.18122516667842864,1.299834351582825,-1.141141992295161
1783169608642041300,10.111041259765624,0.40127135466039177,1.095819553208351,-0.7708479597005993
1783169608652020500,10.1210205078125,0.39167818140685556,0.909231398192048,-0.4192800356902182
1783169608661969400,10.130969482421875,0.3473731757342815,0.7943859986111521,-0.1624156175944954
1783169608671917300,10.140917236328125,0.36966157990992066,0.7013543714314698,0.039494755846634505
1783169608681897700,10.150897705078124,0.4132090452134609,0.6218830675706267,0.16691950488500296
1783169608691845400,10.160845458984374,0.42565994598567486,0.5314020016565919,0.1637239237140864
1783169608701794600,10.170794677734374,0.33742519769370555,0.5605950706541538,0.03734685709774494
1783169608711743500,10.180743408203124,0.10362520964741706,0.596044569697976,-0.15782368669435382
1783169608721722600,10.19072265625,0.0595084200233221,0.5957961478948592,-0.31338863467648626
1783169608731671600,10.200671630859375,0.2520633744895458,0.6023457156687975,-0.3708918523572385
1783169608741620500,10.210620361328125,0.5230056369721889,0.6335305430054664,-0.31493652170561254
1783169608751599600,10.220599609375,0.7919675392925739,0.5756921020209789,-0.12674202747121452
1783169608761548500,10.230548583984374,1.0030939232379197,0.4267892422765493,0.056382031631097194
1783169608771496400,10.240496337890624,1.039022730231285,0.2636176186829805,0.21733429867476223
1783169608781445400,10.2504453125,0.9296908333748578,0.117279056468606,0.3695725864522159
1783169608791424500,10.260424560546875,0.9280547566056251,-0.008833879318833351,0.5016610895179212
1783169608801373400,10.27037353515625,1.0619926869302987,-0.02182955449223518,0.5740799906492233
1783169608811322400,10.280322265625,1.056156820383668,0.0374748673915863,0.5462339523464441
1783169608821301500,10.290301513671874,0.9723609313219785,0.08456804247796534,0.5430530572880059
1783169608831250400,10.30025048828125,0.931878114286065,0.07854454440474509,0.5618491623684764
1783169608841198300,10.3101982421875,0.8705857334554195,0.05296294390261173,0.5015946001529693
1783169608851147500,10.3201474609375,0.9005109161198138,-0.005560556736588478,0.4267883654937148
1783169608861126400,10.33012646484375,0.951705096784234,-0.03454349011480808,0.382490374083817
1783169608871075600,10.34007568359375,0.9007149142593145,-0.07142331422269343,0.35647491220906374
1783169608881024500,10.3500244140625,0.851309955099225,-0.12655717242360115,0.3283761412542313
1783169608891003600,10.360003662109374,0.9092758218556642,-0.1682774222999811,0.3125072487320751
1783169608900952600,10.36995263671875,0.9199170428574085,-0.21843933730721474,0.27975151881687343
1783169608910901500,10.379901611328124,0.8538093706995248,-0.28619477667212484,0.22307013891302047
1783169608920849700,10.389849609375,0.7827145577788353,-0.3403121513068676,0.2022296685233712
1783169608930829600,10.39982958984375,0.7431535317629575,-0.3795984520345926,0.1911385117970407
1783169608940777500,10.409777587890625,0.6415040061026811,-0.4137146566480398,0.1841062750726938
1783169608950726400,10.419726318359375,0.5795873558938502,-0.42833238006532187,0.12906228711232542
1783169608960675600,10.429675537109375,0.6294347981244325,-0.37881577722430226,0.06268975347317755
1783169608970654500,10.439654541015624,0.6317740547269582,-0.3440156819999218,0.032181583289057014
1783169608980603400,10.449603271484374,0.6261807647645473,-0.3438315576046705,0.04985679458081722
1783169608990552300,10.45955224609375,0.6206523567318916,-0.36801790435612197,0.08483429219871759
1783169609000531500,10.469531494140625,0.567683567610383,-0.4412848006188869,0.1498690744280815
1783169609010480600,10.479480712890625,0.5802572179794311,-0.561275454133749,0.239613204369694
1783169609020428500,10.489428466796875,0.6114584119290113,-0.6604010142743587,0.3092386753901839
1783169609030377700,10.499377685546875,0.6370201386868953,-0.7001262909412383,0.3665725278533995
1783169609040356600,10.509356689453124,0.5534048668891192,-0.733051824465394,0.4148088816255331
1783169609050305500,10.519305419921874,0.4012666784852743,-0.8649760768800974,0.4410036455899477
1783169609060254500,10.52925439453125,0.17779986840486525,-0.9940379256010055,0.44256811842769384
1783169609070233600,10.539233642578125,-0.09351122739017009,-1.028175757524371,0.4338268858283758
1783169609080182500,10.5491826171875,-0.3204384070575237,-0.9744283852458,0.37189785106200723
1783169609090130700,10.559130615234375,-0.48307110146880144,-0.9453320546209811,0.25187837331146
1783169609100079600,10.56907958984375,-0.46588498886823654,-0.8334440435409546,0.19292583360522983
1783169609110058500,10.57905859375,-0.3721487205505371,-0.679367580550909,0.2039781196258962
1783169609120007400,10.58900732421875,-0.17558277687728405,-0.8009656692624092,0.456943265260756
1783169609129956600,10.59895654296875,0.10395254190564154,-1.2019693128973246,0.9259525966946035
1783169609139935500,10.608935546875,-0.06839315274655819,-1.4407722237974405,1.2229236189249901
1783169609149884400,10.618884521484375,-0.7443290052831173,-1.3488199162870644,1.4885903521575032
1783169609159833300,10.628833251953125,-1.601598161047697,-1.2653145346045493,1.720550119164586
1783169609169781500,10.638781494140625,-2.1384218954920766,-1.2802040607005356,1.6556369174882768
1783169609179761400,10.648761474609374,-2.203609530195594,-0.9771282918542623,1.1825281148463487
1783169609189709300,10.658709228515624,-2.071103678500652,-0.3247837427854538,0.6978025241687893
1783169609199658800,10.66865869140625,-1.8982284070163964,0.2985638443797827,0.4583293127916753
1783169609209637600,10.6786376953125,-1.6503993090957403,0.7006053066298366,0.3081570176333189
1783169609219586600,10.688586669921875,-1.3181927228331565,0.9312976840496062,0.2508741647049785
1783169609229535500,10.698535400390625,-1.0038783516138792,0.9788839033499359,0.3779235776249319
1783169609239483600,10.708483642578125,-0.7871066552579402,0.8866896037772297,0.6585369739681481
1783169609249463600,10.718463623046874,-0.6251438229322434,0.7429162158757447,1.0208181613031775
1783169609259411500,10.728411376953124,-0.45664369779229164,0.5520867700278759,1.4502096219673752
1783169609269353700,10.738353759765625,-0.23726094215512275,0.4830184944987297,1.71369776905179
1783169609279332600,10.74833251953125,-0.14309154311716557,0.5694155059695244,1.8524542055740951
1783169609289281500,10.758281494140626,-0.11890519636571406,0.6394090796500445,1.81334530723989
1783169609299230700,10.768230712890626,-0.09413082059323787,0.666226943948865,1.6509160264462233
1783169609309180000,10.778179931640626,-0.17699322819709776,0.7310755559563636,1.4391197804152964
1783169609319158800,10.78815869140625,-0.2703068871885538,0.8257143260717391,1.209790215781331
1783169609329107700,10.798107666015625,-0.2474450670391321,0.8886930525541304,1.0654352285996078
1783169609339055900,10.808055908203125,-0.14091712168753145,0.9090946200698613,1.0174556991327552
1783169609349035800,10.818035888671876,0.03982639895379543,0.8985083441257476,1.0445992151893675
1783169609358983700,10.827983642578126,0.3158598470956087,0.8963900367975235,1.0696248623091726
1783169609368932600,10.8379326171875,0.41539398803710936,0.9328589420169592,1.1146703841507435
1783169609378881800,10.8478818359375,0.4214999036967754,0.9123474843859672,1.1570571351118386
1783169609388860700,10.857860595703125,0.553843258306384,0.9347913713842629,1.1288343724511563
1783169609398809600,10.8678095703125,0.6698936497628688,1.017049383354187,1.0450315421920269
1783169609408757800,10.8777578125,0.8197662313222884,1.0225018035411835,0.9458625813011079
1783169609418737700,10.887737548828126,0.9281143778383731,0.9356634780436753,0.946361324603483
1783169609428685600,10.897685546875,0.9335328957557678,0.8734311860144138,0.951800739178434
1783169609438634800,10.907634765625,1.1227999145925045,0.8854945487737655,0.9148806561253965
1783169609448583700,10.917583740234376,1.3423568577528,0.9496095858097076,0.93278507306315
1783169609458562600,10.9275625,1.4351684124410151,0.9306617242336273,0.979241923007369
1783169609468511500,10.937511474609375,1.3899334324419497,0.8066787862122058,0.9965719010580331
1783169609478460700,10.947460693359375,1.3403455179303885,0.6238122820675372,1.0106178159367292
1783169609488439800,10.957439697265626,1.3652788836568592,0.44361353582739826,1.0158947334263473
1783169609498388700,10.967388671875,1.4011036457538604,0.3710843061894178,1.0043144780088216
1783169609508337000,10.9773369140625,1.3688053042173385,0.3982581443190574,0.9894958982571959
1783169609518285800,10.987285888671876,1.2873317206233739,0.37589199873208995,1.0099452504374087
1783169609528264700,10.9972646484375,1.2120657594978808,0.31088731938004494,1.1224290354534983
1783169609538213600,11.007213623046875,1.0249334146022797,0.2784112831890583,1.2077123865939676
1783169609548162800,11.017162841796875,0.7918284230828285,0.2321089662194252,1.2258768427073954
1783169609558141700,11.0271416015625,0.5536667326956987,0.16172785452604294,1.1692358678791672
1783169609568090600,11.037090576171876,0.2981757218450308,0.13414602011740206,1.0277514676976949
1783169609578038800,11.047038818359376,0.14673545257747173,0.14120879811048506,0.9091836135275662
1783169609587987700,11.05698779296875,0.041570027750730515,0.10276420890390872,0.9326768634483218
1783169609597966600,11.066966552734375,-0.040976153510808945,-0.08636895442008971,1.1135291051611305
1783169609607915500,11.07691552734375,-0.07204933716654777,-0.34009587820768356,1.3790870442569254
1783169609617864700,11.08686474609375,-0.11818448087573051,-0.5349602786600589,1.5402904365174472
1783169609627843600,11.096843505859376,-0.16961422386169434,-0.6394996805429458,1.6369086900122463
1783169609637792500,11.10679248046875,-0.3126350398302078,-0.7330366268962621,1.71081636839658
1783169609647741700,11.11674169921875,-0.4581920962780714,-0.876959360140562,1.6601910736612975
1783169609657689900,11.12668994140625,-0.6060714581936597,-0.9805418996900319,1.4813748678207397
1783169609667669800,11.136669677734375,-0.825720171290636,-0.9465221411883831,1.2113527158576995
1783169609677617700,11.14661767578125,-1.1632570126652717,-0.8983452625185251,0.9774260326918214
1783169609687566800,11.15656689453125,-1.4699258375674484,-0.8700836291521787,0.7279290015589446
1783169609697515800,11.166515869140625,-1.6074983250021933,-0.7554816829383373,0.4561219389405101
1783169609707494700,11.17649462890625,-1.6063889024555682,-0.6093424426883459,0.24365356580168007
1783169609717443600,11.186443603515626,-1.4539800804167986,-0.6548638384133577,0.19178713016519322
1783169609727391700,11.196391845703126,-1.3572013756632804,-0.8287094162344932,0.2122075302455574
1783169609737371600,11.20637158203125,-1.612239966571331,-0.8235562712550163,0.07626900068819523
1783169609747319800,11.21631982421875,-1.812190876507759,-0.6863572933077812,-0.1408235251199454
1783169609757268700,11.226268798828125,-1.7460943102657793,-0.6446937420547008,-0.28384214913137257
1783169609767217700,11.2362177734375,-1.6529858184576034,-0.5890022499710321,-0.4334025229364633
1783169609777196500,11.246196533203126,-1.6951912215024232,-0.41135552630126476,-0.6267476048670709
1783169609787145700,11.256145751953126,-1.7351146510899067,-0.12527239331007003,-0.8861773434061556
1783169609797094700,11.2660947265625,-1.494880830603838,0.19958032305836676,-1.2117562551572918
1783169609807073500,11.276073486328125,-1.1142881068348884,0.5042909996300935,-1.4843547604143619
1783169609817022700,11.286022705078125,-0.7538900298327207,0.7136456977277994,-1.6398679782092571
1783169609826970600,11.295970703125,-0.36682138804793357,0.7997095317214727,-1.6464806743472813
1783169609836919800,11.305919921875,-0.09323241044878959,0.8232511508285999,-1.525167393926531
1783169609846898700,11.315898681640626,0.05992050795555114,0.8184358595013618,-1.371229462624341
1783169609856848000,11.325847900390626,0.18241408420205116,0.7962374716967344,-1.2623064388297498
1783169609866796800,11.335796875,0.25664076540768144,0.7575140655487775,-1.1849619909297675
1783169609876775700,11.345775634765625,0.2071598184019327,0.7673416320800781,-1.0809631987296044
1783169609886724600,11.355724609375,0.18481179299354553,0.7851169427454471,-1.0164444031983613
1783169609896672800,11.3656728515625,0.20659224764704703,0.8492857557952403,-1.0260413027789443
1783169609906621700,11.37562158203125,0.20023615661859512,0.891153889709711,-1.0934446407705545
1783169609916600800,11.385600830078126,0.2520394090920687,0.8842074315726757,-1.115619793830067
1783169609926549800,11.3955498046875,0.40805590023398397,0.8677437880277633,-1.091476263307035
1783169609936498700,11.405498779296876,0.5621066442608833,0.840239110508561,-1.0664565344713628
1783169609946477600,11.4154775390625,0.7610112600147724,0.7837503305673599,-1.0184151187494397
1783169609956426500,11.425426513671875,1.0230109221071004,0.7287035661280155,-0.8901501194946467
1783169609966375700,11.435375732421875,1.1545032128453254,0.6455097346127033,-0.7184004910394549
1783169609976323600,11.445323486328125,1.2629548197358846,0.5709492914080619,-0.561690318544954
1783169609986303700,11.4553037109375,1.3910866941303015,0.519486230674386,-0.3997032650934532
1783169609996251600,11.465251708984376,1.3839327307224274,0.451635514241457,-0.24191022926568984
1783169610006200800,11.475200927734376,1.268194473955035,0.3356453285396099,-0.06418943571271374
1783169610016179700,11.4851796875,1.1724895359128713,0.2411848376005888,0.1135533139437437
1783169610026129000,11.49512890625,1.0526917746216058,0.2154080067873001,0.2705735022354871
1783169610036077800,11.505077880859375,1.0278396574378013,0.25633622950315477,0.2604565243035555
1783169610046025700,11.515025634765625,1.0043716880887745,0.30717034468352794,0.05420139965638518
1783169610056005600,11.525005615234376,0.9239455677211285,0.26735505164563655,-0.14140015596412123
1783169610065953800,11.534953857421876,0.8801882590591907,0.18013503335416317,-0.24396949988305566
1783169610075902700,11.54490283203125,0.8067424990981816,0.11596972743570803,-0.36770080123096704
1783169610085881600,11.554881591796875,0.9516337851136922,0.16207038435339927,-0.45513585051260885
1783169610095830800,11.564830810546875,1.3316536774307488,0.31960312527716156,-0.4498891820307821
1783169610105779700,11.57477978515625,1.636736694446206,0.3929974473118782,-0.260050866112113
1783169610115728600,11.584728759765625,1.5957576183259485,0.043855508339405054,-0.05752594096921384
1783169610125707500,11.59470751953125,1.298633451360464,-0.41616906406283377,0.13199328079661354
1783169610135656700,11.60465673828125,1.1945751109927891,-0.6233902572631835,0.2379919233107939
1783169610145604600,11.6146044921875,1.327673667883873,-0.6351935077816248,0.20721162165440618
1783169610155584800,11.624584716796875,1.499307999396324,-0.4844605100005865,0.17725914912428706
1783169610165532700,11.63453271484375,1.518903511226177,-0.37292847275137897,0.20443324298225343
1783169610175481900,11.64448193359375,1.4835633177757261,-0.4418430190235376,0.2654400848697871
1783169610185430800,11.6544306640625,1.3127175062924623,-0.5814695163786411,0.2927813885208219
1783169610195409700,11.66440966796875,0.9499877714723348,-0.7259615739434957,0.3468197065699845
1783169610205358800,11.67435888671875,0.5653320360481738,-0.8701485110819339,0.3061918550401926
1783169610215306800,11.684306640625,0.33120237765610216,-0.9737743052512406,0.14153255017213523
1783169610225286700,11.69428662109375,0.13738251782059668,-0.972867127278447,0.04424385006986558
1783169610235234800,11.70423486328125,-0.04994797999560833,-0.8882996693223715,0.07233472997918725
1783169610245183700,11.714183837890625,-0.05238076010048389,-0.8938093726545572,0.13241210899688302
1783169610255132700,11.724132568359375,-0.145608494374156,-0.9243424580842255,0.19514365578517318
1783169610265111800,11.73411181640625,-0.4094090684086084,-0.9262456613570451,0.2559863200869411
1783169610275092500,11.744092529296875,-0.5102215587228537,-1.0108972904652356,0.22709391453638672
1783169610285041700,11.754041748046875,-0.6096896486908197,-1.0557932477682828,0.13490553324781357
1783169610295020500,11.7640205078125,-1.0126169538646936,-1.014925230807066,0.031174634736217555
1783169610304969500,11.773969482421874,-1.1561807906687258,-0.9653133508980274,-0.061407750838622446
1783169610314917600,11.783917724609376,-1.071648988547921,-0.7294628600627183,-0.1700149501496926
1783169610324866600,11.793866455078126,-0.8238947094291448,-0.30083178931176663,-0.44241322012692685
1783169610334845400,11.803845458984375,-0.39717385621368884,-0.11912263850867748,-0.4286598584540188
1783169610344794600,11.813794677734375,-0.31810967184901234,-0.5665659617573022,0.1889385175347328
1783169610354743600,11.82374365234375,0.8610691325694322,-1.289493282571435,1.4934220100976525
1783169610364722400,11.833722412109376,-0.4838929392457008,-2.2154133652359245,2.537027830335498
1783169610374671400,11.84367138671875,-1.7415572513580322,-2.053479759004712,2.261037344552576
1783169610384619500,11.85361962890625,-2.634448924645781,-1.478946179369092,1.7522545864611863
1783169610394568400,11.863568359375,-2.9906705927461386,-1.2249176422864199,1.4245280682221053
