time,seconds_elapsed,z,y,x
1783170041823070000,0.105070068359375,-0.8538665771484375,-0.332794189453125,0.27197265625
1783170041833019100,0.11501904296875,-0.801300048828125,-0.3347930908203125,0.250579833984375
1783170041842998000,0.124998046875,-0.7582244873046875,-0.368988037109375,0.193450927734375
1783170041852947200,0.134947265625,-0.714508056640625,-0.40155029296875,0.1473541259765625
1783170041862896000,0.144896240234375,-0.6778564453125,-0.42828369140625,0.1168670654296875
1783170041872844300,0.15484423828125,-0.656219482421875,-0.4762420654296875,0.09259033203125
1783170041882824200,0.16482421875,-0.646514892578125,-0.5351409912109375,0.06475830078125
1783170041892772000,0.174772216796875,-0.6962432861328125,-0.538482666015625,-0.0034637451171875
1783170041902721300,0.18472119140625,-0.8200225830078125,-0.504150390625,-0.156494140625
1783170041912700200,0.1947001953125,-0.8697357177734375,-0.541656494140625,-0.2763214111328125
1783170041922649000,0.204649169921875,-0.8088226318359375,-0.5174407958984375,-0.0890960693359375
1783170041932598000,0.214597900390625,-0.782135009765625,-0.3479461669921875,0.0799560546875
1783170041942546200,0.224546142578125,-0.6290130615234375,-0.2115020751953125,0.0201873779296875
1783170041952526000,0.234526123046875,-0.586456298828125,-0.2232818603515625,-0.1654510498046875
1783170041962474000,0.244473876953125,-0.68359375,-0.3267669677734375,-0.320709228515625
1783170041972423200,0.254423095703125,-0.69439697265625,-0.403594970703125,-0.3657379150390625
1783170041982372000,0.2643720703125,-0.6302490234375,-0.3813323974609375,-0.3036651611328125
1783170041992351000,0.27435107421875,-0.6003265380859375,-0.3359375,-0.202423095703125
1783170042002300200,0.284300048828125,-0.6277923583984375,-0.320465087890625,-0.1141510009765625
1783170042012249300,0.294249267578125,-0.7133941650390625,-0.314453125,-0.03253173828125
1783170042022197200,0.304197265625,-0.7853851318359375,-0.26898193359375,0.0364532470703125
1783170042032177200,0.31417724609375,-0.8248443603515625,-0.1926727294921875,0.0914459228515625
1783170042042125300,0.324125244140625,-0.8340301513671875,-0.1969146728515625,0.1399688720703125
1783170042052074200,0.33407421875,-0.7990570068359375,-0.24371337890625,0.18780517578125
1783170042062053000,0.34405322265625,-0.7360687255859375,-0.268035888671875,0.204132080078125
1783170042072002000,0.354001953125,-0.7342071533203125,-0.4888763427734375,0.1612091064453125
1783170042081951200,0.363951171875,-1.3962249755859375,-1.2331695556640625,0.4771881103515625
1783170042091900200,0.373900146484375,-2.4848480224609375,-2.246124267578125,1.596923828125
1783170042101879000,0.383879150390625,-0.93096923828125,-1.3579864501953125,1.325927734375
1783170042111827200,0.3938271484375,-0.8820343017578125,-0.8086700439453125,0.6159515380859375
1783170042121776000,0.403776123046875,-1.0791015625,-0.738494873046875,0.3448333740234375
1783170042131725000,0.41372509765625,-0.6456451416015625,-0.4247283935546875,0.1804656982421875
1783170042141704200,0.4237041015625,-0.5608062744140625,-0.4197540283203125,0.043701171875
1783170042151653000,0.433653076171875,-0.410858154296875,-0.4565277099609375,0.1001434326171875
1783170042161602300,0.443602294921875,-0.2955322265625,-0.5697174072265625,0.196868896484375
1783170042171581000,0.453580810546875,-0.299102783203125,-0.781341552734375,0.3133087158203125
1783170042181530000,0.463530029296875,-0.836883544921875,-1.201751708984375,0.614410400390625
1783170042191478300,0.473478271484375,-1.578521728515625,-1.712890625,1.2393798828125
1783170042201427200,0.48342724609375,-0.264984130859375,-1.4202880859375,1.14300537109375
1783170042211406300,0.49340625,-0.2265777587890625,-0.857421875,0.8509368896484375
1783170042221355300,0.503355224609375,-0.744720458984375,-0.4945831298828125,0.618011474609375
1783170042231304200,0.51330419921875,-0.9141845703125,-0.2828216552734375,0.3659210205078125
1783170042241253000,0.523253173828125,-0.9513092041015625,-0.2416534423828125,0.253997802734375
1783170042251232300,0.533232177734375,-0.78448486328125,-0.2327423095703125,0.1594085693359375
1783170042261181200,0.54318115234375,-0.84613037109375,-0.0478973388671875,0.0784149169921875
1783170042271129000,0.553129150390625,-0.8393707275390625,0.1484527587890625,0.0770416259765625
1783170042281108200,0.563108154296875,-0.8340911865234375,0.2022705078125,0.127288818359375
1783170042291057200,0.57305712890625,-0.686920166015625,0.093505859375,0.1365966796875
1783170042301006000,0.583006103515625,-0.53369140625,-0.04986572265625,0.2388763427734375
1783170042310955000,0.592955078125,-0.4520416259765625,-0.0921783447265625,0.301910400390625
1783170042320934100,0.60293408203125,-0.34124755859375,-0.073150634765625,0.2460174560546875
1783170042330883300,0.61288330078125,-0.2681121826171875,-0.067291259765625,0.1461639404296875
1783170042340831000,0.6228310546875,-0.1733551025390625,-0.0738372802734375,0.0245819091796875
1783170042350780200,0.6327802734375,-0.114410400390625,-0.0687255859375,-0.0634307861328125
1783170042360759300,0.64275927734375,-0.1451416015625,-0.0439605712890625,-0.0924530029296875
1783170042370708200,0.652708251953125,-0.1545562744140625,-0.0361785888671875,-0.103790283203125
1783170042380657200,0.6626572265625,-0.1461334228515625,-0.0885467529296875,-0.066192626953125
1783170042390636300,0.67263623046875,-0.1350860595703125,-0.195587158203125,0.0275726318359375
1783170042400585200,0.682585205078125,-0.1645355224609375,-0.2230682373046875,0.1163330078125
1783170042410534100,0.6925341796875,-0.2245635986328125,-0.1866607666015625,0.1613616943359375
1783170042420482000,0.70248193359375,-0.2017669677734375,-0.1919708251953125,0.1201171875
1783170042430462200,0.712462158203125,-0.186737060546875,-0.207733154296875,0.073211669921875
1783170042440410000,0.72241015625,-0.22955322265625,-0.1918487548828125,0.063232421875
1783170042450359000,0.732359130859375,-0.3307037353515625,-0.128692626953125,0.0608978271484375
1783170042460308000,0.742307861328125,-0.383819580078125,-0.055450439453125,0.0853424072265625
1783170042470287000,0.752287109375,-0.303497314453125,-0.0615386962890625,0.0382843017578125
1783170042480236000,0.762236083984375,-0.167633056640625,-0.199249267578125,-0.0172119140625
1783170042490184200,0.77218408203125,-0.304412841796875,-0.21484375,0.088409423828125
1783170042500164000,0.7821640625,-0.57843017578125,-0.1856231689453125,0.1859283447265625
1783170042510112000,0.792112060546875,-0.8836212158203125,-0.2403106689453125,0.1696929931640625
1783170042520061200,0.802061279296875,-1.2517852783203125,-0.24945068359375,0.0606231689453125
1783170042530010000,0.812010009765625,-1.592987060546875,-0.29412841796875,0.1203460693359375
1783170042539989200,0.8219892578125,-2.067901611328125,-0.3538055419921875,0.2495269775390625
1783170042549938200,0.831938232421875,-2.687713623046875,-0.254547119140625,0.33331298828125
1783170042559887000,0.84188720703125,-3.042449951171875,-0.0407257080078125,0.347015380859375
1783170042569835300,0.851835205078125,-3.1567535400390625,0.08880615234375,0.378021240234375
1783170042579815200,0.861815185546875,-3.2646331787109375,0.18768310546875,0.5040435791015625
1783170042589763000,0.87176318359375,-3.395233154296875,0.24432373046875,0.69854736328125
1783170042599712300,0.881712158203125,-3.430328369140625,0.248809814453125,0.841400146484375
1783170042609691100,0.891691162109375,-3.2548980712890625,0.203582763671875,0.8568878173828125
1783170042619640000,0.90164013671875,-2.969146728515625,0.1019287109375,0.75274658203125
1783170042629589000,0.911589111328125,-2.6814117431640625,-0.016693115234375,0.6163482666015625
1783170042639537200,0.921537109375,-2.3740997314453125,-0.13916015625,0.488494873046875
1783170042649528800,0.93152880859375,-2.032196044921875,-0.27593994140625,0.35400390625
1783170042659476700,0.941476806640625,-1.6886138916015625,-0.4144439697265625,0.2305755615234375
1783170042669426000,0.951426025390625,-1.406158447265625,-0.4979705810546875,0.148712158203125
1783170042679374800,0.961374755859375,-1.1634674072265625,-0.5055389404296875,0.114959716796875
1783170042689354000,0.97135400390625,-0.9268341064453125,-0.4577178955078125,0.06634521484375
1783170042699303000,0.981302978515625,-0.6754150390625,-0.3892974853515625,-0.0234375
1783170042709251800,0.991251953125,-0.4261627197265625,-0.3373565673828125,-0.095550537109375
1783170042719231000,1.00123095703125,-0.2178802490234375,-0.332977294921875,-0.127777099609375
1783170042729180000,1.011179931640625,-0.078399658203125,-0.375579833984375,-0.1324462890625
1783170042739127800,1.0211279296875,0.007843017578125,-0.419189453125,-0.118896484375
1783170042749076700,1.03107666015625,0.0850982666015625,-0.4211578369140625,-0.1047210693359375
1783170042759056000,1.041055908203125,0.1649017333984375,-0.374267578125,-0.0997772216796875
1783170042769004800,1.0510048828125,0.2196502685546875,-0.320556640625,-0.10687255859375
1783170042778953700,1.06095361328125,0.26129150390625,-0.287841796875,-0.107757568359375
1783170042788902000,1.07090185546875,0.302947998046875,-0.2637786865234375,-0.09429931640625
1783170042798881800,1.0808818359375,0.325653076171875,-0.2252655029296875,-0.0755462646484375
1783170042808829700,1.09082958984375,0.3194427490234375,-0.177703857421875,-0.059326171875
1783170042818779000,1.10077880859375,0.304473876953125,-0.1483001708984375,-0.0423583984375
1783170042828757800,1.1107578125,0.3083648681640625,-0.138702392578125,-0.0308990478515625
1783170042838707000,1.12070703125,0.29339599609375,-0.1234283447265625,-0.0343170166015625
1783170042848656000,1.13065576171875,0.2508697509765625,-0.099700927734375,-0.0456390380859375
1783170042858604800,1.140604736328125,0.2013702392578125,-0.0691680908203125,-0.0560150146484375
1783170042868584000,1.150583984375,0.1547698974609375,-0.03729248046875,-0.0790557861328125
1783170042878532900,1.160532958984375,0.1181182861328125,-0.0059661865234375,-0.1025238037109375
1783170042888481000,1.17048095703125,0.0706024169921875,0.01416015625,-0.11572265625
1783170042898430000,1.180429931640625,0.029632568359375,0.0267333984375,-0.1202392578125
1783170042908408800,1.190408935546875,-0.0003662109375,0.040740966796875,-0.1126708984375
1783170042918357800,1.200357666015625,-0.0370941162109375,0.0507965087890625,-0.0999298095703125
1783170042928307000,1.210306884765625,-0.075897216796875,0.0512542724609375,-0.07147216796875
1783170042938254800,1.2202548828125,-0.1202392578125,0.044769287109375,-0.052337646484375
1783170042948234800,1.23023486328125,-0.151885986328125,0.0413818359375,-0.0424346923828125
1783170042958183000,1.240182861328125,-0.20062255859375,0.027984619140625,-0.0260467529296875
1783170042968131800,1.2501318359375,-0.2952880859375,0.01922607421875,-0.0181427001953125
1783170042978110700,1.26011083984375,-0.44146728515625,0.0231475830078125,0.0041046142578125
1783170042988059600,1.2700595703125,-0.711822509765625,0.02142333984375,0.033477783203125
1783170042998009000,1.280009033203125,-1.0277862548828125,-0.0037994384765625,0.0004730224609375
1783170043007958000,1.2899580078125,-1.243896484375,-0.0917510986328125,-0.042266845703125
1783170043017937000,1.29993701171875,-1.5592041015625,-0.2697601318359375,0.0495452880859375
1783170043027885800,1.3098857421875,-2.02056884765625,-0.5264892578125,0.241912841796875
1783170043037834000,1.319833984375,-2.7063751220703125,-0.74102783203125,0.3961944580078125
1783170043047783000,1.329782958984375,-3.4052276611328125,-0.73175048828125,0.3738250732421875
1783170043057761800,1.33976171875,-3.805572509765625,-0.744232177734375,0.1565704345703125
1783170043067711000,1.3497109375,-3.9479827880859375,-0.645111083984375,-0.19342041015625
1783170043077660000,1.359659912109375,-3.98699951171875,-0.5269317626953125,-0.484466552734375
1783170043087638800,1.369638671875,-3.9066009521484375,-0.5650482177734375,-0.585418701171875
1783170043097587700,1.379587646484375,-3.5631866455078125,-0.7168426513671875,-0.5888214111328125
1783170043107537000,1.389536865234375,-3.106536865234375,-0.953033447265625,-0.532562255859375
1783170043117484800,1.39948486328125,-2.6196136474609375,-1.185516357421875,-0.421661376953125
1783170043127464000,1.4094638671875,-2.1187744140625,-1.3767852783203125,-0.291839599609375
1783170043137412900,1.419412841796875,-1.5810394287109375,-1.5267486572265625,-0.161285400390625
1783170043147361800,1.42936181640625,-1.11798095703125,-1.6177520751953125,-0.0477294921875
1783170043157311000,1.43931103515625,-0.8205718994140625,-1.59136962890625,0.04498291015625
1783170043167289900,1.449289794921875,-0.5365753173828125,-1.46563720703125,0.03961181640625
1783170043177239000,1.459239013671875,-0.3346405029296875,-1.288818359375,-0.0235748291015625
1783170043187187000,1.46918701171875,-0.234039306640625,-1.05419921875,-0.0807342529296875
1783170043197166800,1.479166748046875,-0.1321258544921875,-0.803131103515625,-0.1640472412109375
1783170043207115000,1.489114990234375,-0.045135498046875,-0.600860595703125,-0.2303009033203125
1783170043217064000,1.49906396484375,0,-0.4126739501953125,-0.2599639892578125
1783170043227012900,1.509012939453125,0.038726806640625,-0.2725067138671875,-0.275482177734375
1783170043236992000,1.518991943359375,0.0833587646484375,-0.2254791259765625,-0.2788238525390625
1783170043246941000,1.52894091796875,0.13018798828125,-0.196807861328125,-0.2718963623046875
1783170043256889900,1.538889892578125,0.180084228515625,-0.14208984375,-0.253753662109375
1783170043266837800,1.548837646484375,0.2215728759765625,-0.0683441162109375,-0.2269744873046875
1783170043276818000,1.55881787109375,0.277984619140625,0.00543212890625,-0.1937103271484375
1783170043286765800,1.568765869140625,0.33758544921875,0.0594329833984375,-0.1476593017578125
1783170043296714800,1.57871484375,0.3759002685546875,0.0778961181640625,-0.0860443115234375
1783170043306694000,1.58869384765625,0.393218994140625,0.07464599609375,-0.006103515625
1783170043316642800,1.598642822265625,0.3824005126953125,0.0617828369140625,0.0601348876953125
1783170043326592000,1.608592041015625,0.356414794921875,0.0531158447265625,0.115020751953125
1783170043336539600,1.61853955078125,0.319671630859375,0.05645751953125,0.14794921875
1783170043346520000,1.62852001953125,0.2464599609375,0.0524139404296875,0.150390625
1783170043356468000,1.638468017578125,0.177093505859375,0.051300048828125,0.119171142578125
1783170043366417000,1.6484169921875,0.1258544921875,0.06683349609375,0.09515380859375
1783170043376365800,1.65836572265625,0.055389404296875,0.1128082275390625,0.0465545654296875
1783170043386345000,1.668344970703125,-0.0537872314453125,0.110595703125,-0.0057525634765625
1783170043396294000,1.6782939453125,-0.1092071533203125,0.101593017578125,-0.0170135498046875
1783170043406242800,1.688242919921875,-0.19732666015625,0.1367340087890625,0.006317138671875
1783170043416222000,1.698221923828125,-0.2861175537109375,0.1368865966796875,0.006988525390625
1783170043426171000,1.7081708984375,-0.3486175537109375,0.1214599609375,0.0341339111328125
1783170043436118800,1.718118896484375,-0.42413330078125,0.1097869873046875,0.060150146484375
1783170043446067700,1.728067626953125,-0.4999542236328125,0.0835113525390625,0.0645751953125
1783170043456046800,1.738046875,-0.580108642578125,0.0487823486328125,0.060882568359375
1783170043465995800,1.747995849609375,-0.7134246826171875,0.0049591064453125,0.05621337890625
1783170043475944700,1.75794482421875,-0.924468994140625,-0.049835205078125,0.0567474365234375
1783170043485892900,1.767892822265625,-1.1100006103515625,-0.1371307373046875,0.0810394287109375
1783170043495872800,1.777872802734375,-1.3509979248046875,-0.292388916015625,0.1168060302734375
1783170043505820700,1.787820556640625,-1.692291259765625,-0.445770263671875,0.165313720703125
1783170043515769900,1.797769775390625,-2.0658111572265625,-0.6209869384765625,0.190673828125
1783170043525719000,1.807718994140625,-2.4803619384765625,-0.833892822265625,0.1469879150390625
1783170043535698000,1.817697998046875,-2.918060302734375,-0.9148406982421875,-0.012542724609375
1783170043545646800,1.827646728515625,-3.251312255859375,-0.869598388671875,-0.20794677734375
1783170043555595800,1.837595703125,-3.5045623779296875,-0.752166748046875,-0.4348297119140625
1783170043565575000,1.847574951171875,-3.6434173583984375,-0.590118408203125,-0.6380615234375
1783170043575523800,1.85752392578125,-3.640350341796875,-0.4743194580078125,-0.6869354248046875
1783170043585471700,1.8674716796875,-3.4833984375,-0.4322967529296875,-0.5988311767578125
1783170043595421000,1.8774208984375,-3.1970367431640625,-0.5000762939453125,-0.452911376953125
1783170043605399800,1.88739990234375,-2.9052886962890625,-0.630279541015625,-0.24822998046875
1783170043615348700,1.8973486328125,-2.584228515625,-0.779296875,-0.0531768798828125
1783170043625297700,1.907297607421875,-2.2719573974609375,-0.900146484375,0.0918121337890625
1783170043635245800,1.917245849609375,-1.9709625244140625,-0.90960693359375,0.18206787109375
1783170043645225700,1.927225830078125,-1.5783233642578125,-0.8622589111328125,0.158538818359375
1783170043655209500,1.93720947265625,-1.1724700927734375,-0.80181884765625,0.0571136474609375
1783170043665158400,1.947158447265625,-0.9052734375,-0.667755126953125,0.0091094970703125
1783170043675137500,1.957137451171875,-0.655609130859375,-0.5540008544921875,-0.075286865234375
1783170043685086500,1.96708642578125,-0.42584228515625,-0.565460205078125,-0.198455810546875
1783170043695035400,1.977035400390625,-0.22052001953125,-0.5865936279296875,-0.3175201416015625
1783170043704984300,1.986984375,-0.0541534423828125,-0.54058837890625,-0.403472900390625
1783170043714963500,1.99696337890625,0.1329803466796875,-0.399993896484375,-0.460174560546875
1783170043724912400,2.006912353515625,0.3210296630859375,-0.2836151123046875,-0.454925537109375
1783170043734860500,2.016860595703125,0.457550048828125,-0.2189178466796875,-0.3524932861328125
1783170043744809500,2.0268095703125,0.5641021728515625,-0.163848876953125,-0.223846435546875
1783170043754788400,2.036788330078125,0.6262054443359375,-0.1233673095703125,-0.0922088623046875
1783170043764737300,2.0467373046875,0.658203125,-0.09197998046875,0.0288848876953125
1783170043774686500,2.0566865234375,0.6748504638671875,-0.0299072265625,0.1266326904296875
1783170043784665600,2.06666552734375,0.6806640625,0.0295257568359375,0.2150726318359375
1783170043794614500,2.076614501953125,0.65875244140625,0.0645751953125,0.2749176025390625
1783170043804562700,2.086562744140625,0.6362762451171875,0.09765625,0.316314697265625
1783170043814511600,2.09651171875,0.5917816162109375,0.1243438720703125,0.3070831298828125
1783170043824490500,2.106490478515625,0.5311737060546875,0.1507568359375,0.2803497314453125
1783170043834439400,2.116439453125,0.4556732177734375,0.1755828857421875,0.25531005859375
1783170043844388600,2.126388671875,0.3668212890625,0.1937103271484375,0.21337890625
1783170043854337500,2.136337646484375,0.272125244140625,0.21435546875,0.164825439453125
1783170043864316400,2.14631640625,0.1851043701171875,0.224884033203125,0.116424560546875
1783170043874265300,2.156265380859375,0.0977020263671875,0.2035980224609375,0.087310791015625
1783170043884213500,2.166213623046875,0.0048370361328125,0.186676025390625,0.0684356689453125
1783170043894193400,2.176193359375,-0.08349609375,0.1787872314453125,0.043304443359375
1783170043904141300,2.186141357421875,-0.145751953125,0.164154052734375,0.0123138427734375
1783170043914090500,2.196090576171875,-0.2481231689453125,0.1505584716796875,-0.03265380859375
1783170043924039400,2.206039306640625,-0.3652801513671875,0.1246337890625,-0.061248779296875
1783170043934018300,2.216018310546875,-0.450347900390625,0.0699920654296875,-0.0914154052734375
1783170043943967500,2.225967529296875,-0.560516357421875,-0.003387451171875,-0.083892822265625
1783170043953915600,2.23591552734375,-0.792694091796875,-0.0751953125,-0.0364990234375
1783170043963864600,2.245864501953125,-1.03302001953125,-0.13818359375,-0.0178375244140625
1783170043973843500,2.255843505859375,-1.2875213623046875,-0.24908447265625,-0.0250701904296875
1783170043983792600,2.265792724609375,-1.6595611572265625,-0.3666229248046875,-0.0471343994140625
1783170043993741600,2.275741455078125,-2.0757904052734375,-0.48236083984375,-0.0942535400390625
1783170044003720400,2.285720458984375,-2.6237335205078125,-0.533172607421875,-0.2649383544921875
1783170044013669400,2.29566943359375,-3.2223052978515625,-0.4855194091796875,-0.618194580078125
1783170044023618600,2.30561865234375,-3.7458038330078125,-0.3314361572265625,-1.07269287109375
1783170044033566500,2.31556640625,-4.207061767578125,-0.201446533203125,-1.491180419921875
1783170044043546400,2.32554638671875,-4.5171966552734375,-0.175994873046875,-1.73004150390625
1783170044053494500,2.33549462890625,-4.51031494140625,-0.134185791015625,-1.720123291015625
1783170044063443500,2.345443359375,-4.22552490234375,-0.132965087890625,-1.4786529541015625
1783170044073392400,2.355392333984375,-3.788238525390625,-0.1586761474609375,-1.079437255859375
1783170044083371500,2.36537158203125,-3.2830352783203125,-0.2185821533203125,-0.6614532470703125
1783170044093320400,2.375320556640625,-2.782073974609375,-0.3077392578125,-0.34710693359375
1783170044103269600,2.38526953125,-2.2951812744140625,-0.4132080078125,-0.150238037109375
1783170044113217500,2.395217529296875,-1.8498992919921875,-0.534393310546875,-0.0375823974609375
1783170044123197400,2.405197509765625,-1.446441650390625,-0.6563873291015625,0.012542724609375
1783170044133145600,2.4151455078125,-1.088043212890625,-0.7332000732421875,0.034637451171875
1783170044143094500,2.425094482421875,-0.7786865234375,-0.7419281005859375,0.0491943359375
1783170044153073700,2.43507373046875,-0.5036468505859375,-0.6951904296875,0.0501251220703125
1783170044163022600,2.445022705078125,-0.277923583984375,-0.5933380126953125,0.0561676025390625
1783170044172971500,2.454971435546875,-0.1047515869140625,-0.464569091796875,0.0755615234375
1783170044182919400,2.46491943359375,0.021240234375,-0.3307342529296875,0.0768585205078125
1783170044192899600,2.474899658203125,0.107269287109375,-0.1917724609375,0.0613555908203125
1783170044202847500,2.484847412109375,0.1643218994140625,-0.072540283203125,0.067169189453125
1783170044212796400,2.49479638671875,0.2238616943359375,-0.0071563720703125,0.1047821044921875
1783170044222745300,2.504745361328125,0.2841949462890625,0.021453857421875,0.1458740234375
1783170044232724500,2.514724365234375,0.3411102294921875,0.0345458984375,0.1788482666015625
1783170044242673400,2.52467333984375,0.3990325927734375,0.0108489990234375,0.211029052734375
1783170044252622300,2.534622314453125,0.4563751220703125,-0.0234375,0.227447509765625
1783170044262601500,2.5446015625,0.4958343505859375,-0.041351318359375,0.2360076904296875
1783170044272550700,2.554550537109375,0.5104827880859375,-0.0616455078125,0.2292633056640625
1783170044282498600,2.56449853515625,0.494384765625,-0.0665283203125,0.199951171875
1783170044292447500,2.574447509765625,0.45086669921875,-0.0585479736328125,0.1681976318359375
1783170044302426600,2.584426513671875,0.3827667236328125,-0.057098388671875,0.133453369140625
1783170044312375600,2.59437548828125,0.299652099609375,-0.0409393310546875,0.09564208984375
1783170044322324500,2.604324462890625,0.2234649658203125,-0.03106689453125,0.0532073974609375
1783170044332272600,2.614272705078125,0.1472930908203125,-0.0110015869140625,0.0178985595703125
1783170044342252500,2.62425244140625,0.075653076171875,0.0110321044921875,-0.0112152099609375
1783170044352200400,2.634200439453125,0.0207672119140625,0.0134735107421875,-0.0298614501953125
1783170044362149400,2.6441494140625,-0.0247650146484375,0.0238037109375,-0.0458984375
1783170044372128500,2.65412841796875,-0.0461883544921875,0.0272979736328125,-0.053131103515625
1783170044382077400,2.664077392578125,-0.0832366943359375,0.032196044921875,-0.0739593505859375
1783170044392026400,2.6740263671875,-0.132415771484375,0.052886962890625,-0.1048583984375
1783170044401975300,2.683975341796875,-0.202362060546875,0.056396484375,-0.1313323974609375
1783170044411954400,2.693954345703125,-0.276763916015625,0.0484771728515625,-0.1566925048828125
1783170044421903400,2.7039033203125,-0.3823394775390625,0.03765869140625,-0.1805877685546875
1783170044431851300,2.713851318359375,-0.5348968505859375,-0.0093994140625,-0.198394775390625
1783170044441800700,2.72380078125,-0.787384033203125,-0.08599853515625,-0.1904449462890625
1783170044451779300,2.733779296875,-1.1183013916015625,-0.1461639404296875,-0.2012786865234375
1783170044461728500,2.743728515625,-1.5269775390625,-0.2279052734375,-0.279327392578125
1783170044471677400,2.753677490234375,-1.99072265625,-0.282440185546875,-0.42462158203125
1783170044481656600,2.763656494140625,-2.476470947265625,-0.3188323974609375,-0.637298583984375
1783170044491605500,2.77360546875,-2.9672088623046875,-0.38433837890625,-0.865264892578125
1783170044501553400,2.783553466796875,-3.3054962158203125,-0.32916259765625,-1.0693511962890625
1783170044511502600,2.793502685546875,-3.522918701171875,-0.267120361328125,-1.18115234375
1783170044521481500,2.8034814453125,-3.6840667724609375,-0.2651214599609375,-1.1103363037109375
1783170044531430400,2.813430419921875,-3.7587432861328125,-0.262451171875,-0.9506988525390625
1783170044541379300,2.82337939453125,-3.7964019775390625,-0.2595062255859375,-0.72174072265625
1783170044551328500,2.83332861328125,-3.7672119140625,-0.2284088134765625,-0.4895172119140625
1783170044561307400,2.843307373046875,-3.6177825927734375,-0.1772003173828125,-0.339752197265625
1783170044571256300,2.85325634765625,-3.35552978515625,-0.132110595703125,-0.2405242919921875
1783170044581204500,2.86320458984375,-3.008331298828125,-0.124298095703125,-0.1438140869140625
1783170044591184400,2.873184326171875,-2.574798583984375,-0.1656036376953125,-0.045562744140625
1783170044601132300,2.88313232421875,-2.1192626953125,-0.2115478515625,0.068328857421875
1783170044611081500,2.89308154296875,-1.6558837890625,-0.257476806640625,0.15692138671875
1783170044621030700,2.90303076171875,-1.2070770263671875,-0.272979736328125,0.198883056640625
1783170044631009500,2.913009521484375,-0.779937744140625,-0.2522735595703125,0.203643798828125
1783170044640958500,2.92295849609375,-0.3947601318359375,-0.186248779296875,0.17633056640625
1783170044650910700,2.93291064453125,-0.035858154296875,-0.1110382080078125,0.1345062255859375
1783170044660859600,2.942859619140625,0.2838134765625,-0.0606689453125,0.09564208984375
1783170044670838500,2.952838623046875,0.5391387939453125,-0.0401458740234375,0.09051513671875
1783170044680787500,2.962787353515625,0.7206878662109375,-0.05023193359375,0.1128082275390625
1783170044690736600,2.972736572265625,0.8253173828125,-0.0745849609375,0.1471405029296875
1783170044700685600,2.982685546875,0.8602752685546875,-0.098388671875,0.1804351806640625
1783170044710664400,2.99266455078125,0.8572235107421875,-0.126953125,0.2022857666015625
1783170044720613600,3.002613525390625,0.835601806640625,-0.134765625,0.2036590576171875
1783170044730561500,3.0125615234375,0.7890472412109375,-0.14532470703125,0.1897430419921875
1783170044740541700,3.022541748046875,0.721588134765625,-0.1443939208984375,0.16650390625
1783170044750489600,3.032489501953125,0.615203857421875,-0.12957763671875,0.137847900390625
1783170044760438800,3.042438720703125,0.48638916015625,-0.12255859375,0.1064300537109375
1783170044770387700,3.0523876953125,0.35955810546875,-0.118438720703125,0.0673370361328125
1783170044780366600,3.06236669921875,0.22967529296875,-0.1084442138671875,0.018890380859375
1783170044790315500,3.0723154296875,0.1212615966796875,-0.0866241455078125,-0.0287322998046875
1783170044800263700,3.082263671875,0.0308074951171875,-0.0670623779296875,-0.0669708251953125
1783170044810212600,3.092212646484375,-0.040679931640625,-0.045654296875,-0.09063720703125
1783170044820191700,3.102191650390625,-0.103973388671875,-0.0198974609375,-0.1060333251953125
1783170044830140700,3.112140625,-0.1432647705078125,-0.0155029296875,-0.104522705078125
1783170044840089600,3.122089599609375,-0.1743316650390625,-0.002105712890625,-0.1132659912109375
1783170044850068500,3.132068359375,-0.207366943359375,0.02435302734375,-0.117156982421875
1783170044860017700,3.142017578125,-0.222869873046875,0.0298004150390625,-0.1117095947265625
1783170044869966600,3.151966552734375,-0.241363525390625,0.0260009765625,-0.113006591796875
1783170044879914500,3.16191455078125,-0.2644195556640625,0.0268402099609375,-0.1261749267578125
1783170044889894400,3.171894287109375,-0.297088623046875,0.0339813232421875,-0.1313629150390625
1783170044899842600,3.181842529296875,-0.3397674560546875,0.0354156494140625,-0.115264892578125
1783170044909791700,3.191791748046875,-0.4010162353515625,0.0342559814453125,-0.1079559326171875
1783170044919740700,3.20174072265625,-0.5146636962890625,0.0135345458984375,-0.0632171630859375
1783170044929719800,3.2117197265625,-0.7453155517578125,-0.0318603515625,0.0154571533203125
1783170044939668700,3.221668701171875,-1.1744384765625,-0.09588623046875,0.05242919921875
1783170044949617700,3.23161767578125,-1.7467803955078125,-0.17578125,0.077484130859375
1783170044959596500,3.241596435546875,-2.343292236328125,-0.3291168212890625,0.1006622314453125
1783170044969544700,3.251544677734375,-2.98870849609375,-0.4815521240234375,-0.0014190673828125
1783170044979493600,3.26149365234375,-3.5204010009765625,-0.5721893310546875,-0.1365814208984375
1783170044989442600,3.271442626953125,-3.8889312744140625,-0.5850677490234375,-0.2657012939453125
1783170044999421700,3.281421630859375,-4.09765625,-0.52850341796875,-0.406524658203125
1783170045009370600,3.29137060546875,-4.04827880859375,-0.5644073486328125,-0.3964080810546875
1783170045019319600,3.301319580078125,-3.8962554931640625,-0.6627044677734375,-0.2588653564453125
1783170045029267500,3.311267333984375,-3.6958770751953125,-0.8171234130859375,-0.1124420166015625
1783170045039247600,3.32124755859375,-3.427093505859375,-0.9781494140625,0.0088348388671875
1783170045049195500,3.331195556640625,-3.1021728515625,-1.0748748779296875,0.0977783203125
1783170045059144400,3.34114453125,-2.7390289306640625,-1.0925445556640625,0.0953826904296875
1783170045069123600,3.35112353515625,-2.3605804443359375,-1.043975830078125,0.0277862548828125
1783170045079072800,3.36107275390625,-1.9844970703125,-0.9493408203125,0.0157012939453125
1783170045089021700,3.371021728515625,-1.6076507568359375,-0.827484130859375,-0.0114898681640625
1783170045098970600,3.380970703125,-1.247802734375,-0.691619873046875,-0.0062408447265625
1783170045108949800,3.39094970703125,-0.927398681640625,-0.543487548828125,0.0164794921875
1783170045118898700,3.400898681640625,-0.67218017578125,-0.4043121337890625,0.026885986328125
1783170045128846600,3.4108466796875,-0.481597900390625,-0.270538330078125,0.009857177734375
1783170045138795500,3.42079541015625,-0.307037353515625,-0.233306884765625,-0.036468505859375
1783170045148774700,3.430774658203125,-0.16552734375,-0.2950897216796875,-0.10870361328125
1783170045158723600,3.4407236328125,-0.0419921875,-0.34210205078125,-0.1909637451171875
1783170045168672500,3.450672607421875,0.083465576171875,-0.2786865234375,-0.263336181640625
1783170045178651600,3.460651611328125,0.2238311767578125,-0.184906005859375,-0.315704345703125
1783170045188600600,3.4706005859375,0.3662109375,-0.16619873046875,-0.2928924560546875
1783170045198548500,3.480548583984375,0.4659881591796875,-0.1633148193359375,-0.1953277587890625
1783170045208497400,3.490497314453125,0.518402099609375,-0.1334991455078125,-0.09832763671875
1783170045218476500,3.5004765625,0.545257568359375,-0.1070709228515625,-0.00823974609375
1783170045228425500,3.510425537109375,0.5355987548828125,-0.0628662109375,0.0673828125
1783170045238374700,3.520374755859375,0.4770660400390625,-0.020263671875,0.1260833740234375
1783170045248323600,3.530323486328125,0.411041259765625,0.017669677734375,0.1420440673828125
1783170045258302700,3.540302734375,0.3499603271484375,0.044586181640625,0.1427764892578125
1783170045268251600,3.550251708984375,0.2738189697265625,0.07464599609375,0.1408233642578125
1783170045278199600,3.560199462890625,0.2008819580078125,0.091583251953125,0.141754150390625
1783170045288148700,3.570148681640625,0.1343841552734375,0.110748291015625,0.1385498046875
1783170045298127600,3.580127685546875,0.080902099609375,0.1422271728515625,0.125732421875
1783170045308076500,3.59007666015625,0.044708251953125,0.1701812744140625,0.1021270751953125
1783170045318025500,3.600025390625,0.0297088623046875,0.188262939453125,0.0820770263671875
1783170045328004600,3.610004638671875,0.0157623291015625,0.1974334716796875,0.0613861083984375
1783170045337953500,3.61995361328125,-0.0019989013671875,0.2062225341796875,0.036285400390625
1783170045347901700,3.629901611328125,-0.01849365234375,0.2033538818359375,0.0254058837890625
1783170045357850600,3.6398505859375,-0.0437469482421875,0.192291259765625,0.0229034423828125
1783170045367829500,3.64982958984375,-0.065460205078125,0.174652099609375,0.0122222900390625
1783170045377778400,3.6597783203125,-0.075286865234375,0.1556549072265625,0.0032958984375
1783170045387727600,3.6697275390625,-0.083953857421875,0.136932373046875,-0.0009613037109375
1783170045397676800,3.6796767578125,-0.0947723388671875,0.122161865234375,-0.0136260986328125
1783170045407655700,3.68965576171875,-0.122802734375,0.1046142578125,-0.04730224609375
1783170045417604600,3.6996044921875,-0.168487548828125,0.0716705322265625,-0.0844268798828125
1783170045427552800,3.709552734375,-0.2758636474609375,0.0376739501953125,-0.125244140625
1783170045437532700,3.71953271484375,-0.4417724609375,-0.0604095458984375,-0.1287994384765625
1783170045447480600,3.72948046875,-0.6901092529296875,-0.204132080078125,-0.0678863525390625
1783170045457429800,3.7394296875,-1.01458740234375,-0.3291473388671875,0.005279541015625
1783170045467378700,3.749378662109375,-1.420928955078125,-0.4929046630859375,0.080352783203125
1783170045477357600,3.759357666015625,-1.9003753662109375,-0.709320068359375,0.2119903564453125
1783170045487306500,3.769306396484375,-2.565948486328125,-0.8733367919921875,0.35345458984375
1783170045497254700,3.779254638671875,-3.11126708984375,-0.9820709228515625,0.34503173828125
1783170045507203600,3.78920361328125,-3.2951202392578125,-1.0154876708984375,0.1802520751953125
1783170045517182500,3.799182373046875,-3.4445953369140625,-0.964508056640625,0.0314788818359375
1783170045527131600,3.809131591796875,-3.56146240234375,-0.9751434326171875,0.0222930908203125
1783170045537080600,3.81908056640625,-3.57391357421875,-1.0731048583984375,0.084716796875
1783170045547059500,3.8290595703125,-3.5514984130859375,-1.1131744384765625,0.0696563720703125
1783170045557008400,3.83900830078125,-3.50921630859375,-1.064300537109375,-0.0409393310546875
1783170045566957800,3.848957763671875,-3.3913726806640625,-0.980224609375,-0.19061279296875
1783170045576905500,3.858905517578125,-3.1434783935546875,-0.8672943115234375,-0.3859100341796875
1783170045586885600,3.8688857421875,-2.8106231689453125,-0.7514495849609375,-0.533966064453125
1783170045596833800,3.878833740234375,-2.4546356201171875,-0.641143798828125,-0.53558349609375
1783170045606782700,3.88878271484375,-2.07000732421875,-0.5487213134765625,-0.3975372314453125
1783170045616731600,3.898731689453125,-1.6986083984375,-0.4588775634765625,-0.188751220703125
1783170045626710500,3.90871044921875,-1.31951904296875,-0.3633575439453125,0.03167724609375
1783170045636659700,3.91865966796875,-0.976806640625,-0.2960357666015625,0.16375732421875
1783170045646607600,3.928607666015625,-0.6653289794921875,-0.24951171875,0.1913604736328125
1783170045656604400,3.9386044921875,-0.3575897216796875,-0.2169952392578125,0.138336181640625
1783170045666552300,3.94855224609375,-0.077392578125,-0.1669921875,0.0664825439453125
1783170045676501500,3.95850146484375,0.1891021728515625,-0.105682373046875,0.011322021484375
1783170045686450400,3.968450439453125,0.4121856689453125,-0.0545501708984375,0.0087738037109375
1783170045696429600,3.9784296875,0.5782012939453125,-0.0267333984375,0.0857086181640625
1783170045706378500,3.98837841796875,0.6966705322265625,-0.0354156494140625,0.2088775634765625
1783170045716327400,3.998327392578125,0.7597198486328125,-0.0449981689453125,0.316741943359375
1783170045726275300,4.008275390625,0.7637786865234375,-0.0261077880859375,0.38372802734375
1783170045736255500,4.01825537109375,0.741485595703125,-0.01318359375,0.43341064453125
1783170045746203400,4.028203369140625,0.6903533935546875,-0.0003662109375,0.4206695556640625
1783170045756152300,4.03815234375,0.59954833984375,0.028839111328125,0.3626251220703125
1783170045766131500,4.04813134765625,0.49267578125,0.059722900390625,0.2966766357421875
1783170045776080400,4.058080322265625,0.3821258544921875,0.0861053466796875,0.2116851806640625
1783170045786029300,4.068029296875,0.2757415771484375,0.1004180908203125,0.1365509033203125
1783170045795978200,4.077978271484375,0.1677703857421875,0.0985260009765625,0.079010009765625
1783170045805957400,4.087957275390625,0.074371337890625,0.082244873046875,0.03411865234375
1783170045815905300,4.0979052734375,-0.0039825439453125,0.061767578125,0.0074615478515625
1783170045825854200,4.107854248046875,-0.069793701171875,0.0381317138671875,-0.019073486328125
1783170045835803400,4.117803466796875,-0.1248016357421875,0.0203094482421875,-0.060791015625
1783170045845782300,4.1277822265625,-0.184112548828125,0.0202484130859375,-0.095855712890625
1783170045855731500,4.1377314453125,-0.248291015625,0.0244598388671875,-0.1337432861328125
1783170045865680400,4.147680419921875,-0.2927093505859375,0.024322509765625,-0.1715087890625
1783170045875628500,4.157628662109375,-0.3132781982421875,0.02593994140625,-0.1945037841796875
1783170045885608400,4.1676083984375,-0.3418731689453125,0.04156494140625,-0.2236175537109375
1783170045895556400,4.177556396484375,-0.357879638671875,0.0714874267578125,-0.224639892578125
1783170045905505500,4.187505615234375,-0.3736114501953125,0.08905029296875,-0.2039642333984375
1783170045915484400,4.197484375,-0.4188079833984375,0.0626678466796875,-0.1659698486328125
1783170045925433300,4.207433349609375,-0.513946533203125,0.0041046142578125,-0.0538787841796875
1783170045935382300,4.21738232421875,-0.714019775390625,-0.10833740234375,0.0816192626953125
1783170045945331500,4.22733154296875,-1.0471954345703125,-0.2392578125,0.18194580078125
1783170045955310300,4.237310302734375,-1.43756103515625,-0.33819580078125,0.1795654296875
1783170045965259300,4.24725927734375,-1.884796142578125,-0.48614501953125,0.066253662109375
1783170045975207400,4.25720751953125,-2.4620513916015625,-0.64923095703125,-0.0693817138671875
1783170045985156400,4.26715625,-3.0035552978515625,-0.6721649169921875,-0.30865478515625
1783170045995135200,4.27713525390625,-3.411529541015625,-0.61376953125,-0.655181884765625
1783170046005084400,4.28708447265625,-3.621826171875,-0.5269317626953125,-0.9436798095703125
1783170046015033600,4.29703369140625,-3.663848876953125,-0.502044677734375,-0.959503173828125
1783170046025012500,4.307012451171875,-3.6703338623046875,-0.534515380859375,-0.717803955078125
1783170046034961400,4.31696142578125,-3.55517578125,-0.569122314453125,-0.4386749267578125
1783170046044909600,4.32690966796875,-3.397796630859375,-0.6541290283203125,-0.270904541015625
1783170046054858500,4.3368583984375,-3.2290802001953125,-0.7319793701171875,-0.1976165771484375
1783170046064837400,4.34683740234375,-2.96759033203125,-0.780731201171875,-0.254364013671875
1783170046074786300,4.356786376953125,-2.624359130859375,-0.7678070068359375,-0.31182861328125
1783170046084735500,4.366735595703125,-2.2146453857421875,-0.7335662841796875,-0.28485107421875
1783170046094684400,4.376684326171875,-1.80340576171875,-0.737213134765625,-0.234954833984375
1783170046104663300,4.386663330078125,-1.4282073974609375,-0.74566650390625,-0.1471099853515625
1783170046114612200,4.3966123046875,-1.0583648681640625,-0.73077392578125,-0.0588531494140625
1783170046124560400,4.406560302734375,-0.7503814697265625,-0.644927978515625,-0.01300048828125
1783170046134540300,4.416540283203125,-0.5019989013671875,-0.477935791015625,-0.0023193359375
1783170046144488400,4.426488525390625,-0.273193359375,-0.31195068359375,-0.0113525390625
1783170046154437400,4.436437255859375,-0.108795166015625,-0.182830810546875,-0.02178955078125
1783170046164386600,4.446386474609375,-0.016326904296875,-0.0843658447265625,-0.0064697265625
1783170046174365200,4.456365234375,0.074981689453125,-0.0072479248046875,0.03082275390625
1783170046184314400,4.466314453125,0.1622772216796875,0.03704833984375,0.08056640625
1783170046194262500,4.476262451171875,0.215728759765625,0.0612640380859375,0.13409423828125
1783170046204211500,4.48621142578125,0.2538299560546875,0.077239990234375,0.1645355224609375
1783170046214190600,4.496190673828125,0.287353515625,0.0943603515625,0.1778106689453125
1783170046224139500,4.506139404296875,0.3093109130859375,0.1008758544921875,0.17535400390625
1783170046234088400,4.51608837890625,0.321624755859375,0.0937652587890625,0.1633453369140625
1783170046244067300,4.5260673828125,0.318450927734375,0.0743408203125,0.158966064453125
1783170046254016500,4.5360166015625,0.310272216796875,0.0565338134765625,0.1510009765625
1783170046263965400,4.54596533203125,0.291839599609375,0.034393310546875,0.14111328125
1783170046273913300,4.555913330078125,0.256927490234375,0.0094757080078125,0.1233673095703125
1783170046283893200,4.565893310546875,0.217376708984375,-0.0031280517578125,0.0985870361328125
1783170046293841400,4.57584130859375,0.1681365966796875,-0.0023651123046875,0.074188232421875
1783170046303790300,4.585790283203125,0.1200408935546875,0.003082275390625,0.0401458740234375
1783170046313739300,4.5957392578125,0.076812744140625,0.011322021484375,0.013519287109375
1783170046323718400,4.605718505859375,0.0286407470703125,0.0185394287109375,-0.0111083984375
1783170046333667300,4.615667236328125,-0.0125274658203125,0.02508544921875,-0.0390472412109375
1783170046343615200,4.625615234375,-0.0436859130859375,0.02667236328125,-0.06402587890625
1783170046353564400,4.635564453125,-0.0685577392578125,0.026885986328125,-0.0825347900390625
1783170046363543600,4.64554345703125,-0.088958740234375,0.0257720947265625,-0.093597412109375
1783170046373492500,4.655492431640625,-0.125152587890625,0.0173492431640625,-0.1025390625
1783170046383441400,4.66544140625,-0.17059326171875,0.0264434814453125,-0.1122589111328125
1783170046393420500,4.675420654296875,-0.2358551025390625,0.0212249755859375,-0.1186676025390625
1783170046403369500,4.685369384765625,-0.348541259765625,-0.002166748046875,-0.1263885498046875
1783170046413318400,4.695318359375,-0.5177764892578125,-0.0249176025390625,-0.1171417236328125
1783170046423266300,4.705266357421875,-0.7469482421875,-0.0650177001953125,-0.115509033203125
1783170046433246500,4.71524658203125,-0.996734619140625,-0.1169586181640625,-0.17279052734375
1783170046443194400,4.7251943359375,-1.2560882568359375,-0.195831298828125,-0.221466064453125
1783170046453143300,4.735143310546875,-1.608673095703125,-0.3271636962890625,-0.2830810546875
1783170046463092200,4.74509228515625,-2.221221923828125,-0.458038330078125,-0.399383544921875
1783170046473071400,4.7550712890625,-3.000030517578125,-0.585296630859375,-0.4832305908203125
1783170046483020300,4.765020263671875,-3.6766357421875,-0.713836669921875,-0.6743927001953125
1783170046492968400,4.774968505859375,-4.1000823974609375,-0.7549896240234375,-0.9571380615234375
1783170046502948400,4.7849482421875,-4.215789794921875,-0.82305908203125,-1.07147216796875
1783170046512896300,4.794896240234375,-4.2238922119140625,-0.9431610107421875,-0.9776763916015625
1783170046522845400,4.804845458984375,-3.96209716796875,-1.0399169921875,-0.76287841796875
1783170046532794400,4.81479443359375,-3.5849456787109375,-1.0957183837890625,-0.4806365966796875
1783170046542773500,4.8247734375,-3.183563232421875,-1.173736572265625,-0.2245025634765625
1783170046552722400,4.834722412109375,-2.7817230224609375,-1.2418212890625,-0.0177154541015625
1783170046562671400,4.84467138671875,-2.3832550048828125,-1.245758056640625,0.1526641845703125
1783170046572619500,4.85461962890625,-1.9604644775390625,-1.1676788330078125,0.2790985107421875
1783170046582599400,4.864599365234375,-1.5504913330078125,-1.028564453125,0.3408660888671875
1783170046592547300,4.87454736328125,-1.1574859619140625,-0.879974365234375,0.36639404296875
1783170046602496500,4.88449658203125,-0.8439178466796875,-0.7264404296875,0.3815460205078125
1783170046612475400,4.894475341796875,-0.60455322265625,-0.55377197265625,0.3135528564453125
1783170046622424300,4.90442431640625,-0.40911865234375,-0.3673553466796875,0.200439453125
1783170046632373200,4.914373291015625,-0.2318878173828125,-0.1957244873046875,0.1307830810546875
1783170046642322200,4.924322265625,-0.0674285888671875,-0.0436248779296875,0.103424072265625
1783170046652323800,4.93432373046875,0.0978240966796875,0.068267822265625,0.1230926513671875
1783170046662271700,4.944271728515625,0.2568359375,0.1229248046875,0.165985107421875
1783170046672220700,4.954220703125,0.3902587890625,0.1315460205078125,0.2224884033203125
1783170046682169600,4.964169677734375,0.496368408203125,0.1129150390625,0.2666168212890625
1783170046692148700,4.974148681640625,0.5669708251953125,0.0871124267578125,0.2874603271484375
1783170046702097700,4.98409765625,0.6173095703125,0.059814453125,0.2959747314453125
1783170046712046800,4.994046875,0.6335601806640625,0.043182373046875,0.2757110595703125
1783170046722026000,5.00402587890625,0.6337432861328125,0.023345947265625,0.2364349365234375
1783170046731975000,5.013974853515625,0.61572265625,0.0049285888671875,0.196685791015625
1783170046741922800,5.0239228515625,0.5845184326171875,-0.0002593994140625,0.1525421142578125
1783170046751871700,5.033871826171875,0.5379791259765625,-0.01275634765625,0.1173553466796875
1783170046761851000,5.043850830078125,0.4692230224609375,-0.016998291015625,0.1037139892578125
1783170046771799800,5.0537998046875,0.38031005859375,-0.0150604248046875,0.0969085693359375
1783170046781748700,5.063748779296875,0.28045654296875,-0.0082244873046875,0.0726318359375
1783170046791697700,5.07369775390625,0.1946563720703125,0.0059051513671875,0.040496826171875
1783170046801676800,5.0836767578125,0.1197052001953125,0.0292205810546875,0.00677490234375
1783170046811625700,5.093625732421875,0.019317626953125,0.0513763427734375,-0.050201416015625
1783170046821573600,5.10357373046875,-0.072998046875,0.07159423828125,-0.0976409912109375
1783170046831522800,5.113522705078125,-0.1537628173828125,0.0750274658203125,-0.107940673828125
1783170046841501700,5.123501708984375,-0.2549896240234375,0.0644073486328125,-0.1183013916015625
1783170046851450600,5.13345068359375,-0.342742919921875,0.0625152587890625,-0.1319732666015625
1783170046861399800,5.14339990234375,-0.3798980712890625,0.056610107421875,-0.147918701171875
1783170046871378700,5.153378662109375,-0.4396209716796875,0.0438690185546875,-0.1579742431640625
1783170046881327900,5.163327880859375,-0.5272064208984375,0.0374755859375,-0.1474456787109375
1783170046891275800,5.17327587890625,-0.5925445556640625,0.02728271484375,-0.1282501220703125
1783170046901225000,5.183224853515625,-0.7263031005859375,-0.002716064453125,-0.107177734375
1783170046911203800,5.193203857421875,-0.9710540771484375,-0.08636474609375,-0.0699310302734375
1783170046921152800,5.20315283203125,-1.2951812744140625,-0.1747283935546875,-0.04736328125
1783170046931101700,5.213101806640625,-1.610870361328125,-0.276641845703125,-0.10107421875
1783170046941051000,5.22305078125,-1.9530487060546875,-0.4254302978515625,-0.239776611328125
1783170046951029800,5.23302978515625,-2.3291015625,-0.6034698486328125,-0.398712158203125
1783170046960978700,5.242978759765625,-2.750335693359375,-0.7906951904296875,-0.505401611328125
1783170046970926800,5.2529267578125,-3.1650848388671875,-0.9069061279296875,-0.6771392822265625
1783170046980906800,5.26290673828125,-3.42034912109375,-0.92578125,-0.895416259765625
1783170046990854700,5.272854736328125,-3.525177001953125,-0.969482421875,-1.005035400390625
1783170047000803600,5.282803466796875,-3.5557708740234375,-1.0522918701171875,-0.9677276611328125
1783170047010752800,5.292752685546875,-3.4905242919921875,-1.1034088134765625,-0.8491973876953125
1783170047020731600,5.302731689453125,-3.3087310791015625,-1.110687255859375,-0.6809539794921875
1783170047030680600,5.3126806640625,-3.058074951171875,-1.080657958984375,-0.47381591796875
1783170047040628700,5.322628662109375,-2.82427978515625,-1.0506591796875,-0.293212890625
1783170047050578000,5.332577880859375,-2.55963134765625,-0.983154296875,-0.1816253662109375
1783170047060556800,5.342556884765625,-2.20233154296875,-0.901153564453125,-0.1152191162109375
1783170047070506000,5.352506103515625,-1.805450439453125,-0.8222198486328125,-0.0446624755859375
1783170047080455000,5.362454833984375,-1.423614501953125,-0.74127197265625,0.0184326171875
1783170047090433800,5.372433837890625,-1.0529022216796875,-0.691375732421875,0.0355224609375
1783170047100382700,5.3823828125,-0.7193603515625,-0.6469268798828125,0.0218505859375
1783170047110331600,5.39233154296875,-0.4701995849609375,-0.582733154296875,0.0006866455078125
1783170047120279800,5.40227978515625,-0.2602386474609375,-0.4909515380859375,-0.039398193359375
1783170047130259700,5.412259765625,-0.0593414306640625,-0.3686676025390625,-0.0837860107421875
1783170047140207900,5.422207763671875,0.1273040771484375,-0.2523193359375,-0.0965423583984375
1783170047150156800,5.43215673828125,0.2824249267578125,-0.17840576171875,-0.0616607666015625
1783170047160105700,5.442105712890625,0.3899078369140625,-0.1365509033203125,-0.009063720703125
1783170047170084600,5.452084716796875,0.4700775146484375,-0.11065673828125,0.049285888671875
1783170047180033800,5.46203369140625,0.5057220458984375,-0.0944976806640625,0.0958404541015625
1783170047189981700,5.471981689453125,0.5116424560546875,-0.072174072265625,0.117645263671875
1783170047199961600,5.481961669921875,0.5196990966796875,-0.047271728515625,0.1219940185546875
1783170047209909800,5.49190966796875,0.5085906982421875,-0.03204345703125,0.1269378662109375
1783170047219859000,5.50185888671875,0.483917236328125,-0.0239105224609375,0.125762939453125
1783170047229807900,5.511807861328125,0.422271728515625,-0.0286712646484375,0.1263885498046875
1783170047239786800,5.521786865234375,0.3536529541015625,-0.04107666015625,0.12945556640625
1783170047249736000,5.53173583984375,0.2808685302734375,-0.0462493896484375,0.115447998046875
1783170047259684900,5.541684814453125,0.1963653564453125,-0.0341033935546875,0.0908966064453125
1783170047269632800,5.5516328125,0.11932373046875,-0.0116424560546875,0.0655670166015625
1783170047279612700,5.56161279296875,0.052093505859375,0.01043701171875,0.03936767578125
1783170047289560800,5.571560791015625,-0.01519775390625,0.037689208984375,0.0114898681640625
1783170047299509800,5.581509765625,-0.06744384765625,0.0682220458984375,-0.0076141357421875
1783170047309489000,5.591489013671875,-0.0953369140625,0.0904541015625,-0.0141448974609375
1783170047319437800,5.601437744140625,-0.111602783203125,0.1095123291015625,-0.0124969482421875
1783170047329386800,5.61138671875,-0.1464385986328125,0.121826171875,-0.025177001953125
1783170047339334700,5.621334716796875,-0.17169189453125,0.1278839111328125,-0.042572021484375
1783170047349314800,5.631314697265625,-0.17633056640625,0.1279754638671875,-0.046539306640625
1783170047359262700,5.6412626953125,-0.2079925537109375,0.1304473876953125,-0.0409088134765625
1783170047369211600,5.651211669921875,-0.2313232421875,0.1452178955078125,-0.038909912109375
1783170047379160800,5.661160888671875,-0.2618408203125,0.148651123046875,-0.042236328125
1783170047389139700,5.6711396484375,-0.3495635986328125,0.1292877197265625,-0.0245513916015625
1783170047399089000,5.6810888671875,-0.5381622314453125,0.087554931640625,0.0094146728515625
1783170047409037800,5.691037841796875,-0.777984619140625,0.01214599609375,0.0778045654296875
1783170047418985700,5.70098583984375,-0.9976654052734375,-0.0998992919921875,0.1909332275390625
1783170047428966000,5.7109658203125,-1.2058868408203125,-0.2413330078125,0.3950042724609375
1783170047438913800,5.720913818359375,-1.52069091796875,-0.418365478515625,0.544708251953125
1783170047448862700,5.73086279296875,-1.9859619140625,-0.59954833984375,0.5623321533203125
1783170047458841900,5.740841796875,-2.4100494384765625,-0.76300048828125,0.4423675537109375
1783170047468790800,5.750790771484375,-2.728118896484375,-0.843414306640625,0.145599365234375
1783170047478739700,5.76073974609375,-3.01702880859375,-0.8165435791015625,-0.2309417724609375
1783170047488687900,5.77068798828125,-3.1765899658203125,-0.8888397216796875,-0.50732421875
1783170047498667800,5.780667724609375,-3.3018798828125,-1.0443267822265625,-0.6992950439453125
1783170047508615700,5.79061572265625,-3.359405517578125,-1.175048828125,-0.8267669677734375
1783170047518564600,5.800564697265625,-3.309051513671875,-1.240447998046875,-0.849365234375
1783170047528513800,5.810513671875,-3.2503204345703125,-1.2904815673828125,-0.8192901611328125
1783170047538492700,5.82049267578125,-3.0619659423828125,-1.212615966796875,-0.815826416015625
1783170047548441900,5.83044189453125,-2.7664337158203125,-1.07666015625,-0.8519744873046875
1783170047558390800,5.840390869140625,-2.404052734375,-0.9365386962890625,-0.846405029296875
1783170047568370000,5.850369873046875,-2.0245208740234375,-0.831695556640625,-0.72283935546875
1783170047578318800,5.86031884765625,-1.685089111328125,-0.7736053466796875,-0.537353515625
1783170047588266800,5.870266845703125,-1.351837158203125,-0.763702392578125,-0.3669586181640625
1783170047598216000,5.8802158203125,-1.0002899169921875,-0.7769622802734375,-0.271820068359375
1783170047608194800,5.89019482421875,-0.6942901611328125,-0.7772064208984375,-0.24395751953125
1783170047618143700,5.900143798828125,-0.480010986328125,-0.6844024658203125,-0.2940521240234375
1783170047628092700,5.9100927734375,-0.2664642333984375,-0.528350830078125,-0.3630523681640625
1783170047638041900,5.920041748046875,-0.0441436767578125,-0.4057159423828125,-0.3553314208984375
1783170047648020700,5.930020751953125,0.112335205078125,-0.33966064453125,-0.2805023193359375
1783170047658000000,5.939999755859375,0.22174072265625,-0.3176422119140625,-0.1731109619140625
1783170047667948000,5.949947998046875,0.307098388671875,-0.3112030029296875,-0.0625
1783170047677927000,5.959927001953125,0.3476715087890625,-0.3148193359375,0.037841796875
1783170047687876000,5.9698759765625,0.3568267822265625,-0.30865478515625,0.1107177734375
1783170047697825300,5.9798251953125,0.349456787109375,-0.2333831787109375,0.1233978271484375
1783170047707774200,5.989774169921875,0.33184814453125,-0.1950225830078125,0.116546630859375
1783170047717753000,5.999753173828125,0.2889556884765625,-0.1859130859375,0.0903472900390625
1783170047727702000,6.009701904296875,0.24005126953125,-0.16815185546875,0.06060791015625
1783170047737650200,6.019650146484375,0.2121429443359375,-0.1521148681640625,0.057281494140625
1783170047747599000,6.02959912109375,0.177581787109375,-0.162933349609375,0.077545166015625
1783170047757578200,6.039578125,0.114715576171875,-0.176361083984375,0.0894317626953125
1783170047767527200,6.049527099609375,0.0657806396484375,-0.1718292236328125,0.09222412109375
1783170047777476000,6.05947607421875,0.0260162353515625,-0.1442108154296875,0.08270263671875
1783170047787455000,6.069455078125,-0.0105743408203125,-0.0995635986328125,0.067047119140625
1783170047797404200,6.079404052734375,-0.0513458251953125,-0.0587921142578125,0.04522705078125
1783170047807353000,6.08935302734375,-0.0835418701171875,-0.0460662841796875,0.02783203125
1783170047817301000,6.099301025390625,-0.094757080078125,-0.036041259765625,0.0068359375
1783170047827281000,6.109281005859375,-0.1129608154296875,-0.01849365234375,-0.018402099609375
1783170047837229000,6.11922900390625,-0.148193359375,-0.0064697265625,-0.0171051025390625
1783170047847178200,6.12917822265625,-0.183502197265625,-0.0008087158203125,0.0345611572265625
1783170047857127200,6.139127197265625,-0.219451904296875,-0.00323486328125,0.06829833984375
1783170047867106300,6.149106201171875,-0.280517578125,-0.0118408203125,0.108184814453125
1783170047877055200,6.15905517578125,-0.323211669921875,-0.0698089599609375,0.1623382568359375
1783170047887003100,6.169003173828125,-0.356475830078125,-0.1232147216796875,0.1992034912109375
1783170047896952000,6.1789521484375,-0.4342498779296875,-0.1963653564453125,0.1812286376953125
1783170047906931200,6.18893115234375,-0.6690673828125,-0.2422943115234375,0.079376220703125
1783170047916880100,6.198880126953125,-1.0539703369140625,-0.291046142578125,0.030364990234375
1783170047926829000,6.2088291015625,-1.35699462890625,-0.3756103515625,0.0548553466796875
1783170047936808200,6.21880810546875,-1.7222747802734375,-0.5524139404296875,0.097747802734375
1783170047946757000,6.228757080078125,-2.2650604248046875,-0.639007568359375,0.090728759765625
1783170047956706000,6.2387060546875,-2.736572265625,-0.6361083984375,-0.0172271728515625
1783170047966654000,6.248654052734375,-3.004486083984375,-0.594085693359375,-0.2357635498046875
1783170047976634000,6.258634033203125,-3.0901031494140625,-0.463165283203125,-0.483642578125
1783170047986582000,6.26858203125,-3.0571136474609375,-0.4274139404296875,-0.5977325439453125
1783170047996531000,6.278531005859375,-3.01837158203125,-0.4195404052734375,-0.5745849609375
1783170048006480100,6.288480224609375,-2.9224090576171875,-0.4228515625,-0.5206146240234375
1783170048016459000,6.298458984375,-2.7526397705078125,-0.5032501220703125,-0.4310150146484375
1783170048026408200,6.308408203125,-2.5653533935546875,-0.58447265625,-0.3338775634765625
1783170048036356000,6.318356201171875,-2.362396240234375,-0.62396240234375,-0.3038177490234375
1783170048046336300,6.328336181640625,-2.1307220458984375,-0.65777587890625,-0.30352783203125
1783170048056284200,6.3382841796875,-1.891571044921875,-0.6797332763671875,-0.299530029296875
1783170048066233000,6.348233154296875,-1.6457672119140625,-0.688446044921875,-0.2923583984375
1783170048076182000,6.35818212890625,-1.3881683349609375,-0.687530517578125,-0.29412841796875
1783170048086161200,6.3681611328125,-1.1252899169921875,-0.695404052734375,-0.274261474609375
1783170048096110000,6.378110107421875,-0.88250732421875,-0.695037841796875,-0.2303619384765625
1783170048106059000,6.38805908203125,-0.6688232421875,-0.6818084716796875,-0.2126007080078125
1783170048116007200,6.398007080078125,-0.4920654296875,-0.6343536376953125,-0.2163848876953125
1783170048125987000,6.407987060546875,-0.3807373046875,-0.546539306640625,-0.2257080078125
1783170048135935000,6.41793505859375,-0.305450439453125,-0.4736480712890625,-0.249786376953125
1783170048145884200,6.42788427734375,-0.246734619140625,-0.4685516357421875,-0.2729644775390625
1783170048155863000,6.437863037109375,-0.2103424072265625,-0.5165557861328125,-0.25579833984375
1783170048165812000,6.44781201171875,-0.172119140625,-0.5544586181640625,-0.196258544921875
1783170048175761200,6.45776123046875,-0.129302978515625,-0.54266357421875,-0.1553802490234375
1783170048185709000,6.467708984375,-0.07598876953125,-0.52008056640625,-0.12164306640625
1783170048195689200,6.477689208984375,-0.002166748046875,-0.522125244140625,-0.054931640625
1783170048205637000,6.48763720703125,0.0694732666015625,-0.5386962890625,0.0136566162109375
1783170048215586300,6.49758642578125,0.1028900146484375,-0.545135498046875,0.0634002685546875
1783170048225535200,6.50753515625,0.1092376708984375,-0.52337646484375,0.102081298828125
1783170048235514000,6.51751416015625,0.1014251708984375,-0.4833526611328125,0.14239501953125
1783170048245463000,6.527463134765625,0.0795745849609375,-0.44384765625,0.162261962890625
1783170048255412200,6.537412109375,0.0114593505859375,-0.388519287109375,0.15618896484375
1783170048265391000,6.54739111328125,-0.0760040283203125,-0.3181610107421875,0.1319732666015625
1783170048275340000,6.557340087890625,-0.1313323974609375,-0.2572479248046875,0.10302734375
1783170048285288200,6.5672880859375,-0.159271240234375,-0.2081146240234375,0.08392333984375
1783170048295237000,6.577237060546875,-0.193023681640625,-0.1847381591796875,0.069244384765625
1783170048305216000,6.587216064453125,-0.218994140625,-0.1915435791015625,0.0682525634765625
1783170048315165000,6.5971650390625,-0.209503173828125,-0.182830810546875,0.1034393310546875
1783170048325114000,6.607114013671875,-0.203125,-0.159912109375,0.138824462890625
1783170048335062000,6.61706201171875,-0.1942901611328125,-0.1432037353515625,0.1517791748046875
1783170048345042000,6.6270419921875,-0.1930084228515625,-0.1363525390625,0.1445159912109375
1783170048354990000,6.636989990234375,-0.2116241455078125,-0.1397552490234375,0.107879638671875
1783170048364939300,6.646939208984375,-0.262054443359375,-0.1579437255859375,0.052154541015625
1783170048374888200,6.65688818359375,-0.3567352294921875,-0.1908721923828125,0.0195465087890625
1783170048384867000,6.6668671875,-0.522735595703125,-0.2145233154296875,0.02569580078125
1783170048394816300,6.676816162109375,-0.7737884521484375,-0.2263946533203125,0.0271453857421875
1783170048404765200,6.68676513671875,-0.9426727294921875,-0.2507781982421875,-0.05279541015625
1783170048414744000,6.696744140625,-1.1058197021484375,-0.2833099365234375,-0.2075347900390625
1783170048424693000,6.70669287109375,-1.4010772705078125,-0.2969970703125,-0.4123687744140625
1783170048434641200,6.71664111328125,-1.6792144775390625,-0.3094482421875,-0.61968994140625
1783170048444590000,6.726590087890625,-2.0185546875,-0.3743896484375,-0.8521270751953125
1783170048454569200,6.7365693359375,-2.3529205322265625,-0.4292144775390625,-1.0994873046875
1783170048464518100,6.74651806640625,-2.54425048828125,-0.3703155517578125,-1.3493499755859375
1783170048474467000,6.756467041015625,-2.65960693359375,-0.2641754150390625,-1.562347412109375
1783170048484416000,6.766416015625,-2.702850341796875,-0.196563720703125,-1.6646728515625
1783170048494395100,6.77639501953125,-2.6316986083984375,-0.1470947265625,-1.6646728515625
1783170048504343000,6.786343017578125,-2.522857666015625,-0.1460113525390625,-1.5753631591796875
1783170048514292000,6.7962919921875,-2.3696746826171875,-0.2530059814453125,-1.3836669921875
1783170048524271000,6.80627099609375,-2.1746826171875,-0.4148406982421875,-1.1317138671875
1783170048534220300,6.81622021484375,-1.954864501953125,-0.5873260498046875,-0.886444091796875
1783170048544169200,6.826169189453125,-1.716064453125,-0.7342681884765625,-0.7348480224609375
1783170048554118100,6.8361181640625,-1.51385498046875,-0.771514892578125,-0.7452850341796875
1783170048564097300,6.84609716796875,-1.3118743896484375,-0.725830078125,-0.7682342529296875
1783170048574046200,6.856046142578125,-1.060699462890625,-0.6632537841796875,-0.7200775146484375
1783170048583994000,6.865994140625,-0.8531036376953125,-0.57049560546875,-0.642486572265625
1783170048593943000,6.875943115234375,-0.6650238037109375,-0.474853515625,-0.54327392578125
1783170048603922200,6.885922119140625,-0.4955291748046875,-0.41632080078125,-0.43414306640625
1783170048613871000,6.89587109375,-0.353302001953125,-0.3204498291015625,-0.338470458984375
1783170048623820000,6.905820068359375,-0.2343292236328125,-0.17755126953125,-0.2708892822265625
1783170048633799200,6.915799072265625,-0.119232177734375,-0.0320892333984375,-0.207733154296875
1783170048643748000,6.925748046875,-0.0612945556640625,-0.012451171875,-0.1778411865234375
1783170048653712000,6.9357119140625,-0.1517791748046875,-0.130828857421875,-0.1705322265625
1783170048663659800,6.94565966796875,-0.21435546875,-0.195404052734375,-0.1303558349609375
1783170048673640000,6.955639892578125,-0.1876373291015625,-0.2425689697265625,-0.0788421630859375
1783170048683587800,6.965587890625,-0.2031707763671875,-0.3578643798828125,-0.0569610595703125
1783170048693537000,6.975537109375,-0.235931396484375,-0.4625396728515625,-0.0666961669921875
1783170048703486000,6.98548583984375,-0.2409820556640625,-0.5098419189453125,-0.10345458984375
1783170048713465000,6.995465087890625,-0.2354888916015625,-0.5111083984375,-0.1123199462890625
1783170048723414000,7.0054140625,-0.26263427734375,-0.5032501220703125,-0.1255035400390625
1783170048733362000,7.01536181640625,-0.29742431640625,-0.486572265625,-0.1418609619140625
1783170048743341800,7.025341796875,-0.30108642578125,-0.4476776123046875,-0.1377410888671875
1783170048753290000,7.0352900390625,-0.33935546875,-0.4024810791015625,-0.1253814697265625
1783170048763239000,7.045239013671875,-0.3568267822265625,-0.376953125,-0.1266632080078125
1783170048773187800,7.055187744140625,-0.38409423828125,-0.3311004638671875,-0.1413116455078125
1783170048783167000,7.0651669921875,-0.42767333984375,-0.2714385986328125,-0.135772705078125
1783170048793116000,7.075115966796875,-0.4421844482421875,-0.2174835205078125,-0.0811767578125
1783170048803064800,7.08506494140625,-0.479705810546875,-0.1698455810546875,-0.048828125
1783170048813012700,7.0950126953125,-0.5073089599609375,-0.1267242431640625,-0.0236968994140625
1783170048822993000,7.104992919921875,-0.5001220703125,-0.1131134033203125,0.024658203125
1783170048832940800,7.11494091796875,-0.515655517578125,-0.097137451171875,0.0070953369140625
1783170048842889700,7.1248896484375,-0.54364013671875,-0.044586181640625,-0.037200927734375
1783170048852839000,7.1348388671875,-0.51312255859375,-0.001251220703125,-0.05340576171875
1783170048862818000,7.144818115234375,-0.5445404052734375,-0.037322998046875,-0.03179931640625
1783170048872767000,7.15476708984375,-0.7590484619140625,-0.10040283203125,-0.074371337890625
1783170048882715000,7.16471484375,-0.9723052978515625,-0.1236572265625,-0.2038421630859375
1783170048892695000,7.174695068359375,-1.0237274169921875,-0.1292266845703125,-0.35272216796875
1783170048902643000,7.184642822265625,-1.0714874267578125,-0.074249267578125,-0.436553955078125
1783170048912592000,7.194591796875,-1.2248077392578125,-0.0154876708984375,-0.4388580322265625
1783170048922540800,7.204540771484375,-1.29608154296875,-0.0406341552734375,-0.39398193359375
1783170048932520000,7.21452001953125,-1.350006103515625,-0.1089935302734375,-0.3270111083984375
1783170048942468900,7.22446875,-1.5016326904296875,-0.2103729248046875,-0.3213043212890625
1783170048952417800,7.234417724609375,-1.6662750244140625,-0.3884124755859375,-0.3506927490234375
1783170048962366000,7.244365966796875,-1.7998504638671875,-0.5903472900390625,-0.35833740234375
1783170048972345900,7.254345947265625,-1.9501800537109375,-0.7054595947265625,-0.3401641845703125
1783170048982293800,7.264293701171875,-2.1332855224609375,-0.7215423583984375,-0.5032196044921875
1783170048992242700,7.27424267578125,-2.2256622314453125,-0.6168060302734375,-0.876129150390625
1783170049002221800,7.284221923828125,-2.4703826904296875,-0.231292724609375,-1.1143341064453125
1783170049012170800,7.294170654296875,-2.8529815673828125,0.1705169677734375,-1.2586822509765625
1783170049022120000,7.304119873046875,-2.5023193359375,-0.1263427734375,-1.12750244140625
1783170049032068000,7.314068115234375,-2.260650634765625,-0.1389617919921875,-1.062255859375
1783170049042048000,7.324048095703125,-2.1704559326171875,-0.008087158203125,-0.89556884765625
1783170049051996000,7.333995849609375,-2.1784210205078125,-0.0965728759765625,-0.568389892578125
1783170049061945000,7.343945068359375,-2.2028961181640625,-0.20513916015625,-0.3638458251953125
1783170049071894000,7.35389404296875,-1.8874969482421875,-0.3100738525390625,-0.295440673828125
1783170049081873000,7.363872802734375,-1.467071533203125,-0.35736083984375,-0.2296905517578125
1783170049091821800,7.37382177734375,-1.1694488525390625,-0.337127685546875,-0.1504364013671875
1783170049101770800,7.383770751953125,-0.9715728759765625,-0.305419921875,-0.105072021484375
1783170049111750000,7.39375,-0.81988525390625,-0.267364501953125,-0.1427001953125
1783170049121698800,7.40369873046875,-0.6393585205078125,-0.238861083984375,-0.15911865234375
1783170049131647000,7.41364697265625,-0.5009002685546875,-0.2052459716796875,-0.1652374267578125
1783170049141596000,7.423595947265625,-0.4029998779296875,-0.1615142822265625,-0.1591033935546875
1783170049151574800,7.43357470703125,-0.3113555908203125,-0.1346435546875,-0.137176513671875
1783170049161523700,7.443523681640625,-0.2316741943359375,-0.142181396484375,-0.110595703125
1783170049171473000,7.453472900390625,-0.182342529296875,-0.1651153564453125,-0.086090087890625
1783170049181420800,7.4634208984375,-0.136444091796875,-0.1835784912109375,-0.0783233642578125
1783170049191401000,7.47340087890625,-0.0901947021484375,-0.2108612060546875,-0.0659027099609375
1783170049201348900,7.483348876953125,-0.066802978515625,-0.2586669921875,-0.039276123046875
1783170049211298000,7.493298095703125,-0.038482666015625,-0.2998199462890625,-0.03094482421875
1783170049221247000,7.5032470703125,-0.0059814453125,-0.3226776123046875,-0.0260162353515625
1783170049231225900,7.513225830078125,0.0183258056640625,-0.324127197265625,-0.0068359375
1783170049241175000,7.523175048828125,0.06640625,-0.3137969970703125,0.0117950439453125
1783170049251124000,7.5331240234375,0.103546142578125,-0.29107666015625,0.015106201171875
1783170049261102800,7.543102783203125,0.117401123046875,-0.25616455078125,0.0206146240234375
1783170049271051800,7.5530517578125,0.1243438720703125,-0.223785400390625,0.02740478515625
1783170049281000000,7.563,0.11492919921875,-0.20233154296875,0.0382843017578125
1783170049290948900,7.572948974609375,0.081298828125,-0.1753387451171875,0.04638671875
1783170049300928000,7.582927978515625,0.03375244140625,-0.1443939208984375,0.0358123779296875
1783170049310877000,7.592876953125,0.016876220703125,-0.1157989501953125,0.025726318359375
1783170049320825900,7.602825927734375,-0.009735107421875,-0.07904052734375,0.00250244140625
1783170049330774800,7.61277490234375,-0.0376434326171875,-0.0415802001953125,-0.0111083984375
1783170049340754000,7.62275390625,-0.0698089599609375,-0.0189666748046875,-0.020233154296875
1783170049350701800,7.632701904296875,-0.10400390625,-0.00244140625,-0.0169677734375
1783170049360650800,7.642650634765625,-0.16424560546875,0.02008056640625,-0.010528564453125
1783170049370630000,7.6526298828125,-0.2296295166015625,0.031768798828125,-0.0062408447265625
1783170049380579000,7.6625791015625,-0.2789459228515625,0.0271453857421875,-0.00006103515625
1783170049390528000,7.672528076171875,-0.3576202392578125,0.0166168212890625,0.0232391357421875
1783170049400477000,7.682476806640625,-0.5338287353515625,0.0013885498046875,0.0779571533203125
1783170049410456000,7.6924560546875,-0.760833740234375,-0.006439208984375,0.144195556640625
1783170049420405000,7.702405029296875,-0.9280242919921875,-0.04010009765625,0.1522064208984375
1783170049430353000,7.712352783203125,-1.0851593017578125,-0.0650482177734375,0.1547393798828125
1783170049440301800,7.7223017578125,-1.3298797607421875,-0.1436004638671875,0.168182373046875
1783170049450281000,7.732281005859375,-1.7214202880859375,-0.320465087890625,0.1902618408203125
1783170049460230000,7.74222998046875,-2.1855926513671875,-0.463653564453125,0.192352294921875
1783170049470178800,7.7521787109375,-2.5982666015625,-0.4827117919921875,0.04864501953125
1783170049480158000,7.762157958984375,-2.915863037109375,-0.391937255859375,-0.2098388671875
1783170049490107000,7.77210693359375,-3.163848876953125,-0.20953369140625,-0.456573486328125
1783170049500055800,7.782055908203125,-3.31903076171875,-0.05908203125,-0.6649017333984375
1783170049510003700,7.792003662109375,-3.3567352294921875,-0.00872802734375,-0.8234100341796875
1783170049519982800,7.80198291015625,-3.3045806884765625,-0.0253448486328125,-0.88262939453125
1783170049529931800,7.811931884765625,-3.1596527099609375,-0.069305419921875,-0.8494873046875
1783170049539881000,7.821880859375,-2.9928131103515625,-0.1484222412109375,-0.7548370361328125
1783170049549830000,7.831829833984375,-2.8187255859375,-0.2396392822265625,-0.6145782470703125
1783170049559809000,7.84180908203125,-2.5942230224609375,-0.2951507568359375,-0.477142333984375
1783170049569758000,7.851758056640625,-2.2806549072265625,-0.330535888671875,-0.362274169921875
1783170049579705900,7.861705810546875,-1.9296417236328125,-0.3616485595703125,-0.274017333984375
1783170049589686000,7.87168603515625,-1.5971832275390625,-0.38946533203125,-0.222503662109375
1783170049599634000,7.881634033203125,-1.3008270263671875,-0.3941802978515625,-0.1952362060546875
1783170049609582800,7.891582763671875,-1.043792724609375,-0.3795318603515625,-0.1739349365234375
1783170049619531800,7.90153173828125,-0.8277435302734375,-0.333160400390625,-0.1877288818359375
1783170049629511000,7.911510986328125,-0.65570068359375,-0.2626953125,-0.2202911376953125
1783170049639459800,7.9214599609375,-0.493316650390625,-0.17529296875,-0.245147705078125
1783170049649408800,7.93140869140625,-0.32025146484375,-0.100341796875,-0.2264556884765625
1783170049659393500,7.9413935546875,-0.188751220703125,-0.0754547119140625,-0.1811676025390625
1783170049669373400,7.95137353515625,-0.0934295654296875,-0.114837646484375,-0.1168212890625
1783170049679321600,7.961321533203125,-0.0138702392578125,-0.24249267578125,-0.0380859375
1783170049689270500,7.9712705078125,0.023040771484375,-0.423309326171875,0.014251708984375
1783170049699219500,7.981219482421875,0.052947998046875,-0.5186309814453125,0.0269012451171875
1783170049709198600,7.991198486328125,0.0886383056640625,-0.5567169189453125,-0.0256805419921875
1783170049719147500,8.0011474609375,0.16510009765625,-0.5411529541015625,-0.1123504638671875
1783170049729095400,8.011095458984375,0.2495269775390625,-0.4563446044921875,-0.1705322265625
1783170049739075300,8.021075439453124,0.31524658203125,-0.3667144775390625,-0.1592559814453125
1783170049749023500,8.0310234375,0.3545379638671875,-0.4821624755859375,-0.174224853515625
1783170049758972400,8.040972412109374,0.398712158203125,-0.4937896728515625,-0.1722412109375
1783170049768921300,8.05092138671875,0.3575897216796875,-0.356414794921875,-0.0999603271484375
1783170049778900500,8.060900390625,0.213165283203125,-0.267974853515625,-0.0342254638671875
1783170049788849700,8.070849609375,0.1279296875,-0.2609100341796875,-0.028656005859375
1783170049798798600,8.080798583984375,0.0995025634765625,-0.2508392333984375,-0.003387451171875
1783170049808746500,8.09074658203125,-0.02197265625,-0.2366180419921875,0.0227813720703125
1783170049818726700,8.1007265625,-0.0228424072265625,-0.256195068359375,0.0399017333984375
1783170049828674600,8.110674560546874,-0.0405120849609375,-0.164825439453125,-0.0469207763671875
1783170049838623500,8.12062353515625,-0.1893463134765625,-0.087493896484375,-0.0347137451171875
1783170049848602600,8.1306025390625,-0.283721923828125,-0.0426788330078125,-0.033538818359375
1783170049858551600,8.140551513671875,-0.3179168701171875,-0.0088348388671875,-0.0639495849609375
1783170049868500500,8.15050048828125,-0.369476318359375,0.0341033935546875,-0.102630615234375
1783170049878448400,8.160448486328125,-0.4718780517578125,0.062713623046875,-0.1419830322265625
1783170049888428500,8.170428466796874,-0.6098175048828125,0.074188232421875,-0.212066650390625
1783170049898376400,8.18037646484375,-0.7390289306640625,0.0601043701171875,-0.30169677734375
1783170049908325400,8.190325439453124,-0.8842010498046875,0.0671234130859375,-0.4277801513671875
1783170049918274300,8.2002744140625,-1.0954437255859375,0.055755615234375,-0.575927734375
1783170049928253400,8.21025341796875,-1.27423095703125,-0.0388946533203125,-0.6123809814453125
1783170049938202400,8.220202392578125,-1.3264007568359375,-0.1678009033203125,-0.50079345703125
1783170049948151600,8.230151611328125,-1.369140625,-0.3526153564453125,-0.3295135498046875
1783170049958130700,8.240130615234374,-1.52197265625,-0.579498291015625,-0.20428466796875
1783170049968079600,8.25007958984375,-1.7611846923828125,-0.743988037109375,-0.1533966064453125
1783170049978027500,8.260027587890624,-1.976043701171875,-0.778900146484375,-0.29815673828125
1783170049987976400,8.2699765625,-2.034393310546875,-0.72052001953125,-0.5734405517578125
1783170049997955600,8.27995556640625,-2.13226318359375,-0.6739654541015625,-0.845245361328125
1783170050007904500,8.289904541015625,-2.328887939453125,-0.669342041015625,-1.0266876220703125
1783170050017853400,8.299853515625,-2.4994659423828125,-0.6430816650390625,-1.1323089599609375
1783170050027801600,8.309801513671875,-2.5036468505859375,-0.5995025634765625,-1.1698760986328125
1783170050037781500,8.319781494140624,-2.461334228515625,-0.5769805908203125,-1.1493988037109375
1783170050047729400,8.3297294921875,-2.47900390625,-0.5360260009765625,-1.079620361328125
1783170050057678300,8.33967822265625,-2.4629364013671875,-0.487548828125,-0.99688720703125
1783170050067657500,8.349657470703125,-2.3354949951171875,-0.44854736328125,-0.960693359375
1783170050077606400,8.3596064453125,-2.09375,-0.4026336669921875,-0.94940185546875
1783170050087555300,8.369555419921875,-1.7991485595703125,-0.374755859375,-0.904693603515625
1783170050097504300,8.379504150390625,-1.5348358154296875,-0.37408447265625,-0.8414459228515625
1783170050107483400,8.3894833984375,-1.266326904296875,-0.3661651611328125,-0.72100830078125
1783170050117432600,8.3994326171875,-1.042388916015625,-0.34588623046875,-0.509735107421875
1783170050127380500,8.40938037109375,-0.874603271484375,-0.338348388671875,-0.3319244384765625
1783170050137329700,8.41932958984375,-0.716644287109375,-0.3119659423828125,-0.2321319580078125
1783170050147308500,8.42930859375,-0.5727996826171875,-0.272491455078125,-0.1746368408203125
1783170050157257500,8.439257568359375,-0.5005340576171875,-0.2143402099609375,-0.1570587158203125
1783170050167206400,8.449206298828125,-0.4539642333984375,-0.1618804931640625,-0.197021484375
1783170050177155600,8.459155517578125,-0.3621978759765625,-0.124542236328125,-0.1822052001953125
1783170050187134500,8.469134521484374,-0.3166351318359375,-0.129608154296875,-0.15869140625
1783170050197082600,8.47908251953125,-0.2695465087890625,-0.1820831298828125,-0.1087493896484375
1783170050207031600,8.489031494140624,-0.205291748046875,-0.2763824462890625,-0.04205322265625
1783170050217010400,8.499010498046875,-0.155853271484375,-0.3721923828125,-0.0039215087890625
1783170050226959400,8.50895947265625,-0.1310272216796875,-0.4204254150390625,0.00225830078125
1783170050236908500,8.518908447265625,-0.0657806396484375,-0.4257354736328125,0.0052337646484375
1783170050246857500,8.528857421875,0.036651611328125,-0.4226837158203125,-0.002777099609375
1783170050256836400,8.53883642578125,0.129241943359375,-0.4185943603515625,-0.02838134765625
1783170050266785300,8.548785400390624,0.2060089111328125,-0.3982086181640625,-0.036529541015625
1783170050276733400,8.5587333984375,0.25927734375,-0.377349853515625,-0.01983642578125
1783170050286682400,8.568682373046874,0.29095458984375,-0.3651885986328125,-0.0015106201171875
1783170050296661500,8.57866162109375,0.2982940673828125,-0.3599090576171875,-0.0027923583984375
1783170050306610700,8.588610595703125,0.2969512939453125,-0.350311279296875,-0.0179290771484375
1783170050316559600,8.5985595703125,0.2789459228515625,-0.3213348388671875,-0.0337066650390625
1783170050326538500,8.60853857421875,0.229644775390625,-0.279510498046875,-0.07275390625
1783170050336487400,8.6184873046875,0.1663055419921875,-0.2404937744140625,-0.131622314453125
1783170050346436600,8.6284365234375,0.1063690185546875,-0.203826904296875,-0.1702880859375
1783170050356384500,8.638384521484374,0.0393829345703125,-0.1770782470703125,-0.1842803955078125
1783170050366363600,8.64836376953125,0.0041046142578125,-0.145172119140625,-0.1991729736328125
1783170050376312600,8.6583125,-0.0474700927734375,-0.1303863525390625,-0.188232421875
1783170050386261500,8.668261474609375,-0.1161956787109375,-0.1294708251953125,-0.167510986328125
1783170050396210400,8.67821044921875,-0.185302734375,-0.14678955078125,-0.1881561279296875
1783170050406189600,8.688189453125,-0.305694580078125,-0.1916351318359375,-0.209930419921875
1783170050416138500,8.698138427734374,-0.520751953125,-0.2763824462890625,-0.246917724609375
1783170050426086400,8.70808642578125,-0.8167266845703125,-0.434234619140625,-0.3078460693359375
1783170050436066300,8.71806640625,-1.1718902587890625,-0.628570556640625,-0.35528564453125
1783170050446014500,8.728014404296875,-1.4718170166015625,-0.81427001953125,-0.2960357666015625
1783170050455963400,8.73796337890625,-1.78363037109375,-1.00335693359375,-0.17730712890625
1783170050465912600,8.74791259765625,-2.1005096435546875,-1.155303955078125,-0.224639892578125
1783170050475891700,8.7578916015625,-2.4462890625,-1.14752197265625,-0.3469085693359375
1783170050485840600,8.767840576171874,-2.7313995361328125,-1.1408538818359375,-0.3748016357421875
1783170050495789600,8.77778955078125,-2.9291839599609375,-0.9896240234375,-0.4136505126953125
1783170050505737500,8.787737548828124,-2.9911041259765625,-0.8106536865234375,-0.3861236572265625
1783170050515717600,8.797717529296875,-2.968017578125,-0.6677703857421875,-0.222869873046875
1783170050525665500,8.80766552734375,-3.038238525390625,-0.5844573974609375,-0.067626953125
1783170050535614500,8.817614501953125,-3.1317138671875,-0.494842529296875,0.03973388671875
1783170050545593600,8.827593505859374,-3.09075927734375,-0.388702392578125,0.0774688720703125
1783170050555542500,8.83754248046875,-2.8733673095703125,-0.2365570068359375,-0.0004425048828125
1783170050565491500,8.847491455078124,-2.6298370361328125,-0.0733795166015625,-0.0862274169921875
1783170050575439400,8.857439453125,-2.3909149169921875,0.040191650390625,-0.103240966796875
1783170050585419500,8.86741943359375,-2.1389312744140625,0.0885772705078125,-0.064208984375
1783170050595367400,8.877367431640625,-1.9109344482421875,0.09320068359375,-0.0166168212890625
1783170050605316400,8.88731640625,-1.7138824462890625,0.0836181640625,0.01116943359375
1783170050615265300,8.897265380859375,-1.5070343017578125,0.0643310546875,0.027862548828125
1783170050625244400,8.907244384765624,-1.27154541015625,0.0154876708984375,0.034088134765625
1783170050635193600,8.917193603515624,-1.0181427001953125,-0.0117034912109375,0.0152130126953125
1783170050645142500,8.927142578125,-0.7883758544921875,-0.0193939208984375,-0.0194091796875
1783170050655110400,8.9371103515625,-0.5461578369140625,-0.023681640625,-0.070068359375
1783170050665090300,8.94709033203125,-0.296661376953125,-0.0317535400390625,-0.1144561767578125
1783170050675038500,8.95703857421875,-0.0867462158203125,-0.0365142822265625,-0.115875244140625
1783170050684987400,8.9669873046875,0.06396484375,-0.0717620849609375,-0.091217041015625
1783170050694966300,8.97696630859375,0.1970672607421875,-0.122802734375,-0.050201416015625
1783170050704915200,8.986915283203125,0.3174591064453125,-0.1452484130859375,0.0274505615234375
1783170050714864400,8.996864501953125,0.387451171875,-0.17193603515625,0.086883544921875
1783170050724812500,9.0068125,0.4293212890625,-0.19757080078125,0.14459228515625
1783170050734792400,9.01679248046875,0.4127655029296875,-0.247955322265625,0.1980743408203125
1783170050744740600,9.02674072265625,0.4230499267578125,-0.24530029296875,0.192047119140625
1783170050754689500,9.036689453125,0.451507568359375,-0.2100830078125,0.1205291748046875
1783170050764638500,9.046638427734376,0.4100189208984375,-0.19525146484375,0.0983734130859375
1783170050774617300,9.056617431640625,0.3450775146484375,-0.1831512451171875,0.100616455078125
1783170050784566500,9.06656640625,0.2769317626953125,-0.1334228515625,0.0704193115234375
1783170050794515500,9.076515380859375,0.1726226806640625,-0.1026611328125,0.0963134765625
1783170050804494300,9.086494384765626,0.125335693359375,-0.0763397216796875,0.13128662109375
1783170050814443300,9.096443359375,0.096923828125,-0.0538330078125,0.1163330078125
1783170050824391400,9.106391357421876,0.0525970458984375,-0.0359344482421875,0.1002960205078125
1783170050834340400,9.11634033203125,0.0290374755859375,-0.0108489990234375,0.0769195556640625
1783170050844319200,9.1263193359375,0.0155792236328125,0.009124755859375,0.0360107421875
1783170050854268400,9.136268310546875,-0.0177459716796875,0.03692626953125,0.00823974609375
1783170050864217300,9.14621728515625,-0.057647705078125,0.0582733154296875,0.02508544921875
1783170050874165200,9.156165283203125,-0.1026458740234375,0.0709075927734375,0.0419921875
1783170050884145400,9.1661455078125,-0.1399078369140625,0.073333740234375,0.07574462890625
1783170050894093600,9.176093505859376,-0.1472015380859375,0.058319091796875,0.1214447021484375
1783170050904042500,9.18604248046875,-0.1708526611328125,0.019866943359375,0.1391754150390625
1783170050914021400,9.196021484375,-0.3026580810546875,-0.0411529541015625,0.1367950439453125
1783170050923970600,9.205970458984375,-0.452880859375,-0.1403656005859375,0.134307861328125
1783170050933919500,9.21591943359375,-0.713226318359375,-0.259613037109375,0.050140380859375
1783170050943868400,9.225868408203125,-1.110809326171875,-0.4024658203125,0.03277587890625
1783170050953847300,9.235847412109376,-1.4066314697265625,-0.5870513916015625,0.0846710205078125
1783170050963796500,9.24579638671875,-1.685394287109375,-0.765472412109375,0.05670166015625
1783170050973744400,9.255744384765626,-2.2031402587890625,-0.890350341796875,-0.0771331787109375
1783170050983693300,9.265693359375,-2.691925048828125,-0.9451446533203125,-0.2595062255859375
1783170050993672400,9.27567236328125,-2.91064453125,-0.971527099609375,-0.3204193115234375
1783170051003621400,9.285621337890625,-3.0851593017578125,-0.876434326171875,-0.3642425537109375
1783170051013570300,9.2955703125,-3.232940673828125,-0.7239837646484375,-0.347320556640625
1783170051023519200,9.305519287109375,-3.266693115234375,-0.6983489990234375,-0.296539306640625
1783170051033498400,9.315498291015626,-3.21771240234375,-0.7478485107421875,-0.240692138671875
1783170051043446300,9.3254462890625,-3.0549468994140625,-0.7735595703125,-0.22900390625
1783170051053395500,9.3353955078125,-2.781097412109375,-0.8085784912109375,-0.2715301513671875
1783170051063374300,9.345374267578125,-2.4383087158203125,-0.847198486328125,-0.3248748779296875
1783170051073323500,9.355323486328125,-2.078338623046875,-0.85943603515625,-0.3597869873046875
1783170051083272400,9.3652724609375,-1.8022613525390625,-0.85272216796875,-0.3711090087890625
1783170051093221400,9.375221435546875,-1.5938568115234375,-0.80633544921875,-0.336090087890625
1783170051103200500,9.385200439453126,-1.3782806396484375,-0.6847991943359375,-0.3060150146484375
1783170051113149400,9.3951494140625,-1.2421417236328125,-0.5372161865234375,-0.2857208251953125
1783170051123097300,9.405097412109376,-1.09405517578125,-0.4554595947265625,-0.2055206298828125
1783170051133046300,9.41504638671875,-0.8919830322265625,-0.39361572265625,-0.130828857421875
1783170051143025400,9.425025390625,-0.7167205810546875,-0.4365692138671875,-0.052490234375
1783170051152974300,9.434974365234375,-0.565460205078125,-0.53350830078125,-0.01751708984375
1783170051162923300,9.44492333984375,-0.4037628173828125,-0.5784759521484375,-0.06219482421875
1783170051172902400,9.45490234375,-0.2477264404296875,-0.552978515625,-0.1721343994140625
1783170051182851300,9.464851318359376,-0.121826171875,-0.5096435546875,-0.2869415283203125
1783170051192800300,9.47480029296875,0.00408935546875,-0.47662353515625,-0.333160400390625
1783170051202748400,9.48474853515625,0.0977935791015625,-0.4559173583984375,-0.33056640625
1783170051212727300,9.494727294921875,0.141845703125,-0.4574127197265625,-0.2784881591796875
1783170051222676200,9.50467626953125,0.15283203125,-0.4450225830078125,-0.2166748046875
1783170051232625400,9.51462548828125,0.1519622802734375,-0.405029296875,-0.1591796875
1783170051242574300,9.52457421875,0.13458251953125,-0.3465423583984375,-0.1160125732421875
1783170051252553500,9.534553466796876,0.102630615234375,-0.2989654541015625,-0.082244873046875
1783170051262502400,9.54450244140625,0.0604705810546875,-0.249359130859375,-0.0483856201171875
1783170051272450600,9.554450439453126,0.019439697265625,-0.195526123046875,-0.0287628173828125
1783170051282430500,9.564430419921875,-0.0157318115234375,-0.144683837890625,-0.0192718505859375
1783170051292378400,9.57437841796875,-0.0433349609375,-0.101898193359375,-0.023712158203125
1783170051302327300,9.584327392578125,-0.0518035888671875,-0.057891845703125,-0.0360565185546875
1783170051312276500,9.5942763671875,-0.060821533203125,-0.0154571533203125,-0.0470733642578125
1783170051322255400,9.60425537109375,-0.073333740234375,0.020355224609375,-0.0477752685546875
1783170051332204300,9.614204345703126,-0.0934600830078125,0.0438385009765625,-0.039398193359375
1783170051342153200,9.6241533203125,-0.0904693603515625,0.0565643310546875,-0.022796630859375
1783170051352101400,9.634101318359376,-0.06341552734375,0.0636444091796875,0.00152587890625
1783170051362081300,9.644081298828125,-0.0469970703125,0.0588531494140625,0.031524658203125
1783170051372029200,9.654029296875,-0.052337646484375,0.037811279296875,0.0616912841796875
1783170051381978600,9.663978515625,-0.087127685546875,-0.0003509521484375,0.0910491943359375
1783170051391957200,9.673957275390626,-0.1242828369140625,-0.0548553466796875,0.1058349609375
1783170051401906400,9.683906494140626,-0.1764068603515625,-0.119384765625,0.0798492431640625
1783170051411855400,9.69385546875,-0.248809814453125,-0.2023468017578125,0.0440521240234375
1783170051421803500,9.703803466796876,-0.386962890625,-0.299560546875,0.018218994140625
1783170051431783400,9.713783447265625,-0.6168975830078125,-0.43280029296875,-0.0063934326171875
1783170051441731300,9.7237314453125,-0.866607666015625,-0.6157379150390625,0.017547607421875
1783170051451680500,9.733680419921875,-1.14007568359375,-0.8619537353515625,0.1210784912109375
1783170051461629400,9.74362939453125,-1.4291839599609375,-1.121185302734375,0.2385101318359375
1783170051471608300,9.7536083984375,-1.8507843017578125,-1.2701873779296875,0.25213623046875
1783170051481557200,9.76355712890625,-2.2941741943359375,-1.4137420654296875,0.227935791015625
1783170051491506400,9.77350634765625,-2.4867706298828125,-1.380157470703125,0.1257171630859375
1783170051501454300,9.783454345703126,-2.62139892578125,-1.184356689453125,-0.077728271484375
1783170051511434200,9.793434326171875,-2.7316436767578125,-1.070526123046875,-0.172607421875
1783170051521382400,9.80338232421875,-2.73077392578125,-0.997100830078125,-0.1584014892578125
1783170051531331300,9.813331298828125,-2.7136993408203125,-0.9390411376953125,-0.0740203857421875
1783170051541310200,9.823310302734376,-2.7137908935546875,-0.8777923583984375,0.004150390625
1783170051551259400,9.83325927734375,-2.664703369140625,-0.7962799072265625,0.000579833984375
1783170051561208600,9.84320849609375,-2.4656982421875,-0.69830322265625,-0.052032470703125
1783170051571156500,9.853156494140626,-2.1787872314453125,-0.58819580078125,-0.1245574951171875
1783170051581136400,9.863136474609375,-1.871856689453125,-0.4905853271484375,-0.1527557373046875
1783170051591084500,9.87308447265625,-1.5430908203125,-0.4021453857421875,-0.1246337890625
1783170051601033500,9.883033447265625,-1.2219085693359375,-0.3335723876953125,-0.0770263671875
1783170051610982400,9.892982421875,-0.9114837646484375,-0.2829437255859375,-0.037139892578125
1783170051620961500,9.90296142578125,-0.626708984375,-0.2667236328125,-0.017913818359375
1783170051630910500,9.912910400390626,-0.3996124267578125,-0.2656097412109375,-0.0458221435546875
1783170051640859400,9.922859375,-0.2583160400390625,-0.240875244140625,-0.1131591796875
1783170051650838300,9.93283837890625,-0.1854400634765625,-0.24609375,-0.15875244140625
1783170051660796400,9.94279638671875,-0.1628570556640625,-0.271453857421875,-0.1842498779296875
1783170051670744300,9.952744384765625,-0.134185791015625,-0.2668914794921875,-0.1737060546875
1783170051680693500,9.962693603515625,-0.102142333984375,-0.2879638671875,-0.138092041015625
1783170051690672600,9.972672607421876,-0.0511322021484375,-0.2902679443359375,-0.101898193359375
1783170051700621600,9.98262158203125,-0.0163116455078125,-0.2809906005859375,-0.0756072998046875
1783170051710570500,9.992570556640626,-0.0010986328125,-0.286376953125,-0.03082275390625
1783170051720518700,10.0025185546875,0.0170745849609375,-0.298858642578125,-0.003570556640625
1783170051730498600,10.01249853515625,0.052490234375,-0.29803466796875,0.0095367431640625
1783170051740446500,10.022446533203125,0.0733795166015625,-0.29022216796875,0.0165557861328125
1783170051750395600,10.032395751953125,0.086700439453125,-0.2690277099609375,0.0213623046875
1783170051760374500,10.04237451171875,0.093963623046875,-0.2451171875,0.02545166015625
1783170051770323500,10.052323486328126,0.0819244384765625,-0.229217529296875,0.0292510986328125
1783170051780272400,10.0622724609375,0.0535888671875,-0.2043304443359375,0.030548095703125
1783170051790221600,10.0722216796875,0.0000457763671875,-0.1676177978515625,0.0493621826171875
1783170051800200400,10.082200439453125,-0.0375518798828125,-0.1362762451171875,0.0623779296875
1783170051810149400,10.0921494140625,-0.0718841552734375,-0.114105224609375,0.0635528564453125
1783170051820097500,10.10209765625,-0.118011474609375,-0.0891876220703125,0.058685302734375
1783170051830046500,10.11204638671875,-0.168853759765625,-0.0578765869140625,0.0481719970703125
1783170051840025300,10.122025390625,-0.2456512451171875,-0.0353240966796875,0.02423095703125
1783170051849974500,10.131974609375,-0.2718048095703125,-0.026580810546875,-0.0002899169921875
1783170051859923700,10.141923828125,-0.2793731689453125,-0.0237274169921875,-0.037628173828125
1783170051869871600,10.15187158203125,-0.322998046875,-0.0256805419921875,-0.0679931640625
1783170051879851500,10.1618515625,-0.3978729248046875,-0.0402984619140625,-0.0673980712890625
1783170051889799700,10.171799560546875,-0.5157470703125,-0.06927490234375,-0.051910400390625
1783170051899748600,10.18174853515625,-0.720428466796875,-0.12371826171875,-0.047332763671875
1783170051909727500,10.1917275390625,-1.024078369140625,-0.16827392578125,-0.0809173583984375
1783170051919676400,10.201676513671876,-1.3389739990234375,-0.19158935546875,-0.1756591796875
1783170051929625600,10.21162548828125,-1.6283416748046875,-0.243133544921875,-0.231536865234375
1783170051939574500,10.221574462890626,-1.873382568359375,-0.3562469482421875,-0.266937255859375
1783170051949553400,10.231553466796875,-2.014862060546875,-0.4439544677734375,-0.318878173828125
1783170051959502300,10.24150244140625,-2.2260894775390625,-0.503387451171875,-0.2787933349609375
1783170051969450500,10.251450439453125,-2.552337646484375,-0.688446044921875,-0.163299560546875
1783170051979399400,10.2613994140625,-2.7451629638671875,-0.7758941650390625,-0.113372802734375
1783170051989378600,10.271378662109376,-2.836761474609375,-0.692352294921875,-0.1991119384765625
1783170051999327500,10.281327392578126,-2.88897705078125,-0.7062225341796875,-0.222747802734375
1783170052009276700,10.291276611328126,-2.9113006591796875,-0.6736602783203125,-0.187469482421875
1783170052019255600,10.301255615234375,-2.7803955078125,-0.6478424072265625,-0.089752197265625
1783170052029204500,10.31120458984375,-2.5899810791015625,-0.6901702880859375,0.0840606689453125
1783170052039153700,10.321153564453125,-2.431976318359375,-0.76458740234375,0.29937744140625
1783170052049101600,10.3311015625,-2.2228240966796875,-0.8361663818359375,0.4680938720703125
1783170052059080700,10.341080810546876,-1.9745025634765625,-0.8871307373046875,0.5404052734375
1783170052069029600,10.351029541015626,-1.7882232666015625,-0.87994384765625,0.5260009765625
1783170052078978600,10.360978515625,-1.60052490234375,-0.841064453125,0.408416748046875
1783170052088927500,10.370927490234376,-1.333343505859375,-0.7763214111328125,0.2226409912109375
1783170052098906600,10.38090673828125,-1.08721923828125,-0.7125701904296875,0.0345916748046875
1783170052108855600,10.39085546875,-0.8705596923828125,-0.662567138671875,-0.0868072509765625
1783170052118803500,10.400803466796875,-0.6848297119140625,-0.607269287109375,-0.1474456787109375
1783170052128783400,10.410783447265626,-0.551116943359375,-0.54925537109375,-0.1824493408203125
1783170052138731500,10.4207314453125,-0.44342041015625,-0.4896087646484375,-0.203125
1783170052148680400,10.430680419921876,-0.334197998046875,-0.46075439453125,-0.2134552001953125
1783170052158629400,10.44062939453125,-0.26348876953125,-0.461090087890625,-0.203216552734375
1783170052168608500,10.4506083984375,-0.2183380126953125,-0.481231689453125,-0.183502197265625
1783170052178557700,10.4605576171875,-0.16583251953125,-0.4804229736328125,-0.1595306396484375
1783170052188506600,10.470506591796875,-0.1248931884765625,-0.45709228515625,-0.1403656005859375
1783170052198454500,10.48045458984375,-0.0906219482421875,-0.407470703125,-0.1633453369140625
1783170052208434700,10.4904345703125,-0.0246124267578125,-0.4321441650390625,-0.0401763916015625
1783170052218382600,10.500382568359376,0.0956268310546875,-0.429779052734375,0.0762786865234375
1783170052228331500,10.51033154296875,0.120697021484375,-0.3933868408203125,-0.0295257568359375
1783170052238310700,10.520310546875,0.089752197265625,-0.36309814453125,0.017913818359375
1783170052248259600,10.530259521484375,0.095703125,-0.3211822509765625,0.0962677001953125
1783170052258208500,10.54020849609375,0.0733489990234375,-0.27789306640625,0.0742950439453125
1783170052268156400,10.550156494140625,0.03338623046875,-0.2344512939453125,0.0736083984375
1783170052278136600,10.560136474609376,0.001373291015625,-0.20611572265625,0.0784759521484375
1783170052288084500,10.57008447265625,-0.030914306640625,-0.202789306640625,0.0817108154296875
1783170052298033400,10.580033447265626,-0.0476531982421875,-0.1982269287109375,0.076080322265625
1783170052307982300,10.589982421875,-0.0398406982421875,-0.173370361328125,0.081024169921875
1783170052317961500,10.59996142578125,-0.0678253173828125,-0.1124725341796875,0.0731964111328125
1783170052327910400,10.609910400390625,-0.1535491943359375,-0.0536041259765625,0.018585205078125
1783170052337859600,10.619859619140625,-0.177276611328125,-0.0503997802734375,-0.0081329345703125
1783170052347807500,10.629807373046875,-0.1732025146484375,-0.0491790771484375,-0.0145721435546875
1783170052357787600,10.63978759765625,-0.2417144775390625,-0.0860137939453125,-0.030853271484375
1783170052367735600,10.649735595703126,-0.2720794677734375,-0.1371307373046875,-0.086090087890625
1783170052377684500,10.6596845703125,-0.339996337890625,-0.1033172607421875,-0.094879150390625
1783170052387663600,10.66966357421875,-0.4810028076171875,-0.091064453125,-0.0356903076171875
1783170052397612500,10.679612548828125,-0.62457275390625,-0.0527496337890625,-0.000030517578125
1783170052407561500,10.6895615234375,-0.8058624267578125,-0.1013031005859375,-0.0104827880859375
1783170052417509600,10.699509521484375,-1.0505218505859375,-0.1947174072265625,0.0341644287109375
1783170052427489500,10.709489501953126,-1.266326904296875,-0.3009185791015625,0.102874755859375
1783170052437437400,10.7194375,-1.356964111328125,-0.4421539306640625,0.110382080078125
1783170052447386600,10.72938671875,-1.4661712646484375,-0.6019439697265625,0.1371307373046875
1783170052457335600,10.73933544921875,-1.701080322265625,-0.786590576171875,0.2230377197265625
1783170052467314400,10.749314453125,-2.200653076171875,-0.89801025390625,0.2262420654296875
1783170052477263400,10.759263427734375,-2.7674407958984375,-0.938201904296875,0.0932464599609375
1783170052487212500,10.769212646484375,-3.0670013427734375,-0.8223724365234375,-0.013336181640625
1783170052497191400,10.77919140625,-3.1540679931640625,-0.5242919921875,-0.12298583984375
1783170052507140600,10.789140625,-3.194610595703125,-0.3403472900390625,-0.186859130859375
1783170052517088500,10.799088623046876,-3.2781829833984375,-0.3304901123046875,-0.1278076171875
1783170052527037700,10.80903759765625,-3.2924652099609375,-0.363739013671875,0.0108795166015625
1783170052537016600,10.8190166015625,-3.1744842529296875,-0.4299468994140625,0.1097564697265625
1783170052546965500,10.828965576171875,-2.92437744140625,-0.5101165771484375,0.1193084716796875
1783170052556914700,10.838914794921875,-2.587646484375,-0.5034942626953125,0.097320556640625
1783170052566862600,10.848862548828125,-2.2225799560546875,-0.45941162109375,0.0855560302734375
1783170052576842500,10.858842529296876,-1.836669921875,-0.41796875,0.0569915771484375
1783170052586790700,10.868790771484376,-1.4618682861328125,-0.380950927734375,0.023162841796875
1783170052596739600,10.878739501953126,-1.1142578125,-0.3700103759765625,-0.022125244140625
1783170052606718500,10.888718505859375,-0.8092041015625,-0.3306884765625,-0.07904052734375
1783170052616667400,10.89866748046875,-0.533721923828125,-0.2823944091796875,-0.068695068359375
1783170052626616600,10.908616455078125,-0.296417236328125,-0.4597930908203125,-0.077606201171875
1783170052636565500,10.9185654296875,-0.1540679931640625,-0.6487579345703125,-0.205047607421875
1783170052646544400,10.92854443359375,0.034881591796875,-0.4869537353515625,-0.293487548828125
1783170052656532000,10.938531982421875,0.1239776611328125,-0.3077239990234375,-0.3578643798828125
1783170052666480000,10.948480224609375,0.170135498046875,-0.297760009765625,-0.403076171875
1783170052676429000,10.958428955078125,0.2611083984375,-0.330718994140625,-0.370513916015625
1783170052686408000,10.968407958984375,0.333648681640625,-0.3703765869140625,-0.28924560546875
1783170052696357000,10.978357177734376,0.3561553955078125,-0.386077880859375,-0.2002410888671875
1783170052706306000,10.98830615234375,0.36798095703125,-0.3798980712890625,-0.1095733642578125
1783170052716254000,10.99825390625,0.3831329345703125,-0.378448486328125,-0.034820556640625
1783170052726233900,11.00823388671875,0.377532958984375,-0.3573150634765625,0.013916015625
1783170052736182000,11.01818212890625,0.3572998046875,-0.32928466796875,0.059661865234375
1783170052746131000,11.028130859375,0.322845458984375,-0.31622314453125,0.095703125
1783170052756110000,11.038110107421875,0.29791259765625,-0.3289337158203125,0.14202880859375
1783170052766059000,11.04805908203125,0.2515411376953125,-0.3256683349609375,0.167755126953125
1783170052776008000,11.058008056640626,0.187713623046875,-0.27130126953125,0.1407470703125
1783170052785957000,11.06795703125,0.13751220703125,-0.198150634765625,0.103057861328125
1783170052795935700,11.077935791015625,0.0598602294921875,-0.1188201904296875,0.0725555419921875
1783170052805885200,11.08788525390625,-0.0169677734375,-0.07135009765625,0.04193115234375
1783170052815833000,11.0978330078125,-0.052459716796875,-0.03094482421875,-0.066131591796875
1783170052825782000,11.107781982421875,-0.1438446044921875,-0.0249786376953125,-0.058807373046875
1783170052835761200,11.11776123046875,-0.2022705078125,-0.0083160400390625,-0.0342254638671875
1783170052845710000,11.1277099609375,-0.255523681640625,-0.01043701171875,-0.0390625
1783170052855659000,11.137658935546876,-0.28948974609375,-0.0321197509765625,0.0138092041015625
1783170052865638100,11.14763818359375,-0.335418701171875,-0.022857666015625,0.07171630859375
1783170052875587000,11.157587158203125,-0.4066619873046875,-0.002960205078125,0.0882415771484375
1783170052885535000,11.167534912109375,-0.51043701171875,0.01373291015625,0.099853515625
1783170052895484000,11.17748388671875,-0.67767333984375,-0.002838134765625,0.143035888671875
1783170052905463000,11.187463134765625,-0.85211181640625,-0.0869140625,0.1737060546875
1783170052915412000,11.197411865234375,-1.0693817138671875,-0.1695404052734375,0.1795196533203125
1783170052925361000,11.20736083984375,-1.2489776611328125,-0.2555999755859375,0.169342041015625
1783170052935309800,11.217309814453126,-1.425872802734375,-0.369873046875,0.1876983642578125
1783170052945289000,11.2272890625,-1.670379638671875,-0.5141448974609375,0.3048248291015625
1783170052955238000,11.23723779296875,-1.98919677734375,-0.640167236328125,0.3910369873046875
1783170052965185800,11.247185791015625,-2.4184417724609375,-0.7725677490234375,0.4248199462890625
1783170052975166200,11.257166259765626,-2.8756256103515625,-0.8740234375,0.368408203125
1783170052985114000,11.267114013671875,-3.3058929443359375,-0.6320343017578125,0.0401611328125
1783170052995063000,11.27706298828125,-3.5170135498046875,-0.345947265625,-0.428466796875
1783170053005012000,11.287011962890626,-3.639923095703125,-0.0350189208984375,-0.7449798583984375
1783170053014991000,11.2969912109375,-3.7158660888671875,0.3097076416015625,-0.7447052001953125
1783170053024940000,11.30693994140625,-3.673095703125,0.4211578369140625,-0.53533935546875
1783170053034889000,11.316888916015625,-3.4506988525390625,0.3842620849609375,-0.246307373046875
1783170053044837000,11.326837158203125,-3.0718994140625,0.3140411376953125,-0.022552490234375
1783170053054817000,11.336817138671876,-2.641876220703125,0.2401275634765625,0.055755615234375
1783170053064765000,11.346764892578125,-2.1652374267578125,0.154571533203125,0.0632781982421875
1783170053074713900,11.3567138671875,-1.71295166015625,0.0114288330078125,0.020965576171875
1783170053084663000,11.3666630859375,-1.34942626953125,-0.1638641357421875,-0.05145263671875
1783170053094642000,11.376641845703125,-1.07647705078125,-0.2985687255859375,-0.1131744384765625
1783170053104590800,11.3865908203125,-0.835479736328125,-0.3367462158203125,-0.1563720703125
1783170053114539000,11.3965390625,-0.6057586669921875,-0.32794189453125,-0.1465606689453125
1783170053124519000,11.406518798828126,-0.448760986328125,-0.3156890869140625,-0.1126251220703125
1783170053134466800,11.416466796875,-0.3462066650390625,-0.32220458984375,-0.0629730224609375
1783170053144416000,11.426416015625,-0.23809814453125,-0.3277435302734375,0.0162353515625
1783170053154365200,11.436365234375,-0.1416015625,-0.3285980224609375,0.09820556640625
1783170053164344000,11.446343994140625,-0.0447540283203125,-0.38043212890625,0.1684112548828125
1783170053174293000,11.45629296875,0.0386505126953125,-0.4513092041015625,0.1994781494140625
1783170053184242000,11.466241943359375,0.08404541015625,-0.449310302734375,0.1618499755859375
1783170053194190000,11.476190185546875,0.149200439453125,-0.3875732421875,0.14190673828125
1783170053204170000,11.486169921875,0.1873931884765625,-0.3170013427734375,0.1117095947265625
1783170053214118000,11.496117919921875,0.2109222412109375,-0.3074493408203125,0.065277099609375
1783170053224067000,11.506067138671876,0.253448486328125,-0.28955078125,0.052734375
1783170053234046000,11.5160458984375,0.2255401611328125,-0.234771728515625,0.0452728271484375
1783170053243995000,11.525994873046875,0.1827239990234375,-0.19805908203125,0.039642333984375
1783170053253943800,11.53594384765625,0.147308349609375,-0.17071533203125,0.028533935546875
1783170053263892000,11.54589208984375,0.0858306884765625,-0.1385498046875,0.008209228515625
1783170053273872000,11.555871826171876,0.0293731689453125,-0.10247802734375,-0.01141357421875
1783170053283820000,11.565820068359375,-0.0368804931640625,-0.0726165771484375,-0.03955078125
1783170053293769000,11.57576904296875,-0.0967559814453125,-0.0366668701171875,-0.0811920166015625
1783170053303718100,11.58571826171875,-0.14630126953125,0.0191497802734375,-0.103607177734375
1783170053313696800,11.59569677734375,-0.2018280029296875,0.0456695556640625,-0.0904998779296875
1783170053323646000,11.60564599609375,-0.2430877685546875,0.0387725830078125,-0.069976806640625
1783170053333595100,11.61559521484375,-0.2896881103515625,0.031890869140625,-0.03533935546875
1783170053343574000,11.625573974609376,-0.32684326171875,0.0276336669921875,0.00262451171875
1783170053353523000,11.63552294921875,-0.344390869140625,0.0302886962890625,0.0168609619140625
1783170053363471000,11.64547119140625,-0.3722686767578125,0.030517578125,0.0301666259765625
1783170053373420000,11.655419921875,-0.4674072265625,-0.026397705078125,0.043060302734375
1783170053383399000,11.66539892578125,-0.5977935791015625,-0.1078033447265625,0.0177154541015625
1783170053393348000,11.67534814453125,-0.8789520263671875,-0.077056884765625,-0.006744384765625
1783170053403297000,11.685297119140625,-1.1897735595703125,-0.0544586181640625,-0.0311126708984375
1783170053413245000,11.695244873046875,-1.3477630615234375,-0.2082977294921875,-0.0941009521484375
1783170053423224800,11.705224853515626,-1.606414794921875,-0.2730560302734375,-0.1183929443359375
1783170053433173000,11.715173095703125,-1.78082275390625,-0.2625579833984375,-0.0808258056640625
1783170053443122000,11.725121826171875,-1.8501434326171875,-0.343719482421875,0.0356903076171875
1783170053453070800,11.73507080078125,-1.9736328125,-0.5240631103515625,0.2235870361328125
1783170053463050000,11.745050048828125,-2.1589813232421875,-0.6262969970703125,0.398681640625
1783170053472999200,11.754999267578125,-2.20013427734375,-0.7262115478515625,0.45916748046875
1783170053482948000,11.764947998046875,-2.2307891845703125,-0.7461090087890625,0.3841400146484375
1783170053492927000,11.774927001953126,-2.2895050048828125,-0.6340179443359375,0.3408355712890625
1783170053502876200,11.784876220703126,-2.3648223876953125,-0.498321533203125,0.22705078125
1783170053512824000,11.794823974609375,-2.4571380615234375,-0.309295654296875,0.038665771484375
1783170053522773000,11.80477294921875,-2.6490478515625,-0.104156494140625,-0.106536865234375
1783170053532752100,11.814752197265625,-2.8065643310546875,0.0322723388671875,-0.2039031982421875
1783170053542701000,11.824701171875,-2.80145263671875,0.1011810302734375,-0.216583251953125
1783170053552650000,11.83464990234375,-2.6947479248046875,0.11968994140625,-0.1294708251953125
1783170053562598000,11.844597900390625,-2.482086181640625,0.1073455810546875,-0.02264404296875
1783170053572578000,11.854578125,-2.17022705078125,0.02667236328125,0.05279541015625
1783170053582526000,11.86452587890625,-1.8655853271484375,-0.054931640625,0.125396728515625
1783170053592475000,11.874474853515625,-1.572296142578125,-0.1364288330078125,0.148529052734375
1783170053602454000,11.8844541015625,-1.274627685546875,-0.2248687744140625,0.1297607421875
1783170053612403000,11.89440283203125,-0.9714813232421875,-0.299072265625,0.0975799560546875
1783170053622352000,11.904351806640625,-0.731414794921875,-0.3519439697265625,0.0903472900390625
1783170053632301000,11.914301025390625,-0.5455169677734375,-0.393798828125,0.0641021728515625
1783170053642280000,11.924280029296876,-0.404937744140625,-0.40545654296875,0.0040740966796875
1783170053652229000,11.93422900390625,-0.2862091064453125,-0.40155029296875,-0.0568389892578125
1783170053662171600,11.944171630859374,-0.2227325439453125,-0.392364501953125,-0.0780792236328125
1783170053672120600,11.95412060546875,-0.1732025146484375,-0.3858795166015625,-0.085296630859375
1783170053682099500,11.964099365234375,-0.142547607421875,-0.385986328125,-0.07794189453125
1783170053692048600,11.974048583984375,-0.1204986572265625,-0.383758544921875,-0.0660247802734375
1783170053701997600,11.98399755859375,-0.095001220703125,-0.37158203125,-0.059722900390625
1783170053711976400,11.9939765625,-0.070343017578125,-0.338531494140625,-0.066162109375
1783170053721925400,12.00392529296875,-0.041107177734375,-0.2948150634765625,-0.0597381591796875
1783170053731873500,12.01387353515625,-0.035125732421875,-0.273284912109375,-0.021148681640625
1783170053741822500,12.023822509765624,-0.0289154052734375,-0.2490081787109375,0.014556884765625
1783170053751801600,12.033801513671875,-0.0171051025390625,-0.21746826171875,0.0187835693359375
1783170053761750500,12.04375048828125,-0.0192718505859375,-0.1884765625,0.028411865234375
1783170053771699500,12.053699462890625,-0.0305938720703125,-0.16058349609375,0.0357208251953125
1783170053781648600,12.063648681640625,-0.0708160400390625,-0.1224822998046875,0.0293426513671875
1783170053791627500,12.07362744140625,-0.0923614501953125,-0.0846710205078125,0.0097808837890625
1783170053801576700,12.08357666015625,-0.0874481201171875,-0.0509185791015625,-0.029327392578125
1783170053811524600,12.093524658203124,-0.091461181640625,-0.0314788818359375,-0.060211181640625
1783170053821504500,12.10350439453125,-0.0753173828125,-0.0300445556640625,-0.0227203369140625
1783170053831452700,12.11345263671875,-0.076904296875,-0.0286865234375,0.0605926513671875
1783170053841401600,12.123401611328125,-0.2762603759765625,-0.095703125,0.1362457275390625
1783170053851350500,12.1333505859375,-0.384002685546875,-0.141998291015625,0.10955810546875
1783170053861329700,12.14332958984375,-0.30596923828125,-0.0220184326171875,0.0602264404296875
1783170053871278600,12.153278564453124,-0.3254241943359375,-0.036712646484375,-0.00567626953125
1783170053881227500,12.1632275390625,-0.39208984375,-0.068115234375,-0.016937255859375
1783170053891175400,12.173175537109374,-0.4593353271484375,-0.057403564453125,-0.037506103515625
1783170053901154600,12.183154541015625,-0.5554962158203125,-0.0717926025390625,-0.053741455078125
