time,seconds_elapsed,z,y,x
1783170018413903400,0.0939033203125,-0.37583327293395996,2.254305601119995,-0.5192908644676208
1783170018423852300,0.103852294921875,-0.8523145914077759,2.5648458003997803,0.011622034944593906
1783170018433801200,0.11380126953125,-1.2238937616348267,2.861156940460205,0.46273061633110046
1783170018443780000,0.123780029296875,-1.4088281393051147,3.1203887462615967,0.819650411605835
1783170018453729300,0.133729248046875,-1.3978532552719116,3.1226887702941895,0.9707245826721191
1783170018463677200,0.14367724609375,-1.1615688800811768,2.053500175476074,0.730126142501831
1783170018473657000,0.153656982421875,-1.0889109373092651,0.5711913108825684,0.641971230506897
1783170018483605200,0.163605224609375,-1.244358777999878,-0.26322710514068604,0.7826141119003296
1783170018493554200,0.17355419921875,-1.5825166702270508,-1.1896257400512695,0.8066526055335999
1783170018503503000,0.183503173828125,-1.9953981637954712,-2.221508502960205,0.7645447850227356
1783170018513482000,0.19348193359375,-2.340381145477295,-3.2152721881866455,0.7762017250061035
1783170018523431200,0.20343115234375,-2.615856885910034,-4.2717671394348145,0.7245047092437744
1783170018533379000,0.213379150390625,-2.8458235263824463,-5.4085564613342285,0.5684314966201782
1783170018543328000,0.223327880859375,-3.3995256423950195,-5.8890700340271,-0.5022897720336914
1783170018553307100,0.23330712890625,-3.8552262783050537,-5.342652797698975,-1.5020524263381958
1783170018563256000,0.243256103515625,-4.02558708190918,-4.226589679718018,-2.304342269897461
1783170018573205200,0.253205322265625,-4.148210525512695,-2.2913148403167725,-2.6798863410949707
1783170018583184100,0.26318408203125,-4.18870210647583,0.16530586779117584,-2.5989761352539062
1783170018593133300,0.27313330078125,-4.080356121063232,3.0994324684143066,-2.0545763969421387
1783170018603082200,0.283082275390625,-3.8388736248016357,5.899816989898682,-1.2335751056671143
1783170018613030100,0.293030029296875,-2.4044249057769775,3.0212066173553467,-0.2627085745334625
1783170018623010000,0.303010009765625,-0.4963437020778656,0.2589612603187561,0.6417560577392578
1783170018632990200,0.312990234375,-0.13408562541007996,-1.000761866569519,0.8048171401023865
1783170018642939100,0.322939208984375,-0.432204931974411,-3.4323618412017822,0.29719972610473633
1783170018652888000,0.33288818359375,-0.8780961632728577,-4.893653392791748,-0.22809548676013947
1783170018662867000,0.342866943359375,-1.0725148916244507,-5.373369216918945,-0.3560100495815277
1783170018672816000,0.352816162109375,-1.1535570621490479,-4.807644844055176,-0.306188702583313
1783170018682764000,0.362763916015625,-1.2089507579803467,-4.1016082763671875,-0.3796687722206116
1783170018692744000,0.372743896484375,-1.2779912948608398,-3.380601406097412,-0.4397597908973694
1783170018702692000,0.382692138671875,-1.1034594774246216,-2.6568565368652344,-0.3023310899734497
1783170018712641000,0.39264111328125,-0.5549987554550171,-1.8857805728912354,-0.13215430080890656
1783170018722590000,0.40258984375,0.17494571208953857,-1.1409932374954224,0.061704378575086594
1783170018732569000,0.412569091796875,0.8240656852722168,-0.6070781946182251,0.2814929187297821
1783170018742518000,0.42251806640625,1.183233618736267,-0.401643842458725,0.5397074222564697
1783170018752467200,0.43246728515625,1.1452008485794067,-0.40238580107688904,0.8387572765350342
1783170018762414800,0.442414794921875,0.6965247392654419,-0.5193648934364319,1.1283280849456787
1783170018772395000,0.45239501953125,0.11297795176506042,-0.8392353057861328,1.4170986413955688
1783170018782343200,0.46234326171875,-0.15812306106090546,-1.1865546703338623,1.6857476234436035
1783170018792292000,0.4722919921875,0.023126890882849693,-1.3741048574447632,1.9003270864486694
1783170018802271200,0.482271240234375,0.39637982845306396,-1.3578747510910034,1.9756401777267456
1783170018812220200,0.49222021484375,0.721695601940155,-1.1669484376907349,1.8657357692718506
1783170018822169000,0.502169189453125,0.9095730781555176,-0.9014747142791748,1.58379328250885
1783170018832117000,0.512116943359375,0.8949542045593262,-0.7287300825119019,1.1408753395080566
1783170018842097200,0.52209716796875,0.7177248597145081,-0.6297348141670227,0.6048771142959595
1783170018852045000,0.532045166015625,0.5030375719070435,-0.500525951385498,0.03997671231627464
1783170018861994000,0.541993896484375,0.3600790798664093,-0.2781629264354706,-0.5217174887657166
1783170018871943000,0.55194287109375,0.3083546459674835,0.05272046849131584,-1.039858102798462
1783170018881922000,0.561922119140625,0.35694241523742676,0.471057265996933,-1.485528588294983
1783170018891871000,0.57187109375,0.4875747263431549,0.8973771333694458,-1.8516229391098022
1783170018901820000,0.58181982421875,0.6321894526481628,1.2078673839569092,-2.1484367847442627
1783170018911799000,0.591799072265625,0.7421534657478333,1.2151434421539307,-2.344081163406372
1783170018921748200,0.601748291015625,0.8034210801124573,1.0109772682189941,-2.365997791290283
1783170018931695900,0.61169580078125,0.8279565572738647,0.837811291217804,-2.274374008178711
1783170018941645000,0.62164501953125,0.8253005743026733,0.552021861076355,-2.1414551734924316
1783170018951624200,0.631624267578125,0.7262962460517883,0.043409790843725204,-2.035529375076294
1783170018961573000,0.641572998046875,0.5381385684013367,-0.5409284830093384,-2.0810790061950684
1783170018971522000,0.65152197265625,0.34395790100097656,-0.9863312840461731,-2.342939615249634
1783170018981470200,0.66147021484375,0.3620045483112335,-0.8938205242156982,-2.678251266479492
1783170018991450000,0.6714501953125,0.8289757370948792,-0.32795682549476624,-2.6630699634552
1783170019001398000,0.68139794921875,1.1171870231628418,0.28014618158340454,-2.542445659637451
1783170019011347000,0.691346923828125,0.9834587574005127,0.3553791344165802,-2.638338327407837
1783170019021326000,0.701326171875,0.16697300970554352,-0.09470147639513016,-3.491447925567627
1783170019031275000,0.71127490234375,-1.1526899337768555,-0.5000388622283936,-4.763283729553223
1783170019041224000,0.721223876953125,-2.2146928310394287,-0.40097030997276306,-5.605289459228516
1783170019051172900,0.7311728515625,-2.8965976238250732,0.6184530854225159,-5.526769638061523
1783170019061152000,0.741152099609375,-3.136458396911621,2.430882453918457,-4.512401580810547
1783170019071101000,0.751100830078125,-2.530954122543335,3.452852487564087,-3.0827207565307617
1783170019081049000,0.761049072265625,-1.1751872301101685,3.355691432952881,-1.6951550245285034
1783170019090998000,0.770998046875,0.33843955397605896,2.442634344100952,-0.3645039200782776
1783170019100977000,0.780976806640625,1.3025379180908203,1.246345043182373,1.1248990297317505
1783170019110926000,0.790926025390625,1.4815007448196411,0.5883130431175232,2.79194712638855
1783170019120875000,0.800875,1.3025579452514648,0.45767542719841003,4.352678298950195
1783170019130854100,0.810854248046875,1.0062615871429443,0.5304492115974426,5.466996192932129
1783170019140803000,0.820802978515625,0.6202560663223267,0.5238959789276123,5.935463905334473
1783170019150751200,0.830751220703125,0.16046130657196045,0.4650675654411316,5.816476821899414
1783170019160700200,0.8407001953125,-0.3060627281665802,0.3440428674221039,5.273012161254883
1783170019170679000,0.850678955078125,-0.695541262626648,0.08800309151411057,4.533547401428223
1783170019180628000,0.8606279296875,-1.0088485479354858,-0.16851577162742615,3.797304630279541
1783170019190577200,0.8705771484375,-1.1759132146835327,-0.23732973635196686,3.1461336612701416
1783170019200556000,0.88055615234375,-1.158865213394165,-0.06902327388525009,2.6420187950134277
1783170019210505000,0.8905048828125,-0.9904950857162476,0.2577047646045685,2.299887180328369
1783170019220454000,0.900453857421875,-0.7576269507408142,0.5372411012649536,2.1071712970733643
1783170019230402000,0.910402099609375,-0.513898491859436,0.6266788244247437,1.9875993728637695
1783170019240382000,0.9203818359375,-0.2903197109699249,0.583838701248169,1.8614805936813354
1783170019250329900,0.930329833984375,-0.13738581538200378,0.435640424489975,1.7111231088638306
1783170019260279000,0.940279052734375,-0.08012306690216064,0.19505365192890167,1.5761969089508057
1783170019270228200,0.950228271484375,-0.09863442927598953,-0.1785614937543869,1.4532893896102905
1783170019280207000,0.96020703125,-0.1958256959915161,-0.5862568020820618,1.2959924936294556
1783170019290156000,0.970156005859375,-0.3377101421356201,-0.9708332419395447,1.0772254467010498
1783170019300105200,0.980105224609375,-0.44252362847328186,-1.3220254182815552,0.7733854651451111
1783170019310084000,0.990083984375,-0.4658460021018982,-1.5452821254730225,0.40143823623657227
1783170019320033000,1.000032958984375,-0.40043795108795166,-1.5793962478637695,-0.034322820603847504
1783170019329981200,1.009981201171875,-0.2677401006221771,-1.3795545101165771,-0.5424702167510986
1783170019339930000,1.01993017578125,-0.057432133704423904,-1.035806655883789,-1.0483094453811646
1783170019349909000,1.029908935546875,0.18732355535030365,-0.6484464406967163,-1.4824049472808838
1783170019359858000,1.03985791015625,0.4332864582538605,-0.34011921286582947,-1.7977503538131714
1783170019369807000,1.04980712890625,0.665358304977417,-0.1864873170852661,-1.9713884592056274
1783170019379755000,1.059755126953125,0.8859378099441528,-0.2539033889770508,-2.009899139404297
1783170019389735000,1.06973486328125,1.0825480222702026,-0.5393207669258118,-1.9428210258483887
1783170019399683000,1.07968310546875,1.2011271715164185,-0.8393966555595398,-1.7748833894729614
1783170019409632000,1.089632080078125,1.2972670793533325,-0.8222216963768005,-1.4759728908538818
1783170019419611000,1.09961083984375,1.4359383583068848,-0.3577820956707001,-0.9858726859092712
1783170019429560000,1.10956005859375,1.6311638355255127,0.20611855387687683,-0.32606011629104614
1783170019439509200,1.11950927734375,1.8031305074691772,0.42247775197029114,0.304663747549057
1783170019449458200,1.129458251953125,1.8037099838256836,0.13040807843208313,0.713407576084137
1783170019459437000,1.13943701171875,1.7195208072662354,-0.9093278050422668,0.814260721206665
1783170019469386000,1.149385986328125,1.5116409063339233,-2.6091458797454834,0.6417757272720337
1783170019479334100,1.159334228515625,1.1153837442398071,-3.7917873859405518,0.36424267292022705
1783170019489283000,1.169282958984375,0.5477006435394287,-3.1181046962738037,0.30160537362098694
1783170019499262200,1.17926220703125,0.1038033589720726,-1.587906002998352,0.4427654445171356
1783170019509211100,1.189211181640625,-0.08226904273033142,-0.2141873985528946,0.7167221307754517
1783170019519160000,1.19916015625,-0.06909544765949249,0.8152570128440857,0.8459195494651794
1783170019529108000,1.20910791015625,0.005206213798373938,1.356738567352295,0.5743826031684875
1783170019539088100,1.219088134765625,0.1553155481815338,1.484050989151001,0.13338042795658112
1783170019549036000,1.2290361328125,0.44473645091056824,1.442479133605957,-0.1499146670103073
1783170019558985000,1.23898486328125,0.6924123167991638,1.2610912322998047,-0.22762995958328247
1783170019568964000,1.248964111328125,0.8007158637046814,1.0106483697891235,-0.08142774552106857
1783170019578913000,1.2589130859375,0.844224750995636,0.7042378187179565,0.23610255122184753
1783170019588862000,1.268862060546875,0.8974413275718689,0.3361378014087677,0.5873433947563171
1783170019598811100,1.27881103515625,0.8942516446113586,-0.08846434950828552,0.7882235050201416
1783170019608790300,1.288790283203125,0.7990915775299072,-0.39453718066215515,0.7709428071975708
1783170019618739200,1.2987392578125,0.6870007514953613,-0.5218517184257507,0.5614374876022339
1783170019628701700,1.30870166015625,0.6509508490562439,-0.4726455807685852,0.2402256578207016
1783170019638650600,1.318650634765625,0.7611801624298096,-0.2631288468837738,-0.09412543475627899
1783170019648629800,1.328629638671875,0.9550716280937195,0.048588842153549194,-0.3480250835418701
1783170019658579000,1.338578857421875,1.0807509422302246,0.3439624309539795,-0.4570775330066681
1783170019668527900,1.34852783203125,1.094692349433899,0.5149088501930237,-0.41515111923217773
1783170019678506800,1.3585068359375,1.0417438745498657,0.45561546087265015,-0.252319872379303
1783170019688456000,1.3684560546875,0.9314099550247192,0.24860209226608276,-0.0041822283528745174
1783170019698403800,1.37840380859375,0.7880546450614929,0.0009765811264514923,0.3289368748664856
1783170019708352800,1.388352783203125,0.6769102811813354,-0.21275967359542847,0.6640831828117371
1783170019718332000,1.398331787109375,0.6232161521911621,-0.34782907366752625,0.9301058053970337
1783170019728280800,1.40828076171875,0.6109765768051147,-0.37139537930488586,1.1057854890823364
1783170019738229800,1.418229736328125,0.6527453064918518,-0.29001957178115845,1.2461761236190796
1783170019748178700,1.4281787109375,0.7416618466377258,-0.17809303104877472,1.3798362016677856
1783170019758157800,1.43815771484375,0.8006048202514648,-0.07630329579114914,1.4562159776687622
1783170019768106800,1.448106689453125,0.7877992391586304,-0.03411669284105301,1.4347244501113892
1783170019778054700,1.4580546875,0.7046236991882324,-0.08224374055862427,1.3152899742126465
1783170019788034600,1.46803466796875,0.5252525806427002,-0.2353917509317398,1.1063034534454346
1783170019797982700,1.477982666015625,0.26796141266822815,-0.4395057260990143,0.832056999206543
1783170019807931600,1.487931640625,0.033431459218263626,-0.5565305948257446,0.534076452255249
1783170019817880800,1.497880859375,-0.12265880405902863,-0.5168415307998657,0.22597187757492065
1783170019827859700,1.507859619140625,-0.17992769181728363,-0.2911042869091034,-0.06215817853808403
1783170019837809000,1.517808837890625,-0.10026348382234573,0.07227366417646408,-0.25891971588134766
1783170019847756800,1.5277568359375,0.12923122942447662,0.44963398575782776,-0.31272515654563904
1783170019857705700,1.537705810546875,0.40296077728271484,0.7347940802574158,-0.23439812660217285
1783170019867684900,1.547684814453125,0.6011662483215332,0.8628053069114685,-0.08064824342727661
1783170019877633800,1.5576337890625,0.7340526580810547,0.7667421698570251,0.08843398839235306
1783170019887582700,1.567582763671875,0.7801807522773743,0.4235374331474304,0.22700385749340057
1783170019897561900,1.577561767578125,0.7639272212982178,-0.20489296317100525,0.23719710111618042
1783170019907510800,1.5875107421875,0.7285463213920593,-1.146376609802246,0.023487482219934464
1783170019917459700,1.597459716796875,0.7586333751678467,-1.8044167757034302,-0.29382842779159546
1783170019927407600,1.60740771484375,0.9724801778793335,-1.7990694046020508,-0.49225282669067383
1783170019937387800,1.6173876953125,1.2127140760421753,-1.289785385131836,-0.47413668036460876
1783170019947335700,1.627335693359375,1.2857086658477783,-0.43528249859809875,-0.20820645987987518
1783170019957284600,1.63728466796875,1.2358708381652832,0.45108357071876526,0.26411473751068115
1783170019967233500,1.647233642578125,1.1405631303787231,1.0762494802474976,0.8369103670120239
1783170019977212700,1.657212646484375,1.0959759950637817,1.3681890964508057,1.3597784042358398
1783170019987161900,1.667161865234375,1.0579322576522827,1.277135968208313,1.7605241537094116
1783170019997109800,1.67710986328125,0.9478541612625122,0.884061872959137,1.9987915754318237
1783170020007090000,1.68708984375,0.7133074402809143,0.2977014482021332,2.045311212539673
1783170020017037800,1.697037841796875,0.36881956458091736,-0.28516116738319397,1.821467638015747
1783170020026986800,1.70698681640625,-0.003309244057163596,-0.6784173846244812,1.2717195749282837
1783170020036935700,1.716935791015625,-0.27159982919692993,-0.680000901222229,0.5099503397941589
1783170020046914800,1.726914794921875,-0.3188845217227936,-0.2805701494216919,-0.21184860169887543
1783170020056863700,1.73686376953125,-0.19999061524868011,0.27051323652267456,-0.667829155921936
1783170020066812700,1.746812744140625,-0.0320732481777668,0.6972683072090149,-0.8122265934944153
1783170020076760800,1.7567607421875,0.06021380424499512,0.9231538772583008,-0.7575049996376038
1783170020086740700,1.76674072265625,0.009155414998531342,0.916044294834137,-0.620312511920929
1783170020096688600,1.776688720703125,-0.1758013814687729,0.6773742437362671,-0.4956448972225189
1783170020106637800,1.786637939453125,-0.414608895778656,0.3037867844104767,-0.4500422775745392
1783170020116616700,1.79661669921875,-0.594292402267456,-0.05740177258849144,-0.4878799319267273
1783170020126565600,1.806565673828125,-0.6788796782493591,-0.3003547787666321,-0.650037944316864
1783170020136514600,1.8165146484375,-0.7048245072364807,-0.4078921377658844,-0.9767460227012634
1783170020146463700,1.826463623046875,-0.7155804634094238,-0.39577236771583557,-1.4692870378494263
1783170020156442600,1.836442626953125,-0.7180076837539673,-0.21775496006011963,-2.0323195457458496
1783170020166390800,1.846390869140625,-0.6481313705444336,0.1515146940946579,-2.493558406829834
1783170020176340000,1.856340087890625,-0.5025909543037415,0.6603947281837463,-2.7246618270874023
1783170020186289000,1.866288818359375,-0.3832224905490875,1.1112958192825317,-2.6910104751586914
1783170020196267800,1.876267822265625,-0.3810405731201172,1.4121356010437012,-2.3954010009765625
1783170020206216700,1.886216796875,-0.4502374827861786,1.5824851989746094,-1.8808021545410156
1783170020216166000,1.896165771484375,-0.5261801481246948,1.6750537157058716,-1.1994158029556274
1783170020226144800,1.906144775390625,-0.5788607001304626,1.689154863357544,-0.4126485586166382
1783170020236093700,1.91609375,-0.6080324053764343,1.5969778299331665,0.39963582158088684
1783170020246041900,1.926041748046875,-0.6471018195152283,1.391456961631775,1.1216150522232056
1783170020255990800,1.93599072265625,-0.7328974008560181,1.0595405101776123,1.6278982162475586
1783170020265969700,1.9459697265625,-0.85670405626297,0.7159873843193054,1.830420732498169
1783170020275918800,1.9559189453125,-0.9936155676841736,0.44583871960639954,1.6956440210342407
1783170020285867800,1.96586767578125,-1.1343263387680054,0.2813113033771515,1.2459617853164673
1783170020295816700,1.975816650390625,-1.24366295337677,0.27148130536079407,0.6160544157028198
1783170020305795600,1.985795654296875,-1.2845669984817505,0.4692508578300476,-0.02959943749010563
1783170020315744800,1.995744873046875,-1.227169156074524,0.7775186896324158,-0.5582475662231445
1783170020325692700,2.005692626953125,-1.1014477014541626,1.1196904182434082,-0.8917038440704346
1783170020335672800,2.0156728515625,-0.9572173357009888,1.454014539718628,-1.0284640789031982
1783170020345621000,2.02562109375,-0.8455078601837158,1.6352230310440063,-0.992393970489502
1783170020355570000,2.03556982421875,-0.7523483037948608,1.671945571899414,-0.7852197289466858
1783170020365518800,2.045518798828125,-0.6436599493026733,1.60020112991333,-0.39860090613365173
1783170020375497700,2.055497802734375,-0.453163206577301,1.4166642427444458,0.09159436821937561
1783170020385447000,2.065447021484375,-0.19334149360656738,1.0341781377792358,0.5404896140098572
1783170020395394800,2.075394775390625,0.00965502392500639,0.38592877984046936,0.765177845954895
1783170020405343700,2.08534375,0.12660853564739227,-0.41867581009864807,0.7956028580665588
1783170020415323000,2.095322998046875,0.16507603228092194,-0.92978835105896,0.813232421875
1783170020425271800,2.105271728515625,0.14924834668636322,-1.015703797340393,0.9169266223907471
1783170020435220700,2.115220703125,0.14494360983371735,-0.8616833686828613,1.0401962995529175
1783170020445199600,2.12519970703125,0.14560247957706451,-0.3684757649898529,1.133836030960083
1783170020455148800,2.135148681640625,0.1915142983198166,0.4077744483947754,1.2741994857788086
1783170020465097700,2.14509765625,0.3073953688144684,1.0716232061386108,1.4746586084365845
1783170020475045600,2.155045654296875,0.3762095868587494,1.2463306188583374,1.523050308227539
1783170020485025500,2.165025634765625,0.36070066690444946,0.8874507546424866,1.33655846118927
1783170020494973700,2.1749736328125,0.3234725892543793,0.32935819029808044,1.0416693687438965
1783170020504923000,2.1849228515625,0.30720043182373047,-0.13181474804878235,0.7539669871330261
1783170020514871800,2.194871826171875,0.435637503862381,-0.39493533968925476,0.5844581127166748
1783170020524851000,2.204850830078125,0.6957827806472778,-0.4462943971157074,0.5759626626968384
1783170020534800000,2.2147998046875,0.9187820553779602,-0.470869779586792,0.6721435189247131
1783170020544747800,2.224747802734375,1.029232144355774,-0.5861849188804626,0.8176977634429932
1783170020554727700,2.234727783203125,1.07586669921875,-0.8151770830154419,0.9347056150436401
1783170020564675800,2.24467578125,1.0648337602615356,-1.018241047859192,0.9470341801643372
1783170020574624800,2.254624755859375,1.0462864637374878,-1.1110625267028809,0.8803592920303345
1783170020584573700,2.26457373046875,1.069580078125,-1.0527217388153076,0.8031478524208069
1783170020594552800,2.274552734375,1.1761451959609985,-0.8774985074996948,0.7253867387771606
1783170020604501800,2.284501708984375,1.3216791152954102,-0.664466142654419,0.6523200273513794
1783170020614450700,2.29445068359375,1.4462062120437622,-0.48807433247566223,0.6063929796218872
1783170020624398600,2.304398681640625,1.5309267044067383,-0.3880729079246521,0.5892254710197449
1783170020634410000,2.314409912109375,1.5557971000671387,-0.4040835499763489,0.585414469242096
1783170020644358000,2.32435791015625,1.5226972103118896,-0.5163967609405518,0.579505205154419
1783170020654306800,2.334306884765625,1.417824625968933,-0.6343711018562317,0.5644189119338989
1783170020664286000,2.344285888671875,1.2404303550720215,-0.7268528342247009,0.539906919002533
1783170020674235000,2.35423486328125,1.0487514734268188,-0.761821448802948,0.5142154097557068
1783170020684183800,2.364183837890625,0.8564475774765015,-0.7202593684196472,0.4774658977985382
1783170020694132000,2.374132080078125,0.6760122776031494,-0.6545477509498596,0.416551411151886
1783170020704111900,2.38411181640625,0.5450907349586487,-0.5641395449638367,0.347512423992157
1783170020714059800,2.394059814453125,0.45513927936553955,-0.451852411031723,0.2834487557411194
1783170020724008700,2.4040087890625,0.38283392786979675,-0.35793790221214294,0.22709839046001434
1783170020733958000,2.4139580078125,0.32572245597839355,-0.29656723141670227,0.19792799651622772
1783170020743936800,2.423936767578125,0.2873811721801758,-0.3125797510147095,0.18683619797229767
1783170020753886000,2.433885986328125,0.2729255259037018,-0.44499531388282776,0.16487044095993042
1783170020763835000,2.4438349609375,0.2672756314277649,-0.6387828588485718,0.13677328824996948
1783170020773814000,2.45381396484375,0.2828649878501892,-0.8143610954284668,0.111860491335392
1783170020783763000,2.463762939453125,0.33207249641418457,-0.9733094573020935,0.11213985085487366
1783170020793710800,2.4737109375,0.4454541802406311,-1.1055428981781006,0.13912326097488403
1783170020803660000,2.483659912109375,0.6222132444381714,-1.1905789375305176,0.19299821555614471
1783170020813639000,2.493638916015625,0.7982460260391235,-1.2468047142028809,0.27972671389579773
1783170020823587800,2.503587890625,0.9291270971298218,-1.3374072313308716,0.37982696294784546
1783170020833536800,2.513536865234375,0.956305742263794,-1.4289507865905762,0.4694870710372925
1783170020843485000,2.52348486328125,0.8846954703330994,-1.4076217412948608,0.5203419923782349
1783170020853464800,2.53346484375,0.78065025806427,-1.2756794691085815,0.48028191924095154
1783170020863412700,2.543412841796875,0.7273350954055786,-1.076002597808838,0.32079851627349854
1783170020873362000,2.55336181640625,0.8100654482841492,-0.8216400742530823,0.021410217508673668
1783170020883340800,2.5633408203125,0.8932287693023682,-0.6339913010597229,-0.41010230779647827
1783170020893289700,2.573289794921875,0.961905837059021,-0.611638605594635,-0.8925853371620178
1783170020903238700,2.58323876953125,1.0356833934783936,-0.711302638053894,-1.2894368171691895
1783170020913188000,2.59318798828125,1.1271981000900269,-0.9081419110298157,-1.5759156942367554
1783170020923167000,2.6031669921875,1.1542962789535522,-1.1038453578948975,-1.702944278717041
1783170020933116000,2.613115966796875,1.1593616008758545,-1.1903566122055054,-1.5810105800628662
1783170020943064000,2.62306396484375,1.1617997884750366,-0.9408407211303711,-1.2019256353378296
1783170020953013000,2.633012939453125,1.1919240951538086,-0.38011643290519714,-0.6753928065299988
1783170020962991900,2.642991943359375,1.3164598941802979,0.1319521814584732,-0.18384866416454315
1783170020972940800,2.65294091796875,1.4566726684570312,0.30628934502601624,0.18996034562587738
1783170020982890000,2.662889892578125,1.4948285818099976,0.20324259996414185,0.519959032535553
1783170020992868900,2.672868896484375,1.3518003225326538,-0.032526519149541855,0.8503827452659607
1783170021002817800,2.68281787109375,1.0192391872406006,-0.26192668080329895,1.1225535869598389
1783170021012766000,2.692765869140625,0.6333860158920288,-0.3227460980415344,1.2383605241775513
1783170021022715000,2.70271484375,0.27930301427841187,-0.19629600644111633,1.1043531894683838
1783170021032693800,2.71269384765625,-0.06867972761392593,0.12258743494749069,0.697411835193634
1783170021042643000,2.722642822265625,-0.4221818745136261,0.6334733366966248,0.10929133743047714
1783170021052591900,2.732591796875,-0.6776282787322998,1.2640280723571777,-0.5221918225288391
1783170021062540800,2.742540771484375,-0.8062331080436707,1.874889850616455,-1.0747582912445068
1783170021072519700,2.752519775390625,-0.8518232703208923,2.3304738998413086,-1.4925161600112915
1783170021082468900,2.76246875,-0.8071841597557068,2.5662128925323486,-1.7470890283584595
1783170021092417000,2.7724169921875,-0.6001553535461426,2.547368049621582,-1.7989720106124878
1783170021102397000,2.78239697265625,-0.2823829650878906,2.3335378170013428,-1.6530749797821045
1783170021112345000,2.792344970703125,0.0350639782845974,2.0051145553588867,-1.3672813177108765
1783170021122294000,2.8022939453125,0.2027411311864853,1.6073652505874634,-1.016892671585083
1783170021132243000,2.812242919921875,0.14902569353580475,1.2046267986297607,-0.7063520550727844
1783170021142221800,2.822221923828125,-0.037755366414785385,0.8887029886245728,-0.5522189736366272
1783170021152171000,2.8321708984375,-0.2722805142402649,0.747021496295929,-0.5968191623687744
1783170021162120000,2.842119873046875,-0.47847896814346313,0.7916142344474792,-0.7795618176460266
1783170021172067800,2.85206787109375,-0.656540036201477,0.9805681705474854,-0.9758181571960449
1783170021182047000,2.862046875,-0.7135258316993713,1.2008558511734009,-1.0677273273468018
1783170021191996000,2.871995849609375,-0.6283528804779053,1.317647933959961,-1.0563743114471436
1783170021201944800,2.88194482421875,-0.5097615122795105,1.3562339544296265,-1.002856969833374
1783170021211923700,2.891923828125,-0.43761569261550903,1.3577138185501099,-0.9401075839996338
1783170021221873000,2.901872802734375,-0.40646204352378845,1.2534865140914917,-0.9045224189758301
1783170021231821800,2.91182177734375,-0.4660470485687256,1.0763481855392456,-0.9154115319252014
1783170021241769700,2.921769775390625,-0.6065932512283325,0.8419644832611084,-0.9861970543861389
1783170021251750000,2.93175,-0.7522298097610474,0.6179681420326233,-1.1271072626113892
1783170021261697800,2.94169775390625,-0.8564797639846802,0.449910968542099,-1.3097692728042603
1783170021271647000,2.95164697265625,-0.9065560102462769,0.3718489110469818,-1.5011682510375977
1783170021281596000,2.961595947265625,-0.8855910897254944,0.3892201781272888,-1.639978051185608
1783170021291575000,2.971574951171875,-0.8229580521583557,0.4512140452861786,-1.703839898109436
1783170021301524000,2.98152392578125,-0.7406096458435059,0.5749368071556091,-1.6789754629135132
1783170021311473000,2.991472900390625,-0.5839635729789734,0.7675248980522156,-1.5497245788574219
1783170021321451800,3.00145166015625,-0.38787317276000977,0.9584109783172607,-1.2875832319259644
1783170021331401000,3.01140087890625,-0.20194271206855774,1.1281312704086304,-0.9154664278030396
1783170021341348900,3.021348876953125,-0.02221209555864334,1.2105993032455444,-0.46483850479125977
1783170021351297800,3.0312978515625,0.1392766684293747,1.1838730573654175,0.049961965531110764
1783170021361277000,3.04127685546875,0.2031099796295166,1.0089585781097412,0.549403190612793
1783170021371225900,3.051225830078125,0.20861046016216278,0.7661088705062866,0.99172043800354
1783170021381174800,3.0611748046875,0.19664567708969116,0.4574865996837616,1.357624888420105
1783170021391123000,3.071123046875,0.24368828535079956,0.12406895309686661,1.6207311153411865
1783170021401102800,3.081102783203125,0.2754025459289551,-0.5049939155578613,1.5919597148895264
1783170021411050800,3.09105078125,0.09611960500478745,-1.1891807317733765,1.3082091808319092
1783170021420999700,3.100999755859375,-0.1487330198287964,-1.4168528318405151,1.0630097389221191
1783170021430948900,3.110948974609375,-0.45227184891700745,-1.2771170139312744,1.001731276512146
1783170021440928000,3.120927978515625,-0.7494716048240662,-0.8937249183654785,1.0930265188217163
1783170021450877000,3.130876953125,-0.7794201374053955,-0.31633055210113525,1.2799227237701416
1783170021460825900,3.140825927734375,-0.4570799469947815,0.4300110340118408,1.5820859670639038
1783170021470805000,3.150804931640625,-0.06825628876686096,0.8232789635658264,1.9326000213623047
1783170021480754000,3.16075390625,0.1513700783252716,0.6972309947013855,2.1724958419799805
1783170021490701800,3.170701904296875,0.25126445293426514,0.27149543166160583,2.2948617935180664
1783170021500651000,3.180651123046875,0.2602457106113434,-0.2014244645833969,2.3507864475250244
1783170021510630000,3.1906298828125,0.24237295985221863,-0.5797240734100342,2.236618995666504
1783170021520578800,3.200578857421875,0.24631443619728088,-0.912229061126709,1.8609809875488281
1783170021530527700,3.21052783203125,0.295279860496521,-1.1554925441741943,1.2950164079666138
1783170021540476000,3.220475830078125,0.38489121198654175,-1.2325700521469116,0.7099862098693848
1783170021550455800,3.230455810546875,0.4843331277370453,-1.2072546482086182,0.21734030544757843
1783170021560403700,3.24040380859375,0.5497875213623047,-1.1720622777938843,-0.1342875063419342
1783170021570353000,3.250352783203125,0.5277730226516724,-1.208848237991333,-0.3413882255554199
1783170021580331800,3.260331787109375,0.3919941484928131,-1.347375512123108,-0.4509168565273285
1783170021590280700,3.27028076171875,0.1449369490146637,-1.6033552885055542,-0.5365467667579651
1783170021600230000,3.28022998046875,-0.15861068665981293,-1.8534647226333618,-0.6257017254829407
1783170021610179000,3.290178955078125,-0.440419465303421,-1.9051856994628906,-0.7009059190750122
1783170021620158000,3.300157958984375,-0.6684398651123047,-1.7155718803405762,-0.7223190665245056
1783170021630125600,3.31012548828125,-0.8397237062454224,-1.3730542659759521,-0.6586503386497498
1783170021640073500,3.320073486328125,-0.9333527088165283,-1.0162018537521362,-0.5064591765403748
1783170021650022700,3.330022705078125,-0.9393286108970642,-0.7259798645973206,-0.26875290274620056
1783170021660001500,3.34000146484375,-0.8987002372741699,-0.5822862982749939,-0.00032384038786403835
1783170021669950700,3.34995068359375,-0.8528876900672913,-0.569939911365509,0.24630804359912872
1783170021679899600,3.359899658203125,-0.8143967986106873,-0.6749070882797241,0.42550817131996155
1783170021689878800,3.369878662109375,-0.7881342768669128,-0.8554709553718567,0.518240213394165
1783170021699827700,3.37982763671875,-0.7766296863555908,-1.0359665155410767,0.5298137664794922
1783170021709775600,3.389775634765625,-0.7657853364944458,-1.1418359279632568,0.4607177972793579
1783170021719724500,3.399724609375,-0.7604470252990723,-1.142575979232788,0.313699871301651
1783170021729703700,3.40970361328125,-0.7445498108863831,-1.019444227218628,0.10429471731185913
1783170021739652600,3.419652587890625,-0.7230285406112671,-0.8757472038269043,-0.16610747575759888
1783170021749601500,3.4296015625,-0.6768695712089539,-0.7574256658554077,-0.49339959025382996
1783170021759550500,3.439550537109375,-0.6232848763465881,-0.6813862919807434,-0.8398227691650391
1783170021769529600,3.449529541015625,-0.6239306926727295,-0.5484029054641724,-1.117701530456543
1783170021779478500,3.459478515625,-0.6909369230270386,-0.27257639169692993,-1.308901309967041
1783170021789426700,3.4694267578125,-0.7854841947555542,0.21088534593582153,-1.4635401964187622
1783170021799406600,3.479406494140625,-0.7815019488334656,0.8469962477684021,-1.5927751064300537
1783170021809354500,3.4893544921875,-0.6361170411109924,1.4497753381729126,-1.604701280593872
1783170021819303700,3.4993037109375,-0.2793775796890259,1.8676780462265015,-1.4099634885787964
1783170021829252600,3.509252685546875,0.2496604323387146,1.7771327495574951,-1.004348635673523
1783170021839231700,3.519231689453125,0.7383416891098022,1.1808778047561646,-0.40647053718566895
1783170021849180700,3.5291806640625,1.0081747770309448,0.18181852996349335,0.32452961802482605
1783170021859128800,3.53912890625,1.0796321630477905,-0.9188126921653748,1.0779190063476562
1783170021869077800,3.549077880859375,1.1385163068771362,-1.9020980596542358,1.646318793296814
1783170021879056600,3.559056640625,1.2620254755020142,-2.6820082664489746,1.8529406785964966
1783170021889005600,3.569005615234375,1.4083900451660156,-2.9611542224884033,1.6593704223632812
1783170021898954800,3.578954833984375,1.6139024496078491,-2.4226202964782715,1.0985246896743774
1783170021908933600,3.58893359375,1.8182069063186646,-1.0564539432525635,0.4375307261943817
1783170021918882600,3.598882568359375,2.0220561027526855,0.3854566216468811,0.039030224084854126
1783170021928831500,3.60883154296875,2.1561131477355957,1.0935910940170288,0.06821926683187485
1783170021938779600,3.618779541015625,2.1072285175323486,1.0978673696517944,0.5194210410118103
1783170021948759600,3.628759521484375,1.9390337467193604,0.5349728465080261,1.3595621585845947
1783170021958707500,3.63870751953125,1.622941255569458,-0.26284652948379517,2.371650457382202
1783170021968656600,3.64865673828125,1.2080202102661133,-0.9804944396018982,3.130188226699829
1783170021978605800,3.658605712890625,0.8290132880210876,-1.3506860733032227,3.399905204772949
1783170021988584400,3.66858447265625,0.5788761377334595,-1.2557846307754517,3.2973873615264893
1783170021998533600,3.67853369140625,0.40419861674308777,-0.8365052938461304,2.9310624599456787
1783170022008482800,3.68848291015625,0.22432124614715576,-0.2549537420272827,2.4229867458343506
1783170022018461700,3.698461669921875,0.006329268682748079,0.23437762260437012,1.8760006427764893
1783170022028409600,3.70840966796875,-0.24319294095039368,0.48160257935523987,1.3261340856552124
1783170022038358800,3.71835888671875,-0.4721779227256775,0.4682888984680176,0.8074430227279663
1783170022048307700,3.7283076171875,-0.5872541666030884,0.33620384335517883,0.3653039336204529
1783170022058286600,3.73828662109375,-0.5518120527267456,0.16236387193202972,0.010845457203686237
1783170022068235500,3.748235595703125,-0.4899508059024811,-0.00398568669334054,-0.34973642230033875
1783170022078184700,3.758184814453125,-0.49344033002853394,-0.13522572815418243,-0.7575318813323975
1783170022088132600,3.768132568359375,-0.5609413385391235,-0.1716521829366684,-1.1619377136230469
1783170022098112500,3.778112548828125,-0.697259247303009,-0.07860266417264938,-1.500992774963379
1783170022108060700,3.788060791015625,-0.858655571937561,0.12223563343286514,-1.721428394317627
1783170022118009600,3.798009521484375,-0.9873552322387695,0.3322940468788147,-1.7948485612869263
1783170022127988500,3.807988525390625,-1.0593535900115967,0.4504697024822235,-1.7499271631240845
1783170022137937700,3.817937744140625,-1.063965916633606,0.5048112273216248,-1.6261529922485352
1783170022147886600,3.827886474609375,-1.0082224607467651,0.5112686157226562,-1.4332603216171265
1783170022157835800,3.837835693359375,-0.9309497475624084,0.46908360719680786,-1.208114504814148
1783170022167814700,3.847814697265625,-0.8586433529853821,0.3989010453224182,-0.987610936164856
1783170022177763600,3.857763671875,-0.7848548889160156,0.31877291202545166,-0.7967700958251953
1783170022187711700,3.867711669921875,-0.7124227285385132,0.2916904389858246,-0.639430582523346
1783170022197660700,3.87766064453125,-0.6606341004371643,0.2639075517654419,-0.5332673788070679
1783170022207639800,3.887639892578125,-0.6765537261962891,0.16317640244960785,-0.4632693827152252
1783170022217588700,3.897588623046875,-0.7184819579124451,0.03747626766562462,-0.4083206355571747
1783170022227537700,3.90753759765625,-0.7471365332603455,-0.09229078143835068,-0.36886537075042725
1783170022237516500,3.9175166015625,-0.7598142623901367,-0.17847520112991333,-0.3636602461338043
1783170022247465700,3.9274658203125,-0.753223180770874,-0.20570255815982819,-0.4132048785686493
1783170022257413600,3.93741357421875,-0.7729564309120178,-0.11815966665744781,-0.4869520664215088
1783170022267362600,3.947362548828125,-0.7745401859283447,0.1627660095691681,-0.5271328091621399
1783170022277341700,3.957341796875,-0.7325527667999268,0.5442057847976685,-0.5139035582542419
1783170022287290600,3.96729052734375,-0.6240204572677612,0.8932763934135437,-0.4653317332267761
1783170022297239600,3.977239501953125,-0.449799120426178,1.2130541801452637,-0.3797398805618286
1783170022307188700,3.987188720703125,-0.21359750628471375,1.528196930885315,-0.22819748520851135
1783170022317167600,3.997167724609375,0.012072641402482986,1.753389596939087,-0.05242832005023956
1783170022327116800,4.00711669921875,0.16012442111968994,1.7576881647109985,0.14279523491859436
1783170022337064700,4.017064697265625,0.2601969540119171,1.6122478246688843,0.3740018308162689
1783170022347044600,4.027044677734375,0.39046522974967957,1.5108072757720947,0.5803288817405701
1783170022356992800,4.03699267578125,0.5602065920829773,1.268103837966919,0.6854776740074158
1783170022366941700,4.046941650390625,0.7347935438156128,0.7247332334518433,0.7732064723968506
1783170022376890600,4.056890625,1.001880168914795,-0.14584775269031525,0.9709342122077942
1783170022386869800,4.066869873046875,1.1453301906585693,-1.070837378501892,1.3471227884292603
1783170022396818700,4.076818603515625,0.9674214720726013,-1.734337329864502,1.8688898086547852
1783170022406766600,4.0867666015625,0.4356526732444763,-2.0169034004211426,2.417966604232788
1783170022416715500,4.096715576171875,-0.2216908484697342,-1.7219501733779907,2.814762830734253
1783170022426694700,4.106694580078125,-0.6041327714920044,-1.2785420417785645,2.795128345489502
1783170022436643600,4.1166435546875,-0.6269581913948059,-1.0048506259918213,2.314222574234009
1783170022446592500,4.126592529296875,-0.45356109738349915,-0.7105931639671326,1.6309419870376587
1783170022456571600,4.136571533203125,-0.24209412932395935,-0.4170779287815094,1.0339903831481934
1783170022466520600,4.1465205078125,-0.06889784336090088,-0.19828325510025024,0.5918891429901123
1783170022476469500,4.156469482421875,0.05083761364221573,-0.03718225657939911,0.2408674657344818
1783170022486417400,4.16641748046875,0.1820736676454544,0.1711970418691635,-0.08986171334981918
1783170022496397800,4.176397705078125,0.33130815625190735,0.4123324453830719,-0.4549432694911957
1783170022506345700,4.186345703125,0.4484347701072693,0.623518168926239,-0.83548903465271
1783170022516294700,4.196294677734375,0.49933499097824097,0.7842953205108643,-1.160520315170288
1783170022526243600,4.20624365234375,0.4654238820075989,0.8177241683006287,-1.4512763023376465
1783170022536222700,4.21622265625,0.3328525125980377,0.701373279094696,-1.7645695209503174
1783170022546171600,4.226171630859375,0.13185496628284454,0.4829493463039398,-2.110339403152466
1783170022556119800,4.236119873046875,-0.06079810485243797,0.32164034247398376,-2.4409310817718506
1783170022566099700,4.246099609375,-0.16051217913627625,0.3897498846054077,-2.695265531539917
1783170022576047600,4.256047607421875,-0.13269519805908203,0.6627857089042664,-2.813788890838623
1783170022585996500,4.26599658203125,0.010516556911170483,1.01421058177948,-2.7432327270507812
1783170022595945500,4.275945556640625,0.22360539436340332,1.3060163259506226,-2.481821298599243
1783170022605924600,4.285924560546875,0.4548055827617645,1.491216778755188,-2.0784051418304443
1783170022615873500,4.29587353515625,0.6657122373580933,1.5433218479156494,-1.5961589813232422
1783170022625822500,4.305822509765625,0.819953203201294,1.4637569189071655,-1.0694400072097778
1783170022635806200,4.31580615234375,0.8896888494491577,1.3201923370361328,-0.5228488445281982
1783170022645786400,4.325786376953125,0.8778841495513916,1.1035984754562378,0.009249957278370857
1783170022655734300,4.335734375,0.8222866654396057,0.8339752554893494,0.4585055112838745
1783170022665683200,4.34568310546875,0.7472089529037476,0.5581080317497253,0.7703835368156433
1783170022675662300,4.355662353515625,0.6502278447151184,0.24194099009037018,0.9201927185058594
1783170022685611300,4.365611328125,0.5509446263313293,-0.06462453305721283,0.9347511529922485
1783170022695560200,4.375560302734375,0.4659796953201294,-0.35690248012542725,0.8515031337738037
1783170022705508400,4.38550830078125,0.38036730885505676,-0.6208896636962891,0.7040100693702698
1783170022715488300,4.39548828125,0.3016413450241089,-0.827189564704895,0.5305299162864685
1783170022725436200,4.405436279296875,0.22961482405662537,-0.9524582624435425,0.37099936604499817
1783170022735385300,4.41538525390625,0.15864503383636475,-1.0105266571044922,0.2331903725862503
1783170022745334300,4.425334228515625,0.08912934362888336,-0.9939140677452087,0.10990386456251144
1783170022755313400,4.4353134765625,0.020854415372014046,-0.9251017570495605,-0.0026759442407637835
1783170022765262300,4.445262451171875,-0.05588217452168465,-0.8148585557937622,-0.09309691935777664
1783170022775211300,4.455211181640625,-0.1210276186466217,-0.6472586393356323,-0.15689480304718018
1783170022785190400,4.4651904296875,-0.15465882420539856,-0.472696989774704,-0.19514046609401703
1783170022795139300,4.475139404296875,-0.16488641500473022,-0.2353648543357849,-0.19609281420707703
1783170022805087200,4.485087158203125,-0.15739494562149048,0.12094026803970337,-0.149583101272583
1783170022815036400,4.495036376953125,-0.18432536721229553,0.6078374981880188,-0.09651561826467514
1783170022825015300,4.505015380859375,-0.21526171267032623,1.2031424045562744,-0.07940161228179932
1783170022834964200,4.514964111328125,-0.12380849570035934,1.7735936641693115,-0.20936867594718933
1783170022844913200,4.5249130859375,0.16309358179569244,2.0484349727630615,-0.6087062358856201
1783170022854862300,4.5348623046875,0.8299693465232849,1.68869149684906,-1.381445288658142
1783170022864841200,4.54484130859375,1.7953940629959106,0.0981832891702652,-2.562903881072998
1783170022874789000,4.5547890625,2.480166435241699,-2.6528496742248535,-3.4962449073791504
1783170022884738300,4.56473828125,2.3816537857055664,-4.855830192565918,-2.879312753677368
1783170022894717200,4.57471728515625,1.426295280456543,-5.477424621582031,-0.4304235577583313
1783170022904666000,4.584666015625,-0.21146750450134277,-3.6374433040618896,2.4962799549102783
1783170022914615300,4.594615234375,-1.2458640336990356,-0.7227243781089783,3.436609983444214
1783170022924564500,4.604564453125,-1.0506556034088135,1.8061268329620361,1.5335674285888672
1783170022934543400,4.61454345703125,-0.4747087359428406,4.281404495239258,-0.9367378950119019
1783170022944492300,4.6244921875,-0.2611471712589264,5.504099369049072,-2.4543068408966064
1783170022954440400,4.6344404296875,-0.5588304996490479,5.232532024383545,-2.687913656234741
1783170022964389400,4.644389404296875,-0.9524654150009155,4.156307220458984,-1.9501042366027832
1783170022974368300,4.6543681640625,-1.0418843030929565,2.9231674671173096,-1.0319660902023315
1783170022984317200,4.664317138671875,-0.82315993309021,1.7928423881530762,-0.5384560227394104
1783170022994266400,4.674266357421875,-0.5713039636611938,0.9067043662071228,-0.3988368511199951
1783170023004245200,4.684245361328125,-0.4393600523471832,0.34784823656082153,-0.37658214569091797
1783170023014194200,4.694194091796875,-0.4848899841308594,0.0732896625995636,-0.38802921772003174
1783170023024143000,4.70414306640625,-0.6879110336303711,-0.04051360487937927,-0.4543251693248749
1783170023034091300,4.71409130859375,-0.986192524433136,-0.04993400350213051,-0.6404281854629517
1783170023044070100,4.724070068359375,-1.322585940361023,-0.03989148885011673,-0.9631646871566772
1783170023054019300,4.734019287109375,-1.6366333961486816,-0.02570270001888275,-1.3566094636917114
1783170023063968300,4.74396826171875,-1.9246305227279663,0.008841162547469139,-1.7510122060775757
1783170023073917400,4.75391748046875,-2.1421256065368652,0.08919565379619598,-2.0730652809143066
1783170023083896300,4.763896240234375,-2.1675825119018555,0.24902766942977905,-2.2473442554473877
1783170023093845200,4.77384521484375,-1.9149891138076782,0.4052654802799225,-2.222431182861328
1783170023103793400,4.78379345703125,-1.4583057165145874,0.454394668340683,-1.9771769046783447
1783170023113773300,4.793773193359375,-0.9690303206443787,0.41456788778305054,-1.5156131982803345
1783170023123721500,4.803721435546875,-0.5577442049980164,0.2901151776313782,-0.8625475168228149
1783170023133670400,4.81367041015625,-0.30081257224082947,0.16319771111011505,-0.07707986980676651
1783170023143619300,4.823619384765625,-0.19266745448112488,0.06274913251399994,0.7098309397697449
1783170023153598200,4.83359814453125,-0.11994718015193939,-0.06440109014511108,1.3395380973815918
1783170023163547400,4.84354736328125,-0.06663841754198074,-0.20504209399223328,1.7289968729019165
1783170023173496300,4.853496337890625,-0.06450416147708893,-0.2670692503452301,1.8977051973342896
1783170023183444200,4.8634443359375,-0.12655581533908844,-0.191703662276268,1.8476382493972778
1783170023193424100,4.873424072265625,-0.22789175808429718,-0.02791951596736908,1.6283117532730103
1783170023203372300,4.883372314453125,-0.31845468282699585,0.21001635491847992,1.3681079149246216
1783170023213321200,4.8933212890625,-0.36111506819725037,0.4592325687408447,1.2037922143936157
1783170023223270400,4.9032705078125,-0.394319087266922,0.6659652590751648,1.2080713510513306
1783170023233249300,4.913249267578125,-0.46538713574409485,0.8054096698760986,1.3821147680282593
1783170023243198500,4.923198486328125,-0.5388698577880859,0.8629624843597412,1.640625238418579
1783170023253146400,4.933146484375,-0.5816122889518738,0.8308647274971008,1.8569092750549316
1783170023263126300,4.943126220703125,-0.62434321641922,0.7324039340019226,1.9800695180892944
1783170023273074400,4.953074462890625,-0.6615228056907654,0.5940452218055725,2.0130536556243896
1783170023283023400,4.9630234375,-0.6938863396644592,0.45086997747421265,1.984200119972229
1783170023292972300,4.97297216796875,-0.69599449634552,0.34637099504470825,1.9349534511566162
1783170023302951400,4.982951416015625,-0.6401935815811157,0.4008110761642456,1.8708884716033936
1783170023312900400,4.992900390625,-0.5574368834495544,0.5941845178604126,1.7697988748550415
1783170023322849300,5.002849365234375,-0.5063720941543579,0.8666538596153259,1.6598761081695557
1783170023332797200,5.012797119140625,-0.4892250895500183,1.0240837335586548,1.554574966430664
1783170023342777300,5.02277734375,-0.5029438138008118,0.9852468371391296,1.4479808807373047
1783170023352725200,5.032725341796875,-0.6036025285720825,0.8129477500915527,1.347509741783142
1783170023362674200,5.042674072265625,-0.7448390126228333,0.49902206659317017,1.2636946439743042
1783170023372653300,5.0526533203125,-0.86583411693573,0.33781692385673523,1.1855056285858154
1783170023382602200,5.062602294921875,-0.9896093606948853,0.4202854335308075,1.0755407810211182
1783170023392551200,5.07255126953125,-1.1612000465393066,0.5551723837852478,0.8538222312927246
1783170023402499000,5.0824990234375,-1.247839331626892,0.7519350051879883,0.6223669052124023
1783170023412479500,5.0924794921875,-1.1724883317947388,1.1842589378356934,0.5474825501441956
1783170023422427400,5.102427490234375,-0.9774629473686218,1.778192162513733,0.6422963738441467
1783170023432376300,5.112376220703125,-0.7064998745918274,2.2228031158447266,0.7832833528518677
1783170023442325200,5.1223251953125,-0.4993845224380493,2.3273332118988037,0.8106899261474609
1783170023452304400,5.132304443359375,-0.3521095812320709,2.1590161323547363,0.6441521048545837
1783170023462253300,5.14225341796875,-0.1712425947189331,1.8224149942398071,0.2859255075454712
1783170023472202200,5.1522021484375,0.1711730808019638,1.376684308052063,-0.152795672416687
1783170023482181400,5.162181396484375,0.7064279913902283,0.8821329474449158,-0.4719446301460266
1783170023492130300,5.17213037109375,1.2028286457061768,0.2736198306083679,-0.5614454746246338
1783170023502078200,5.182078125,1.4678057432174683,-0.44446852803230286,-0.5005440711975098
1783170023512027100,5.192027099609375,1.5433441400527954,-1.1028107404708862,-0.43740129470825195
1783170023522006300,5.20200634765625,1.5416269302368164,-1.528123140335083,-0.4961138963699341
1783170023531955200,5.211955078125,1.5534844398498535,-1.7096620798110962,-0.7001615762710571
1783170023541904100,5.221904052734375,1.5680506229400635,-1.7968342304229736,-1.0313371419906616
1783170023551852300,5.231852294921875,1.5615838766098022,-1.8390613794326782,-1.4134833812713623
1783170023561832200,5.241832275390625,1.5252280235290527,-1.7906341552734375,-1.8095324039459229
1783170023571780000,5.251780029296875,1.4743763208389282,-1.5721087455749512,-2.1278679370880127
1783170023581729500,5.2617294921875,1.4406934976577759,-1.3624061346054077,-2.3466148376464844
1783170023591708200,5.271708251953125,1.3964396715164185,-1.2434583902359009,-2.456115484237671
1783170023601657300,5.2816572265625,1.3119858503341675,-1.1581286191940308,-2.4647912979125977
1783170023611606300,5.291606201171875,1.2001700401306152,-1.0838762521743774,-2.3656694889068604
1783170023621555500,5.301555419921875,1.11785089969635,-1.018243432044983,-2.1431267261505127
1783170023631533800,5.311533935546875,1.0954164266586304,-0.9086708426475525,-1.8183486461639404
1783170023641482800,5.321482666015625,1.1626315116882324,-0.8168109655380249,-1.4506914615631104
1783170023651431000,5.331430908203125,1.3140276670455933,-0.8379362225532532,-1.0919228792190552
1783170023661379800,5.3413798828125,1.50853431224823,-0.9866614937782288,-0.7450041174888611
1783170023671358700,5.351358642578125,1.6768300533294678,-1.21050226688385,-0.374523788690567
1783170023681308000,5.361307861328125,1.798608422279358,-1.4398281574249268,0.05095958709716797
1783170023691257000,5.371257080078125,1.8430315256118774,-1.6662077903747559,0.5229385495185852
1783170023701235700,5.381235595703125,1.7824891805648804,-1.853431224822998,0.9829453229904175
1783170023711185000,5.391184814453125,1.625548005104065,-1.953176498413086,1.3286398649215698
1783170023721133000,5.401133056640625,1.4166991710662842,-1.9354294538497925,1.479337453842163
1783170023731082000,5.41108203125,1.1902446746826172,-1.818398118019104,1.409989833831787
1783170023741060900,5.421060791015625,0.9416151642799377,-1.6084153652191162,1.1199069023132324
1783170023751010000,5.431010009765625,0.6791800856590271,-1.349863886833191,0.6749595403671265
1783170023760959000,5.440958984375,0.4232817590236664,-1.0840868949890137,0.21223530173301697
1783170023770908000,5.450907958984375,0.18314824998378754,-0.8134468197822571,-0.152252659201622
1783170023780886800,5.46088671875,-0.03725576028227806,-0.6179479360580444,-0.4001271724700928
1783170023790836000,5.4708359375,-0.23040737211704254,-0.6069107055664062,-0.5666192173957825
1783170023800784000,5.480783935546875,-0.4065198302268982,-0.7130715250968933,-0.7141591310501099
1783170023810763800,5.490763671875,-0.5450081825256348,-0.7313098907470703,-0.8757511973381042
1783170023820712000,5.5007119140625,-0.5610633492469788,-0.4912235140800476,-1.0134364366531372
1783170023830660900,5.510660888671875,-0.4496510326862335,-0.14670608937740326,-1.115448236465454
1783170023840609800,5.52060986328125,-0.2508580684661865,0.02528351917862892,-1.1939207315444946
1783170023850588700,5.530588623046875,-0.09453635662794113,-0.16659510135650635,-1.2471972703933716
1783170023860537900,5.540537841796875,0.06920703500509262,-0.6249440312385559,-1.1893253326416016
1783170023870487000,5.550487060546875,0.21642231941223145,-1.111251950263977,-0.8963435888290405
1783170023880435000,5.56043505859375,0.29675018787384033,-1.169485092163086,-0.32789745926856995
1783170023890414000,5.5704140625,0.47897058725357056,-0.624106228351593,0.38128742575645447
1783170023900363000,5.580363037109375,0.8669633269309998,0.22531461715698242,0.927696704864502
1783170023910312000,5.59031201171875,1.296098232269287,0.9089525938034058,1.1707195043563843
1783170023920291000,5.600291015625,1.518113613128662,1.2464594841003418,1.365702509880066
1783170023930240000,5.610239990234375,1.4966280460357666,1.2647676467895508,1.777667760848999
1783170023940189000,5.62018896484375,1.2804625034332275,1.0199248790740967,2.3313660621643066
1783170023950136800,5.63013671875,0.8903306722640991,0.6996052265167236,2.767005443572998
1783170023960116700,5.64011669921875,0.41659295558929443,0.3728652000427246,2.8564507961273193
1783170023970065000,5.65006494140625,-0.021588649600744247,0.22412684559822083,2.560232639312744
1783170023980013800,5.660013916015625,-0.3840208947658539,0.32601937651634216,1.9932793378829956
1783170023989962800,5.669962646484375,-0.6821016073226929,0.6154940724372864,1.3154511451721191
1783170023999942000,5.67994189453125,-0.9148943424224854,1.010416865348816,0.6461827158927917
1783170024009890800,5.689890869140625,-1.1161326169967651,1.2713103294372559,0.027187945321202278
1783170024019840000,5.699840087890625,-1.3225278854370117,1.4271377325057983,-0.5223692059516907
1783170024029819000,5.70981884765625,-1.4914077520370483,1.5787469148635864,-0.960037887096405
1783170024039768000,5.71976806640625,-1.570334553718567,1.5812313556671143,-1.2936973571777344
1783170024049716000,5.729716064453125,-1.5925689935684204,1.4051012992858887,-1.553303837776184
1783170024059665000,5.739664794921875,-1.5838128328323364,1.1025880575180054,-1.7626994848251343
1783170024069644000,5.74964404296875,-1.5524495840072632,0.7308286428451538,-1.9228252172470093
1783170024079593000,5.759593017578125,-1.4908533096313477,0.439788818359375,-2.0156688690185547
1783170024089542000,5.7695419921875,-1.4026126861572266,0.2659834921360016,-2.0395376682281494
1783170024099490000,5.779489990234375,-1.2876123189926147,0.23044651746749878,-1.96499764919281
1783170024109470000,5.789469970703125,-1.1292569637298584,0.3228078782558441,-1.7952057123184204
1783170024119417900,5.79941796875,-0.9380406737327576,0.5431700944900513,-1.5128542184829712
1783170024129366800,5.80936669921875,-0.7175538539886475,0.8441477417945862,-1.0982860326766968
1783170024139346000,5.819345947265625,-0.46774137020111084,1.1275235414505005,-0.5893990993499756
1783170024149294800,5.829294921875,-0.23266786336898804,1.2933201789855957,-0.08814477175474167
1783170024159243800,5.839243896484375,-0.04709480702877045,1.2103805541992188,0.3333614468574524
1783170024169192700,5.849192626953125,0.057254768908023834,0.9007428884506226,0.6443041563034058
1783170024179171800,5.859171875,0.06394968926906586,0.4765718877315521,0.8152170181274414
1783170024189120800,5.869120849609375,-0.03157630190253258,0.0036448021419346333,0.833400309085846
1783170024199068700,5.879068603515625,-0.23430117964744568,-0.3679785430431366,0.7382287979125977
1783170024209018000,5.88901806640625,-0.49755945801734924,-0.512642502784729,0.6267816424369812
1783170024218997000,5.8989970703125,-0.723783552646637,-0.40533336997032166,0.5468345880508423
1783170024228946000,5.90894580078125,-0.8726744651794434,-0.10088453441858292,0.4738501310348511
1783170024238894800,5.918894775390625,-0.923735499382019,0.3225330412387848,0.37785249948501587
1783170024248874000,5.9288740234375,-0.8832331299781799,0.7267699837684631,0.28930026292800903
1783170024258823000,5.938822998046875,-0.7572780847549438,0.9943639039993286,0.24684546887874603
1783170024268770800,5.948770751953125,-0.62553870677948,1.103514313697815,0.29669052362442017
1783170024278720000,5.958719970703125,-0.5268529057502747,1.0928752422332764,0.4368332624435425
1783170024288699000,5.968698974609375,-0.4077952206134796,1.1508361101150513,0.677758514881134
1783170024298647800,5.978647705078125,-0.2264627069234848,1.3430249691009521,0.9484376907348633
1783170024308596700,5.9885966796875,-0.053948186337947845,1.600381851196289,1.1479194164276123
1783170024318546000,5.9985458984375,0.17785201966762543,1.8656460046768188,1.289489507675171
1783170024328524800,6.00852490234375,0.45969170331954956,1.918817162513733,1.3925589323043823
1783170024338473700,6.0184736328125,0.6493857502937317,1.469178557395935,1.4965274333953857
1783170024348422000,6.028421875,0.696301281452179,0.5055473446846008,1.6060014963150024
1783170024358401800,6.03840185546875,0.5939480066299438,-0.5031139850616455,1.7335429191589355
1783170024368349700,6.048349609375,0.4127068817615509,-1.004724144935608,1.9285387992858887
1783170024378299000,6.058298828125,0.23700456321239471,-0.9828731417655945,2.177760362625122
1783170024388248000,6.068248046875,0.13185550272464752,-0.46379348635673523,2.435089349746704
1783170024398227000,6.07822705078125,0.15695473551750183,0.2906201183795929,2.586103916168213
1783170024408175900,6.08817578125,0.20818808674812317,0.9383421540260315,2.4848482608795166
1783170024418124000,6.0981240234375,0.1582767218351364,1.2546160221099854,2.14766263961792
1783170024428073000,6.108072998046875,0.021981198340654373,1.382482886314392,1.7398871183395386
1783170024438051800,6.1180517578125,-0.17429563403129578,1.4014317989349365,1.3933504819869995
1783170024448001000,6.1280009765625,-0.3368123769760132,1.3507214784622192,1.1271355152130127
1783170024457950000,6.137949951171875,-0.38741111755371094,1.1320536136627197,0.8644658327102661
1783170024467928800,6.1479287109375,-0.38592612743377686,0.7715944647789001,0.5628204941749573
1783170024477877800,6.157877685546875,-0.36267992854118347,0.4157266318798065,0.25051558017730713
1783170024487827000,6.167826904296875,-0.2944111227989197,0.21922476589679718,-0.07817362993955612
1783170024497774800,6.17777490234375,-0.1849357634782791,0.13490109145641327,-0.4247094690799713
1783170024507754800,6.187754638671875,-0.060560550540685654,0.08003145456314087,-0.7621111869812012
1783170024517703000,6.197702880859375,0.07562072575092316,-0.006622216198593378,-1.0452710390090942
1783170024527651800,6.20765185546875,0.2258930504322052,-0.16745370626449585,-1.2675755023956299
1783170024537601000,6.21760107421875,0.36254116892814636,-0.5131128430366516,-1.4601736068725586
1783170024547579600,6.22757958984375,0.5034242868423462,-0.878974199295044,-1.5946710109710693
1783170024557529000,6.237529052734375,0.6313654780387878,-1.1203521490097046,-1.6560646295547485
1783170024567477000,6.24747705078125,0.77885901927948,-1.233893632888794,-1.6659947633743286
1783170024577457000,6.257456787109375,0.9239683151245117,-1.249428153038025,-1.6601027250289917
1783170024587405000,6.267405029296875,1.0649019479751587,-1.1687532663345337,-1.6388055086135864
1783170024597354000,6.27735400390625,1.1790144443511963,-1.052621841430664,-1.596392273902893
1783170024607303000,6.287302978515625,1.2669687271118164,-0.9336427450180054,-1.5070213079452515
1783170024617281800,6.29728173828125,1.3080475330352783,-0.9044331908226013,-1.3508535623550415
1783170024627231000,6.30723095703125,1.2916094064712524,-0.9959439635276794,-1.1445432901382446
1783170024637222700,6.31722265625,1.2573555707931519,-1.129565954208374,-0.8860315680503845
1783170024647170800,6.3271708984375,1.2395920753479004,-1.2265310287475586,-0.618431031703949
1783170024657151000,6.33715087890625,1.232635259628296,-1.272725224494934,-0.3823487162590027
1783170024667099000,6.347098876953125,1.2138134241104126,-1.2720162868499756,-0.18312427401542664
1783170024677048000,6.357048095703125,1.1556392908096313,-1.2356497049331665,-0.020052270963788033
1783170024686997000,6.3669970703125,1.067497968673706,-1.2020866870880127,0.06911701709032059
1783170024696976000,6.376975830078125,0.9371935725212097,-1.2278562784194946,0.044979725033044815
1783170024706924800,6.3869248046875,0.7577476501464844,-1.2827661037445068,-0.06673961877822876
1783170024716874000,6.3968740234375,0.5513100028038025,-1.3098711967468262,-0.22119390964508057
1783170024726852900,6.406852783203125,0.35789263248443604,-1.286847472190857,-0.39940783381462097
1783170024736801000,6.416801025390625,0.19181790947914124,-1.231702446937561,-0.5840365290641785
1783170024746750000,6.42675,0.04167633876204491,-1.179040789604187,-0.7184242010116577
1783170024756699000,6.436698974609375,-0.08957568556070328,-1.0794109106063843,-0.7965978384017944
1783170024766677800,6.446677734375,-0.145065575838089,-0.963473379611969,-0.8228073120117188
1783170024776627000,6.456626953125,-0.1012914702296257,-0.8439884781837463,-0.7938994765281677
1783170024786576000,6.466575927734375,0.05929102003574371,-0.743963360786438,-0.7219437956809998
1783170024796523800,6.476523681640625,0.2775346636772156,-0.6328642964363098,-0.608713686466217
1783170024806503700,6.486503662109375,0.6133859157562256,-0.4463050365447998,-0.3984762728214264
1783170024816451800,6.496451904296875,1.1074951887130737,-0.4240998923778534,-0.15707004070281982
1783170024826401000,6.506401123046875,1.6759048700332642,-0.9211477041244507,0.014577344991266727
1783170024836379600,6.516379638671875,2.073596715927124,-2.002469062805176,0.1485213041305542
1783170024846329000,6.5263291015625,2.0521321296691895,-3.3183507919311523,0.38768380880355835
1783170024856278000,6.536278076171875,1.4451004266738892,-3.642761468887329,0.9304600358009338
1783170024866227000,6.54622705078125,0.7185221910476685,-2.555171489715576,1.5351506471633911
1783170024876205800,6.556205810546875,0.6158890128135681,-0.957958459854126,1.5774835348129272
1783170024886155000,6.566155029296875,0.9859757423400879,0.47204288840293884,0.8394163846969604
1783170024896103000,6.57610302734375,1.3418102264404297,1.5561164617538452,-0.1577155888080597
1783170024906051800,6.5860517578125,1.4936264753341675,2.016979932785034,-0.8452934622764587
1783170024916031000,6.596031005859375,1.4228055477142334,1.8139511346817017,-1.0773959159851074
1783170024925980000,6.60597998046875,1.2744879722595215,1.1912050247192383,-0.9679935574531555
1783170024935928800,6.6159287109375,1.1435003280639648,0.37039217352867126,-0.7067805528640747
1783170024945907700,6.62590771484375,1.0569766759872437,-0.35225710272789,-0.377094566822052
1783170024955857000,6.63585693359375,1.030663013458252,-0.7152827382087708,-0.03562404215335846
1783170024965804800,6.6458046875,0.9664238691329956,-0.7960476279258728,0.20035280287265778
1783170024975753700,6.655753662109375,0.7867968678474426,-0.6772122979164124,0.24352264404296875
1783170024985732900,6.66573291015625,0.5041829943656921,-0.3833087682723999,0.1183234453201294
1783170024995682000,6.67568212890625,0.14108867943286896,0.04488278552889824,-0.09868742525577545
1783170025005631000,6.685630859375,-0.27026423811912537,0.5820953845977783,-0.31602826714515686
1783170025015580000,6.695579833984375,-0.6635335087776184,1.1871402263641357,-0.4612208902835846
1783170025025559000,6.70555908203125,-0.9783428311347961,1.7820507287979126,-0.5018926858901978
1783170025035508000,6.715508056640625,-1.1621308326721191,2.3095595836639404,-0.414608895778656
1783170025045456000,6.725455810546875,-1.2320616245269775,2.748178005218506,-0.22267675399780273
1783170025055435800,6.735435791015625,-1.2138102054595947,3.0828323364257812,0.06169212609529495
1783170025065384000,6.745384033203125,-1.106705665588379,3.259373426437378,0.4071248769760132
1783170025075332900,6.755332763671875,-0.9353631734848022,3.2331082820892334,0.769294023513794
1783170025085281800,6.76528173828125,-0.703768789768219,2.9817209243774414,1.0808933973312378
1783170025095261000,6.775260986328125,-0.4478060007095337,2.579017400741577,1.2837629318237305
1783170025105209900,6.7852099609375,-0.19885344803333282,2.104424238204956,1.3570387363433838
1783170025115157800,6.79515771484375,0.026064090430736542,1.5885497331619263,1.3166210651397705
1783170025125106700,6.805106689453125,0.1927042007446289,1.0490013360977173,1.1936522722244263
1783170025135085800,6.8150859375,0.24161049723625183,0.5217918157577515,1.003753423690796
1783170025145034800,6.82503466796875,0.21913820505142212,0.11659212410449982,0.7567084431648254
1783170025154984000,6.83498388671875,0.1797758936882019,-0.11668187379837036,0.5168364644050598
1783170025164962800,6.844962890625,0.18204782903194427,-0.22197633981704712,0.32978349924087524
1783170025174912000,6.854912109375,0.2198263704776764,-0.2780481278896332,0.22013795375823975
1783170025184861000,6.86486083984375,0.28967976570129395,-0.2950761020183563,0.15417598187923431
1783170025194808800,6.874808837890625,0.4016787111759186,-0.3051721453666687,0.11360113322734833
1783170025204789000,6.8847890625,0.5217294692993164,-0.3328186869621277,0.08560092002153397
1783170025214737000,6.89473681640625,0.5774756073951721,-0.3405783474445343,0.052973467856645584
1783170025224685800,6.904685791015625,0.5615959763526917,-0.4205589294433594,0.01398452464491129
1783170025234634800,6.914634765625,0.4789407551288605,-0.5384264588356018,-0.01366467960178852
1783170025244614000,6.92461376953125,0.3123965263366699,-0.6609417200088501,-0.009533051401376724
1783170025254562800,6.934562744140625,0.11242001503705978,-0.7895697355270386,0.0080912159755826
1783170025264511000,6.944510986328125,-0.09265030920505524,-0.8589038252830505,0.027876371517777443
1783170025274491000,6.954490966796875,-0.30667710304260254,-0.7461082935333252,0.018162492662668228
1783170025284438800,6.964438720703125,-0.5023337006568909,-0.5588765740394592,-0.0356096588075161
1783170025294387700,6.9743876953125,-0.5492684245109558,-0.25349512696266174,-0.10988735407590866
1783170025304337000,6.9843369140625,-0.41684409976005554,0.29301854968070984,-0.18582525849342346
1783170025314315800,6.994315673828125,-0.08754636347293854,0.7794148325920105,-0.327677458524704
1783170025324264700,7.0042646484375,0.31788209080696106,0.8958098888397217,-0.623212993144989
1783170025334214000,7.0142138671875,0.5029116272926331,0.5942966341972351,-0.9677969813346863
1783170025344162000,7.024162109375,0.36210229992866516,-0.3112047612667084,-1.105830192565918
1783170025354142000,7.034141845703125,-0.021684788167476654,-0.516365647315979,-0.7259673476219177
1783170025364089900,7.04408984375,-0.3873445391654968,0.012526710517704487,-0.19129060208797455
1783170025374039000,7.0540390625,-0.4576983153820038,0.746277928352356,-0.04379941150546074
1783170025384018000,7.064017822265625,-0.2404099404811859,1.3590598106384277,-0.39161649346351624
1783170025393966800,7.073966796875,-0.05324165150523186,1.6271445751190186,-0.9594229459762573
1783170025403915800,7.083915771484375,-0.07314744591712952,1.643326759338379,-1.4280219078063965
1783170025413864000,7.093864013671875,-0.23006941378116608,1.4705463647842407,-1.7942595481872559
1783170025423843800,7.10384375,-0.4546745717525482,1.1627286672592163,-2.180150270462036
1783170025433792000,7.1137919921875,-0.7049131393432617,0.8680096864700317,-2.587782382965088
1783170025443741000,7.123740966796875,-0.9168435335159302,0.7515190243721008,-2.889162540435791
1783170025453689900,7.13368994140625,-1.09804105758667,0.9012259840965271,-3.0160298347473145
1783170025463668700,7.143668701171875,-1.2307153940200806,1.2139981985092163,-3.002967596054077
1783170025473618000,7.153617919921875,-1.2750850915908813,1.5965831279754639,-2.8765037059783936
1783170025483567000,7.163567138671875,-1.2799493074417114,1.9567214250564575,-2.669825315475464
1783170025493545700,7.173545654296875,-1.1978144645690918,2.1574065685272217,-2.3411738872528076
1783170025503495000,7.183494873046875,-0.9582391977310181,2.255614757537842,-1.896555781364441
1783170025513443000,7.193443115234375,-0.5057702660560608,2.1850526332855225,-1.368457555770874
1783170025523392000,7.20339208984375,0.1658446341753006,1.7916141748428345,-0.8194479942321777
1783170025533371000,7.213370849609375,0.851555347442627,1.0440773963928223,-0.2555987536907196
1783170025543320000,7.223320068359375,1.3128247261047363,0.12229102104902267,0.3377969563007355
1783170025553269000,7.23326904296875,1.5685571432113647,-0.7862929701805115,0.9117087125778198
1783170025563217000,7.243216796875,1.6252737045288086,-1.4829891920089722,1.32466459274292
1783170025573196800,7.25319677734375,1.4303412437438965,-1.8458918333053589,1.4464796781539917
1783170025583145000,7.26314501953125,1.047976016998291,-1.8698383569717407,1.2818230390548706
1783170025593094000,7.273093994140625,0.6459044218063354,-1.6176894903182983,0.9107052087783813
1783170025603072800,7.28307275390625,0.35189545154571533,-1.2888333797454834,0.4451282024383545
1783170025613022000,7.29302197265625,0.16445791721343994,-1.0326614379882812,0.02268587052822113
1783170025622971000,7.302970947265625,0.03067934885621071,-0.9521865844726562,-0.27875813841819763
1783170025632917800,7.312917724609375,-0.09158371388912201,-1.009652018547058,-0.42424580454826355
1783170025642897000,7.32289697265625,-0.18394772708415985,-1.0844184160232544,-0.41769471764564514
1783170025652845800,7.332845703125,-0.2618875503540039,-1.141068696975708,-0.2970353960990906
1783170025662794000,7.3427939453125,-0.3498237729072571,-1.1691956520080566,-0.11110841482877731
1783170025672743000,7.352742919921875,-0.46419110894203186,-1.1606460809707642,0.11995383352041245
1783170025682721800,7.3627216796875,-0.6104369759559631,-1.1133531332015991,0.3666563034057617
1783170025692670700,7.372670654296875,-0.8157997131347656,-1.0062495470046997,0.5852925181388855
1783170025702620000,7.382619873046875,-1.0995010137557983,-0.8897599577903748,0.7381025552749634
1783170025712598800,7.392598876953125,-1.4133864641189575,-0.7218069434165955,0.793200671672821
1783170025722547700,7.402547607421875,-1.7040326595306396,-0.49308106303215027,0.7363967895507812
1783170025732496600,7.41249658203125,-1.9438170194625854,-0.17893752455711365,0.5695230960845947
1783170025742444800,7.42244482421875,-2.1088826656341553,0.15049763023853302,0.3207945227622986
1783170025752423700,7.432423583984375,-2.1856648921966553,0.3589584231376648,0.03380297124385834
1783170025762372600,7.44237255859375,-2.1706676483154297,0.28900784254074097,-0.2615429162979126
1783170025772321800,7.45232177734375,-2.0376007556915283,-0.2699108421802521,-0.5614798665046692
1783170025782271000,7.46227099609375,-1.8668670654296875,-1.3721634149551392,-0.9559392929077148
1783170025792249900,7.472249755859375,-1.8062160015106201,-1.9898042678833008,-1.1783925294876099
1783170025802198800,7.48219873046875,-1.6469672918319702,-1.0936065912246704,-0.9154599905014038
1783170025812147000,7.49214697265625,-1.1951632499694824,0.31520456075668335,-0.39708212018013
1783170025822126800,7.502126953125,-0.6836760640144348,1.1584055423736572,0.1673000454902649
1783170025832075000,7.512074951171875,-0.2442086786031723,1.157008171081543,1.0336830615997314
1783170025842024000,7.52202392578125,0.24058277904987335,0.5296452045440674,2.227815628051758
1783170025851972900,7.531972900390625,0.4563637971878052,-0.9599974155426025,3.3056535720825195
1783170025861951700,7.54195166015625,0.3642202913761139,-2.358116626739502,4.004275321960449
1783170025871900700,7.551900634765625,0.2501949369907379,-2.8490042686462402,4.179784297943115
1783170025881849900,7.561849853515625,0.22296197712421417,-2.4401021003723145,3.7709200382232666
1783170025891797800,7.5717978515625,0.22426825761795044,-1.5782334804534912,2.8437914848327637
1783170025901777700,7.581777587890625,0.2313314974308014,-0.6191409826278687,1.6083050966262817
1783170025911725800,7.591725830078125,0.22135981917381287,0.1204712837934494,0.33717989921569824
1783170025921674800,7.6016748046875,0.17680592834949493,0.5864967703819275,-0.7018276453018188
1783170025931623700,7.611623779296875,0.11377929896116257,0.8704336881637573,-1.3755238056182861
1783170025941602800,7.621602783203125,0.025139441713690758,1.0766295194625854,-1.74062180519104
1783170025951552000,7.631552001953125,-0.11221282184123993,1.0649621486663818,-1.9234219789505005
1783170025961499600,7.641499755859375,-0.26176875829696655,0.8797193169593811,-2.005830764770508
1783170025971479800,7.651479736328125,-0.23761868476867676,0.7191504240036011,-1.9778149127960205
1783170025981428000,7.661427978515625,-0.03204847872257233,0.7384051084518433,-1.7666175365447998
1783170025991377000,7.671376953125,0.2550187110900879,0.8609554767608643,-1.371278166770935
1783170026001325800,7.681325927734375,0.5298574566841125,0.9967548847198486,-0.8356706500053406
1783170026011305000,7.691304931640625,0.7386327981948853,1.1042277812957764,-0.22874635457992554
1783170026021254000,7.70125390625,0.9133651852607727,1.180597186088562,0.36092278361320496
1783170026031202800,7.711202880859375,1.0663789510726929,1.21535325050354,0.851256251335144
1783170026041150700,7.721150634765625,1.1493617296218872,1.1684672832489014,1.200846791267395
1783170026051131000,7.731130859375,1.139796495437622,1.012587308883667,1.4106638431549072
1783170026061078800,7.741078857421875,1.03813636302948,0.8138085007667542,1.4700888395309448
1783170026071027700,7.75102783203125,0.8794591426849365,0.6095253825187683,1.3604580163955688
1783170026081006800,7.7610068359375,0.6836038827896118,0.42949172854423523,1.0948987007141113
1783170026090955800,7.770955810546875,0.4364311099052429,0.2540077865123749,0.6938333511352539
1783170026100904700,7.78090478515625,0.1354057639837265,0.035896748304367065,0.22746537625789642
1783170026110852600,7.7908525390625,-0.22957353293895721,-0.16195614635944366,-0.1806667149066925
1783170026120832800,7.800832763671875,-0.6659090518951416,-0.20242926478385925,-0.46017691493034363
1783170026130780700,7.81078076171875,-1.132266879081726,-0.07887990027666092,-0.6310061812400818
1783170026140729900,7.820729736328125,-1.5719451904296875,0.22407518327236176,-0.7007016539573669
1783170026150678800,7.8306787109375,-1.9506394863128662,0.6223881840705872,-0.7158340215682983
1783170026160658000,7.840657958984375,-2.2370283603668213,1.047752022743225,-0.7338588237762451
1783170026170606800,7.85060693359375,-2.430654287338257,1.4738572835922241,-0.8067127466201782
1783170026180555800,7.8605556640625,-2.59854793548584,1.8100908994674683,-0.9451870322227478
1783170026190535000,7.870534912109375,-2.7334632873535156,2.006521463394165,-1.0370043516159058
1783170026200483800,7.88048388671875,-2.809536933898926,2.0313210487365723,-1.0256781578063965
1783170026210431700,7.890431640625,-2.8321855068206787,1.923290491104126,-0.926421046257019
1783170026220380700,7.900380615234375,-2.783688545227051,1.8415098190307617,-0.7625961899757385
1783170026230359800,7.91035986328125,-2.6192526817321777,1.8930037021636963,-0.5993348360061646
1783170026240308700,7.920308837890625,-2.3955509662628174,2.059722423553467,-0.45989251136779785
1783170026250257700,7.930257568359375,-2.1817877292633057,2.020966053009033,-0.48169606924057007
1783170026260205800,7.940205810546875,-2.095235824584961,1.597375750541687,-0.8304036855697632
1783170026270185700,7.950185791015625,-2.26916241645813,0.6267661452293396,-1.4481431245803833
1783170026280133600,7.960133544921875,-2.3529019355773926,-0.7416219115257263,-2.1887013912200928
1783170026290082800,7.970082763671875,-1.6094456911087036,-1.0446974039077759,-3.259212017059326
1783170026300061700,7.980061767578125,-1.2010033130645752,-0.2960628271102905,-4.205715656280518
1783170026310011000,7.990010986328125,-0.8929765224456787,0.506507158279419,-4.195151329040527
1783170026319959800,7.999959716796875,-0.39185672998428345,0.7229278683662415,-3.554453134536743
1783170026329908700,8.00990869140625,0.11556707322597504,0.8487749695777893,-2.696321487426758
1783170026339887900,8.019887939453126,0.6861024498939514,0.7953352332115173,-1.6255327463150024
1783170026349836800,8.0298369140625,1.275652289390564,0.5209686160087585,-0.4375954568386078
1783170026359785000,8.039784912109376,1.8248780965805054,0.09076771885156631,0.6416133046150208
1783170026369734000,8.04973388671875,2.2567875385284424,-0.4688766598701477,1.5168334245681763
1783170026379712800,8.059712646484375,2.5175116062164307,-1.0601623058319092,2.1834492683410645
1783170026389661700,8.06966162109375,2.621955633163452,-1.6443736553192139,2.604433536529541
1783170026399611000,8.07961083984375,2.6659083366394043,-2.1632556915283203,2.7428667545318604
1783170026409589800,8.08958984375,2.726736307144165,-2.604928493499756,2.6300981044769287
1783170026419538700,8.09953857421875,2.7292633056640625,-2.984400987625122,2.307636022567749
1783170026429486800,8.10948681640625,2.630647659301758,-3.206639051437378,1.8217356204986572
1783170026439435800,8.119435791015626,2.485642671585083,-3.2564873695373535,1.2691035270690918
1783170026449414700,8.12941455078125,2.349252223968506,-3.0849692821502686,0.7433053255081177
1783170026459363600,8.139363525390625,2.25030255317688,-2.7504777908325195,0.32224488258361816
1783170026469313000,8.14931298828125,2.181851863861084,-2.357576370239258,0.05029619485139847
1783170026479262000,8.159261962890625,2.1259894371032715,-1.9401823282241821,-0.08782120048999786
1783170026489240800,8.16924072265625,2.0664076805114746,-1.5254205465316772,-0.16867849230766296
1783170026499189800,8.179189697265626,1.9877346754074097,-1.2219219207763672,-0.2588086426258087
1783170026509138000,8.189137939453126,1.8603838682174683,-1.0742459297180176,-0.37020257115364075
1783170026519117800,8.199117919921875,1.6539279222488403,-1.062342643737793,-0.4299926459789276
1783170026529065700,8.209065673828125,1.408881425857544,-1.0827670097351074,-0.3677913248538971
1783170026539015000,8.219014892578125,1.1758008003234863,-1.0952860116958618,-0.1768791675567627
1783170026548963800,8.2289638671875,0.9740482568740845,-1.0869446992874146,0.10011354833841324
1783170026558942700,8.238942626953126,0.8367779850959778,-1.1006413698196411,0.4136621654033661
1783170026568891600,8.2488916015625,0.777279794216156,-1.1492743492126465,0.7427582740783691
1783170026578839800,8.25883984375,0.7942009568214417,-1.2170255184173584,1.0687766075134277
1783170026588788700,8.268788818359376,0.8750148415565491,-1.2478824853897095,1.3506256341934204
1783170026598767900,8.278767822265625,0.9683288335800171,-1.2679874897003174,1.5269482135772705
1783170026608716800,8.288716796875,0.9905675649642944,-1.2691962718963623,1.5675514936447144
1783170026618665700,8.298665771484375,0.9223626852035522,-1.2398197650909424,1.504751205444336
1783170026628644600,8.30864453125,0.7904190421104431,-1.131224513053894,1.3802045583724976
1783170026638634800,8.318634765625,0.6367256045341492,-0.9423859119415283,1.2173306941986084
1783170026648583700,8.328583740234375,0.5107412934303284,-0.7635951042175293,1.0024646520614624
1783170026658531600,8.338531494140625,0.42413637042045593,-0.7418720126152039,0.7370708584785461
1783170026668511700,8.34851171875,0.3496445417404175,-1.2021229267120361,0.48775580525398254
1783170026678459600,8.358459716796874,0.21417354047298431,-2.4454774856567383,0.32450777292251587
1783170026688408600,8.36840869140625,-0.06944325566291809,-4.056642055511475,0.27942392230033875
1783170026698357500,8.378357421875,-0.3862494230270386,-5.264206409454346,0.39958760142326355
1783170026708336600,8.388336669921875,-0.7534149289131165,-5.147118091583252,0.6812243461608887
1783170026718285600,8.39828564453125,-1.258628010749817,-3.8366849422454834,0.9900972247123718
1783170026728234500,8.408234375,-1.6960806846618652,-2.19331955909729,1.0747103691101074
1783170026738213600,8.418213623046874,-1.710504412651062,-0.7037706971168518,0.8816962242126465
1783170026748162800,8.428162841796874,-1.3064751625061035,0.8659403920173645,0.734999418258667
1783170026758110500,8.4381103515625,-0.8244962692260742,2.0399062633514404,0.952649712562561
1783170026768059600,8.4480595703125,-0.4674076735973358,2.5382144451141357,1.5166335105895996
1783170026778038800,8.458038818359375,-0.22113531827926636,2.5653045177459717,2.2306461334228516
1783170026787987700,8.46798779296875,0.019599268212914467,2.1187331676483154,2.75169038772583
1783170026797936600,8.4779365234375,0.18394267559051514,1.4200794696807861,2.8902862071990967
1783170026807884800,8.487884765625,0.18955688178539276,0.8845585584640503,2.7524051666259766
1783170026817864700,8.49786474609375,0.14064686000347137,0.7097675800323486,2.5538225173950195
1783170026827812600,8.5078125,0.1682388037443161,0.6838595271110535,2.3071446418762207
1783170026837761500,8.517761474609374,0.19634181261062622,0.7128430008888245,1.9207329750061035
1783170026847740700,8.52774072265625,0.19560545682907104,0.8773014545440674,1.4286410808563232
1783170026857689600,8.537689697265625,0.18805299699306488,1.0814236402511597,0.8835002183914185
1783170026867638500,8.547638427734375,0.12202151119709015,1.2690199613571167,0.4752216637134552
1783170026877587500,8.55758740234375,0.038770031183958054,1.2695770263671875,0.2708631753921509
1783170026887566600,8.567566650390624,-0.06890023499727249,0.9026592969894409,0.1414647251367569
1783170026897515500,8.577515625,-0.23229049146175385,0.21032607555389404,-0.002852511825039983
1783170026907463400,8.58746337890625,-0.5239710807800293,-0.4765050411224365,-0.22529835999011993
1783170026917412600,8.59741259765625,-0.9015825390815735,-0.6996105313301086,-0.5084784030914307
1783170026927391500,8.6073916015625,-1.2121628522872925,-0.44603872299194336,-0.8360498547554016
1783170026937340700,8.617340576171875,-1.3841806650161743,0.12471556663513184,-1.220045804977417
1783170026947289600,8.62728955078125,-1.4101059436798096,0.7718996405601501,-1.6179022789001465
1783170026957268700,8.637268798828124,-1.2811594009399414,1.3518998622894287,-1.9369817972183228
1783170026967217700,8.6472177734375,-1.1007816791534424,1.7536449432373047,-2.1204371452331543
1783170026977165800,8.657165771484374,-0.9545328617095947,1.8316923379898071,-2.1766085624694824
1783170026987114800,8.66711474609375,-0.8924854397773743,1.6730926036834717,-2.1294901371002197
1783170026997093600,8.67709375,-0.9374316334724426,1.344085931777954,-2.0462658405303955
1783170027007042600,8.68704248046875,-1.051123857498169,0.8863998651504517,-1.990991473197937
1783170027016991500,8.696991455078125,-1.156530737876892,0.40304040908813477,-2.0300116539001465
1783170027026940700,8.706940673828125,-1.1757512092590332,-0.0916614755988121,-2.177424192428589
1783170027036919600,8.71691943359375,-1.096631646156311,-0.4906083345413208,-2.440014600753784
1783170027046868500,8.726868408203124,-0.9559491276741028,-0.6405373811721802,-2.748800277709961
1783170027056816600,8.736816650390624,-0.8103287816047668,-0.47908616065979004,-2.9667153358459473
1783170027066765600,8.746765625,-0.726326048374176,-0.02143098972737789,-2.9660561084747314
1783170027076744400,8.756744384765625,-0.6896268725395203,0.5111303925514221,-2.623417615890503
1783170027086693600,8.766693603515625,-0.6877949237823486,0.8204954266548157,-1.9313428401947021
1783170027096642800,8.776642822265625,-0.7211943864822388,0.7306773662567139,-1.0116573572158813
1783170027106621700,8.78662158203125,-0.7677571177482605,0.20679046213626862,-0.018093783408403397
1783170027116570600,8.796570556640624,-0.8616071939468384,-0.6930908560752869,0.7977808117866516
1783170027126518800,8.806518798828124,-1.0930649042129517,-1.7629311084747314,1.2936052083969116
1783170027136467700,8.8164677734375,-1.378221035003662,-2.618091106414795,1.5139700174331665
1783170027146446600,8.826446533203125,-1.5546956062316895,-2.865657091140747,1.5033605098724365
1783170027156395800,8.836395751953125,-1.608748197555542,-2.4894073009490967,1.255009651184082
1783170027166344700,8.8463447265625,-1.5464757680892944,-1.4878002405166626,0.8615691065788269
1783170027176293600,8.856293701171875,-1.357617974281311,-0.04559971019625664,0.4718644618988037
1783170027186272500,8.8662724609375,-1.1000956296920776,1.202509880065918,0.23050351440906525
1783170027196221700,8.8762216796875,-0.9126210808753967,1.9834067821502686,0.17300666868686676
1783170027206169600,8.886169677734374,-0.8431229591369629,2.1721599102020264,0.2535129487514496
1783170027216149500,8.8961494140625,-0.8780231475830078,1.7324637174606323,0.4308757483959198
1783170027226097700,8.90609765625,-0.9752285480499268,0.9169117212295532,0.6404479146003723
1783170027236046600,8.916046630859375,-1.0618345737457275,0.1978406459093094,0.8035305738449097
1783170027245995500,8.92599560546875,-1.0492548942565918,-0.2997172176837921,0.8454591035842896
1783170027255974700,8.935974609375,-0.8418731689453125,-0.692171037197113,0.7564970254898071
1783170027265923800,8.945923828125,-0.3901488482952118,-0.7262424230575562,0.580333948135376
1783170027275871500,8.95587158203125,0.20046359300613403,-0.4592594504356384,0.3682006597518921
1783170027285820700,8.965820556640624,0.6241030097007751,-0.3770178556442261,0.10099133104085922
1783170027295799800,8.9757998046875,0.5569109320640564,-0.4104498326778412,-0.1521376073360443
1783170027305748700,8.985748779296875,0.18637414276599884,-0.3694494068622589,-0.31153231859207153
1783170027315697700,8.99569775390625,-0.13252368569374084,-0.2100192755460739,-0.3820733428001404
1783170027325676800,9.0056767578125,-0.2101963758468628,0.07348566502332687,-0.421408474445343
1783170027335625700,9.015625732421874,-0.05402834713459015,0.4566868543624878,-0.45985147356987
1783170027345574700,9.02557470703125,0.24518819153308868,0.8809446692466736,-0.4618206322193146
1783170027355522600,9.0355224609375,0.5870144963264465,1.201676607131958,-0.3918878734111786
1783170027365502700,9.045502685546875,0.850054144859314,1.3051114082336426,-0.24354474246501923
1783170027375450600,9.05545068359375,0.9791883826255798,1.1705421209335327,-0.04578213393688202
1783170027385399600,9.065399658203125,0.9612472057342529,0.866493284702301,0.1197144165635109
1783170027395348500,9.075348388671875,0.8299232721328735,0.5434854030609131,0.16858288645744324
1783170027405327600,9.08532763671875,0.628233015537262,0.27891233563423157,0.12763093411922455
1783170027415276500,9.095276611328124,0.416398823261261,0.039805203676223755,0.12603755295276642
1783170027425224400,9.105224365234376,0.2826700508594513,-0.19288130104541779,0.24297615885734558
1783170027435204900,9.115204833984375,0.21219374239444733,-0.3836856186389923,0.45364633202552795
1783170027445152500,9.125152587890625,0.1884588599205017,-0.4897092580795288,0.6326631903648376
1783170027455101700,9.135101806640625,0.22610662877559662,-0.4923572242259979,0.7302395701408386
1783170027465050600,9.145050537109375,0.3291504681110382,-0.41021469235420227,0.7392109632492065
1783170027475029800,9.15502978515625,0.45295149087905884,-0.3540012240409851,0.6668952107429504
1783170027484978700,9.164978759765624,0.557233452796936,-0.4157316982746124,0.5232911705970764
1783170027494927600,9.174927734375,0.6112801432609558,-0.5429508686065674,0.3325992524623871
1783170027504875800,9.184875732421874,0.6004602909088135,-0.6646419167518616,0.1486259549856186
1783170027514855700,9.194855712890625,0.5385396480560303,-0.7387832403182983,-0.03706374391913414
1783170027524803600,9.204803466796875,0.47778308391571045,-0.7394999265670776,-0.20909516513347626
1783170027534752500,9.21475244140625,0.3567677140235901,-0.7700293064117432,-0.41213110089302063
1783170027544731600,9.224731689453124,0.22130842506885529,-0.784535825252533,-0.5683545470237732
1783170027554680600,9.2346806640625,0.10791927576065063,-0.7800023555755615,-0.6261283159255981
1783170027564629500,9.24462939453125,-0.0046304380521178246,-0.7748312950134277,-0.6148778200149536
1783170027574578400,9.254578369140624,-0.11490288376808167,-0.759505569934845,-0.5613996982574463
1783170027584557600,9.2645576171875,-0.1997258961200714,-0.7547065615653992,-0.46881622076034546
1783170027594505500,9.27450537109375,-0.2377089560031891,-0.7795711755752563,-0.3443075716495514
1783170027604454400,9.284454345703125,-0.22071079909801483,-0.8280137777328491,-0.22537772357463837
1783170027614403800,9.29440380859375,-0.18887057900428772,-0.9330155849456787,-0.15674008429050446
1783170027624382700,9.3043828125,-0.1472965031862259,-1.0910600423812866,-0.19130924344062805
1783170027634347000,9.314346923828126,-0.1290099173784256,-1.2766730785369873,-0.3426598906517029
1783170027644296000,9.3242958984375,-0.13746730983257294,-1.454469919204712,-0.5919011235237122
1783170027654274800,9.33427490234375,-0.15760880708694458,-1.6757973432540894,-0.8996341824531555
1783170027664224000,9.34422412109375,-0.1739124059677124,-1.7764517068862915,-1.1839370727539062
1783170027674172000,9.354171875,-0.2438424825668335,-1.5754663944244385,-1.371131420135498
1783170027684120800,9.364120849609375,-0.2138821929693222,-1.1030991077423096,-1.4252349138259888
1783170027694100000,9.374099853515625,-0.040100015699863434,-0.6042875051498413,-1.3528927564620972
1783170027704049000,9.384048828125,0.23791243135929108,-0.14464400708675385,-1.325188159942627
1783170027713997800,9.393997802734376,0.5212831497192383,-0.1189117431640625,-1.4973831176757812
1783170027723946800,9.40394677734375,0.5349976420402527,-1.0443609952926636,-2.0602238178253174
1783170027733926000,9.41392578125,0.4883244037628174,-1.9850393533706665,-2.9101152420043945
1783170027743874800,9.423874755859375,0.6090319156646729,-2.327202320098877,-3.6635704040527344
1783170027753822700,9.43382275390625,0.7987616062164307,-1.8846697807312012,-4.012179374694824
1783170027763803000,9.443802978515626,0.902743935585022,-1.0670268535614014,-3.899794578552246
1783170027773750800,9.453750732421875,0.9120756983757019,-0.40594616532325745,-3.5685665607452393
1783170027783700000,9.463699951171876,0.9766578674316406,-0.22635777294635773,-3.233039617538452
1783170027793649000,9.47364892578125,1.1569347381591797,-0.44547200202941895,-2.8723292350769043
1783170027803628000,9.4836279296875,1.2908294200897217,-0.8062970638275146,-2.4203574657440186
1783170027813577000,9.493576904296875,1.2176259756088257,-1.0006073713302612,-1.9411530494689941
1783170027823524900,9.50352490234375,0.9358068108558655,-1.1064560413360596,-1.575775146484375
1783170027833474000,9.51347412109375,0.5364386439323425,-1.0510210990905762,-1.438323736190796
1783170027843453000,9.523452880859375,0.2590307593345642,-0.9971714019775391,-1.470536231994629
1783170027853401900,9.53340185546875,0.26811346411705017,-0.9426879286766052,-1.5781620740890503
1783170027863350800,9.543350830078126,0.545593798160553,-0.7579028606414795,-1.7160890102386475
1783170027873330000,9.553329833984375,0.9857267141342163,-0.33423149585723877,-1.8550469875335693
1783170027883278800,9.56327880859375,1.442855954170227,0.19498147070407867,-2.012213706970215
1783170027893227800,9.573227783203125,1.697497844696045,0.5772758722305298,-2.2964835166931152
1783170027903176000,9.583176025390625,1.570634365081787,0.6992118954658508,-2.716531991958618
1783170027913155800,9.59315576171875,1.1846799850463867,0.7694737911224365,-3.017961263656616
1783170027923103700,9.603103759765625,0.8031132221221924,0.9034755229949951,-2.99588680267334
1783170027933052700,9.613052734375,0.54849773645401,1.0375912189483643,-2.617370367050171
1783170027943002000,9.623002197265626,0.400222510099411,1.132633090019226,-1.9956989288330078
1783170027952981000,9.63298095703125,0.3759920001029968,1.134818434715271,-1.2444310188293457
1783170027962930000,9.642929931640625,0.5028098821640015,1.003746509552002,-0.4541957378387451
1783170027972878000,9.652878173828125,0.7169354557991028,0.8293677568435669,0.3024253845214844
1783170027982858000,9.66285791015625,0.9332941174507141,0.6894793510437012,0.9699757099151611
1783170027992806000,9.672805908203125,1.0678900480270386,0.5960087776184082,1.4952235221862793
1783170028002754800,9.6827548828125,1.0614705085754395,0.5388674736022949,1.847543478012085
1783170028012704000,9.6927041015625,0.9257915019989014,0.5082837343215942,2.0712757110595703
1783170028022683000,9.702682861328125,0.7380330562591553,0.5987430810928345,2.206246852874756
1783170028032631800,9.7126318359375,0.587732195854187,0.7281180620193481,2.288449764251709
1783170028042580700,9.722580810546875,0.49737995862960815,0.8452276587486267,2.3342883586883545
1783170028052529000,9.73252880859375,0.48680055141448975,0.943372905254364,2.3448147773742676
1783170028062508800,9.7425087890625,0.5361510515213013,1.0271002054214478,2.3088607788085938
1783170028072457000,9.75245703125,0.6327950358390808,1.0982301235198975,2.2187201976776123
1783170028082406000,9.762406005859376,0.7035597562789917,1.088720440864563,2.079228162765503
1783170028092354800,9.772354736328126,0.6942546367645264,0.9967519640922546,1.938914179801941
1783170028102333700,9.782333740234375,0.6272277235984802,0.8510860800743103,1.8399569988250732
1783170028112283000,9.792282958984375,0.5372090935707092,0.6724279522895813,1.8086392879486084
1783170028122230800,9.802230712890625,0.4658854007720947,0.5108486413955688,1.8206250667572021
1783170028132211000,9.8122109375,0.40590277314186096,0.1698814481496811,1.838781476020813
1783170028142159000,9.8221591796875,0.5157211422920227,-0.473002165555954,1.8354082107543945
1783170028152108000,9.83210791015625,0.9252649545669556,-1.076148271560669,1.851958990097046
1783170028162057000,9.842056884765626,1.5414378643035889,-1.338932991027832,1.9454569816589355
1783170028172035800,9.852035888671875,2.23988938331604,-1.3737589120864868,2.1864140033721924
1783170028181985000,9.861985107421875,2.7808821201324463,-1.1855157613754272,2.6183483600616455
1783170028191934000,9.871933837890625,2.9841513633728027,-1.0271250009536743,3.220960855484009
1783170028201881900,9.8818818359375,3.0583906173706055,-1.134590744972229,3.8717501163482666
1783170028211861800,9.89186181640625,3.1011221408843994,-1.2639594078063965,4.384822845458984
1783170028221810000,9.901809814453125,3.0808446407318115,-1.4522722959518433,4.618577480316162
1783170028231758800,9.9117587890625,2.921797752380371,-1.8129684925079346,4.4462738037109375
1783170028241737700,9.92173779296875,2.5306766033172607,-2.512688636779785,3.789440393447876
1783170028251687000,9.93168701171875,2.022087574005127,-3.363895893096924,2.747603416442871
1783170028261635800,9.9416357421875,1.6367833614349365,-3.9100093841552734,1.6737871170043945
1783170028271583700,9.951583740234375,1.4086545705795288,-3.9100475311279297,0.8716041445732117
1783170028281564000,9.96156396484375,1.2768371105194092,-3.1165876388549805,0.3655577301979065
1783170028291511800,9.97151171875,1.1690691709518433,-1.8316164016723633,-0.012811136431992054
1783170028301461000,9.9814609375,0.9324749708175659,-0.7281098365783691,-0.49677568674087524
1783170028311410000,9.991409912109376,0.4750078022480011,0.02429814822971821,-1.2098056077957153
1783170028321389000,10.00138916015625,-0.07056737691164017,0.6391655802726746,-2.101374864578247
1783170028331338000,10.011337890625,-0.5516895055770874,1.267640471458435,-2.9900805950164795
1783170028341287000,10.021286865234375,-0.9124418497085571,1.915248990058899,-3.743159770965576
1783170028351265800,10.031265869140626,-1.1008045673370361,2.512956380844116,-4.299846649169922
1783170028361215000,10.041215087890626,-1.0528138875961304,2.981940984725952,-4.658871173858643
1783170028371163000,10.051162841796875,-0.843413770198822,3.2267611026763916,-4.801708221435547
1783170028381111800,10.06111181640625,-0.6044821739196777,3.236846923828125,-4.697372913360596
1783170028391091000,10.071091064453125,-0.4098881781101227,2.994913339614868,-4.317595958709717
1783170028401040000,10.081039794921875,-0.26403671503067017,2.539837121963501,-3.659079074859619
1783170028410988800,10.09098876953125,-0.17270919680595398,1.9562726020812988,-2.761936664581299
1783170028420937700,10.100937744140625,-0.17611829936504364,1.283936619758606,-1.755799412727356
1783170028430916900,10.110916748046876,-0.2790939509868622,0.5700653195381165,-0.8067705631256104
1783170028440864800,10.12086474609375,-0.4246990978717804,-0.09365005791187286,0.0034762241411954165
1783170028450813700,10.130813720703125,-0.5423210859298706,-0.6239868998527527,0.6218888759613037
1783170028460792800,10.140792724609375,-0.5956849455833435,-0.9618123173713684,1.047995924949646
1783170028470742000,10.150741943359375,-0.6025569438934326,-1.117385745048523,1.2821725606918335
1783170028480691000,10.16069091796875,-0.5767245888710022,-1.1207244396209717,1.339827537536621
1783170028490640000,10.170639892578125,-0.5300265550613403,-0.9472419023513794,1.2787606716156006
1783170028500619000,10.180618896484376,-0.4790797829627991,-0.6820952296257019,1.15117609500885
1783170028510568000,10.19056787109375,-0.46098652482032776,-0.4282709062099457,0.9899305105209351
1783170028520515800,10.200515869140625,-0.5015360713005066,-0.23855479061603546,0.8117480278015137
1783170028530464800,10.21046484375,-0.6200273036956787,-0.16881884634494781,0.6311947107315063
1783170028540444000,10.22044384765625,-0.7794321179389954,-0.2364884316921234,0.464069128036499
1783170028550392800,10.230392822265625,-0.9359024167060852,-0.4310925304889679,0.3059695065021515
1783170028560341800,10.240341796875,-1.0988987684249878,-0.6860122084617615,0.1538763791322708
1783170028570321000,10.25032080078125,-1.2565404176712036,-0.8578705191612244,0.029680131003260612
1783170028580269800,10.260269775390626,-1.3894331455230713,-0.9336081147193909,-0.06420028954744339
1783170028590218800,10.27021875,-1.493436336517334,-0.9673370718955994,-0.14326262474060059
1783170028600167000,10.2801669921875,-1.5135698318481445,-0.938447117805481,-0.2173304557800293
1783170028610145800,10.290145751953125,-1.4510289430618286,-0.8768276572227478,-0.29385027289390564
1783170028620094700,10.3000947265625,-1.275346040725708,-0.9165809154510498,-0.38312020897865295
1783170028630044000,10.3100439453125,-0.9665958881378174,-1.0833920240402222,-0.5102933645248413
1783170028640013600,10.320013671875,-0.5727641582489014,-1.4206204414367676,-0.6569688320159912
1783170028649992700,10.32999267578125,-0.3617939054965973,-1.7493897676467896,-0.7250770330429077
1783170028659941600,10.339941650390625,-0.3456772267818451,-1.7507522106170654,-0.6585035920143127
1783170028669889800,10.349889892578124,-0.352926105260849,-1.4544731378555298,-0.44509491324424744
1783170028679869700,10.35986962890625,-0.16679750382900238,-1.0665736198425293,-0.07884421199560165
1783170028689817600,10.369817626953125,0.23637977242469788,-0.9246476888656616,0.37935638427734375
1783170028699766500,10.3797666015625,0.6577043533325195,-1.3306050300598145,0.8169193267822266
1783170028709715700,10.3897158203125,0.8102337121963501,-2.090485095977783,1.1596729755401611
1783170028719694600,10.399694580078124,0.6529865860939026,-2.7309188842773438,1.4634720087051392
1783170028729643500,10.4096435546875,0.5427647233009338,-2.6827597618103027,1.9077794551849365
1783170028739592400,10.419592529296875,0.6357945799827576,-2.0220580101013184,2.4915294647216797
1783170028749540600,10.42954052734375,0.7500295042991638,-1.2786024808883667,2.973843812942505
1783170028759520500,10.4395205078125,0.7477394342422485,-0.788185179233551,3.158773183822632
1783170028769468700,10.44946875,0.6831117272377014,-0.431793212890625,3.0627546310424805
1783170028779417600,10.45941748046875,0.6761563420295715,-0.1305428296327591,2.8220672607421875
1783170028789396500,10.469396484375,0.7017536163330078,0.011681423522531986,2.4820716381073
1783170028799345700,10.479345703125,0.698242723941803,-0.07363028079271317,1.9070571660995483
1783170028809294600,10.489294677734375,0.6941848993301392,-0.46834510564804077,0.5874667167663574
1783170028819242800,10.49924267578125,0.7463796734809875,-1.1205297708511353,-1.2765218019485474
1783170028829222700,10.50922265625,0.6839306354522705,-1.211156964302063,-2.738112211227417
1783170028839170800,10.5191708984375,0.6602687239646912,0.03380962833762169,-3.682446241378784
1783170028849119700,10.52911962890625,0.8085274696350098,1.7448064088821411,-4.309064865112305
1783170028859068700,10.539068603515625,0.9553022384643555,3.1362316608428955,-4.705886363983154
1783170028869047600,10.549047607421874,0.9745385050773621,4.042839527130127,-4.900181293487549
1783170028878996700,10.558996826171875,0.8797664642333984,4.573768138885498,-4.910239219665527
1783170028888945700,10.568945556640625,0.7048228979110718,4.8669023513793945,-4.782142639160156
1783170028898924500,10.578924560546875,0.3641718327999115,5.003043174743652,-4.560400009155273
1783170028908873500,10.58887353515625,-0.32904472947120667,4.720172882080078,-4.310694217681885
1783170028918821600,10.598821533203125,-0.9926043152809143,4.170666694641113,-3.9808661937713623
1783170028928770600,10.6087705078125,-1.138319969177246,3.535019636154175,-3.4711079597473145
1783170028938749400,10.61874951171875,-0.8978091478347778,2.8616347312927246,-2.731356143951416
1783170028948698600,10.62869873046875,-0.5773544311523438,2.2795639038085938,-1.8441994190216064
1783170028958647800,10.638647705078125,-0.31229424476623535,1.855163335800171,-0.9645716547966003
1783170028968595700,10.648595703125,-0.09228305518627167,1.5088272094726562,-0.16664597392082214
1783170028978575600,10.65857568359375,0.11332602798938751,1.199292778968811,0.5733386278152466
1783170028988523800,10.668523681640625,0.28843578696250916,0.9452866315841675,1.299789309501648
1783170028998472700,10.67847265625,0.41051536798477173,0.749184250831604,1.9702832698822021
1783170029008451600,10.68845166015625,0.4502020478248596,0.6512675285339355,2.5078792572021484
1783170029018400800,10.69840087890625,0.3718811571598053,0.6178848147392273,2.8698127269744873
1783170029028349700,10.708349609375,0.20760032534599304,0.5832210779190063,3.058530330657959
1783170029038298600,10.718298583984375,0.02040167711675167,0.5820556879043579,3.0821726322174072
1783170029048277500,10.728277587890625,-0.1254817545413971,0.5874043703079224,2.9521167278289795
1783170029058226700,10.738226806640625,-0.2460087090730667,0.509037435054779,2.6769344806671143
1783170029068174600,10.748174560546875,-0.3707634210586548,0.41126424074172974,2.3024020195007324
1783170029078123500,10.75812353515625,-0.5408435463905334,0.42449694871902466,1.89825439453125
1783170029088102700,10.7681025390625,-0.7526947855949402,0.6419895887374878,1.5266581773757935
1783170029098051600,10.778051513671874,-0.9016334414482117,0.9992843270301819,1.21760094165802
1783170029108000500,10.78800048828125,-0.9145739674568176,1.3277945518493652,0.9566420912742615
1783170029117948400,10.797948486328124,-0.8199430704116821,1.6005616188049316,0.7402916550636292
1783170029127928800,10.8079287109375,-0.746200680732727,1.7411798238754272,0.5775567889213562
1783170029137876700,10.817876708984375,-0.7589734792709351,1.736344814300537,0.5199875235557556
1783170029147825700,10.82782568359375,-0.7710732817649841,1.618078351020813,0.6086899638175964
1783170029157804800,10.8378046875,-0.7272144556045532,1.2812550067901611,0.8360688090324402
1783170029167753700,10.847753662109374,-0.6969606876373291,0.6307353377342224,1.197884202003479
1783170029177702700,10.85770263671875,-0.7105457782745361,-0.13744893670082092,1.8527278900146484
1783170029187651600,10.867651611328125,-0.7151474356651306,-0.9850297570228577,2.8870105743408203
1783170029197630700,10.877630615234375,-0.7508111596107483,-1.8487317562103271,4.211755275726318
1783170029207579600,10.88757958984375,-0.6816605925559998,-2.6649513244628906,5.5885467529296875
1783170029217527600,10.897527587890625,-0.19692957401275635,-2.656573534011841,6.105644226074219
1783170029227476500,10.9074765625,0.5178338289260864,-2.693030595779419,5.311091899871826
1783170029237455600,10.91745556640625,1.0108387470245361,-2.148390769958496,4.008605003356934
1783170029247404500,10.927404541015624,1.2058137655258179,-1.123210072517395,2.686323404312134
1783170029257353500,10.937353515625,1.3059438467025757,-0.9193764925003052,1.033331274986267
1783170029267332600,10.94733251953125,0.8958048224449158,-1.2259845733642578,-0.49912992119789124
1783170029277281500,10.957281494140625,0.181900292634964,-0.6710561513900757,-1.4785833358764648
1783170029287229400,10.9672294921875,-0.27839168906211853,0.2725769281387329,-2.136878252029419
1783170029297178600,10.9771787109375,-0.4391629695892334,0.8430632948875427,-2.788069486618042
1783170029307157500,10.987157470703124,-0.40064647793769836,1.250015377998352,-3.413022518157959
1783170029317106700,10.997106689453124,0.0035582494456321,1.836169719696045,-3.8758158683776855
1783170029327055600,11.0070556640625,0.5481083989143372,1.7877304553985596,-4.259986400604248
1783170029337004500,11.017004638671875,0.8437866568565369,0.9965735077857971,-4.5055975914001465
1783170029346983700,11.026983642578125,0.8967955112457275,1.0788977146148682,-4.239962577819824
1783170029356932600,11.0369326171875,0.7980377674102783,1.6902859210968018,-3.5349247455596924
1783170029366880800,11.046880859375,0.43211519718170166,2.10357666015625,-2.6759355068206787
1783170029376860700,11.056860595703125,0.04982268437743187,2.24399471282959,-1.8428925275802612
1783170029386808600,11.06680859375,-0.10799757391214371,2.053933620452881,-1.1182496547698975
1783170029396757500,11.076757568359374,-0.08510530740022659,1.6262893676757812,-0.5655137300491333
1783170029406706700,11.086706787109375,0.05155480280518532,1.0860493183135986,-0.1422942876815796
1783170029416685600,11.096685546875,0.27827557921409607,0.4432027339935303,0.18792249262332916
1783170029426634500,11.106634521484375,0.5065510869026184,-0.2080080658197403,0.42587408423423767
1783170029436583400,11.11658349609375,0.678514838218689,-0.6701908707618713,0.6418585777282715
1783170029446531600,11.126531494140625,0.782960057258606,-0.8491611480712891,0.8196024894714355
1783170029456510500,11.136510498046874,0.8518839478492737,-0.8054459095001221,0.8885226845741272
1783170029466459600,11.146459716796874,0.8800445199012756,-0.6321348547935486,0.8697508573532104
1783170029476408800,11.156408935546875,0.8578891158103943,-0.40483802556991577,0.7923396825790405
1783170029486387700,11.1663876953125,0.8003880381584167,-0.13718768954277039,0.675589382648468
1783170029496336600,11.176336669921875,0.7092506885528564,0.09890713542699814,0.5713122487068176
1783170029506285600,11.18628564453125,0.6183151602745056,0.19792240858078003,0.5133171081542969
1783170029516233700,11.196233642578125,0.5657411813735962,0.14012888073921204,0.519508421421051
1783170029526213600,11.206213623046875,0.5066991448402405,-0.036557745188474655,0.5717173218727112
1783170029536161500,11.21616162109375,0.38918638229370117,-0.24003790318965912,0.6256577372550964
1783170029546110700,11.22611083984375,0.2434542030096054,-0.3452546000480652,0.6371825933456421
1783170029556059600,11.2360595703125,0.0967065691947937,-0.3776026964187622,0.6237040758132935
1783170029566038500,11.24603857421875,-0.00040719733806326985,-0.3552505075931549,0.6146913766860962
1783170029575987500,11.255987548828125,-0.017829863354563713,-0.3422550857067108,0.6126053333282471
1783170029585936600,11.2659365234375,0.036548957228660583,-0.281723290681839,0.5933307409286499
1783170029595915500,11.27591552734375,0.13244539499282837,-0.20644532144069672,0.5513592958450317
1783170029605864400,11.285864501953125,0.2172612100839615,-0.2191544473171234,0.5459837317466736
1783170029615812600,11.2958125,0.24956296384334564,-0.28353530168533325,0.6194544434547424
1783170029625761800,11.30576171875,0.2744289040565491,-0.40005579590797424,0.7162811160087585
1783170029635768300,11.315768310546876,0.3425629436969757,-0.49878424406051636,0.8046762347221375
1783170029645717500,11.325717529296876,0.5145400166511536,-0.8347619771957397,0.7585662603378296
1783170029655666400,11.33566650390625,0.6584732532501221,-1.3521169424057007,0.7374825477600098
1783170029665614300,11.3456142578125,0.8502005934715271,-1.6669808626174927,0.7814047336578369
1783170029675594200,11.35559423828125,1.103266716003418,-1.3488599061965942,0.8211918473243713
1783170029685542400,11.36554248046875,1.213545560836792,-0.3163273334503174,0.7560650110244751
1783170029695491300,11.3754912109375,1.1884492635726929,0.8313251733779907,0.6561323404312134
1783170029705470200,11.38547021484375,1.0215760469436646,1.2532471418380737,0.6123515367507935
1783170029715419400,11.39541943359375,0.5147770643234253,0.5945562720298767,0.6521719098091125
1783170029725368600,11.40536865234375,-0.24392718076705933,-0.5979539752006531,0.8407554030418396
1783170029735317500,11.4153173828125,-0.749716579914093,-1.6039824485778809,1.135851263999939
1783170029745296400,11.42529638671875,-1.078701376914978,-2.029696464538574,1.3446673154830933
1783170029755245600,11.43524560546875,-1.3999305963516235,-1.7160747051239014,1.4836361408233643
1783170029765193500,11.445193359375,-1.5088772773742676,-0.9370289444923401,1.246581792831421
1783170029775142400,11.455142333984375,-1.414043664932251,-0.0926593616604805,0.6589113473892212
1783170029785121500,11.46512158203125,-1.166651725769043,0.22801239788532257,0.15856780111789703
1783170029795070500,11.475070556640626,-0.859480619430542,-0.1528657078742981,-0.19732052087783813
1783170029805019400,11.485019287109376,-0.6429816484451294,-0.7625280022621155,-0.5552880167961121
1783170029814998300,11.494998291015625,-0.48740774393081665,-1.0263127088546753,-0.7258972525596619
1783170029824947500,11.504947509765625,-0.4443982243537903,-0.8948482275009155,-0.6657971739768982
1783170029834895400,11.514895263671875,-0.42959877848625183,-0.5139016509056091,-0.49445605278015137
1783170029844844300,11.52484423828125,-0.4627375602722168,-0.15277010202407837,-0.37211525440216064
1783170029854823400,11.534823486328126,-0.5334631204605103,-0.07141426205635071,-0.25087058544158936
1783170029864772400,11.5447724609375,-0.5946692228317261,-0.2606254518032074,-0.1758677065372467
1783170029874721300,11.55472119140625,-0.6644879579544067,-0.5943270325660706,-0.19517694413661957
1783170029884670500,11.56467041015625,-0.6751039028167725,-0.8577069640159607,-0.29581141471862793
1783170029894649300,11.5746494140625,-0.6028568148612976,-0.7862298488616943,-0.4596072733402252
1783170029904598500,11.5845986328125,-0.5077710747718811,-0.42388415336608887,-0.6176459193229675
1783170029914546400,11.59454638671875,-0.44744807481765747,-0.0025454494170844555,-0.716611385345459
1783170029924526300,11.6045263671875,-0.4212002158164978,0.29542258381843567,-0.7229600548744202
1783170029934474500,11.614474609375,-0.40656137466430664,0.3779433071613312,-0.6439304947853088
1783170029944423400,11.62442333984375,-0.37569719552993774,0.2452062964439392,-0.5161826610565186
1783170029954372400,11.634372314453126,-0.2549009919166565,0.08505018055438995,-0.3832128942012787
1783170029964351500,11.6443515625,-0.11391724646091461,-0.030255906283855438,-0.2796473503112793
1783170029974300400,11.654300537109375,0.004618453793227673,-0.093266561627388,-0.18554136157035828
1783170029984248300,11.664248291015625,0.15258155763149261,-0.1307569444179535,-0.09439095109701157
1783170029994197200,11.674197265625,0.2974338233470917,-0.06395714730024338,0.02989797852933407
1783170030004176400,11.68417626953125,0.3715530335903168,0.09482504427433014,0.17333130538463593
1783170030014125300,11.694125244140626,0.4010765850543976,0.17764003574848175,0.28191983699798584
1783170030024074200,11.70407421875,0.39931195974349976,0.1230154037475586,0.31865599751472473
1783170030034023200,11.714023193359376,0.29815366864204407,-0.11150842159986496,0.28907307982444763
1783170030044002300,11.724002197265625,0.09851112961769104,-0.4205152690410614,0.23460930585861206
1783170030053951500,11.733951416015625,-0.03133368864655495,-0.4534868001937866,0.11996448785066605
1783170030063899400,11.7438994140625,-0.08274894207715988,-0.14013554155826569,-0.08286985009908676
1783170030073879600,11.753879638671876,-0.14563895761966705,0.31881019473075867,-0.3194182217121124
1783170030083827500,11.763827392578126,-0.22410713136196136,0.6760581135749817,-0.4677349627017975
1783170030093776400,11.7737763671875,-0.3042975664138794,0.8019071221351624,-0.5330207943916321
1783170030103725300,11.783725341796876,-0.3896777331829071,0.7427420616149902,-0.5186753869056702
1783170030113704400,11.793704345703125,-0.4327056109905243,0.5363984704017639,-0.43268725275993347
1783170030123653400,11.8036533203125,-0.3904383182525635,0.30127862095832825,-0.2734981179237366
1783170030133601500,11.8136015625,-0.23337146639823914,0.09066519141197205,-0.09326150268316269
1783170030143550500,11.823550537109375,0.015977367758750916,0.08144159615039825,0.070066437125206
1783170030153529300,11.833529296875,0.28913459181785583,0.3298404812812805,0.22404322028160095
1783170030163478300,11.843478271484376,0.6295100450515747,0.7149852514266968,0.4089456796646118
1783170030173427500,11.853427490234376,0.9680300354957581,0.8629752397537231,0.4596991539001465
1783170030183406300,11.86340625,1.1842728853225708,0.6900953650474548,0.35187894105911255
1783170030193355300,11.873355224609375,1.3162716627120972,0.23382820188999176,0.17616677284240723
1783170030203304200,11.88330419921875,1.3293951749801636,-0.1153753250837326,-0.011690477840602398
1783170030213252400,11.89325244140625,0.9988558292388916,-0.2296430468559265,-0.3286372721195221
1783170030223232300,11.903232177734376,0.36005324125289917,-0.09474541991949081,-0.6258494853973389
1783170030233180200,11.91318017578125,-0.33522433042526245,0.13829901814460754,-0.8332067131996155
1783170030243129600,11.923129638671876,-0.8402877449989319,0.4200761020183563,-0.9656267762184143
1783170030253078500,11.93307861328125,-1.134078860282898,0.7693867087364197,-1.064592719078064
1783170030263057400,11.943057373046875,-1.2976502180099487,0.8766910433769226,-1.173344612121582
1783170030273006300,11.95300634765625,-1.422916054725647,0.5019661784172058,-1.3937618732452393
1783170030282955500,11.96295556640625,-1.491496205329895,-0.06915776431560516,-1.717538595199585
1783170030292934400,11.972934326171876,-1.2925289869308472,-0.34685489535331726,-1.932793378829956
1783170030302882600,11.982882568359376,-0.9322954416275024,-0.2654077112674713,-1.9542409181594849
1783170030312831500,11.99283154296875,-0.5877940058708191,0.028609806671738625,-1.7869871854782104
1783170030322780400,12.002780517578126,-0.36977618932724,0.20405593514442444,-1.47342848777771
1783170030332759300,12.01275927734375,-0.3475523591041565,-0.031573373824357986,-1.0700730085372925
1783170030342708200,12.022708251953125,-0.49402090907096863,-0.5878880023956299,-0.6264617443084717
1783170030352657400,12.032657470703125,-0.6677588820457458,-1.21736478805542,-0.23968929052352905
1783170030362605300,12.042605224609375,-0.8106385469436646,-1.6218512058258057,-0.0979185700416565
1783170030372585200,12.052585205078126,-0.9148280620574951,-1.574009895324707,-0.2615778148174286
1783170030382533400,12.062533447265626,-0.9804925322532654,-1.0116750001907349,-0.6719126105308533
1783170030392482300,12.072482421875,-0.9965082406997681,-0.059609800577163696,-1.1862657070159912
1783170030402461200,12.082461181640625,-0.9004698991775513,0.966545581817627,-1.5738091468811035
1783170030412410600,12.09241064453125,-0.7247822284698486,1.8160101175308228,-1.687113881111145
1783170030422359600,12.102359619140625,-0.504349946975708,2.3133230209350586,-1.4338387250900269
1783170030432308500,12.11230859375,-0.3207545876502991,2.17695951461792,-0.8428771495819092
1783170030442287400,12.122287353515626,-0.2503054440021515,1.205037236213684,-0.049375005066394806
1783170030452236300,12.132236328125,-0.11271882802248001,-0.12364257872104645,0.7533895969390869
1783170030462184400,12.142184326171876,0.037454165518283844,-1.1495593786239624,1.4236987829208374
1783170030472133400,12.15213330078125,0.1607513278722763,-1.5190929174423218,1.9090241193771362
1783170030482112500,12.162112548828125,0.2726336717605591,-1.373613715171814,2.23769474029541
1783170030492061400,12.1720615234375,0.335631787776947,-0.992854118347168,2.324760675430298
1783170030502010400,12.18201025390625,0.39799290895462036,-0.5829731225967407,2.25413179397583
1783170030511989200,12.1919892578125,0.45574700832366943,-0.34343618154525757,2.131309986114502
