time,seconds_elapsed,z,y,x
1783170018459710200,0.139710205078125,-1.2850416898727417,2.6556737422943115,0.8751716017723083
1783170018469659100,0.1496591796875,-1.1193819046020508,1.0445520877838135,0.6277455687522888
1783170018479607000,0.15960693359375,-1.1810961961746216,0.04744553193449974,0.7364982962608337
1783170018489587000,0.1695869140625,-1.4568969011306763,-0.799769937992096,0.8239325284957886
1783170018499535000,0.17953515625,-1.8576196432113647,-1.816802740097046,0.7886492013931274
1783170018509484000,0.189484130859375,-2.241413116455078,-2.821349620819092,0.7842965126037598
1783170018519433000,0.199432861328125,-2.5380523204803467,-3.840790271759033,0.7663014531135559
1783170018529412000,0.209412109375,-2.785142660140991,-4.954774379730225,0.6501652598381042
1783170018539361300,0.219361328125,-3.084097146987915,-5.9504170417785645,0.13589784502983093
1783170018549310200,0.229310302734375,-3.729459762573242,-5.655547142028809,-1.0274646282196045
1783170018559289300,0.239289306640625,-4.0104193687438965,-4.770901679992676,-2.0292670726776123
1783170018569238300,0.24923828125,-4.126091480255127,-3.15043568611145,-2.5690176486968994
1783170018579186200,0.259186279296875,-4.221522331237793,-0.8905874490737915,-2.6904373168945312
1783170018589135000,0.269135009765625,-4.1624860763549805,1.8994048833847046,-2.3069703578948975
1783170018599114200,0.2791142578125,-3.976184129714966,4.817158222198486,-1.5812463760375977
1783170018609063200,0.289063232421875,-3.328479051589966,5.61605167388916,-0.6441550850868225
1783170018619012000,0.29901220703125,-1.0562199354171753,0.8212098479270935,0.3646213412284851
1783170018628992000,0.308991943359375,-0.18107910454273224,-0.38508787751197815,0.8506423830986023
1783170018638972200,0.31897216796875,-0.2998791038990021,-2.4262478351593018,0.556683361530304
1783170018648920000,0.328920166015625,-0.7483511567115784,-4.500311374664307,-0.07168234139680862
1783170018658869000,0.338868896484375,-1.0435011386871338,-5.23220682144165,-0.3240848481655121
1783170018668848000,0.34884814453125,-1.1495795249938965,-5.396063327789307,-0.3284529447555542
1783170018678797000,0.358797119140625,-1.2148633003234863,-4.310855388641357,-0.29670920968055725
1783170018688746000,0.36874609375,-1.2821422815322876,-3.6561548709869385,-0.44026345014572144
1783170018698695000,0.37869482421875,-1.248633623123169,-2.9503889083862305,-0.3607936203479767
1783170018708674000,0.388674072265625,-0.8366739749908447,-2.2202014923095703,-0.19533967971801758
1783170018718623200,0.398623291015625,-0.14860069751739502,-1.4172260761260986,-0.011193806305527687
1783170018728571000,0.40857080078125,0.5657882690429688,-0.7847301363945007,0.20070725679397583
1783170018738520000,0.41852001953125,1.0537348985671997,-0.45162904262542725,0.43660780787467957
1783170018748499200,0.428499267578125,1.1882208585739136,-0.397705614566803,0.7246561050415039
1783170018758448000,0.4384482421875,0.8905348181724548,-0.4558439254760742,1.0214906930923462
1783170018768397000,0.44839697265625,0.3049080967903137,-0.6989119648933411,1.308782935142517
1783170018778376200,0.458376220703125,-0.13465267419815063,-1.0623351335525513,1.5882588624954224
1783170018788325000,0.4683251953125,-0.11530161648988724,-1.3301215171813965,1.8333724737167358
1783170018798273000,0.47827294921875,0.219045490026474,-1.3906962871551514,1.9751334190368652
1783170018808222000,0.488221923828125,0.5794734358787537,-1.269225001335144,1.9396862983703613
1783170018818201000,0.498201171875,0.8329195380210876,-1.0080466270446777,1.7237848043441772
1783170018828150000,0.50814990234375,0.8995118737220764,-0.7887585759162903,1.34527587890625
1783170018838099000,0.518098876953125,0.7737118601799011,-0.6748049855232239,0.8350663781166077
1783170018848047900,0.5280478515625,0.5616358518600464,-0.5669054388999939,0.27376365661621094
1783170018858027000,0.538027099609375,0.3797684907913208,-0.3823457360267639,-0.2902129888534546
1783170018867976000,0.547975830078125,0.29165300726890564,-0.10076838731765747,-0.8322525024414062
1783170018877923800,0.557923828125,0.29873785376548767,0.2959996163845062,-1.3069703578948975
1783170018887904300,0.567904296875,0.40331965684890747,0.7253293991088867,-1.7015081644058228
1783170018897852000,0.577851806640625,0.5505817532539368,1.1063268184661865,-2.0297839641571045
1783170018907801000,0.587801025390625,0.6774834990501404,1.2487678527832031,-2.2738749980926514
1783170018917750000,0.59775,0.7603655457496643,1.0931984186172485,-2.365156412124634
1783170018927729200,0.607729248046875,0.7907479405403137,0.897670328617096,-2.3107821941375732
1783170018937678000,0.617677978515625,0.8109152913093567,0.6868377327919006,-2.1860485076904297
1783170018947626200,0.627626220703125,0.7531592845916748,0.26606279611587524,-2.0567338466644287
1783170018957575200,0.6375751953125,0.5933570265769958,-0.31999748945236206,-2.0306105613708496
1783170018967554000,0.647553955078125,0.38861003518104553,-0.8362576365470886,-2.202256679534912
1783170018977503000,0.6575029296875,0.26817646622657776,-1.1232551336288452,-2.5719141960144043
1783170018987452000,0.667451904296875,0.6172447204589844,-0.3446589410305023,-2.6182620525360107
1783170018997431000,0.67743115234375,1.0138614177703857,0.03222332149744034,-2.6069374084472656
1783170019007380000,0.6873798828125,1.0806623697280884,0.4050706624984741,-2.5131962299346924
1783170019017329000,0.697328857421875,0.5546311140060425,0.10927820205688477,-3.0557637214660645
1783170019027277000,0.707277099609375,-0.6351131796836853,-0.3919404447078705,-4.247603416442871
1783170019037257000,0.717257080078125,-1.8788217306137085,-0.5245624780654907,-5.356107711791992
1783170019047204900,0.727204833984375,-2.6853504180908203,0.05963253602385521,-5.677582263946533
1783170019057154000,0.737154052734375,-3.1487066745758057,1.7078341245651245,-4.992198944091797
1783170019067103200,0.747103271484375,-2.9194984436035156,3.2156245708465576,-3.656947612762451
1783170019077082000,0.75708203125,-1.7887300252914429,3.4725453853607178,-2.224578380584717
1783170019087031000,0.767031005859375,-0.2758167088031769,2.894368886947632,-0.8943389058113098
1783170019096980000,0.77697998046875,1.000423789024353,1.6896096467971802,0.5083416700363159
1783170019106959000,0.786958984375,1.4495340585708618,0.7701910138130188,2.129084825515747
1783170019116908000,0.796907958984375,1.3713470697402954,0.45620396733283997,3.7727015018463135
1783170019126856200,0.806856201171875,1.1123660802841187,0.4977399706840515,5.099393844604492
1783170019136805000,0.81680517578125,0.7593259215354919,0.5347253680229187,5.835779190063477
1783170019146784000,0.826783935546875,0.32555025815963745,0.48438283801078796,5.933714389801025
1783170019156733000,0.83673291015625,-0.15134181082248688,0.4056336283683777,5.538618564605713
1783170019166682000,0.84668212890625,-0.5723082423210144,0.19500850141048431,4.8466796875
1783170019176630000,0.856630126953125,-0.9227278232574463,-0.08897705376148224,4.094772815704346
1783170019186610000,0.86660986328125,-1.1566624641418457,-0.24021050333976746,3.4029171466827393
1783170019196558000,0.87655810546875,-1.2135082483291626,-0.16889718174934387,2.8330037593841553
1783170019206507000,0.886507080078125,-1.096528172492981,0.11515504121780396,2.4245457649230957
1783170019216486000,0.89648583984375,-0.880433201789856,0.44168221950531006,2.17743182182312
1783170019226435000,0.90643505859375,-0.6351169347763062,0.6059423089027405,2.038135528564453
1783170019236384300,0.91638427734375,-0.4020416736602783,0.6082744598388672,1.9231650829315186
1783170019246333200,0.926333251953125,-0.21309946477413177,0.5046623349189758,1.7802066802978516
1783170019256312000,0.93631201171875,-0.11985880881547928,0.30179816484451294,1.6373059749603271
1783170019266261000,0.946260986328125,-0.10565776377916336,-0.01925070397555828,1.5112842321395874
1783170019276209200,0.956209228515625,-0.1722928285598755,-0.43017658591270447,1.373358964920044
1783170019286158000,0.966157958984375,-0.3060910999774933,-0.8241853713989258,1.1831282377243042
1783170019296137200,0.97613720703125,-0.4333118796348572,-1.1941553354263306,0.9156821966171265
1783170019306086100,0.986086181640625,-0.49295178055763245,-1.48199462890625,0.5646435022354126
1783170019316035000,0.99603515625,-0.4609227478504181,-1.5927727222442627,0.15876559913158417
1783170019326014000,1.006013916015625,-0.35602110624313354,-1.4935613870620728,-0.3287588059902191
1783170019335963100,1.015963134765625,-0.17594808340072632,-1.1879106760025024,-0.8450727462768555
1783170019345911000,1.0259111328125,0.060445550829172134,-0.8037849068641663,-1.31374192237854
1783170019355860000,1.03585986328125,0.3099808096885681,-0.45626628398895264,-1.679386019706726
1783170019365839000,1.045839111328125,0.5497182607650757,-0.22965286672115326,-1.910634994506836
1783170019375788000,1.0557880859375,0.7725158929824829,-0.20449486374855042,-2.001617193222046
1783170019385737000,1.065737060546875,0.9865861535072327,-0.41491201519966125,-1.9722154140472412
1783170019395686100,1.07568603515625,1.1396290063858032,-0.7455345392227173,-1.8469293117523193
1783170019405665300,1.085665283203125,1.2302454710006714,-0.888190746307373,-1.606357216835022
1783170019415614200,1.0956142578125,1.347721815109253,-0.591752827167511,-1.2014634609222412
1783170019425562000,1.10556201171875,1.5211063623428345,-0.0019287182949483395,-0.5905596017837524
1783170019435542000,1.1155419921875,1.7239160537719727,0.3854951560497284,0.07866378128528595
1783170019445490200,1.125490234375,1.7925204038619995,0.3186298608779907,0.5908756852149963
1783170019455439000,1.135439208984375,1.7378031015396118,-0.3978600800037384,0.8188826441764832
1783170019465388000,1.145387939453125,1.5892237424850464,-1.9065274000167847,0.7485530972480774
1783170019475367200,1.1553671875,1.2749892473220825,-3.4984121322631836,0.4714670181274414
1783170019485316000,1.165316162109375,0.7545321583747864,-3.6045751571655273,0.30272993445396423
1783170019495264000,1.175263916015625,0.22408320009708405,-2.2031455039978027,0.3740972876548767
1783170019505213000,1.185212890625,-0.06354272365570068,-0.7442517876625061,0.6107087731361389
1783170019515192000,1.195192138671875,-0.11627578735351562,0.4593089520931244,0.8423110842704773
1783170019525141000,1.20514111328125,-0.05494718253612518,1.1931288242340088,0.7350480556488037
1783170019535090000,1.21508984375,0.051428623497486115,1.4600248336791992,0.307731956243515
1783170019545069000,1.225069091796875,0.294404536485672,1.4709951877593994,-0.0540081262588501
1783170019555018000,1.23501806640625,0.5855803489685059,1.3427917957305908,-0.21465057134628296
1783170019564967200,1.24496728515625,0.7449188232421875,1.1129897832870483,-0.1594318002462387
1783170019574914800,1.254914794921875,0.8026665449142456,0.8257462382316589,0.10305015742778778
1783170019584895200,1.264895263671875,0.8513443470001221,0.4902808964252472,0.46268343925476074
1783170019594843100,1.274843017578125,0.8818637132644653,0.07339474558830261,0.7404383420944214
1783170019604792000,1.2847919921875,0.8201802968978882,-0.300590842962265,0.813470184803009
1783170019614741000,1.294740966796875,0.7013953328132629,-0.5011557936668396,0.6721401214599609
1783170019624720100,1.30472021484375,0.6232073307037354,-0.5170021653175354,0.3844182789325714
1783170019634684000,1.314683837890625,0.6746035218238831,-0.36895209550857544,0.04443543776869774
1783170019644631800,1.3246318359375,0.8523543477058411,-0.08710870146751404,-0.25256669521331787
1783170019654611700,1.33461181640625,1.018743872642517,0.22882504761219025,-0.4232945740222931
1783170019664559900,1.344559814453125,1.0743227005004883,0.46340212225914,-0.4410456120967865
1783170019674508800,1.3545087890625,1.045488953590393,0.49664944410324097,-0.32319724559783936
1783170019684457700,1.364457763671875,0.9562637805938721,0.3375934958457947,-0.10542149841785431
1783170019694436900,1.374436767578125,0.8187798261642456,0.0939314141869545,0.19613006711006165
1783170019704385800,1.3843857421875,0.6885808110237122,-0.14238418638706207,0.5416512489318848
1783170019714334700,1.394334716796875,0.612600564956665,-0.3107006251811981,0.8420103788375854
1783170019724282600,1.40428271484375,0.5838432312011719,-0.3829135596752167,1.0520567893981934
1783170019734262800,1.4142626953125,0.6038796901702881,-0.33464282751083374,1.1997430324554443
1783170019744210700,1.424210693359375,0.6789422035217285,-0.22271761298179626,1.3375169038772583
1783170019754159600,1.43415966796875,0.7578033208847046,-0.11797809600830078,1.4433708190917969
1783170019764138800,1.444138671875,0.7755450010299683,-0.04744666814804077,1.46403968334198
1783170019774087700,1.454087646484375,0.7197280526161194,-0.05163140594959259,1.3815995454788208
1783170019784036900,1.464036865234375,0.5858170986175537,-0.16733136773109436,1.2078990936279297
1783170019793984800,1.47398486328125,0.34803956747055054,-0.36626753211021423,0.956584632396698
1783170019803965000,1.48396484375,0.09388718754053116,-0.5317907333374023,0.6608419418334961
1783170019813912800,1.493912841796875,-0.09769360721111298,-0.5558576583862305,0.35726889967918396
1783170019823861800,1.50386181640625,-0.1975453794002533,-0.4109601378440857,0.054478395730257034
1783170019833810700,1.513810791015625,-0.1788509488105774,-0.0850672796368599,-0.18702411651611328
1783170019843789800,1.523789794921875,-0.0021435432136058807,0.29812511801719666,-0.30094560980796814
1783170019853738800,1.53373876953125,0.27270323038101196,0.6322736740112305,-0.27136510610580444
1783170019863687700,1.543687744140625,0.5070344805717468,0.8319420218467712,-0.14059913158416748
1783170019873666800,1.553666748046875,0.6643722653388977,0.8328996300697327,0.030807366594672203
1783170019883615700,1.56361572265625,0.7465938925743103,0.5805526375770569,0.18913815915584564
1783170019893563600,1.573563720703125,0.7481400370597839,0.09078586846590042,0.26528027653694153
1783170019903512800,1.583512939453125,0.7184289693832397,-0.767516553401947,0.14310988783836365
1783170019913491700,1.59349169921875,0.6984935402870178,-1.6245700120925903,-0.1656186282634735
1783170019923440600,1.603440673828125,0.8449546098709106,-1.87453293800354,-0.4301581382751465
1783170019933389600,1.6133896484375,1.1025118827819824,-1.5496037006378174,-0.5000696182250977
1783170019943338800,1.6233388671875,1.2514710426330566,-0.81035977602005,-0.33291497826576233
1783170019953317600,1.633317626953125,1.2401310205459595,0.11414717137813568,0.06033550202846527
1783170019963265500,1.643265625,1.1488877534866333,0.853161633014679,0.6146423816680908
1783170019973215000,1.653215087890625,1.0813508033752441,1.2923357486724854,1.1722385883331299
1783170019983193900,1.66319384765625,1.0544384717941284,1.3489335775375366,1.6275157928466797
1783170019993142800,1.673142822265625,0.9782145619392395,1.0660110712051392,1.9327389001846313
1783170020003091700,1.683091796875,0.7977656126022339,0.5344178080558777,2.0641541481018066
1783170020013041000,1.693041015625,0.48937293887138367,-0.06666959077119827,1.9594165086746216
1783170020023019800,1.703019775390625,0.11612451821565628,-0.5610651969909668,1.5389302968978882
1783170020032968700,1.71296875,-0.21251435577869415,-0.7404084205627441,0.8337770700454712
1783170020042916900,1.722916748046875,-0.35449305176734924,-0.4826967418193817,0.06368912011384964
1783170020052865800,1.73286572265625,-0.2855185270309448,0.047310564666986465,-0.517897367477417
1783170020062844700,1.7428447265625,-0.12339062243700027,0.5486443042755127,-0.7783539891242981
1783170020072793600,1.752793701171875,0.010987333953380585,0.8539779782295227,-0.7880169153213501
1783170020082742800,1.76274267578125,0.02245810255408287,0.9398534893989563,-0.6663312315940857
1783170020092721700,1.7727216796875,-0.11671563982963562,0.7925821542739868,-0.5286449790000916
1783170020102670600,1.782670654296875,-0.3451109826564789,0.45239660143852234,-0.4470432996749878
1783170020112619800,1.792619873046875,-0.5599653720855713,0.07305881381034851,-0.45299452543258667
1783170020122567700,1.802567626953125,-0.6803376078605652,-0.22212116420269012,-0.5615577697753906
1783170020132547800,1.8125478515625,-0.7255595922470093,-0.38612768054008484,-0.8153311610221863
1783170020142495700,1.822495849609375,-0.7356595993041992,-0.42136743664741516,-1.248048186302185
1783170020152445000,1.83244482421875,-0.7485212087631226,-0.3143995702266693,-1.7993000745773315
1783170020162393900,1.842393798828125,-0.7124300599098206,-0.027133438736200333,-2.323852777481079
1783170020172372700,1.852372802734375,-0.5883948802947998,0.4481430947780609,-2.6581411361694336
1783170020182321700,1.86232177734375,-0.444783091545105,0.9436556696891785,-2.726884365081787
1783170020192269800,1.872269775390625,-0.39361250400543213,1.3057572841644287,-2.5362110137939453
1783170020202249700,1.882249755859375,-0.446562796831131,1.523754358291626,-2.104783296585083
1783170020212198000,1.892197998046875,-0.5224916338920593,1.6451127529144287,-1.4820170402526855
1783170020222146800,1.902146728515625,-0.5864804983139038,1.6892813444137573,-0.7300922274589539
1783170020232095700,1.912095703125,-0.6228822469711304,1.6397546529769897,0.08480270951986313
1783170020242074600,1.92207470703125,-0.6531871557235718,1.4839428663253784,0.8612036108970642
1783170020252023800,1.93202392578125,-0.7190942764282227,1.1973963975906372,1.4679361581802368
1783170020261972700,1.94197265625,-0.8306623697280884,0.8436405062675476,1.7965329885482788
1783170020271920600,1.951920654296875,-0.9635612964630127,0.535368025302887,1.8019713163375854
1783170020281900500,1.961900634765625,-1.1059106588363647,0.3292611837387085,1.4632704257965088
1783170020291848700,1.9718486328125,-1.2290030717849731,0.24130649864673615,0.888465404510498
1783170020301798000,1.9817978515625,-1.3043287992477417,0.3644353449344635,0.2294216901063919
1783170020311746800,1.991746826171875,-1.2875443696975708,0.6427674293518066,-0.3595881164073944
1783170020321726000,2.001725830078125,-1.1847349405288696,0.9690837860107422,-0.7742004990577698
1783170020331675000,2.0116748046875,-1.0380775928497314,1.3270032405853271,-0.9846895337104797
1783170020341622800,2.021622802734375,-0.9132653474807739,1.5794514417648315,-1.0167847871780396
1783170020351602700,2.031602783203125,-0.8126201629638672,1.665924310684204,-0.8840301632881165
1783170020361550800,2.04155078125,-0.7196604013442993,1.6424131393432617,-0.5650388598442078
1783170020371499800,2.051499755859375,-0.5678103566169739,1.4994111061096191,-0.10027589648962021
1783170020381448700,2.06144873046875,-0.32179179787635803,1.2182239294052124,0.38505539298057556
1783170020391427800,2.071427734375,-0.08600866049528122,0.6760002374649048,0.7143454551696777
1783170020401376800,2.081376708984375,0.06271424144506454,-0.11086796224117279,0.8020247220993042
1783170020411325700,2.09132568359375,0.13297097384929657,-0.7933917045593262,0.8069156408309937
1783170020421273600,2.101273681640625,0.1311914473772049,-1.019805908203125,0.8698639869689941
1783170020431253800,2.111253662109375,0.11873908340930939,-0.9601893424987793,0.9967461228370667
1783170020441201700,2.12120166015625,0.1181502640247345,-0.6148319244384766,1.1043380498886108
1783170020451150600,2.131150634765625,0.13748110830783844,0.0733281672000885,1.2139781713485718
1783170020461129700,2.141129638671875,0.2328992486000061,0.8462230563163757,1.4104551076889038
1783170020471079000,2.151078857421875,0.33450329303741455,1.244436502456665,1.543194055557251
1783170020481027800,2.16102783203125,0.34666675329208374,1.0710021257400513,1.4420758485794067
1783170020490975700,2.170975830078125,0.31320226192474365,0.5470321178436279,1.1708593368530273
1783170020500956000,2.180955810546875,0.27727940678596497,0.028558557853102684,0.8681870102882385
1783170020510903800,2.19090380859375,0.336764931678772,-0.32283276319503784,0.6383266448974609
1783170020520852700,2.200852783203125,0.5589804649353027,-0.44571900367736816,0.573476254940033
1783170020530801700,2.2108017578125,0.816400945186615,-0.4575466513633728,0.6341063380241394
1783170020540780800,2.22078076171875,0.968083918094635,-0.5275733470916748,0.7669147253036499
1783170020550729700,2.230729736328125,1.0376744270324707,-0.7203632593154907,0.9060277342796326
1783170020560678700,2.2406787109375,1.0485925674438477,-0.9527539014816284,0.9632524251937866
1783170020570657800,2.25065771484375,1.02681303024292,-1.0983715057373047,0.9202102422714233
1783170020580606700,2.260606689453125,1.0273611545562744,-1.0957261323928833,0.8427255749702454
1783170020590554600,2.2705546875,1.0979844331741333,-0.9645857214927673,0.7613420486450195
1783170020600503800,2.28050390625,1.2366325855255127,-0.7515048980712891,0.6901745796203613
1783170020610482700,2.290482666015625,1.375754714012146,-0.5570653080940247,0.6311599612236023
1783170020620431600,2.300431640625,1.4746911525726318,-0.42174020409584045,0.6033094525337219
1783170020630411800,2.310411865234375,1.5269982814788818,-0.384857714176178,0.596290647983551
1783170020640360000,2.32035986328125,1.5186314582824707,-0.47016170620918274,0.5894370079040527
1783170020650339800,2.33033984375,1.4432861804962158,-0.5969275832176208,0.580639123916626
1783170020660287700,2.340287841796875,1.290168046951294,-0.6961620450019836,0.5577074289321899
1783170020670237000,2.35023681640625,1.0992512702941895,-0.7625197768211365,0.530538022518158
1783170020680215800,2.3602158203125,0.9076293706893921,-0.7477765679359436,0.5028901100158691
1783170020690164700,2.370164794921875,0.717205286026001,-0.6877046227455139,0.4530472159385681
1783170020700113700,2.38011376953125,0.5661491751670837,-0.6104007959365845,0.38486871123313904
1783170020710063000,2.39006298828125,0.46163299679756165,-0.502280056476593,0.3165806531906128
1783170020720042000,2.4000419921875,0.38317254185676575,-0.3961685299873352,0.25408318638801575
1783170020729991000,2.409990966796875,0.3215615749359131,-0.31881168484687805,0.2134178876876831
1783170020739939000,2.41993896484375,0.27318286895751953,-0.29999804496765137,0.1991550624370575
1783170020749888000,2.429887939453125,0.2522943615913391,-0.38549938797950745,0.18210870027542114
1783170020759867000,2.439866943359375,0.2409965544939041,-0.5688910484313965,0.15370753407478333
1783170020769815800,2.44981591796875,0.2465544044971466,-0.7531946897506714,0.12822331488132477
1783170020779765000,2.459764892578125,0.2807142436504364,-0.9171532988548279,0.11848466843366623
1783170020789743900,2.469743896484375,0.36299368739128113,-1.059766411781311,0.1343616396188736
1783170020799692800,2.47969287109375,0.5213404297828674,-1.1680241823196411,0.17600202560424805
1783170020809641000,2.489640869140625,0.7049070596694946,-1.2293884754180908,0.24838994443416595
1783170020819590000,2.49958984375,0.8587437868118286,-1.2965792417526245,0.35150647163391113
1783170020829568800,2.50956884765625,0.936928391456604,-1.408980131149292,0.4449060559272766
1783170020839518000,2.51951806640625,0.8940001130104065,-1.4374407529830933,0.5169816017150879
1783170020849467000,2.529466796875,0.7966693043708801,-1.3451722860336304,0.5173091292381287
1783170020859415800,2.539415771484375,0.7075660228729248,-1.1692543029785156,0.4103353023529053
1783170020869394700,2.549394775390625,0.7421318888664246,-0.9317225217819214,0.16769810020923615
1783170020879343900,2.55934375,0.8389090299606323,-0.6935072541236877,-0.21699552237987518
1783170020889292000,2.5692919921875,0.9092007279396057,-0.6078711748123169,-0.6913382411003113
1783170020899272000,2.57927197265625,0.9750582575798035,-0.6678285002708435,-1.1381343603134155
1783170020909220000,2.58922021484375,1.0676238536834717,-0.8285510540008545,-1.4643930196762085
1783170020919169000,2.5991689453125,1.1267319917678833,-1.0360972881317139,-1.6701562404632568
1783170020929118000,2.609117919921875,1.1293421983718872,-1.185836911201477,-1.6557338237762451
1783170020939096800,2.619096923828125,1.1370491981506348,-1.0955135822296143,-1.3726001977920532
1783170020949046000,2.6290458984375,1.1448091268539429,-0.6287593245506287,-0.8829272389411926
1783170020958995000,2.638994873046875,1.2296338081359863,-0.04800007492303848,-0.35892581939697266
1783170020968942800,2.64894287109375,1.3812161684036255,0.2707502543926239,0.061703819781541824
1783170020978922000,2.658921875,1.4703782796859741,0.26205796003341675,0.39363381266593933
1783170020988871000,2.668870849609375,1.4073866605758667,0.07008495181798935,0.7279595732688904
1783170020998819800,2.67881982421875,1.141453504562378,-0.19047313928604126,1.0329710245132446
1783170021008798700,2.688798828125,0.7601630687713623,-0.32638445496559143,1.2268460988998413
1783170021018748000,2.698747802734375,0.3921933174133301,-0.2773529887199402,1.2014381885528564
1783170021028696800,2.70869677734375,0.04671843349933624,-0.0347294956445694,0.8969041109085083
1783170021038644700,2.718644775390625,-0.31206315755844116,0.40424251556396484,0.36615321040153503
1783170021048625000,2.728625,-0.6155679225921631,0.9995440244674683,-0.26396581530570984
1783170021058572800,2.73857275390625,-0.7932330369949341,1.6382040977478027,-0.8627620935440063
1783170021068522000,2.74852197265625,-0.8704675436019897,2.1671855449676514,-1.3362687826156616
1783170021078471000,2.758470947265625,-0.8669915795326233,2.4960618019104004,-1.6587635278701782
1783170021088450000,2.768449951171875,-0.7290124893188477,2.5756776332855225,-1.7954283952713013
1783170021098399000,2.77839892578125,-0.44522279500961304,2.4325857162475586,-1.7239776849746704
1783170021108348000,2.788347900390625,-0.10763974487781525,2.140134334564209,-1.4857609272003174
1783170021118326800,2.798326904296875,0.13878068327903748,1.7695063352584839,-1.1522676944732666
1783170021128276000,2.80827587890625,0.16627728939056396,1.3532886505126953,-0.8104811310768127
1783170021138223900,2.818223876953125,0.01893976703286171,0.9927318096160889,-0.582720935344696
1783170021148172800,2.8281728515625,-0.2028435915708542,0.7746571898460388,-0.5495631694793701
1783170021158152000,2.83815185546875,-0.4277997314929962,0.7506825923919678,-0.690056324005127
1783170021168100900,2.848100830078125,-0.6182222962379456,0.8853506445884705,-0.8986179232597351
1783170021178049800,2.8580498046875,-0.7359204292297363,1.1114319562911987,-1.037441611289978
1783170021187997700,2.867997802734375,-0.7052186727523804,1.2850958108901978,-1.0594960451126099
1783170021197977900,2.877977783203125,-0.5772492289543152,1.3350751399993896,-1.0172630548477173
1783170021207925800,2.88792578125,-0.48614048957824707,1.3656885623931885,-0.9570721387863159
1783170021217874700,2.897874755859375,-0.43791598081588745,1.299146056175232,-0.9073650240898132
1783170021227853800,2.907853759765625,-0.45503246784210205,1.147129774093628,-0.8966518640518188
1783170021237803000,2.917802978515625,-0.5739293098449707,0.9337770342826843,-0.9413530230522156
1783170021247752000,2.927751953125,-0.7231861352920532,0.6950559616088867,-1.0564347505569458
1783170021257700900,2.937700927734375,-0.8469722270965576,0.5034748315811157,-1.223775029182434
1783170021267680000,2.947679931640625,-0.9211347699165344,0.38729116320610046,-1.416723608970642
1783170021277629000,2.95762890625,-0.9284736514091492,0.36794888973236084,-1.5806584358215332
1783170021287576800,2.967576904296875,-0.8757026195526123,0.41690295934677124,-1.6809006929397583
1783170021297525800,2.97752587890625,-0.8072503209114075,0.5082264542579651,-1.6938543319702148
1783170021307505000,2.9875048828125,-0.6819899082183838,0.684572160243988,-1.609583854675293
1783170021317453800,2.997453857421875,-0.49201464653015137,0.8732973337173462,-1.398850917816162
1783170021327402800,3.00740283203125,-0.3018609881401062,1.0655721426010132,-1.0649265050888062
1783170021337382000,3.0173818359375,-0.12150105834007263,1.1836243867874146,-0.6470990180969238
1783170021347330800,3.027330810546875,0.05481193959712982,1.2045820951461792,-0.15249036252498627
1783170021357278700,3.03727880859375,0.16233626008033752,1.0867202281951904,0.36723271012306213
1783170021367228000,3.047227783203125,0.1807028353214264,0.8651943802833557,0.8333779573440552
1783170021377206800,3.057206787109375,0.17684364318847656,0.5699896216392517,1.2281330823898315
1783170021387155700,3.06715576171875,0.18720443546772003,0.27897340059280396,1.5450868606567383
1783170021397105000,3.07710498046875,0.25863704085350037,-0.22018848359584808,1.6530277729034424
1783170021407053800,3.0870537109375,0.16021108627319336,-0.9594944715499878,1.4429371356964111
1783170021417033000,3.097032958984375,-0.07225889712572098,-1.3898158073425293,1.1534944772720337
1783170021426982000,3.10698193359375,-0.3473018705844879,-1.3707877397537231,1.013689398765564
1783170021436930000,3.116929931640625,-0.674531877040863,-1.0765377283096313,1.0510228872299194
1783170021446910000,3.126909912109375,-0.8419697880744934,-0.5810980796813965,1.2030857801437378
1783170021456857900,3.13685791015625,-0.6397567391395569,0.13111242651939392,1.4585862159729004
1783170021466806800,3.146806884765625,-0.23445524275302887,0.7352407574653625,1.8076118230819702
1783170021476756000,3.156755859375,0.055423177778720856,0.7949749231338501,2.1030750274658203
1783170021486734800,3.16673486328125,0.1973341703414917,0.45605793595314026,2.2617850303649902
1783170021496683800,3.176683837890625,0.23844406008720398,-0.028417417779564857,2.3469138145446777
1783170021506632000,3.1866318359375,0.22248703241348267,-0.4463115334510803,2.321791410446167
1783170021516580900,3.196580810546875,0.21229244768619537,-0.7833673357963562,2.0489513874053955
1783170021526559700,3.206559814453125,0.24542924761772156,-1.0845825672149658,1.5426188707351685
1783170021536508700,3.2165087890625,0.3203407824039459,-1.2246134281158447,0.9445170164108276
1783170021546457900,3.226457763671875,0.41801413893699646,-1.2291642427444458,0.40575769543647766
1783170021556436700,3.236436767578125,0.5063903331756592,-1.1853952407836914,-0.003145120106637478
1783170021566386000,3.246385986328125,0.5246743559837341,-1.190869927406311,-0.2661680281162262
1783170021576334800,3.2563349609375,0.4347715973854065,-1.2781978845596313,-0.40408140420913696
1783170021586283000,3.266282958984375,0.23089145123958588,-1.4988960027694702,-0.48915183544158936
1783170021596263000,3.276262939453125,-0.06437454372644424,-1.7661939859390259,-0.5819661617279053
1783170021606211000,3.286211181640625,-0.358647882938385,-1.9210116863250732,-0.6657376289367676
1783170021616160000,3.296159912109375,-0.6114457845687866,-1.8245410919189453,-0.7139589190483093
1783170021626109000,3.30610888671875,-0.8057503700256348,-1.5211153030395508,-0.6880311965942383
1783170021636106800,3.316106689453125,-0.9318060278892517,-1.160601258277893,-0.572105348110199
1783170021646055700,3.3260556640625,-0.9716070294380188,-0.8357251882553101,-0.36457785964012146
1783170021656003800,3.33600390625,-0.9414288997650146,-0.6255346536636353,-0.10037390887737274
1783170021665983700,3.345983642578125,-0.898911714553833,-0.5640633702278137,0.1627122014760971
1783170021675931600,3.355931640625,-0.8550941944122314,-0.6278895139694214,0.3721969723701477
1783170021685880600,3.365880615234375,-0.8249605894088745,-0.7811365723609924,0.4993704557418823
1783170021695829500,3.37582958984375,-0.804677426815033,-0.9727038741111755,0.5448958873748779
1783170021705808600,3.38580859375,-0.7953554391860962,-1.118345022201538,0.5038667321205139
1783170021715757600,3.395757568359375,-0.7884002923965454,-1.158246397972107,0.38713106513023376
1783170021725706500,3.40570654296875,-0.7783438563346863,-1.084905743598938,0.20201867818832397
1783170021735654700,3.415654541015625,-0.7570832967758179,-0.9384206533432007,-0.03824159502983093
1783170021745634600,3.425634521484375,-0.7239413261413574,-0.8010530471801758,-0.35043543577194214
1783170021755582500,3.43558251953125,-0.6688549518585205,-0.7152143120765686,-0.6958913207054138
1783170021765531600,3.44553173828125,-0.642428994178772,-0.6226018667221069,-1.00722336769104
1783170021775510500,3.455510498046875,-0.6835463047027588,-0.41192692518234253,-1.2300795316696167
1783170021785459500,3.46545947265625,-0.777333676815033,-0.013518831692636013,-1.3929862976074219
1783170021795408600,3.47540869140625,-0.8243358135223389,0.5794669985771179,-1.5384007692337036
1783170021805357600,3.485357666015625,-0.7408285140991211,1.2112399339675903,-1.6134567260742188
1783170021815336700,3.495336669921875,-0.4755989909172058,1.7399860620498657,-1.5079505443572998
1783170021825284600,3.50528466796875,0.0009195823222398758,1.8773365020751953,-1.1837998628616333
1783170021835233800,3.51523388671875,0.5343523025512695,1.4693048000335693,-0.6614542007446289
1783170021845182700,3.5251826171875,0.9046242237091064,0.6103555560112,0.029564687982201576
1783170021855161600,3.53516162109375,1.0391361713409424,-0.4984126091003418,0.7942208051681519
1783170021865110500,3.545110595703125,1.0761176347732544,-1.52694571018219,1.4632223844528198
1783170021875059700,3.555059814453125,1.1848350763320923,-2.4189844131469727,1.825975775718689
1783170021885038600,3.56503857421875,1.3193728923797607,-2.9385509490966797,1.7922309637069702
1783170021894987500,3.574987548828125,1.5009024143218994,-2.760110855102539,1.360369086265564
1783170021904935700,3.584935791015625,1.7156955003738403,-1.6764847040176392,0.6975385546684265
1783170021914884600,3.594884521484375,1.9077908992767334,-0.12700699269771576,0.15700578689575195
1783170021924863500,3.604863525390625,2.103087902069092,0.8954667448997498,0.012286667712032795
1783170021934812700,3.614812744140625,2.1160836219787598,1.1728320121765137,0.3005208373069763
1783170021944761600,3.62476171875,1.9972233772277832,0.8048243522644043,0.9934630990028381
1783170021954710800,3.634710693359375,1.7386832237243652,0.05865510553121567,1.9789848327636719
1783170021964689700,3.644689697265625,1.3529917001724243,-0.726726770401001,2.890798330307007
1783170021974638600,3.654638671875,0.9420363903045654,-1.2608582973480225,3.353771924972534
1783170021984586800,3.664586669921875,0.6394688487052917,-1.349770188331604,3.3825299739837646
1783170021994565600,3.674565673828125,0.4450426399707794,-1.0343749523162842,3.110092878341675
1783170022004514800,3.684514892578125,0.274238258600235,-0.4983164072036743,2.6447560787200928
1783170022014463700,3.694463623046875,0.07086330652236938,0.0575026273727417,2.1070711612701416
1783170022024412700,3.70441259765625,-0.16944776475429535,0.409178227186203,1.555431842803955
1783170022034391600,3.7143916015625,-0.4140799045562744,0.49378952383995056,1.016073226928711
1783170022044340700,3.7243408203125,-0.5881604552268982,0.3924434781074524,0.5385302305221558
1783170022054288600,3.73428857421875,-0.604011595249176,0.2267908751964569,0.15675920248031616
1783170022064237600,3.744237548828125,-0.533308207988739,0.054694488644599915,-0.1899089515209198
1783170022074216700,3.754216796875,-0.5103437900543213,-0.09481137990951538,-0.5833758115768433
1783170022084165600,3.76416552734375,-0.5503649711608887,-0.17807894945144653,-0.9978922605514526
1783170022094114600,3.774114501953125,-0.6611860394477844,-0.1362593173980713,-1.3692220449447632
1783170022104093400,3.784093505859375,-0.8204747438430786,0.028310131281614304,-1.6417104005813599
1783170022114042600,3.794042724609375,-0.9680681824684143,0.25302284955978394,-1.7720242738723755
1783170022123991800,3.80399169921875,-1.0652230978012085,0.412519633769989,-1.773140549659729
1783170022133939700,3.813939697265625,-1.0943561792373657,0.4849134087562561,-1.676926612854004
1783170022143919600,3.823919677734375,-1.061741828918457,0.5110952854156494,-1.5071429014205933
1783170022153867800,3.83386767578125,-0.9883780479431152,0.4839358329772949,-1.2896183729171753
1783170022163816700,3.843816650390625,-0.91255122423172,0.4243338108062744,-1.0662630796432495
1783170022173765600,3.853765625,-0.8401007056236267,0.3423539698123932,-0.8612509965896606
1783170022183744800,3.863744873046875,-0.7685753703117371,0.2932271957397461,-0.6897103786468506
1783170022193693700,3.873693603515625,-0.6979419589042664,0.2741675078868866,-0.5604365468025208
1783170022203641600,3.8836416015625,-0.6881253719329834,0.20260444283485413,-0.47996991872787476
1783170022213590500,3.893590576171875,-0.7280349731445312,0.08130969107151031,-0.4197228252887726
1783170022223569700,3.903569580078125,-0.7598681449890137,-0.04606330394744873,-0.37505048513412476
1783170022233518600,3.9135185546875,-0.7853010892868042,-0.15783749520778656,-0.3541308045387268
1783170022243467500,3.923467529296875,-0.7802410125732422,-0.20428398251533508,-0.3825196623802185
1783170022253446700,3.93344677734375,-0.791450560092926,-0.17829713225364685,-0.4519221782684326
1783170022263395600,3.9433955078125,-0.8034188151359558,0.022918429225683212,-0.5106836557388306
1783170022273344500,3.953344482421875,-0.7813859581947327,0.38537970185279846,-0.5144877433776855
1783170022283292400,3.96329248046875,-0.7026565670967102,0.7564022541046143,-0.47831985354423523
1783170022293272800,3.97327294921875,-0.5523840188980103,1.0799942016601562,-0.412847638130188
1783170022303220700,3.983220703125,-0.340908020734787,1.3989697694778442,-0.28584063053131104
1783170022313169700,3.993169677734375,-0.09620720148086548,1.6758891344070435,-0.11760073900222778
1783170022323118600,4.00311865234375,0.08346189558506012,1.782456636428833,0.0654875859618187
1783170022333097700,4.01309765625,0.1946355551481247,1.6637020111083984,0.28796353936195374
1783170022343046700,4.023046630859375,0.30232152342796326,1.5458134412765503,0.5167660713195801
1783170022352994600,4.03299462890625,0.4685560464859009,1.4001013040542603,0.6643102765083313
1783170022362974700,4.042974609375,0.632009744644165,0.9689654111862183,0.7377759218215942
1783170022372922600,4.052922607421875,0.8653998374938965,0.2348347306251526,0.8815258741378784
1783170022382871600,4.06287158203125,1.0961370468139648,-0.7352169156074524,1.1846874952316284
1783170022392820500,4.072820556640625,1.0581988096237183,-1.505527138710022,1.6588270664215088
1783170022402799600,4.082799560546875,0.6580813527107239,-1.975019931793213,2.2162961959838867
1783170022412748500,4.09274853515625,0.0008153393864631653,-1.900296926498413,2.7021279335021973
1783170022422697500,4.102697509765625,-0.523597002029419,-1.4384989738464355,2.873350143432617
1783170022432645600,4.112645751953125,-0.6770192980766296,-1.1104704141616821,2.5616283416748047
1783170022442625500,4.12262548828125,-0.5607482194900513,-0.8387437462806702,1.9166494607925415
1783170022452573400,4.132573486328125,-0.349848210811615,-0.532490611076355,1.2611451148986816
1783170022462522600,4.142522705078125,-0.15488141775131226,-0.28514039516448975,0.7644027471542358
1783170022472501500,4.15250146484375,-0.02133960835635662,-0.10617278516292572,0.3836607336997986
1783170022482450700,4.16245068359375,0.10011634230613708,0.07238584756851196,0.052373554557561874
1783170022492399600,4.172399658203125,0.24614758789539337,0.3119315803050995,-0.2958509922027588
1783170022502347800,4.18234765625,0.38383662700653076,0.5390424728393555,-0.6783993244171143
1783170022512327700,4.19232763671875,0.4634433090686798,0.7278736233711243,-1.0278385877609253
1783170022522275600,4.202275634765625,0.46580520272254944,0.8155881762504578,-1.3284912109375
1783170022532224800,4.212224853515625,0.3701537847518921,0.7626157402992249,-1.6278188228607178
1783170022542173700,4.222173583984375,0.1917545646429062,0.5686407089233398,-1.9629095792770386
1783170022552152600,4.232152587890625,-0.015958677977323532,0.3589775264263153,-2.30735445022583
1783170022562101500,4.2421015625,-0.15942950546741486,0.329548180103302,-2.598661184310913
1783170022572050700,4.25205078125,-0.18647897243499756,0.5300689935684204,-2.7796192169189453
1783170022582029600,4.262029541015625,-0.08523517102003098,0.8729694485664368,-2.784651517868042
1783170022591978500,4.271978515625,0.10961101204156876,1.2009960412979126,-2.5968735218048096
1783170022601926700,4.2819267578125,0.33602866530418396,1.4257792234420776,-2.2463505268096924
1783170022611875600,4.29187548828125,0.5600401759147644,1.5364066362380981,-1.786692500114441
1783170022621854500,4.3018544921875,0.7409219741821289,1.5001245737075806,-1.2761095762252808
1783170022631839200,4.311839111328125,0.8486982583999634,1.3755539655685425,-0.7347991466522217
1783170022641788200,4.3217880859375,0.8648316264152527,1.1948857307434082,-0.19140297174453735
1783170022651737000,4.331737060546875,0.8218998312950134,0.941231906414032,0.30248504877090454
1783170022661716200,4.34171630859375,0.7541857957839966,0.6657647490501404,0.6737250089645386
1783170022671664000,4.3516640625,0.6618116497993469,0.36672186851501465,0.890605628490448
1783170022681613300,4.36161328125,0.5625247359275818,0.05120731145143509,0.9488137364387512
1783170022691592200,4.37159228515625,0.47341424226760864,-0.24674049019813538,0.9043977856636047
1783170022701541000,4.381541015625,0.38693687319755554,-0.5233995318412781,0.7770540714263916
1783170022711490300,4.391490234375,0.3062737286090851,-0.7613367438316345,0.6098858118057251
1783170022721439500,4.401439453125,0.23260505497455597,-0.9148610830307007,0.4421999454498291
1783170022731418400,4.41141845703125,0.16012871265411377,-1.0009528398513794,0.29261791706085205
1783170022741367300,4.4213671875,0.0916709154844284,-1.0117346048355103,0.16334961354732513
1783170022751315500,4.4313154296875,0.02280796319246292,-0.9602005481719971,0.048159901052713394
1783170022761264400,4.441264404296875,-0.052219733595848083,-0.8683626651763916,-0.05162447318434715
1783170022771243300,4.4512431640625,-0.12208536267280579,-0.7243130803108215,-0.12320971488952637
1783170022781192200,4.461192138671875,-0.1704602837562561,-0.5449969172477722,-0.17694994807243347
1783170022791141400,4.471141357421875,-0.19160018861293793,-0.3498242497444153,-0.19586476683616638
1783170022801120300,4.481120361328125,-0.1865205466747284,-0.03959701210260391,-0.16460025310516357
1783170022811069200,4.491069091796875,-0.1914452612400055,0.3908694088459015,-0.10983847081661224
1783170022821018000,4.50101806640625,-0.23701824247837067,0.9506824612617493,-0.06667592376470566
1783170022830966300,4.51096630859375,-0.20586031675338745,1.555237054824829,-0.12290962785482407
1783170022840945200,4.520945068359375,-0.009129246696829796,1.9907329082489014,-0.4027648866176605
1783170022850894300,4.530894287109375,0.48324286937713623,1.9324374198913574,-1.0127235651016235
1783170022860843300,4.54084326171875,1.3798655271530151,0.9229748249053955,-2.0467000007629395
1783170022870792400,4.55079248046875,2.2565224170684814,-1.5345065593719482,-3.2387115955352783
1783170022880771300,4.560771240234375,2.4979066848754883,-4.099862575531006,-3.357522487640381
1783170022890720300,4.57072021484375,1.8910001516342163,-5.531938076019287,-1.581107258796692
1783170022900668400,4.58066845703125,0.44193851947784424,-4.616696834564209,1.4313246011734009
1783170022910648300,4.5906484375,-1.0302404165267944,-1.8659056425094604,3.4532814025878906
1783170022920596500,4.600596435546875,-1.2492516040802002,0.7905591130256653,2.5227749347686768
1783170022930545400,4.61054541015625,-0.7262318730354309,3.356886386871338,-0.01053568534553051
1783170022940494300,4.620494384765625,-0.2996846139431,5.212262153625488,-1.9928717613220215
1783170022950473200,4.63047314453125,-0.4250603914260864,5.477055072784424,-2.7345035076141357
1783170022960422400,4.64042236328125,-0.8409562110900879,4.631100177764893,-2.311190366744995
1783170022970371300,4.650371337890625,-1.0803653001785278,3.4090349674224854,-1.360275387763977
1783170022980319200,4.6603193359375,-0.9575592279434204,2.215955972671509,-0.6707358956336975
1783170022990299100,4.670299072265625,-0.6887032389640808,1.2198936939239502,-0.41954946517944336
1783170023000247300,4.680247314453125,-0.4975810647010803,0.5238540172576904,-0.37033286690711975
1783170023010196200,4.6901962890625,-0.4702354669570923,0.15238270163536072,-0.370577335357666
1783170023020175000,4.700175048828125,-0.6170436143875122,-0.014273213222622871,-0.40946629643440247
1783170023030124300,4.710124267578125,-0.8842074275016785,-0.05855865404009819,-0.5380381345748901
1783170023040073500,4.720073486328125,-1.2153347730636597,-0.046383872628211975,-0.8111785054206848
1783170023050021400,4.730021484375,-1.5401792526245117,-0.0366489551961422,-1.1858149766921997
1783170023060001300,4.740001220703125,-1.8416496515274048,-0.013052633963525295,-1.5920155048370361
1783170023069949400,4.749949462890625,-2.095954656600952,0.041613541543483734,-1.952472448348999
1783170023079898400,4.7598984375,-2.2145628929138184,0.1742323637008667,-2.1909027099609375
1783170023089847300,4.769847412109375,-2.075605630874634,0.3471263647079468,-2.250351905822754
1783170023099826400,4.779826416015625,-1.6782159805297852,0.44026991724967957,-2.0952835083007812
1783170023109775400,4.789775390625,-1.1859021186828613,0.4351140260696411,-1.7185736894607544
1783170023119724300,4.799724365234375,-0.7352537512779236,0.3396342694759369,-1.1338527202606201
1783170023129703200,4.809703125,-0.40827319025993347,0.2060903012752533,-0.3920339345932007
1783170023139652400,4.81965234375,-0.2512849271297455,0.09664157778024673,0.4157171845436096
1783170023149600300,4.829600341796875,-0.17405672371387482,-0.013321942649781704,1.1219429969787598
1783170023159549200,4.839549072265625,-0.11065281182527542,-0.15691912174224854,1.6102685928344727
1783170023169528300,4.8495283203125,-0.08311466127634048,-0.26268574595451355,1.8641676902770996
1783170023179477200,4.859477294921875,-0.12187953293323517,-0.24272558093070984,1.9010217189788818
1783170023189426200,4.86942626953125,-0.2116837203502655,-0.10813979804515839,1.7333685159683228
1783170023199374000,4.8793740234375,-0.31182679533958435,0.10533780604600906,1.4773229360580444
1783170023209354500,4.8893544921875,-0.37746545672416687,0.3556962311267853,1.2592675685882568
1783170023219302400,4.899302490234375,-0.4016839861869812,0.5837712287902832,1.1936168670654297
1783170023229251300,4.909251220703125,-0.45715975761413574,0.7543818354606628,1.3069658279418945
1783170023239230500,4.91923046875,-0.5420254468917847,0.844329833984375,1.5439507961273193
1783170023249179400,4.929179443359375,-0.5914710164070129,0.8466305136680603,1.7862685918807983
1783170023259128300,4.93912841796875,-0.6353940963745117,0.7702891826629639,1.9520821571350098
1783170023269077200,4.9490771484375,-0.6738152503967285,0.6491755247116089,2.0186047554016113
1783170023279056400,4.959056396484375,-0.7072186470031738,0.5032704472541809,2.0090856552124023
1783170023289005300,4.96900537109375,-0.7259068489074707,0.37190359830856323,1.9627220630645752
1783170023298953200,4.978953125,-0.6969713568687439,0.35339224338531494,1.9091116189956665
1783170023308902100,4.988902099609375,-0.6123836040496826,0.49448612332344055,1.8233734369277954
1783170023318881300,4.99888134765625,-0.5488195419311523,0.7529326677322388,1.7085115909576416
1783170023328830200,5.008830322265625,-0.5217142105102539,0.9817826151847839,1.6046432256698608
1783170023338779100,5.018779052734375,-0.5162615776062012,1.0134949684143066,1.4999890327453613
1783170023348758300,5.02875830078125,-0.5786208510398865,0.8875261545181274,1.3947030305862427
1783170023358707200,5.038707275390625,-0.712069571018219,0.6296136975288391,1.2996952533721924
1783170023368655000,5.048655029296875,-0.8450089693069458,0.35594090819358826,1.2253456115722656
1783170023378604300,5.058604248046875,-0.959190309047699,0.3695092499256134,1.139509677886963
1783170023388583200,5.068583251953125,-1.1164828538894653,0.49502938985824585,0.9649612903594971
1783170023398532400,5.078532470703125,-1.2620190382003784,0.6505054831504822,0.7122048735618591
1783170023408481300,5.088481201171875,-1.2431689500808716,0.9696589708328247,0.5621206164360046
1783170023418430200,5.09843017578125,-1.0969691276550293,1.5368857383728027,0.5955424904823303
1783170023428409300,5.108409423828125,-0.8395320773124695,2.077420949935913,0.73775315284729
1783170023438358300,5.118358154296875,-0.5991846323013306,2.320416212081909,0.8284369111061096
1783170023448306400,5.128306396484375,-0.43431922793388367,2.247541904449463,0.7417539358139038
1783170023458286300,5.138286376953125,-0.2827216386795044,1.9685803651809692,0.4555141031742096
1783170023468234200,5.148234130859375,-0.01603429764509201,1.5559372901916504,0.030143626034259796
1783170023478183200,5.15818310546875,0.45019784569740295,1.0843894481658936,-0.36250001192092896
1783170023488132400,5.16813232421875,1.0028148889541626,0.5338399410247803,-0.5423392653465271
1783170023498111200,5.178111328125,1.3628774881362915,-0.15480859577655792,-0.5260825753211975
1783170023508060200,5.18806005859375,1.5034996271133423,-0.8649037480354309,-0.4438244700431824
1783170023518008300,5.19800830078125,1.5171579122543335,-1.3990731239318848,-0.44390302896499634
1783170023527957200,5.207957275390625,1.5177462100982666,-1.6605961322784424,-0.5919049978256226
1783170023537936100,5.21793603515625,1.540879249572754,-1.7840207815170288,-0.882771909236908
1783170023547885300,5.22788525390625,1.5389180183410645,-1.821312427520752,-1.2465320825576782
1783170023557834500,5.23783447265625,1.5183379650115967,-1.8408259153366089,-1.6481482982635498
1783170023567813400,5.2478134765625,1.4683972597122192,-1.6774697303771973,-2.0031046867370605
1783170023577762300,5.25776220703125,1.425079584121704,-1.4403882026672363,-2.2638490200042725
1783170023587711200,5.267711181640625,1.3918957710266113,-1.2849762439727783,-2.4190611839294434
1783170023597659400,5.277659423828125,1.3252986669540405,-1.1997963190078735,-2.4645941257476807
1783170023607639300,5.287639404296875,1.219079852104187,-1.1134177446365356,-2.410576820373535
1783170023617587200,5.297587158203125,1.1173055171966553,-1.0550130605697632,-2.2388432025909424
1783170023627536400,5.307536376953125,1.0718363523483276,-0.9639557003974915,-1.947026014328003
1783170023637484800,5.31748486328125,1.0973403453826904,-0.8503924608230591,-1.590156078338623
1783170023647463700,5.327463623046875,1.2196197509765625,-0.8206984996795654,-1.2275493144989014
1783170023657412900,5.337412841796875,1.4041945934295654,-0.9182758331298828,-0.8736516833305359
1783170023667362000,5.347362060546875,1.591093897819519,-1.1207497119903564,-0.5186826586723328
1783170023677341000,5.3573408203125,1.7300524711608887,-1.3567770719528198,-0.12056930363178253
1783170023687289000,5.3672890625,1.8090647459030151,-1.5799156427383423,0.3410782217979431
1783170023697238000,5.377238037109375,1.7946562767028809,-1.7919294834136963,0.8166428208351135
1783170023707187000,5.38718701171875,1.6730164289474487,-1.9311981201171875,1.2176990509033203
1783170023717165800,5.397165771484375,1.4771438837051392,-1.9567855596542358,1.4525611400604248
1783170023727115000,5.407114990234375,1.257869005203247,-1.8811395168304443,1.4745389223098755
1783170023737064000,5.41706396484375,1.0165741443634033,-1.7086135149002075,1.2680435180664062
1783170023747011800,5.42701171875,0.7593781352043152,-1.4597115516662598,0.8742160201072693
1783170023756991700,5.43699169921875,0.5006300806999207,-1.1944934129714966,0.3987254798412323
1783170023766940000,5.44693994140625,0.25065353512763977,-0.9277245998382568,-0.011397614143788815
1783170023776888800,5.456888916015625,0.026059962809085846,-0.6813321709632874,-0.3062746524810791
1783170023786868000,5.466867919921875,-0.1816522181034088,-0.5931418538093567,-0.4968443214893341
1783170023796817000,5.47681689453125,-0.3615608811378479,-0.6734622716903687,-0.6429952383041382
1783170023806765800,5.486765869140625,-0.5248635411262512,-0.7607345581054688,-0.8021985292434692
1783170023816715000,5.496715087890625,-0.5986323356628418,-0.6144821643829346,-0.953999936580658
1783170023826694000,5.50669384765625,-0.5352166295051575,-0.2898321747779846,-1.0735825300216675
1783170023836643000,5.51664306640625,-0.35899949073791504,-0.0065969848074018955,-1.1555591821670532
1783170023846591000,5.526591064453125,-0.17758285999298096,-0.05849826708436012,-1.2282253503799438
1783170023856540000,5.536539794921875,-0.02391148917376995,-0.4214315414428711,-1.2251050472259521
1783170023866519000,5.54651904296875,0.14153233170509338,-0.9469813108444214,-1.0387204885482788
1783170023876468000,5.556468017578125,0.23917053639888763,-1.2273715734481812,-0.5778948664665222
1783170023886417000,5.5664169921875,0.35460367798805237,-0.9062063694000244,0.10771917551755905
1783170023896364800,5.57636474609375,0.668228268623352,-0.12723132967948914,0.7566726207733154
1783170023906345000,5.586344970703125,1.108512043952942,0.6726067662239075,1.1065014600753784
1783170023916292900,5.59629296875,1.4372360706329346,1.149749517440796,1.2754045724868774
1783170023926241800,5.60624169921875,1.5034211874008179,1.2863091230392456,1.5940097570419312
1783170023936221000,5.616220947265625,1.3631035089492798,1.130787968635559,2.1161510944366455
1783170023946169900,5.626169921875,1.0377776622772217,0.8282195925712585,2.6346614360809326
1783170023956118800,5.636118896484375,0.5798991918563843,0.49364736676216125,2.8759753704071045
1783170023966067700,5.646067626953125,0.11984580755233765,0.24357149004936218,2.7257258892059326
1783170023976046800,5.656046875,-0.2743951082229614,0.2555695176124573,2.251113176345825
1783170023985995800,5.665995849609375,-0.5957129597663879,0.47314712405204773,1.5984052419662476
1783170023995943700,5.675943603515625,-0.8559596538543701,0.8502663373947144,0.9155755043029785
1783170024005893000,5.68589306640625,-1.063241958618164,1.1868939399719238,0.2770211100578308
1783170024015872000,5.6958720703125,-1.2655794620513916,1.3588836193084717,-0.30706697702407837
1783170024025821000,5.705821044921875,-1.4588191509246826,1.5202155113220215,-0.791717529296875
1783170024035769900,5.715769775390625,-1.573620080947876,1.597827672958374,-1.1622720956802368
1783170024045749000,5.7257490234375,-1.6125104427337646,1.4874018430709839,-1.4494487047195435
1783170024055698000,5.735697998046875,-1.6144455671310425,1.232055425643921,-1.6753369569778442
1783170024065645800,5.745645751953125,-1.5946239233016968,0.8731990456581116,-1.8548824787139893
1783170024075595000,5.755594970703125,-1.545130968093872,0.5364646315574646,-1.978600025177002
1783170024085574000,5.765573974609375,-1.4648395776748657,0.3112480044364929,-2.0324325561523438
1783170024095522800,5.775522705078125,-1.3649005889892578,0.22782959043979645,-1.9979538917541504
1783170024105471700,5.7854716796875,-1.2219016551971436,0.26256975531578064,-1.8674707412719727
1783170024115421000,5.7954208984375,-1.0436443090438843,0.44147318601608276,-1.6321892738342285
1783170024125399800,5.80539990234375,-0.8356175422668457,0.7107709050178528,-1.2717950344085693
1783170024135348700,5.8153486328125,-0.5963141918182373,1.021402359008789,-0.7923635244369507
1783170024145297000,5.825296875,-0.34763672947883606,1.2422815561294556,-0.2744910717010498
1783170024155276800,5.83527685546875,-0.1372290551662445,1.2699850797653198,0.1853289008140564
1783170024165224700,5.845224609375,0.001506982371211052,1.0417149066925049,0.5436087250709534
1783170024175174000,5.855173828125,0.045189034193754196,0.6484101414680481,0.7739887833595276
1783170024185123000,5.865123046875,-0.007793225347995758,0.18432293832302094,0.8534271121025085
1783170024195102000,5.87510205078125,-0.16708765923976898,-0.24885374307632446,0.7906709909439087
1783170024205051000,5.88505078125,-0.4185017943382263,-0.49281954765319824,0.676929235458374
1783170024214999000,5.8949990234375,-0.6683088541030884,-0.47783029079437256,0.5863010287284851
1783170024224948000,5.904947998046875,-0.8467329740524292,-0.245104119181633,0.51353919506073
1783170024234926800,5.9149267578125,-0.9404202103614807,0.14020022749900818,0.4271179139614105
1783170024244876000,5.9248759765625,-0.934863805770874,0.5725172758102417,0.3265894651412964
1783170024254825000,5.934824951171875,-0.8396937251091003,0.9041098356246948,0.2612561285495758
1783170024264803800,5.944803955078125,-0.7016921639442444,1.074836015701294,0.2731098532676697
1783170024274752800,5.954752685546875,-0.5880101323127747,1.097215175628662,0.37810632586479187
1783170024284702000,5.964701904296875,-0.4896215498447418,1.1013624668121338,0.5773807764053345
1783170024294649900,5.97464990234375,-0.32822468876838684,1.2521933317184448,0.854806661605835
1783170024304629800,5.984629638671875,-0.1486935317516327,1.4883536100387573,1.086643099784851
1783170024314578000,5.994577880859375,0.04734354838728905,1.7601021528244019,1.2496533393859863
1783170024324526800,6.00452685546875,0.3239905834197998,1.9381251335144043,1.3628171682357788
1783170024334476000,6.01447607421875,0.5641018152236938,1.7127338647842407,1.4621543884277344
1783170024344454700,6.02445458984375,0.6684490442276001,0.9306798577308655,1.5736353397369385
1783170024354404000,6.034404052734375,0.6259644627571106,-0.1466275155544281,1.6822890043258667
1783170024364352000,6.04435205078125,0.4606838822364807,-0.8739581108093262,1.853042721748352
1783170024374332000,6.054331787109375,0.2771552503108978,-1.0637459754943848,2.085625171661377
1783170024384280000,6.064280029296875,0.1320052295923233,-0.7240976691246033,2.3425121307373047
1783170024394229000,6.07422900390625,0.10677757859230042,-0.023703424260020256,2.558112859725952
1783170024404178000,6.084177978515625,0.17056934535503387,0.713083028793335,2.5674190521240234
1783170024414156800,6.09415673828125,0.16531671583652496,1.150877594947815,2.3110413551330566
1783170024424106000,6.10410595703125,0.06071840226650238,1.346779227256775,1.9068877696990967
1783170024434055000,6.114054931640625,-0.1210079938173294,1.3950659036636353,1.5279569625854492
1783170024444002800,6.1240029296875,-0.3110032081604004,1.3830145597457886,1.233811855316162
1783170024453982700,6.133982666015625,-0.40151017904281616,1.2388464212417603,0.9824333786964417
1783170024463931000,6.143930908203125,-0.4178215265274048,0.9181600213050842,0.697284460067749
1783170024473879800,6.1538798828125,-0.40101420879364014,0.5366170406341553,0.3857017755508423
1783170024483859000,6.16385888671875,-0.3576616644859314,0.2726452946662903,0.06424011290073395
1783170024493807900,6.173807861328125,-0.2560173273086548,0.15719111263751984,-0.27642324566841125
1783170024503757000,6.183757080078125,-0.13728749752044678,0.09671179205179214,-0.6228607892990112
1783170024513706000,6.1937060546875,-0.004177778959274292,0.02446046471595764,-0.9319330453872681
1783170024523684900,6.203684814453125,0.13885554671287537,-0.07201440632343292,-1.1745206117630005
1783170024533633000,6.213633056640625,0.28072333335876465,-0.3760906457901001,-1.3803372383117676
1783170024543582000,6.22358203125,0.4250839948654175,-0.744379997253418,-1.5409486293792725
1783170024553531000,6.23353076171875,0.5509043335914612,-1.0516024827957153,-1.6328314542770386
1783170024563510000,6.243510009765625,0.6932334899902344,-1.2028522491455078,-1.655672311782837
1783170024573459000,6.253458984375,0.8414098024368286,-1.2587766647338867,-1.657188892364502
1783170024583407900,6.263407958984375,0.9847315549850464,-1.2098290920257568,-1.640749454498291
1783170024593387000,6.273386962890625,1.1099600791931152,-1.1112929582595825,-1.6084637641906738
1783170024603336000,6.2833359375,1.2088637351989746,-0.9806883931159973,-1.5412524938583374
1783170024613283800,6.293283935546875,1.2739678621292114,-0.9064242839813232,-1.4129431247711182
1783170024623232800,6.303232666015625,1.277001142501831,-0.950821042060852,-1.2260065078735352
1783170024633254700,6.313254638671875,1.2457146644592285,-1.0828808546066284,-0.9864104986190796
1783170024643204000,6.3232041015625,1.2163581848144531,-1.1993595361709595,-0.7142391800880432
1783170024653153000,6.333153076171875,1.210817575454712,-1.2650120258331299,-0.4639943540096283
1783170024663102000,6.34310205078125,1.1997356414794922,-1.2821768522262573,-0.25093695521354675
1783170024673080800,6.353080810546875,1.1573506593704224,-1.2553855180740356,-0.07080526649951935
1783170024683030000,6.363030029296875,1.0804800987243652,-1.2153677940368652,0.05475372076034546
1783170024692978000,6.37297802734375,0.9704779982566833,-1.2141029834747314,0.07585999369621277
1783170024702956800,6.382956787109375,0.8122143149375916,-1.2679533958435059,-0.005438854917883873
1783170024712906000,6.392906005859375,0.6082376837730408,-1.3127305507659912,-0.1493474543094635
1783170024722855000,6.40285498046875,0.40701988339424133,-1.3055109977722168,-0.31789520382881165
1783170024732803800,6.412803955078125,0.23222242295742035,-1.261845350265503,-0.5025895237922668
1783170024742782700,6.42278271484375,0.07627809047698975,-1.2089605331420898,-0.6644663214683533
1783170024752732000,6.43273193359375,-0.06981879472732544,-1.130332589149475,-0.7630130052566528
1783170024762679800,6.4426796875,-0.1611068993806839,-1.0138373374938965,-0.81193608045578
1783170024772628700,6.452628662109375,-0.15931259095668793,-0.895220160484314,-0.8027613162994385
1783170024782608000,6.46260791015625,-0.04108581691980362,-0.7861831784248352,-0.7459454536437988
1783170024792557000,6.47255712890625,0.1549866944551468,-0.6908965706825256,-0.6561543941497803
1783170024802506000,6.482506103515625,0.4357683062553406,-0.5313058495521545,-0.4860798418521881
1783170024812484900,6.49248486328125,0.8698766827583313,-0.38651835918426514,-0.24156329035758972
1783170024822434000,6.50243408203125,1.4274799823760986,-0.6515803933143616,-0.03635074943304062
1783170024832383000,6.512383056640625,1.926450490951538,-1.5084829330444336,0.10006856918334961
1783170024842331000,6.522330810546875,2.1007466316223145,-2.841818332672119,0.2692139148712158
1783170024852310800,6.532310791015625,1.7245988845825195,-3.7006027698516846,0.686375081539154
1783170024862259000,6.542259033203125,0.9369181990623474,-3.117781400680542,1.335997223854065
1783170024872208000,6.552207763671875,0.5421561002731323,-1.5983452796936035,1.670488715171814
1783170024882156800,6.56215673828125,0.7926138639450073,-0.07972860336303711,1.2162588834762573
1783170024892136000,6.572135986328125,1.1927435398101807,1.173539161682129,0.232838436961174
1783170024902084900,6.5820849609375,1.4358960390090942,1.9214893579483032,-0.6146979331970215
1783170024912032800,6.59203271484375,1.4469622373580933,1.9540891647338867,-1.0289206504821777
1783170024922013000,6.602012939453125,1.3061736822128296,1.4706037044525146,-1.0312494039535522
1783170024931960800,6.6119609375,1.1665908098220825,0.6993124485015869,-0.8141254186630249
1783170024941909800,6.62190966796875,1.0573478937149048,-0.1061641275882721,-0.5077018141746521
1783170024951859000,6.63185888671875,1.0110989809036255,-0.6145781874656677,-0.15778905153274536
1783170024961837800,6.641837890625,0.9782590270042419,-0.7958816289901733,0.13717414438724518
1783170024971787000,6.651787109375,0.8485498428344727,-0.7530853152275085,0.26043951511383057
1783170024981736000,6.66173583984375,0.6023174524307251,-0.525690495967865,0.19290709495544434
1783170024991683800,6.671683837890625,0.26987868547439575,-0.14757274091243744,0.0021346653811633587
1783170025001664000,6.6816640625,-0.13038909435272217,0.35171616077423096,-0.2256058156490326
1783170025011612000,6.69161181640625,-0.5396485924720764,0.9349653720855713,-0.40573611855506897
1783170025021560800,6.701560791015625,-0.8898611664772034,1.5477882623672485,-0.491728812456131
1783170025031540000,6.7115400390625,-1.1322096586227417,2.105470895767212,-0.4551143944263458
1783170025041489000,6.721489013671875,-1.240907073020935,2.577582359313965,-0.3070890009403229
1783170025051437800,6.731437744140625,-1.256303071975708,2.957573652267456,-0.0559915229678154
1783170025061386000,6.741385986328125,-1.1849788427352905,3.2029967308044434,0.2709413170814514
1783170025071366000,6.751365966796875,-1.0375715494155884,3.2650771141052246,0.6331967711448669
1783170025081313800,6.761313720703125,-0.8278093338012695,3.1038782596588135,0.9721205234527588
1783170025091262700,6.7712626953125,-0.5733264088630676,2.750115394592285,1.2271150350570679
1783170025101212000,6.7812119140625,-0.32273438572883606,2.2932159900665283,1.3502942323684692
1783170025111190800,6.791190673828125,-0.08565612882375717,1.7949206829071045,1.3498045206069946
1783170025121139700,6.8011396484375,0.11128755658864975,1.261991262435913,1.2596088647842407
1783170025131089000,6.8110888671875,0.21055972576141357,0.7215478420257568,1.0931798219680786
1783170025141068000,6.821068115234375,0.20720094442367554,0.25516098737716675,0.8681077361106873
1783170025151017000,6.831016845703125,0.16480326652526855,-0.04818364232778549,0.6152111887931824
1783170025160964900,6.84096484375,0.14902323484420776,-0.19430597126483917,0.4046078622341156
1783170025170914000,6.8509140625,0.1767418384552002,-0.2650410532951355,0.2650178074836731
1783170025180893000,6.860892822265625,0.2310306429862976,-0.30099186301231384,0.18581244349479675
1783170025190841900,6.870841796875,0.3283272385597229,-0.30433985590934753,0.13599851727485657
1783170025200790800,6.880790771484375,0.4504172205924988,-0.3264797627925873,0.10355348885059357
1783170025210739000,6.890739013671875,0.53863126039505,-0.33820047974586487,0.0725686177611351
1783170025220718800,6.90071875,0.5494996309280396,-0.38541728258132935,0.04083652049303055
1783170025230666800,6.910666748046875,0.49341076612472534,-0.49354204535484314,0.004187736660242081
1783170025240616000,6.920615966796875,0.3608279526233673,-0.619504988193512,-0.005512561649084091
1783170025250564900,6.93056494140625,0.1667432337999344,-0.7362120151519775,0.006957484409213066
1783170025260543700,6.940543701171875,-0.03484421223402023,-0.8528124094009399,0.02972298488020897
1783170025270492700,6.95049267578125,-0.2460007518529892,-0.8123460412025452,0.033132582902908325
1783170025280442000,6.960442138671875,-0.4573044776916504,-0.6451093554496765,-0.0025215493515133858
1783170025290420700,6.970420654296875,-0.5802760720252991,-0.40620678663253784,-0.07080963253974915
1783170025300370000,6.980369873046875,-0.5157727003097534,0.0424538291990757,-0.14561916887760162
1783170025310318000,6.990318115234375,-0.2671358585357666,0.6282786726951599,-0.247744619846344
1783170025320267000,7.00026708984375,0.14403143525123596,0.878503680229187,-0.4799472391605377
1783170025330246000,7.010245849609375,0.44102373719215393,0.794859766960144,-0.8247997760772705
1783170025340194800,7.02019482421875,0.43062886595726013,0.04358420521020889,-1.0971148014068604
1783170025350144000,7.03014404296875,0.12192639708518982,-0.566382110118866,-0.9206013083457947
1783170025360092000,7.040091796875,-0.2894781827926636,-0.2515599727630615,-0.3759521245956421
1783170025370071800,7.05007177734375,-0.49877429008483887,0.44164136052131653,-0.03270011767745018
1783170025380020000,7.06002001953125,-0.37354475259780884,1.1483262777328491,-0.19792422652244568
1783170025389969000,7.069968994140625,-0.12941882014274597,1.5540409088134766,-0.7235488891601562
1783170025399947800,7.07994775390625,-0.07014323770999908,1.6506450176239014,-1.2508265972137451
1783170025409897000,7.08989697265625,-0.1837652623653412,1.5584899187088013,-1.642311692237854
1783170025419846000,7.099845947265625,-0.38639694452285767,1.2907798290252686,-2.0100042819976807
1783170025429794800,7.109794921875,-0.630763828754425,0.9660642743110657,-2.4212939739227295
1783170025439773700,7.119773681640625,-0.862849771976471,0.7619531750679016,-2.7837133407592773
1783170025449723000,7.129722900390625,-1.0545932054519653,0.8123413324356079,-2.977935791015625
1783170025459670800,7.1396708984375,-1.2144019603729248,1.069267988204956,-3.0160415172576904
1783170025469620000,7.149619873046875,-1.2932353019714355,1.4402620792388916,-2.927467107772827
1783170025479599000,7.15959912109375,-1.3106361627578735,1.821425437927246,-2.756157159805298
1783170025489548000,7.169548095703125,-1.271971344947815,2.0832836627960205,-2.478109121322632
1783170025499497000,7.1794970703125,-1.1001609563827515,2.22103214263916,-2.0814695358276367
1783170025509475800,7.189475830078125,-0.7400658130645752,2.240321159362793,-1.5788623094558716
1783170025519425000,7.199425048828125,-0.14799024164676666,1.994143009185791,-1.0342509746551514
1783170025529374000,7.2093740234375,0.5720118284225464,1.3711978197097778,-0.47808927297592163
1783170025539321900,7.21932177734375,1.130388855934143,0.4904569089412689,0.10608308762311935
1783170025549301000,7.229301025390625,1.461842656135559,-0.43993106484413147,0.7006635665893555
1783170025559250000,7.23925,1.6054035425186157,-1.2465219497680664,1.1976873874664307
1783170025569198800,7.24919873046875,1.510869026184082,-1.7416058778762817,1.4431889057159424
1783170025579147800,7.259147705078125,1.185988426208496,-1.9051399230957031,1.3864108324050903
1783170025589127000,7.269126953125,0.7737505435943604,-1.7451151609420776,1.0864229202270508
1783170025599075800,7.279075927734375,0.4263249337673187,-1.4233241081237793,0.6414986252784729
1783170025609023700,7.289023681640625,0.20324920117855072,-1.1258108615875244,0.18779641389846802
1783170025619003600,7.299003662109375,0.05625282973051071,-0.9673240184783936,-0.1672080159187317
1783170025628951800,7.308951904296875,-0.07175831496715546,-0.9815142154693604,-0.3777913749217987
1783170025638899000,7.31889892578125,-0.17516273260116577,-1.0625536441802979,-0.4313233196735382
1783170025648848000,7.328847900390625,-0.25719165802001953,-1.1244157552719116,-0.3480565845966339
1783170025658826800,7.33882666015625,-0.3382657468318939,-1.1641604900360107,-0.183194100856781
1783170025668775700,7.348775634765625,-0.4401410222053528,-1.1726109981536865,0.032466091215610504
1783170025678724900,7.358724853515625,-0.5725230574607849,-1.1458463668823242,0.2772281765937805
1783170025688672800,7.3686728515625,-0.7512179613113403,-1.0568050146102905,0.5131272077560425
1783170025698652700,7.378652587890625,-1.0026730298995972,-0.9443119168281555,0.6944640278816223
1783170025708600800,7.388600830078125,-1.3151488304138184,-0.8038123250007629,0.7931656837463379
1783170025718549800,7.3985498046875,-1.617999792098999,-0.5974569916725159,0.7801406979560852
1783170025728528600,7.408528564453125,-1.8821706771850586,-0.3204280138015747,0.6561392545700073
1783170025738477800,7.418477783203125,-2.0811607837677,0.020865119993686676,0.4362018406391144
1783170025748427000,7.428427001953125,-2.192537307739258,0.2893774211406708,0.16181203722953796
1783170025758374700,7.438374755859375,-2.2143590450286865,0.35665392875671387,-0.13744176924228668
1783170025768354800,7.448354736328125,-2.131974697113037,0.02195640653371811,-0.4251626133918762
1783170025778303000,7.458302978515625,-1.9529831409454346,-0.8997130393981934,-0.7842339873313904
1783170025788252000,7.468251953125,-1.8453378677368164,-1.928390383720398,-1.133873701095581
1783170025798200800,7.478200927734375,-1.7727818489074707,-1.597395420074463,-1.0671237707138062
1783170025808180000,7.488179931640625,-1.4264490604400635,-0.23915918171405792,-0.6004288792610168
1783170025818129000,7.49812890625,-0.902409017086029,0.9375209808349609,-0.06263254582881927
1783170025828077800,7.508077880859375,-0.4581981301307678,1.21821129322052,0.6380271911621094
1783170025838056700,7.518056640625,0.036823056638240814,0.8853025436401367,1.7487905025482178
1783170025848006000,7.528005859375,0.38956353068351746,-0.311880499124527,2.9174227714538574
1783170025857953800,7.537953857421875,0.39660269021987915,-1.8766282796859741,3.788620948791504
1783170025867902700,7.54790283203125,0.25679144263267517,-2.793816566467285,4.186485767364502
1783170025877881900,7.5578818359375,0.20209623873233795,-2.681858539581299,4.014634609222412
1783170025887830800,7.567830810546875,0.19522395730018616,-1.9632058143615723,3.272733449935913
1783170025897779700,7.57777978515625,0.2028041034936905,-0.9944344758987427,2.13126802444458
1783170025907727600,7.5877275390625,0.20478294789791107,-0.1415608823299408,0.8399249315261841
1783170025917707800,7.597707763671875,0.16733917593955994,0.41979700326919556,-0.31740206480026245
1783170025927655700,7.60765576171875,0.11791987717151642,0.76341712474823,-1.1432536840438843
1783170025937604900,7.61760498046875,0.037812259048223495,1.004144549369812,-1.6176718473434448
1783170025947584000,7.627583984375,-0.0756557509303093,1.0959711074829102,-1.8569954633712769
1783170025957533000,7.637532958984375,-0.23958928883075714,0.9549440741539001,-1.9758321046829224
1783170025967481900,7.64748193359375,-0.2984774708747864,0.7598910331726074,-1.9976208209991455
1783170025977430800,7.6574306640625,-0.1546366661787033,0.7021510601043701,-1.8668431043624878
1783170025987410000,7.667409912109375,0.10974283516407013,0.801391065120697,-1.5399342775344849
1783170025997358800,7.67735888671875,0.4001043736934662,0.9372040033340454,-1.055096983909607
1783170026007306800,7.687306640625,0.6365816593170166,1.0591453313827515,-0.4648849666118622
1783170026017255700,7.697255615234375,0.8203049302101135,1.146905541419983,0.14273786544799805
1783170026027234800,7.70723486328125,0.9847356677055359,1.206945538520813,0.6786794662475586
1783170026037183700,7.717183837890625,1.1004457473754883,1.1924934387207031,1.0846061706542969
1783170026047132700,7.727132568359375,1.1313556432724,1.0798083543777466,1.3518091440200806
1783170026057111800,7.73711181640625,1.0616832971572876,0.8900177478790283,1.4733755588531494
1783170026067060700,7.747060791015625,0.9177632331848145,0.685585618019104,1.431956171989441
1783170026077008600,7.757008544921875,0.7410523891448975,0.49287232756614685,1.2255548238754272
1783170026086957600,7.76695751953125,0.5129857063293457,0.32199007272720337,0.8772925138473511
1783170026096936700,7.776936767578125,0.23412153124809265,0.12320320308208466,0.4228808283805847
1783170026106886000,7.786885986328125,-0.09927760064601898,-0.10564389079809189,-0.02302848920226097
1783170026116834800,7.796834716796875,-0.510827362537384,-0.21505507826805115,-0.3516031801700592
1783170026126783700,7.80678369140625,-0.9720084071159363,-0.15018370747566223,-0.5658288598060608
1783170026136763000,7.816762939453125,-1.4277642965316772,0.07859086990356445,-0.6730402112007141
1783170026146711800,7.8267119140625,-1.8359986543655396,0.45452308654785156,-0.7049229741096497
1783170026156660000,7.836659912109375,-2.1617579460144043,0.8689625859260559,-0.7143378257751465
1783170026166639900,7.846639892578125,-2.3838860988616943,1.3051886558532715,-0.7610218524932861
1783170026176587800,7.856587890625,-2.562058925628662,1.6851540803909302,-0.8786075711250305
1783170026186536700,7.86653662109375,-2.7121474742889404,1.940657138824463,-1.0061841011047363
1783170026196485600,7.876485595703125,-2.8113582134246826,2.0378570556640625,-1.0338321924209595
1783170026206464800,7.88646484375,-2.8539693355560303,1.970172643661499,-0.9691683053970337
1783170026216413700,7.89641357421875,-2.842716693878174,1.8555984497070312,-0.8239927291870117
1783170026226361900,7.90636181640625,-2.722346782684326,1.8484481573104858,-0.6535875201225281
1783170026236310800,7.916310791015625,-2.516526937484741,1.9899853467941284,-0.5001828074455261
1783170026246289700,7.92628955078125,-2.2878611087799072,2.0822079181671143,-0.4351373016834259
1783170026256238600,7.936238525390625,-2.132796287536621,1.799869179725647,-0.6448404788970947
1783170026266188000,7.94618798828125,-2.1833291053771973,1.1304787397384644,-1.1709192991256714
1783170026276167000,7.9561669921875,-2.4461429119110107,-0.318096786737442,-1.8757520914077759
1783170026286115800,7.96611572265625,-1.9601496458053589,-1.0292766094207764,-2.773218870162964
1783170026296064800,7.976064697265625,-1.3272103071212769,-0.7262190580368042,-3.91040301322937
1783170026306013000,7.986012939453125,-1.0790271759033203,0.28667154908180237,-4.305133819580078
1783170026315992800,7.995992919921875,-0.62131667137146,0.6454023122787476,-3.8385941982269287
1783170026325940700,8.005940673828125,-0.11418601870536804,0.8104960322380066,-3.053663492202759
1783170026335890000,8.015889892578125,0.4240047335624695,0.8363772034645081,-2.070568561553955
1783170026345838800,8.0258388671875,1.0179857015609741,0.6476885676383972,-0.9037275910377502
1783170026355817700,8.035817626953126,1.5872278213500977,0.27621567249298096,0.2424793690443039
1783170026365766700,8.0457666015625,2.080861806869507,-0.24508275091648102,1.200034737586975
1783170026375714800,8.05571484375,2.4083657264709473,-0.8277965188026428,1.9518680572509766
1783170026385663700,8.065663818359376,2.568523406982422,-1.4256569147109985,2.4795782566070557
1783170026395643000,8.075642822265625,2.616870164871216,-1.9722996950149536,2.7244091033935547
1783170026405591800,8.085591796875,2.676271677017212,-2.4404754638671875,2.711336612701416
1783170026415540700,8.095540771484375,2.714120388031006,-2.85056209564209,2.4678611755371094
1783170026425519600,8.10551953125,2.6548008918762207,-3.1395745277404785,2.0371313095092773
1783170026435468800,8.11546875,2.5183634757995605,-3.265371561050415,1.4998875856399536
1783170026445418000,8.12541796875,2.3765738010406494,-3.1886978149414062,0.9514778852462769
1783170026455366000,8.135365966796876,2.2586257457733154,-2.9014573097229004,0.48162463307380676
1783170026465345800,8.145345703125,2.1801981925964355,-2.523503303527832,0.14944803714752197
1783170026475294000,8.1552939453125,2.1192514896392822,-2.1151814460754395,-0.0396537110209465
1783170026485243000,8.165242919921875,2.0658178329467773,-1.6873818635940552,-0.1294420063495636
1783170026495191800,8.17519189453125,1.9957491159439087,-1.3296133279800415,-0.20998531579971313
1783170026505171000,8.1851708984375,1.8935351371765137,-1.119933009147644,-0.31948035955429077
1783170026515119900,8.195119873046876,1.7187588214874268,-1.060760498046875,-0.4087974727153778
1783170026525068800,8.20506884765625,1.4852467775344849,-1.080618143081665,-0.4012112319469452
1783170026535047700,8.215047607421875,1.241076946258545,-1.0946191549301147,-0.25714990496635437
1783170026544996900,8.224996826171875,1.0229876041412354,-1.0977392196655273,-0.008212322369217873
1783170026554944800,8.23494482421875,0.8573976755142212,-1.09446382522583,0.29251155257225037
1783170026564893700,8.244893798828125,0.7653934359550476,-1.131230115890503,0.6180810332298279
1783170026574872800,8.254872802734376,0.751107394695282,-1.1989083290100098,0.948549747467041
1783170026584821800,8.26482177734375,0.8102417588233948,-1.24928617477417,1.2580502033233643
1783170026594771000,8.27477099609375,0.9103861451148987,-1.266097068786621,1.4791299104690552
1783170026604718600,8.284718505859376,0.9676249623298645,-1.2772172689437866,1.5749638080596924
1783170026614699000,8.294698974609375,0.9336805939674377,-1.2609285116195679,1.5462173223495483
1783170026624647000,8.30464697265625,0.8209991455078125,-1.1935895681381226,1.443847894668579
1783170026634636500,8.314636474609374,0.6729156970977783,-1.0285897254943848,1.2956956624984741
1783170026644615700,8.32461572265625,0.5293681025505066,-0.8351479768753052,1.1040337085723877
1783170026654564600,8.334564697265625,0.42892056703567505,-0.7214800119400024,0.855233371257782
1783170026664513500,8.344513427734375,0.3531936705112457,-0.9408411383628845,0.5896464586257935
1783170026674462500,8.35446240234375,0.26251569390296936,-1.863581657409668,0.3866459131240845
1783170026684441600,8.364441650390624,0.030223790556192398,-3.421450614929199,0.2871816158294678
1783170026694390500,8.374390625,-0.2852526605129242,-4.896219730377197,0.3394405245780945
1783170026704338400,8.38433837890625,-0.615211009979248,-5.376326560974121,0.5578123331069946
1783170026714287600,8.39428759765625,-1.075178861618042,-4.457216739654541,0.8870221972465515
1783170026724266500,8.4042666015625,-1.5769803524017334,-2.8417611122131348,1.0852854251861572
1783170026734215700,8.414215576171875,-1.7981929779052734,-1.3095108270645142,0.9861449003219604
1783170026744164600,8.42416455078125,-1.5200614929199219,0.2445315718650818,0.7742286324501038
1783170026754143700,8.434143798828124,-1.0403852462768555,1.6457884311676025,0.8280417919158936
1783170026764092700,8.4440927734375,-0.6141567826271057,2.4030933380126953,1.2629354000091553
1783170026774040600,8.45404052734375,-0.3425644040107727,2.608956813812256,1.9546568393707275
1783170026783989800,8.46398974609375,-0.09810830652713776,2.3425114154815674,2.595580816268921
1783170026793968600,8.47396875,0.10945074260234833,1.6983016729354858,2.8880372047424316
1783170026803917600,8.48391748046875,0.17891794443130493,1.054826259613037,2.8346779346466064
1783170026813866500,8.493866455078125,0.12980979681015015,0.7390714287757874,2.64094877243042
1783170026823815700,8.503815673828125,0.1201985627412796,0.6837553977966309,2.425853967666626
1783170026833794600,8.513794677734374,0.1689961850643158,0.6845743060112,2.1009814739227295
1783170026843743500,8.523743408203124,0.16637608408927917,0.7944854497909546,1.6459815502166748
1783170026853691600,8.533691650390624,0.1729932427406311,0.9918331503868103,1.1065683364868164
1783170026863671600,8.543671630859375,0.1267910748720169,1.2015600204467773,0.621303915977478
1783170026873619500,8.553619384765625,0.04883342981338501,1.3000658750534058,0.3451194763183594
1783170026883568600,8.563568603515625,-0.04679775610566139,1.0926066637039185,0.19909274578094482
1783170026893517800,8.573517822265625,-0.18312551081180573,0.5086238980293274,0.07042372226715088
1783170026903496700,8.58349658203125,-0.41247960925102234,-0.2424488067626953,-0.11777335405349731
1783170026913445600,8.593445556640624,-0.7769901752471924,-0.6764598488807678,-0.3820526599884033
1783170026923393800,8.603393798828124,-1.1275286674499512,-0.5994318127632141,-0.6904762387275696
1783170026933342700,8.6133427734375,-1.3585724830627441,-0.13441996276378632,-1.055062174797058
1783170026943321600,8.623321533203125,-1.4452321529388428,0.5080863237380981,-1.4563055038452148
1783170026953270800,8.633270751953125,-1.371549129486084,1.1315802335739136,-1.8159960508346558
1783170026963219700,8.6432197265625,-1.1969343423843384,1.6193639039993286,-2.054110050201416
1783170026973198600,8.653198486328124,-1.030493140220642,1.8329918384552002,-2.158188819885254
1783170026983147500,8.6631474609375,-0.9290893077850342,1.7516318559646606,-2.1489970684051514
1783170026993096700,8.6730966796875,-0.933286726474762,1.4907549619674683,-2.0726747512817383
1783170027003044600,8.683044677734374,-1.026432752609253,1.0721867084503174,-1.99335515499115
1783170027013024500,8.6930244140625,-1.14642333984375,0.5928256511688232,-1.991805911064148
1783170027022972700,8.70297265625,-1.2082489728927612,0.1009601429104805,-2.0958774089813232
1783170027032921600,8.712921630859375,-1.163490891456604,-0.35973238945007324,-2.313595771789551
1783170027042870500,8.72287060546875,-1.0440866947174072,-0.6215457320213318,-2.617358684539795
1783170027052849400,8.732849365234374,-0.8879469633102417,-0.5895566344261169,-2.889463186264038
1783170027062798800,8.742798828125,-0.7788627743721008,-0.23609736561775208,-2.9932785034179688
1783170027072746500,8.75274658203125,-0.7270727753639221,0.3074948191642761,-2.7974276542663574
1783170027082726700,8.7627265625,-0.7075330018997192,0.732479989528656,-2.232137441635132
1783170027092674800,8.7726748046875,-0.7310982346534729,0.8143487572669983,-1.389022946357727
1783170027102623700,8.782623779296875,-0.7747021913528442,0.45989811420440674,-0.3999166190624237
1783170027112572700,8.79257275390625,-0.8360462784767151,-0.3026450574398041,0.5149950385093689
1783170027122551600,8.802551513671874,-1.0068918466567993,-1.3380792140960693,1.1430847644805908
1783170027132500700,8.812500732421874,-1.2982814311981201,-2.335190773010254,1.4614379405975342
1783170027142449700,8.82244970703125,-1.5257127285003662,-2.8545305728912354,1.5466479063034058
1783170027152397600,8.8323974609375,-1.627044677734375,-2.717088460922241,1.3886257410049438
1783170027162377500,8.84237744140625,-1.6130777597427368,-1.970812439918518,1.0334759950637817
1783170027172325600,8.85232568359375,-1.4694545269012451,-0.640310525894165,0.6239297389984131
1783170027182274600,8.862274658203125,-1.2301287651062012,0.7520540952682495,0.31185925006866455
1783170027192253700,8.872253662109374,-0.998566746711731,1.7265065908432007,0.18553778529167175
1783170027202202600,8.88220263671875,-0.8846510648727417,2.1675620079040527,0.21477662026882172
1783170027212151600,8.892151611328124,-0.8796613812446594,1.9668089151382446,0.36093997955322266
1783170027222099500,8.902099365234376,-0.957953155040741,1.2544524669647217,0.5642654299736023
1783170027232080000,8.912079833984375,-1.0597505569458008,0.44262295961380005,0.755713164806366
1783170027242027500,8.922027587890625,-1.0964527130126953,-0.12165230512619019,0.8526570200920105
1783170027251976700,8.931976806640625,-0.981482207775116,-0.5562711358070374,0.8160009980201721
1783170027261925600,8.941925537109375,-0.6245647668838501,-0.7784777283668518,0.6678833365440369
1783170027271904800,8.95190478515625,-0.06307347863912582,-0.5671513676643372,0.4681316316127777
1783170027281853700,8.961853759765624,0.47659921646118164,-0.38655367493629456,0.2165669947862625
1783170027291802600,8.971802734375,0.6162713766098022,-0.3997163474559784,-0.0546804815530777
1783170027301781800,8.98178173828125,0.3206169605255127,-0.4025860130786896,-0.2550811469554901
1783170027311730700,8.991730712890625,-0.0528157539665699,-0.29692962765693665,-0.35428789258003235
1783170027321678600,9.0016787109375,-0.23823857307434082,-0.05720464885234833,-0.39984938502311707
1783170027331627500,9.01162744140625,-0.1646708846092224,0.2892664670944214,-0.4375685155391693
1783170027341606700,9.021606689453124,0.08789682388305664,0.7081480026245117,-0.45638614892959595
1783170027351555600,9.0315556640625,0.426301509141922,1.089067816734314,-0.42050641775131226
1783170027361504500,9.04150439453125,0.7354327440261841,1.2877885103225708,-0.30297163128852844
1783170027371453400,9.051453369140624,0.9185248017311096,1.2445824146270752,-0.11857886612415314
1783170027381432600,9.0614326171875,0.9592146277427673,0.9966006278991699,0.07226060330867767
1783170027391380500,9.07138037109375,0.8675717711448669,0.6620287895202637,0.17362025380134583
1783170027401329400,9.081329345703125,0.6887971758842468,0.37373676896095276,0.15698106586933136
1783170027411278800,9.09127880859375,0.47002220153808594,0.1282724142074585,0.12557920813560486
1783170027421257700,9.1012578125,0.30173981189727783,-0.10554426163434982,0.18819907307624817
1783170027431206700,9.11120654296875,0.20987381041049957,-0.3254811763763428,0.37377721071243286
1783170027441155600,9.121155517578124,0.16742661595344543,-0.46328678727149963,0.5785254836082458
1783170027451134700,9.131134765625,0.17712824046611786,-0.5118823051452637,0.7118414640426636
1783170027461083600,9.141083740234375,0.2540052533149719,-0.4522726833820343,0.7545568943023682
1783170027471031600,9.151031494140625,0.3779759407043457,-0.3682608902454376,0.7140049338340759
1783170027480980700,9.160980712890625,0.4941290616989136,-0.3840085566043854,0.5954117178916931
1783170027490959600,9.170959716796874,0.5722417235374451,-0.49346980452537537,0.41988813877105713
1783170027500908500,9.180908447265624,0.5879214406013489,-0.6207699179649353,0.23009149730205536
1783170027510857500,9.190857421875,0.5418370366096497,-0.7293035387992859,0.045562393963336945
1783170027520806700,9.200806640625,0.47986358404159546,-0.7358735203742981,-0.13459885120391846
1783170027530785500,9.21078564453125,0.38263851404190063,-0.7629626989364624,-0.3239184319972992
1783170027540734500,9.220734375,0.24382998049259186,-0.7875837683677673,-0.5084369778633118
1783170027550682600,9.2306826171875,0.12546737492084503,-0.7876572608947754,-0.6068729758262634
1783170027560662800,9.240662841796874,0.014541925862431526,-0.7861260175704956,-0.6153260469436646
1783170027570610400,9.2506103515625,-0.09854894131422043,-0.7719947695732117,-0.5795928239822388
1783170027580559600,9.2605595703125,-0.1968717873096466,-0.7613770961761475,-0.4999306797981262
1783170027590508800,9.2705087890625,-0.2559060752391815,-0.7701311707496643,-0.3894566297531128
1783170027600487700,9.28048779296875,-0.2586757242679596,-0.8076122999191284,-0.2626563608646393
1783170027610436600,9.2904365234375,-0.22556090354919434,-0.8878621459007263,-0.16773942112922668
1783170027620384800,9.300384765625,-0.19291475415229797,-1.0263400077819824,-0.15350304543972015
1783170027630333700,9.310333740234375,-0.15669098496437073,-1.2115322351455688,-0.2608126997947693
1783170027640328000,9.320327880859375,-0.1572168469429016,-1.383367896080017,-0.4757910668849945
1783170027650276900,9.33027685546875,-0.17316144704818726,-1.59258234500885,-0.7664082646369934
1783170027660225800,9.340225830078126,-0.1904611885547638,-1.7726309299468994,-1.069793939590454
1783170027670205000,9.350204833984375,-0.2386052906513214,-1.695792317390442,-1.3025933504104614
1783170027680153900,9.36015380859375,-0.2754395008087158,-1.3240573406219482,-1.4166001081466675
1783170027690102800,9.370102783203125,-0.14822590351104736,-0.7892400622367859,-1.3754347562789917
1783170027700051000,9.380051025390625,0.0875965803861618,-0.33180519938468933,-1.3127919435501099
1783170027710030800,9.39003076171875,0.4044719934463501,-0.016464831307530403,-1.3773612976074219
1783170027719978800,9.399978759765625,0.5381454825401306,-0.6108587384223938,-1.7783712148666382
1783170027729927700,9.409927734375,0.4643876552581787,-1.6756075620651245,-2.5509650707244873
1783170027739876900,9.419876953125,0.5154792070388794,-2.2789735794067383,-3.3941848278045654
1783170027749856000,9.42985595703125,0.702844500541687,-2.1624767780303955,-3.928622245788574
1783170027759805000,9.439804931640625,0.8523823618888855,-1.3928130865097046,-3.982388734817505
1783170027769753000,9.449753173828125,0.8851152658462524,-0.6296270489692688,-3.701401472091675
1783170027779733000,9.45973291015625,0.9077047109603882,-0.23585428297519684,-3.355416774749756
1783170027789681000,9.469680908203125,1.0518558025360107,-0.33309587836265564,-3.0168747901916504
1783170027799629800,9.4796298828125,1.2332935333251953,-0.6829633712768555,-2.6011486053466797
1783170027809579000,9.4895791015625,1.246880292892456,-0.9458434581756592,-2.1196796894073486
1783170027819558000,9.499557861328125,1.0476489067077637,-1.0849257707595825,-1.6905931234359741
1783170027829506800,9.5095068359375,0.6727407574653625,-1.0802500247955322,-1.4596397876739502
1783170027839455700,9.519455810546875,0.31126201152801514,-1.0274468660354614,-1.4355762004852295
1783170027849404000,9.52940380859375,0.20305617153644562,-0.976779043674469,-1.520493745803833
1783170027859383800,9.5393837890625,0.3824469745159149,-0.8646579384803772,-1.6538567543029785
1783170027869331700,9.549331787109375,0.7741700410842896,-0.5307266116142273,-1.7950615882873535
1783170027879281000,9.559281005859376,1.2421079874038696,-0.02142172120511532,-1.9333676099777222
1783170027889259800,9.569259765625,1.611952543258667,0.45112931728363037,-2.1505088806152344
1783170027899208700,9.579208740234375,1.640397310256958,0.6700723767280579,-2.540907859802246
1783170027909158000,9.589157958984375,1.3277090787887573,0.7244107723236084,-2.9191033840179443
1783170027919105800,9.599105712890625,0.9185333251953125,0.8392854928970337,-3.039583206176758
1783170027929086000,9.6090859375,0.6099139451980591,0.9780553579330444,-2.7977869510650635
1783170027939034000,9.6190341796875,0.4209403395652771,1.0967036485671997,-2.2552907466888428
1783170027948983000,9.628983154296876,0.34164953231811523,1.1426650285720825,-1.5479079484939575
1783170027958932000,9.638931884765626,0.4108605980873108,1.0620111227035522,-0.7623719573020935
1783170027968910800,9.648910888671875,0.6014068722724915,0.8900153040885925,0.014716064557433128
1783170027978859800,9.65885986328125,0.8263527750968933,0.7383705973625183,0.7263700366020203
1783170027988809000,9.66880908203125,1.0004174709320068,0.6175187230110168,1.311044692993164
1783170027998787800,9.678787841796876,1.0565921068191528,0.5561002492904663,1.7359883785247803
1783170028008736800,9.68873681640625,0.9677319526672363,0.5060344338417053,2.0035057067871094
1783170028018685000,9.698684814453125,0.7857903242111206,0.5471755266189575,2.1674256324768066
1783170028028633900,9.7086337890625,0.6143215894699097,0.6735982298851013,2.268303632736206
1783170028038612700,9.71861279296875,0.4977947473526001,0.7968820333480835,2.3304429054260254
1783170028048562000,9.72856201171875,0.4537796378135681,0.9007437229156494,2.354647159576416
1783170028058510800,9.7385107421875,0.4848717749118805,0.990351140499115,2.338362455368042
1783170028068458800,9.748458740234375,0.567380964756012,1.0702539682388306,2.26835298538208
1783170028078439000,9.75843896484375,0.6583231687545776,1.101768136024475,2.146453380584717
1783170028088386800,9.76838671875,0.6791378259658813,1.0390909910202026,2.0003199577331543
1783170028098336000,9.7783359375,0.6302827596664429,0.9051644206047058,1.8802210092544556
1783170028108315000,9.78831494140625,0.5487871170043945,0.740553081035614,1.8210828304290771
1783170028118264000,9.79826416015625,0.46871599555015564,0.5721334218978882,1.8222161531448364
1783170028128213000,9.808212890625,0.39477652311325073,0.34323129057884216,1.8420764207839966
1783170028138162000,9.818161865234375,0.4142150282859802,-0.19831989705562592,1.8455227613449097
1783170028148140800,9.828140869140626,0.7013392448425293,-0.8770488500595093,1.84818434715271
1783170028158090000,9.838090087890626,1.2562153339385986,-1.2682628631591797,1.901965856552124
1783170028168038000,9.848037841796875,1.9352941513061523,-1.3953485488891602,2.076876640319824
1783170028177986800,9.85798681640625,2.57712984085083,-1.2800425291061401,2.429036855697632
1783170028187966000,9.867966064453125,2.9056355953216553,-1.0685051679611206,2.9748730659484863
1783170028197915000,9.877914794921875,3.007622003555298,-1.0769520998001099,3.625535249710083
1783170028207863800,9.88786376953125,3.0624446868896484,-1.2208514213562012,4.21521520614624
1783170028217843000,9.897843017578126,3.0750505924224854,-1.3628445863723755,4.576837539672852
1783170028227792000,9.9077919921875,2.9820868968963623,-1.6477749347686768,4.578044414520264
1783170028237739800,9.91773974609375,2.6906051635742188,-2.1912288665771484,4.122035026550293
1783170028247688700,9.927688720703125,2.1955108642578125,-3.043388605117798,3.1988298892974854
1783170028257667800,9.937667724609375,1.7417969703674316,-3.7505385875701904,2.0896706581115723
1783170028267617000,9.947616943359375,1.4581111669540405,-4.00437068939209,1.158898949623108
1783170028277566000,9.95756591796875,1.3001353740692139,-3.526679515838623,0.5496532320976257
1783170028287515000,9.967514892578125,1.1892529726028442,-2.36908221244812,0.146865576505661
1783170028297494000,9.977493896484376,1.0278832912445068,-1.1239758729934692,-0.268591970205307
1783170028307443000,9.98744287109375,0.6530370116233826,-0.25535649061203003,-0.8883556127548218
1783170028317390800,9.997390869140625,0.12319132685661316,0.39600223302841187,-1.7282251119613647
1783170028327371000,10.00737109375,-0.39622175693511963,1.0077265501022339,-2.639815092086792
1783170028337319000,10.01731884765625,-0.8082759380340576,1.652205467224121,-3.457441568374634
1783170028347267800,10.027267822265625,-1.0800185203552246,2.280714750289917,-4.092623233795166
1783170028357216800,10.037216796875,-1.123412847518921,2.8128433227539062,-4.531569480895996
1783170028367196000,10.04719580078125,-0.9652793407440186,3.1505367755889893,-4.762619972229004
1783170028377144800,10.057144775390626,-0.7218666672706604,3.2538299560546875,-4.760690212249756
1783170028387093800,10.06709375,-0.504855751991272,3.1182615756988525,-4.491556644439697
1783170028397042000,10.0770419921875,-0.34363359212875366,2.7359092235565186,-3.9490880966186523
1783170028407020800,10.087020751953125,-0.22582092881202698,2.1982789039611816,-3.132960081100464
1783170028416969700,10.0969697265625,-0.18875065445899963,1.5561084747314453,-2.1540167331695557
1783170028426919000,10.1069189453125,-0.2541576325893402,0.8524236083030701,-1.1644647121429443
1783170028436867800,10.116867919921875,-0.39153704047203064,0.15538564324378967,-0.2915493845939636
1783170028446847000,10.126846923828126,-0.5253603458404541,-0.44036003947257996,0.4035217761993408
1783170028456796000,10.1367958984375,-0.6083801984786987,-0.8556559085845947,0.9091804027557373
1783170028466744000,10.146744140625,-0.631358802318573,-1.0790258646011353,1.2196986675262451
1783170028476724000,10.156723876953125,-0.6140072345733643,-1.1399219036102295,1.3425114154815674
1783170028486672000,10.166671875,-0.5752803683280945,-1.0443596839904785,1.3243342638015747
1783170028496620800,10.176620849609375,-0.5227810740470886,-0.7924570441246033,1.2160485982894897
1783170028506570000,10.186570068359375,-0.4862467646598816,-0.5266274809837341,1.0643229484558105
1783170028516548900,10.196548828125,-0.49992498755455017,-0.308893620967865,0.890884518623352
1783170028526497800,10.206497802734376,-0.5911281108856201,-0.18610380589962006,0.7143784165382385
1783170028536446700,10.21644677734375,-0.7401371002197266,-0.1986633986234665,0.534051239490509
1783170028546395000,10.226394775390625,-0.8978838920593262,-0.3471612334251404,0.3783721327781677
1783170028556374800,10.236374755859375,-1.0595595836639404,-0.5907515287399292,0.2212134152650833
1783170028566322700,10.24632275390625,-1.221082091331482,-0.8110415935516357,0.08113141357898712
1783170028576272000,10.25627197265625,-1.3651225566864014,-0.9173777103424072,-0.020464377477765083
1783170028586250800,10.266250732421875,-1.485429286956787,-0.9644752144813538,-0.10293208807706833
1783170028596200000,10.276199951171876,-1.5446118116378784,-0.9652906060218811,-0.17875812947750092
1783170028606148900,10.28614892578125,-1.5128467082977295,-0.9022429585456848,-0.2514544427394867
1783170028616097000,10.296096923828125,-1.384937047958374,-0.8894593119621277,-0.3343636989593506
1783170028626077000,10.306076904296875,-1.1369436979293823,-1.0051445960998535,-0.4447421431541443
1783170028636045600,10.316045654296875,-0.7452437877655029,-1.2699393033981323,-0.5931222438812256
1783170028645994800,10.325994873046875,-0.44787684082984924,-1.6545737981796265,-0.6994825005531311
1783170028655943700,10.335943603515625,-0.3619471788406372,-1.7967915534973145,-0.6936321258544922
1783170028665922600,10.345922607421874,-0.38971197605133057,-1.6100693941116333,-0.5384119153022766
1783170028675871500,10.35587158203125,-0.2988470494747162,-1.2147189378738403,-0.23134125769138336
1783170028685820700,10.365820556640625,0.031016880646348,-0.9266132116317749,0.19805137813091278
1783170028695799600,10.375799560546875,0.48380395770072937,-1.1190632581710815,0.6619177460670471
1783170028705748500,10.38574853515625,0.7695693969726562,-1.7702897787094116,1.0439887046813965
1783170028715696600,10.395696533203125,0.709130585193634,-2.5387535095214844,1.3441979885101318
1783170028725645600,10.4056455078125,0.5322312116622925,-2.8061039447784424,1.7157912254333496
1783170028735624400,10.41562451171875,0.5579568147659302,-2.3339247703552246,2.265519380569458
1783170028745573600,10.42557373046875,0.6881954669952393,-1.5519949197769165,2.817850351333618
1783170028755522800,10.435522705078125,0.7371819615364075,-0.965191662311554,3.13093638420105
1783170028765470700,10.445470703125,0.6817341446876526,-0.5682211518287659,3.1334047317504883
1783170028775450600,10.45545068359375,0.6471104621887207,-0.2442438006401062,2.9386825561523438
1783170028785398800,10.465398681640625,0.6642801761627197,-0.006906612776219845,2.6418421268463135
1783170028795347700,10.47534765625,0.6803644299507141,-0.01847863383591175,2.2020907402038574
1783170028805326600,10.48532666015625,0.6631420254707336,-0.2678402364253998,1.2321710586547852
1783170028815275800,10.49527587890625,0.7008318901062012,-0.8627774715423584,-0.5280094742774963
1783170028825224700,10.505224609375,0.6950333714485168,-1.343213438987732,-2.221095561981201
1783170028835173600,10.515173583984375,0.6214783787727356,-0.5909206867218018,-3.341630697250366
1783170028845152500,10.525152587890625,0.7104591131210327,1.0698585510253906,-4.079953670501709
1783170028855101700,10.535101806640625,0.8834287524223328,2.6366806030273438,-4.564781665802002
1783170028865049600,10.545049560546875,0.9556379318237305,3.7300853729248047,-4.83826208114624
1783170028874998500,10.55499853515625,0.9039852023124695,4.392480373382568,-4.91739559173584
1783170028884977700,10.564977783203124,0.755409300327301,4.7622785568237305,-4.836960792541504
1783170028894926600,10.574926513671874,0.5173589587211609,4.980640411376953,-4.642710208892822
1783170028904875500,10.58487548828125,-0.04608120769262314,4.880778789520264,-4.406017780303955
1783170028914854400,10.5948544921875,-0.7980408072471619,4.3976545333862305,-4.1203742027282715
1783170028924803800,10.604803955078125,-1.1712127923965454,3.794929027557373,-3.6939046382904053
1783170028934751700,10.614751708984375,-1.044707179069519,3.1226694583892822,-3.042560338973999
1783170028944700700,10.62470068359375,-0.7263725996017456,2.4862821102142334,-2.1986613273620605
1783170028954679800,10.6346796875,-0.4367082417011261,2.005868673324585,-1.2998085021972656
1783170028964628700,10.644628662109374,-0.20320947468280792,1.6351730823516846,-0.46547290682792664
1783170028974577700,10.65457763671875,0.0054323710501194,1.3094156980514526,0.29212814569473267
1783170028984526600,10.664526611328125,0.19815894961357117,1.036157488822937,1.0240330696105957
1783170028994505700,10.674505615234375,0.3440147638320923,0.8116487264633179,1.7210296392440796
1783170029004454700,10.68445458984375,0.4230952262878418,0.6731427907943726,2.3230412006378174
1783170029014402600,10.694402587890625,0.39104050397872925,0.6222965121269226,2.755368709564209
1783170029024382500,10.704382568359375,0.2532709240913391,0.5916355848312378,3.0119028091430664
1783170029034330600,10.71433056640625,0.06608634442090988,0.571730375289917,3.0982205867767334
1783170029044279600,10.724279541015624,-0.0987233817577362,0.5859412550926208,3.029539108276367
1783170029054228500,10.734228515625,-0.22382958233356476,0.5442383885383606,2.8092644214630127
1783170029064207600,10.74420751953125,-0.34183210134506226,0.43863895535469055,2.4676549434661865
1783170029074156500,10.754156494140625,-0.49281635880470276,0.391937255859375,2.064300298690796
1783170029084104400,10.7641044921875,-0.6937023401260376,0.5264825820922852,1.6756597757339478
1783170029094053600,10.7740537109375,-0.8840252757072449,0.848460853099823,1.344416618347168
1783170029104032500,10.784032470703124,-0.9522291421890259,1.1994730234146118,1.0650911331176758
1783170029113981700,10.793981689453124,-0.8927149772644043,1.4964410066604614,0.8286104798316956
1783170029123930600,10.8039306640625,-0.7851157784461975,1.7001019716262817,0.6449120044708252
1783170029133909800,10.81390966796875,-0.7734946608543396,1.7477575540542603,0.5336188077926636
1783170029143858700,10.823858642578125,-0.8009329438209534,1.675904631614685,0.5623849630355835
1783170029153807600,10.8338076171875,-0.7733938694000244,1.4531009197235107,0.7425966858863831
1783170029163755800,10.843755859375,-0.7279976606369019,0.9076097011566162,1.0359772443771362
1783170029173735700,10.853735595703125,-0.7277710437774658,0.17482954263687134,1.554337978363037
1783170029183683600,10.86368359375,-0.7452815771102905,-0.644500195980072,2.43877911567688
1783170029193632500,10.873632568359374,-0.763607919216156,-1.4900739192962646,3.6676836013793945
1783170029203581700,10.883581787109375,-0.7699552774429321,-2.4085264205932617,5.078433036804199
1783170029213560600,10.893560546875,-0.45644843578338623,-2.7030675411224365,6.054985523223877
1783170029223509500,10.903509521484375,0.19379110634326935,-2.6934821605682373,5.7786126136779785
1783170029233458400,10.91345849609375,0.8424571752548218,-2.4978713989257812,4.526503086090088
1783170029243437600,10.9234375,1.1108061075210571,-1.4964442253112793,3.2574594020843506
1783170029253385500,10.933385498046874,1.2783682346343994,-0.8739383816719055,1.7319304943084717
1783170029263334700,10.943334716796874,1.0969607830047607,-1.1690949201583862,0.058897294104099274
1783170029273283800,10.953283935546875,0.44560322165489197,-1.0043234825134277,-1.1399973630905151
1783170029283262700,10.9632626953125,-0.17618711292743683,-0.07869146764278412,-1.8798123598098755
1783170029293211600,10.973211669921875,-0.42092302441596985,0.6433529853820801,-2.5157203674316406
1783170029303160600,10.98316064453125,-0.4750978648662567,1.0795577764511108,-3.176913022994995
1783170029313108700,10.993108642578125,-0.22473420202732086,1.6036356687545776,-3.6952977180480957
1783170029323088600,11.003088623046875,0.3113830089569092,1.9006577730178833,-4.112424850463867
1783170029333036500,11.01303662109375,0.7567606568336487,1.3125896453857422,-4.432354927062988
1783170029342985700,11.02298583984375,0.8564597964286804,0.9156370162963867,-4.408730983734131
1783170029352964600,11.032964599609375,0.8414559364318848,1.448965072631836,-3.84380841255188
1783170029362913500,11.04291357421875,0.5746135711669922,1.9671746492385864,-3.0110201835632324
1783170029372862500,11.052862548828125,0.15604786574840546,2.214719295501709,-2.161027431488037
1783170029382811600,11.062811767578125,-0.10046593844890594,2.164578914642334,-1.3824737071990967
1783170029392790500,11.07279052734375,-0.13344737887382507,1.8096121549606323,-0.7582854628562927
1783170029402739500,11.082739501953125,-0.044289276003837585,1.3108528852462769,-0.2915973365306854
1783170029412687600,11.0926875,0.15733502805233002,0.70628422498703,0.08078981935977936
1783170029422636800,11.10263671875,0.3932226598262787,0.03914134204387665,0.3450518250465393
1783170029432615400,11.112615478515625,0.5917530655860901,-0.5252116322517395,0.5655730962753296
1783170029442564600,11.122564697265625,0.7195597887039185,-0.8125922679901123,0.768692135810852
1783170029452513800,11.132513671875,0.8020644187927246,-0.8473857641220093,0.8831969499588013
1783170029462461700,11.142461669921875,0.8489171266555786,-0.7158380746841431,0.8957034349441528
1783170029472441600,11.152441650390625,0.8462620377540588,-0.5060067176818848,0.8383603096008301
1783170029482389800,11.1623896484375,0.8029313087463379,-0.25121644139289856,0.7337958216667175
1783170029492338700,11.172338623046874,0.7221815586090088,0.012616966851055622,0.6168336272239685
1783170029502317600,11.182317626953125,0.6240898966789246,0.175161674618721,0.5361273288726807
1783170029512266800,11.192266845703125,0.5566652417182922,0.1750226467847824,0.5151498913764954
1783170029522215700,11.202215576171875,0.51170414686203,0.039635010063648224,0.5588009357452393
1783170029532164600,11.21216455078125,0.4183993339538574,-0.17089959979057312,0.6158650517463684
1783170029542143500,11.2221435546875,0.27917060256004333,-0.3166474997997284,0.6453076004981995
1783170029552092700,11.2320927734375,0.12744827568531036,-0.3758845329284668,0.6344297528266907
1783170029562040600,11.24204052734375,0.0045090485364198685,-0.3709331750869751,0.6263084411621094
1783170029571989500,11.251989501953124,-0.04872681200504303,-0.3553383946418762,0.6214519739151001
1783170029581968600,11.26196875,-0.017771292477846146,-0.3174589276313782,0.6115564703941345
1783170029591917600,11.27191748046875,0.06553193181753159,-0.2339567244052887,0.5756721496582031
1783170029601866800,11.28186669921875,0.16741010546684265,-0.20541270077228546,0.5452231764793396
1783170029611845600,11.291845703125,0.20795491337776184,-0.2608673870563507,0.5935971140861511
1783170029621794800,11.301794921875,0.23834051191806793,-0.34829282760620117,0.6854950785636902
1783170029631742700,11.31174267578125,0.27979278564453125,-0.4863426685333252,0.7912095785140991
1783170029641719300,11.32171923828125,0.41815996170043945,-0.6618937849998474,0.796879231929779
1783170029651698400,11.331698486328126,0.5783702731132507,-1.1586815118789673,0.7433404326438904
1783170029661647400,11.3416474609375,0.7347627878189087,-1.603750228881836,0.7654603719711304
1783170029671596300,11.35159619140625,0.9796850085258484,-1.5763026475906372,0.8230199813842773
1783170029681545500,11.36154541015625,1.1675153970718384,-0.8073367476463318,0.8000634908676147
1783170029691524400,11.3715244140625,1.1831144094467163,0.42132601141929626,0.7048786878585815
1783170029701473500,11.3814736328125,1.0923959016799927,1.197185754776001,0.6272033452987671
1783170029711421400,11.39142138671875,0.7424025535583496,0.9711825847625732,0.6356738805770874
1783170029721401300,11.4014013671875,0.02980349026620388,-0.1243174746632576,0.7489541172981262
1783170029731349500,11.411349609375,-0.6195307374000549,-1.245018482208252,1.0323421955108643
1783170029741298400,11.42129833984375,-0.9653171896934509,-1.962608814239502,1.274200677871704
1783170029751247400,11.431247314453126,-1.3137520551681519,-1.9192231893539429,1.461198329925537
1783170029761226500,11.4412265625,-1.52247154712677,-1.2920706272125244,1.4086596965789795
1783170029771175400,11.451175537109375,-1.4945448637008667,-0.40417084097862244,0.9168932437896729
1783170029781123300,11.461123291015625,-1.311518669128418,0.1857483685016632,0.33532410860061646
1783170029791072300,11.471072265625,-0.9995346069335938,0.06448540836572647,-0.04463663697242737
1783170029801051400,11.481051513671876,-0.745773196220398,-0.5433291792869568,-0.4151760935783386
1783170029811000300,11.491000244140626,-0.5633332133293152,-0.9787229299545288,-0.6806797385215759
1783170029820949200,11.50094921875,-0.4732357859611511,-0.9927074313163757,-0.7057909965515137
1783170029830928400,11.510928466796875,-0.46255287528038025,-0.6904359459877014,-0.5533545613288879
1783170029840877300,11.520877197265625,-0.46438834071159363,-0.2709457576274872,-0.4059073030948639
1783170029850826500,11.530826416015625,-0.5339257717132568,-0.06782204657793045,-0.2941841781139374
1783170029860774400,11.5407744140625,-0.5940093994140625,-0.1654796153306961,-0.1877586394548416
1783170029870754600,11.550754638671876,-0.6668373346328735,-0.45764395594596863,-0.16739575564861298
1783170029880702500,11.560702392578126,-0.705586314201355,-0.7872481942176819,-0.24063588678836823
1783170029890651400,11.5706513671875,-0.6668280959129333,-0.8659917712211609,-0.3803815245628357
1783170029900600300,11.580600341796876,-0.5694344639778137,-0.5940643548965454,-0.5503101348876953
1783170029910579500,11.590579345703125,-0.4916941225528717,-0.16761086881160736,-0.6754977703094482
1783170029920528400,11.6005283203125,-0.45728498697280884,0.1917627453804016,-0.7247154116630554
1783170029930476500,11.6104765625,-0.43697449564933777,0.3690042793750763,-0.671658992767334
1783170029940456400,11.62045654296875,-0.421266108751297,0.3080386817455292,-0.5618723034858704
1783170029950404400,11.630404296875,-0.33920469880104065,0.13414792716503143,-0.4244036376476288
1783170029960353300,11.640353271484376,-0.19218917191028595,0.010812941938638687,-0.3052937388420105
1783170029970302500,11.650302490234376,-0.06887339800596237,-0.08497394621372223,-0.21408656239509583
1783170029980281300,11.66028125,0.06021001935005188,-0.12101370841264725,-0.12366637587547302
1783170029990230300,11.670230224609375,0.2200695127248764,-0.11357332020998001,-0.018878290429711342
1783170030000179200,11.68017919921875,0.3226209282875061,0.029787568375468254,0.1253768801689148
1783170030010127400,11.69012744140625,0.3656865060329437,0.15578672289848328,0.25621065497398376
1783170030020107300,11.700107177734376,0.38151049613952637,0.15643414855003357,0.3217254877090454
1783170030030055200,11.71005517578125,0.3318540155887604,-0.0011353613808751106,0.3142905533313751
1783170030040004600,11.720004638671876,0.15266640484333038,-0.316307932138443,0.2696644961833954
1783170030049983500,11.7299833984375,-0.020060475915670395,-0.49145078659057617,0.18606528639793396
1783170030059932400,11.739932373046875,-0.09181296080350876,-0.30374693870544434,0.015282626263797283
1783170030069881300,11.74988134765625,-0.1414690911769867,0.1278386265039444,-0.22365307807922363
1783170030079830500,11.75983056640625,-0.2198334038257599,0.5549902319908142,-0.4128544330596924
1783170030089809400,11.769809326171876,-0.29885512590408325,0.7714528441429138,-0.5070172548294067
1783170030099757300,11.77975732421875,-0.38372287154197693,0.781159520149231,-0.5243262052536011
1783170030109706500,11.78970654296875,-0.4507361352443695,0.6268487572669983,-0.4693816304206848
1783170030119655400,11.799655517578126,-0.4457418918609619,0.3931427299976349,-0.33576497435569763
1783170030129634300,11.80963427734375,-0.3354826271533966,0.1564353108406067,-0.1572667807340622
1783170030139583200,11.819583251953125,-0.1161089763045311,0.05487406253814697,0.016894903033971786
1783170030149532400,11.829532470703125,0.15133622288703918,0.19210095703601837,0.16105304658412933
1783170030159511300,11.83951123046875,0.4564053416252136,0.5671797394752502,0.35017529129981995
1783170030169460200,11.849460205078126,0.8206246495246887,0.8356435298919678,0.46886777877807617
1783170030179408400,11.859408447265626,1.0864208936691284,0.7991041541099548,0.4182908833026886
1783170030189357300,11.869357421875,1.24327552318573,0.42052003741264343,0.2535936236381531
1783170030199336200,11.879336181640625,1.3250058889389038,-0.004980928730219603,0.08162933588027954
1783170030209285400,11.889285400390625,1.1562303304672241,-0.22055087983608246,-0.18124428391456604
1783170030219234600,11.899234619140625,0.6099082827568054,-0.17916376888751984,-0.5102906227111816
1783170030229183500,11.90918359375,-0.09509679675102234,0.0402909480035305,-0.7508835792541504
1783170030239162400,11.919162353515626,-0.693259060382843,0.2885846495628357,-0.9109587669372559
1783170030249111300,11.929111328125,-1.0618408918380737,0.6339365839958191,-1.0204668045043945
1783170030259059500,11.9390595703125,-1.2679901123046875,0.8800110816955566,-1.1166417598724365
1783170030269038300,11.949038330078125,-1.3960307836532593,0.7023968696594238,-1.2761602401733398
1783170030278987500,11.958987548828125,-1.5135217905044556,0.13532735407352448,-1.5805524587631226
1783170030288936400,11.9689365234375,-1.4283170700073242,-0.2857924699783325,-1.8598558902740479
1783170030298885400,11.978885498046875,-1.1097002029418945,-0.3429822325706482,-1.959999918937683
1783170030308864300,11.9888642578125,-0.7423886656761169,-0.10064931213855743,-1.8677151203155518
1783170030318813400,11.9988134765625,-0.4631708264350891,0.17133453488349915,-1.6035809516906738
1783170030328761300,12.00876123046875,-0.3585064709186554,0.10838673263788223,-1.2295743227005005
1783170030338710300,12.018710205078126,-0.4471609890460968,-0.34938427805900574,-0.7994248867034912
1783170030348689400,12.028689453125,-0.6290401816368103,-0.9786622524261475,-0.3682152330875397
1783170030358638300,12.038638427734375,-0.7819644808769226,-1.5094987154006958,-0.1085575595498085
1783170030368587500,12.04858740234375,-0.9024486541748047,-1.660162091255188,-0.15326902270317078
1783170030378536400,12.058536376953125,-0.983045220375061,-1.2983388900756836,-0.47802606225013733
1783170030388515600,12.068515625,-1.0281200408935547,-0.47957843542099,-0.9738838076591492
1783170030398464500,12.078464599609376,-0.9791436791419983,0.5668763518333435,-1.4399653673171997
1783170030408412400,12.088412353515626,-0.8274766802787781,1.4977567195892334,-1.672426462173462
1783170030418392300,12.098392333984375,-0.622675359249115,2.174452304840088,-1.5725656747817993
1783170030428340500,12.108340576171875,-0.40575945377349854,2.307889938354492,-1.107887625694275
1783170030438289400,12.118289306640625,-0.3049215078353882,1.6905790567398071,-0.3600260019302368
1783170030448238300,12.12823828125,-0.20010285079479218,0.3905017673969269,0.44468894600868225
1783170030458217500,12.138217529296876,-0.042750246822834015,-0.8084858655929565,1.1885331869125366
1783170030468166400,12.14816650390625,0.08142146468162537,-1.4579731225967407,1.738550066947937
1783170030478114300,12.1581142578125,0.2064875066280365,-1.4795348644256592,2.1398355960845947
1783170030488063200,12.168063232421876,0.28744468092918396,-1.164291262626648,2.3277158737182617
1783170030498042400,12.17804248046875,0.3487352132797241,-0.7353069186210632,2.29728627204895
1783170030507991300,12.1879912109375,0.4042481482028961,-0.4131271541118622,2.1976702213287354
