time,seconds_elapsed,z,y,x
1783153213837433600,0.20343359375,0.11842801421880722,-0.024128466844558716,-0.27976804971694946
1783153213847145000,0.21314501953125,0.11048699915409088,-0.10292776674032211,-0.27915719151496887
1783153213856856600,0.222856689453125,0.22349373996257782,-0.09865183383226395,-0.288930743932724
1783153213866568000,0.23256787109375,0.3384093940258026,-0.12552911043167114,-0.3274141252040863
1783153213876279300,0.242279296875,0.4337015450000763,-0.0925433561205864,-0.3500154912471771
1783153213885990700,0.25199072265625,0.4831801950931549,-0.026571854948997498,-0.37567105889320374
1783153213895702000,0.261701904296875,0.46851983666419983,0.011300674639642239,-0.42514967918395996
1783153213905413400,0.271413330078125,0.39888325333595276,0.04367557913064957,-0.48806697130203247
1783153213915124700,0.281124755859375,0.3011476993560791,0.09804098308086395,-0.5296045541763306
1783153213924836000,0.290836181640625,0.20333577692508698,0.18974442780017853,-0.522885262966156
1783153213934547500,0.30054736328125,0.10987614840269089,0.24960745871067047,-0.4947862923145294
1783153213944258800,0.3102587890625,0.04940227046608925,0.3546731770038605,-0.474017471075058
1783153213953970200,0.31997021484375,0.02802261710166931,0.4585172235965729,-0.42576053738594055
1783153213963681500,0.329681640625,0.04940227046608925,0.47317755222320557,-0.35978904366493225
1783153213973393000,0.339392822265625,0.09827005118131638,0.44691112637519836,-0.31825143098831177
1783153213983104300,0.349104248046875,0.1599656194448471,0.517158567905426,-0.2718270421028137
1783153213992815600,0.358815673828125,0.20577916502952576,0.6472690105438232,-0.24494975805282593
1783153214002527000,0.36852685546875,0.2253262847661972,0.7004127502441406,-0.21501824259757996
1783153214012238300,0.37823828125,0.21860696375370026,0.701634407043457,-0.17958909273147583
1783153214021949700,0.38794970703125,0.18989713490009308,0.6698703765869141,-0.1423274129629135
1783153214031661000,0.3976611328125,0.1361425817012787,0.5825192332267761,-0.1301104724407196
1783153214041372700,0.40737255859375,0.10682191699743271,0.5250995755195618,-0.1325538605451584
1783153214051084000,0.417083984375,0.02680092304944992,0.4695124626159668,-0.2235700935125351
1783153214060795400,0.42679541015625,0.006642963737249374,0.44813281297683716,-0.3567348122596741
1783153214070506800,0.4365068359375,0.1349208950996399,0.5855734348297119,-0.42759308218955994
1783153214080218000,0.446218017578125,0.2625879645347595,0.7700493335723877,-0.42881476879119873
1783153214089929500,0.455929443359375,0.288930743932724,0.9575794339179993,-0.38483378291130066
1783153214099640800,0.465640869140625,0.29687178134918213,1.1402227878570557,-0.2638860046863556
1783153214109352200,0.475352294921875,0.29442837834358215,1.123729944229126,-0.12888877093791962
1783153214119063600,0.4850634765625,0.29503923654556274,0.7236249446868896,0.01038440316915512
1783153214128775000,0.49477490234375,0.4062134325504303,0.2056264579296112,0.26877278089523315
1783153214138486300,0.504486328125,0.5870242118835449,0.0650552362203598,0.762948215007782
1783153214148197600,0.51419775390625,0.6261184215545654,0.4786751866340637,1.4678659439086914
1783153214157909000,0.523908935546875,0.5051707029342651,1.1475529670715332,2.2852559089660645
1783153214167620400,0.533620361328125,0.3274141252040863,1.61301851272583,2.8111953735351562
1783153214177331700,0.543331787109375,0.13003410398960114,1.635619878768921,2.7745447158813477
1783153214187043000,0.55304296875,0.05306735634803772,1.4908491373062134,2.3176307678222656
1783153214196754700,0.562754638671875,0.10010259598493576,1.5794219970703125,1.7464886903762817
1783153214206466000,0.572466064453125,0.17951273918151855,1.715640902519226,1.2552911043167114
1783153214216177400,0.582177490234375,0.26991814374923706,1.696704626083374,0.8710681796073914
1783153214225888800,0.591888671875,0.4202629029750824,1.4755779504776,0.5894675850868225
1783153214235600100,0.60160009765625,0.6181774139404297,1.1206756830215454,0.3781144618988037
1783153214245311500,0.6113115234375,0.8680139780044556,0.8738933801651001,0.21623992919921875
1783153214255022800,0.62102294921875,1.0408837795257568,0.7999808192253113,0.06047387793660164
1783153214264734200,0.630734130859375,1.1166287660598755,0.7981482744216919,-0.14904673397541046
1783153214274445600,0.640445556640625,1.152668833732605,0.8201388120651245,-0.4330907166004181
1783153214284157000,0.650156982421875,1.1441168785095215,0.7957049012184143,-0.8454126119613647
1783153214293868300,0.659868408203125,1.1086877584457397,0.6808656454086304,-1.3763152360916138
1783153214303579600,0.66957958984375,1.0830321311950684,0.5867951512336731,-1.9407380819320679
1783153214313291300,0.679291259765625,1.0427162647247314,0.5739673376083374,-2.4294159412384033
1783153214323002600,0.689002685546875,0.9865183234214783,0.6814764738082886,-2.7678253650665283
1783153214332714000,0.6987138671875,0.9278770089149475,0.8598438501358032,-2.9242022037506104
1783153214342425300,0.70842529296875,0.8674030900001526,1.031491994857788,-2.888162136077881
1783153214352136700,0.71813671875,0.8069292306900024,1.1298383474349976,-2.6639811992645264
1783153214361848000,0.72784814453125,0.7440119385719299,1.1060153245925903,-2.280369281768799
1783153214371559400,0.737559326171875,0.675597071647644,1.0101122856140137,-1.7721441984176636
1783153214381270800,0.747270751953125,0.5632011890411377,0.8793910145759583,-1.2058888673782349
1783153214390982100,0.756982177734375,0.41415444016456604,0.7114079594612122,-0.675597071647644
1783153214400693500,0.766693603515625,0.2522035539150238,0.5055524706840515,-0.26755109429359436
1783153214410404900,0.77640478515625,0.0958266630768776,0.3125247359275818,-0.042759306728839874
1783153214420116200,0.7861162109375,-0.000687203137204051,0.20929154753684998,0.02504473738372326
1783153214429827800,0.795827880859375,-0.009849912486970425,0.18241426348686218,-0.013438640162348747
1783153214439539200,0.805539306640625,0.053678203374147415,0.16225630044937134,-0.10201149433851242
1783153214449250600,0.81525048828125,0.1483595222234726,0.15736952424049377,-0.1844758689403534
1783153214458962000,0.8249619140625,0.20761170983314514,0.18424680829048157,-0.17653486132621765
1783153214468673300,0.83467333984375,0.1856212168931961,0.2471640706062317,-0.06841489672660828
1783153214478384600,0.844384521484375,0.10682191699743271,0.3082487881183624,0.1325538605451584
1783153214488096000,0.854095947265625,-0.0037414394319057465,0.35528403520584106,0.3946073353290558
1783153214497807400,0.863807373046875,-0.12163496017456055,0.38521555066108704,0.6786513328552246
1783153214507518700,0.873518798828125,-0.2328091561794281,0.3791070878505707,0.9333745837211609
1783153214517230000,0.88322998046875,-0.30427828431129456,0.34245625138282776,1.1349542140960693
1783153214526941400,0.89294140625,-0.3342097997665405,0.31680065393447876,1.2797249555587769
1783153214536653000,0.902653076171875,-0.3268796503543854,0.36750099062919617,1.4000619649887085
1783153214546364200,0.9123642578125,-0.27740100026130676,0.5086066722869873,1.4782503843307495
1783153214556075800,0.92207568359375,-0.16072918474674225,0.7169055938720703,1.502684235572815
1783153214565787100,0.931787109375,-0.011071606539189816,0.933756411075592,1.4892456531524658
1783153214575498500,0.94149853515625,0.1361425817012787,1.1487746238708496,1.5179554224014282
1783153214585209900,0.9512099609375,0.25831204652786255,1.3082057237625122,1.6541743278503418
1783153214594921200,0.960921142578125,0.34696123003959656,1.441981315612793,1.8918702602386475
1783153214604632600,0.970632568359375,0.37444937229156494,1.575145959854126,2.164919137954712
1783153214614344000,0.980343994140625,0.3164188861846924,1.741296410560608,2.3872673511505127
1783153214624055300,0.99005517578125,0.20333577692508698,1.9123337268829346,2.5198214054107666
1783153214633767000,0.999766845703125,0.1868429034948349,2.055271863937378,2.5662457942962646
1783153214643478000,1.00947802734375,0.3017585575580597,2.15911602973938,2.4672884941101074
1783153214653189600,1.019189697265625,0.40254834294319153,1.9630340337753296,2.0018227100372314
1783153214662901000,1.02890087890625,0.4575245976448059,1.2538403272628784,1.1435060501098633
1783153214672612400,1.0386123046875,0.6016845703125,0.4798968732357025,0.19302773475646973
1783153214682323700,1.04832373046875,0.8038749694824219,-0.20677179098129272,-0.6071822047233582
1783153214692035000,1.05803515625,0.9730796813964844,-0.9898779988288879,-1.1649620532989502
1783153214701746400,1.067746337890625,1.0757020711898804,-1.7876445055007935,-1.410522699356079
1783153214711457800,1.077457763671875,1.0750911235809326,-2.3881072998046875,-1.3531030416488647
1783153214721169200,1.087169189453125,0.998735249042511,-2.6154189109802246,-1.0275214910507202
1783153214730880500,1.096880615234375,0.8557969927787781,-2.4546897411346436,-0.6725428104400635
1783153214740591900,1.106591796875,0.6145123243331909,-2.0185446739196777,-0.5821374654769897
1783153214750303500,1.116303466796875,0.3292466700077057,-1.479777455329895,-0.8753440976142883
1783153214760014800,1.126014892578125,0.06650599837303162,-0.9465078115463257,-1.4502277374267578
1783153214769726200,1.135726318359375,-0.19554747641086578,-0.4065188467502594,-2.147815227508545
1783153214779437600,1.1454375,-0.4679853618144989,0.051616594195365906,-2.88510799407959
1783153214789149000,1.15514892578125,-0.7862367630004883,0.3607816696166992,-3.6090383529663086
1783153214798860300,1.1648603515625,-1.141139030456543,0.4322507977485657,-4.252260684967041
1783153214808571600,1.174571533203125,-1.5125341415405273,0.4145362079143524,-4.723223686218262
1783153214818283000,1.184282958984375,-1.8393374681472778,0.46340399980545044,-4.957788944244385
1783153214827994400,1.193994384765625,-2.052523136138916,0.47256672382354736,-4.9742817878723145
1783153214837705700,1.203705810546875,-2.095282554626465,0.46034976840019226,-4.744603157043457
1783153214847417300,1.213417236328125,-1.9682261943817139,0.5788541436195374,-4.2656989097595215
1783153214857128700,1.223128662109375,-1.742823600769043,0.8201388120651245,-3.601708173751831
1783153214866840000,1.232840087890625,-1.4832135438919067,0.9679638147354126,-2.8930490016937256
1783153214876551400,1.242551513671875,-1.200391173362732,0.9441407918930054,-2.2327229976654053
1783153214886262800,1.2522626953125,-0.8680903315544128,0.7834879755973816,-1.6310385465621948
1783153214895974100,1.26197412109375,-0.5058578848838806,0.4542413055896759,-1.1374739408493042
1783153214905685500,1.271685546875,-0.1540098637342453,-0.03634541109204292,-0.7763868570327759
1783153214915397000,1.281397216796875,0.1471378356218338,-0.6258130073547363,-0.5277720093727112
1783153214925108200,1.291108154296875,0.3524588644504547,-1.0711206197738647,-0.3384093940258026
1783153214934819800,1.30081982421875,0.4679090082645416,-1.2500989437103271,-0.15026842057704926
1783153214944531200,1.31053125,0.5241069197654724,-1.3142378330230713,0.0647498071193695
1783153214954242600,1.32024267578125,0.5149442553520203,-1.331952452659607,0.30908870697021484
1783153214963954000,1.329953857421875,0.4569137394428253,-1.2513206005096436,0.5796940326690674
1783153214973665300,1.339665283203125,0.37139514088630676,-1.0045382976531982,0.8667922616004944
1783153214983376600,1.349376708984375,0.2503710091114044,-0.6734591126441956,1.0915840864181519
1783153214993088000,1.359087890625,0.08605311065912247,-0.3381039500236511,1.2155860662460327
1783153215002799600,1.368799560546875,-0.07643226534128189,-0.11086877435445786,1.2186403274536133
1783153215012510700,1.3785107421875,-0.18638476729393005,0.004581354558467865,1.1318999528884888
1783153215022222300,1.388222412109375,-0.22364644706249237,0.18546849489212036,1.0934165716171265
1783153215031933700,1.39793359375,-0.18943901360034943,0.4798968732357025,1.2125318050384521
1783153215041645000,1.40764501953125,-0.08498412370681763,0.8311340808868408,1.5393351316452026
1783153215051356400,1.4173564453125,0.0946049690246582,1.0699753761291504,1.9987685680389404
1783153215061067800,1.42706787109375,0.30725616216659546,1.220854640007019,2.4880571365356445
1783153215070779100,1.436779052734375,0.5717530250549316,1.313092589378357,2.954744577407837
1783153215080490500,1.446490478515625,0.873511552810669,1.0204967260360718,3.265054941177368
1783153215090202000,1.4562021484375,1.180156946182251,0.336347758769989,3.33652400970459
1783153215099913500,1.46591357421875,1.372573733329773,-0.4981459379196167,3.116619110107422
1783153215109624800,1.475624755859375,1.373795509338379,-1.4083083868026733,2.511880397796631
1783153215119336200,1.485336181640625,1.2284138202667236,-2.163926362991333,1.604084849357605
1783153215129047600,1.495047607421875,0.9804098606109619,-2.488286256790161,0.5754181146621704
1783153215138759000,1.504759033203125,0.7409577369689941,-2.3966591358184814,-0.4337015450000763
1783153215148470300,1.51447021484375,0.5387672781944275,-2.0148797035217285,-1.2077213525772095
1783153215158181600,1.524181640625,0.30664533376693726,-1.3777660131454468,-1.547963261604309
1783153215167893000,1.53389306640625,0.0023670331574976444,-0.46699273586273193,-1.4007490873336792
1783153215177604600,1.5436044921875,-0.35803285241127014,0.4127036929130554,-0.9621607661247253
1783153215187316000,1.55331591796875,-0.6872795224189758,0.9038248658180237,-0.5851916670799255
1783153215197027300,1.56302734375,-0.9261208176612854,0.9856784343719482,-0.4703523814678192
1783153215206738700,1.57273876953125,-1.044625163078308,0.8653414845466614,-0.6169557571411133
1783153215216450000,1.582449951171875,-1.0464577674865723,0.6851415634155273,-0.9584956765174866
1783153215226161400,1.592161376953125,-0.9713234901428223,0.4560738205909729,-1.3793694972991943
1783153215235872800,1.601872802734375,-0.8283852338790894,0.21784339845180511,-1.7409909963607788
1783153215245584100,1.611584228515625,-0.6775059700012207,-0.00519220158457756,-1.9633394479751587
1783153215255295700,1.621295654296875,-0.5614449977874756,-0.18539214134216309,-2.0311434268951416
1783153215265007000,1.631007080078125,-0.5101338028907776,-0.30633988976478577,-2.026256799697876
1783153215274718500,1.640718505859375,-0.5217399001121521,-0.44072631001472473,-2.028700113296509
1783153215284429800,1.650429931640625,-0.6029825806617737,-0.5445703268051147,-2.072070360183716
1783153215294141200,1.66014111328125,-0.7611920237541199,-0.5433486104011536,-2.1527020931243896
1783153215303852500,1.6698525390625,-0.9774319529533386,-0.45416492223739624,-2.2498269081115723
1783153215313564000,1.67956396484375,-1.1857309341430664,-0.3301629424095154,-2.327404499053955
1783153215323275300,1.689275146484375,-1.2895748615264893,-0.12736165523529053,-2.344508171081543
1783153215332986600,1.698986572265625,-1.2474265098571777,0.1915769726037979,-2.3170199394226074
1783153215342698200,1.7086982421875,-1.0666157007217407,0.5367056727409363,-2.2681522369384766
1783153215352409600,1.71840966796875,-0.7691330313682556,0.7450045943260193,-2.202791690826416
1783153215362121000,1.728120849609375,-0.3623087704181671,0.697969377040863,-2.0567991733551025
1783153215371832300,1.737832275390625,-0.05810684710741043,0.5373165011405945,-1.9389055967330933
1783153215381543700,1.747543701171875,0.36223241686820984,0.2691545784473419,-1.5210859775543213
1783153215391255000,1.757255126953125,0.7794411182403564,0.058335911482572556,-0.8582404255867004
1783153215400966400,1.76696630859375,1.111131191253662,-0.10720369219779968,-0.06902574002742767
1783153215410677800,1.776677734375,1.3285927772521973,-0.2745758295059204,0.7831062078475952
1783153215420389400,1.786389404296875,1.4165548086166382,-0.3900259733200073,1.6321839094161987
1783153215430100700,1.796100830078125,1.3823473453521729,-0.5299099683761597,2.3084681034088135
1783153215439812000,1.80581201171875,1.2809467315673828,-0.8163973689079285,2.773322820663452
1783153215449523500,1.8155234375,1.1245697736740112,-1.206117868423462,3.0341546535491943
1783153215459234800,1.82523486328125,0.9193251132965088,-1.6172181367874146,3.145939826965332
1783153215468946200,1.8349462890625,0.6933116316795349,-1.8804932832717896,3.1471614837646484
1783153215478657800,1.84465771484375,0.4813476502895355,-1.9489082098007202,3.059199333190918
1783153215488369200,1.854369140625,0.30603447556495667,-1.855448603630066,2.915039539337158
1783153215498080500,1.86408056640625,0.1856212168931961,-1.5933951139450073,2.7366721630096436
1783153215507792000,1.8737919921875,0.10987614840269089,-1.2055070400238037,2.5228755474090576
1783153215517503200,1.883503173828125,0.08544225990772247,-0.592216432094574,2.2931969165802
1783153215527214600,1.893214599609375,0.07383616268634796,0.29236677289009094,2.083676338195801
1783153215536926000,1.902926025390625,0.0164165198802948,1.237958312034607,1.899200439453125
1783153215546637300,1.91263720703125,-0.05688514932990074,1.853081464767456,1.7941347360610962
1783153215556349000,1.922348876953125,-0.08681666851043701,1.983191967010498,1.717091679573059
1783153215566060300,1.932060302734375,-0.04283566400408745,1.591028094291687,1.5375025272369385
1783153215575771600,1.941771728515625,0.029855160042643547,0.9526926279067993,1.2192511558532715
1783153215585483000,1.95148291015625,0.06589514762163162,0.3626142144203186,0.8637380003929138
1783153215595194400,1.9611943359375,0.06650599837303162,-0.0021379655227065086,0.629172682762146
1783153215604905700,1.97090576171875,0.0817771777510643,-0.1169772520661354,0.5882459282875061
1783153215614617000,1.9806171875,0.12575818598270416,-0.15118469297885895,0.6652126908302307
1783153215624328400,1.990328369140625,0.19722731411457062,-0.25502872467041016,0.7452336549758911
1783153215634040000,2.0000400390625,0.26991814374923706,-0.3564293682575226,0.7293516397476196
1783153215643751400,2.00975146484375,0.288930743932724,-0.45111069083213806,0.5632011890411377
1783153215653462800,2.019462890625,0.24120831489562988,-0.5390726923942566,0.22662433981895447
1783153215663174100,2.029174072265625,0.1868429034948349,-0.6172611713409424,-0.2357870489358902
1783153215672885500,2.038885498046875,0.16912832856178284,-0.6826218366622925,-0.7366818189620972
1783153215682596900,2.048596923828125,0.19172967970371246,-0.698503851890564,-1.1674054861068726
1783153215692308200,2.05830810546875,0.22349373996257782,-0.611152708530426,-1.4716074466705322
1783153215702019600,2.06801953125,0.27113983035087585,-0.430341899394989,-1.618210792541504
1783153215711731200,2.077731201171875,0.33596599102020264,-0.2086043357849121,-1.6053829193115234
1783153215721442600,2.087442626953125,0.43736663460731506,-0.024128466844558716,-1.4581687450408936
1783153215731154000,2.09715380859375,0.5772506594657898,0.0925433561205864,-1.270027756690979
1783153215740865300,2.106865234375,0.7806627750396729,0.17080816626548767,-1.1478583812713623
1783153215750576600,2.11657666015625,1.0304993391036987,0.1934095174074173,-1.1631295680999756
1783153215760288000,2.1262880859375,1.294385313987732,0.21417832374572754,-1.3286691904067993
1783153215769999600,2.13599951171875,1.504516839981079,0.2825932204723358,-1.5772839784622192
1783153215779711000,2.1457109375,1.6260753870010376,0.4053735136985779,-1.8045191764831543
1783153215789422300,2.15542236328125,1.6456224918365479,0.6906391978263855,-1.9523441791534424
1783153215799133700,2.1651337890625,1.5350592136383057,1.1860363483428955,-2.011596441268921
1783153215808845000,2.174844970703125,1.2888877391815186,1.7217493057250977,-1.992049217224121
1783153215818556400,2.184556396484375,0.9633061289787292,2.121243476867676,-1.900422215461731
1783153215828267800,2.194267822265625,0.6389462351799011,2.254408121109009,-1.7018967866897583
1783153215837979400,2.2039794921875,0.3439069986343384,2.203097105026245,-1.3414969444274902
1783153215847690800,2.213690673828125,0.08605311065912247,2.066878080368042,-0.8105943202972412
1783153215857402000,2.223402099609375,-0.1265217363834381,1.843918800354004,-0.20157960057258606
1783153215867113500,2.233113525390625,-0.32993388175964355,1.5195589065551758,0.2754921019077301
1783153215876824800,2.242824951171875,-0.5272375345230103,1.1335034370422363,0.6218425035476685
1783153215886536200,2.2525361328125,-0.6860578060150146,0.7889856100082397,0.9297095537185669
1783153215896247600,2.26224755859375,-0.803340494632721,0.6454364657402039,1.0659284591674805
1783153215905959000,2.271958984375,-0.8925241827964783,0.6136724352836609,1.1416735649108887
1783153215915670500,2.28167041015625,-0.9279533624649048,0.5220453143119812,1.1648857593536377
1783153215925382000,2.2913818359375,-0.9273424744606018,0.4145362079143524,1.1270132064819336
1783153215935093200,2.30109326171875,-0.924288272857666,0.42614230513572693,1.064706802368164
1783153215944804600,2.3108046875,-0.9187906384468079,0.548922598361969,1.031110167503357
1783153215954516000,2.320515869140625,-0.901076078414917,0.701634407043457,1.0677610635757446
1783153215964227300,2.330227294921875,-0.8289960622787476,0.8775584697723389,1.1856545209884644
1783153215973939000,2.33993896484375,-0.6964422464370728,1.012555718421936,1.346307396888733
1783153215983650300,2.349650390625,-0.48753246665000916,1.006447196006775,1.462368369102478
1783153215993361700,2.359361572265625,-0.21142950654029846,0.8543462753295898,1.4782503843307495
1783153216003073000,2.369072998046875,0.021914144977927208,0.5079958438873291,1.3444747924804688
1783153216012784400,2.378784423828125,0.15568970143795013,0.010689826682209969,1.0946383476257324
1783153216022495700,2.388495849609375,0.24670593440532684,-0.5421269536018372,0.8900044560432434
1783153216032207000,2.39820703125,0.32313820719718933,-0.9171871542930603,0.8356390595436096
1783153216041918700,2.407918701171875,0.32008397579193115,-0.9678874611854553,0.8948912620544434
1783153216051630000,2.417630126953125,0.29320669174194336,-0.7608102560043335,1.0109522342681885
1783153216061341400,2.427341552734375,0.36039987206459045,-0.5470137000083923,1.155722975730896
1783153216071052800,2.437052734375,0.5809157490730286,-0.430341899394989,1.3353121280670166
1783153216080764200,2.44676416015625,0.9009997248649597,-0.30084228515625,1.5228421688079834
1783153216090475500,2.4564755859375,1.2339115142822266,-0.3246653079986572,1.6468442678451538
1783153216100187000,2.466186767578125,1.5222313404083252,-0.5286883115768433,1.6492875814437866
1783153216109898500,2.4758984375,1.7335845232009888,-0.8206732869148254,1.4904673099517822
1783153216119609900,2.48560986328125,1.8759119510650635,-1.0845593214035034,1.2363548278808594
1783153216129321200,2.4953212890625,1.9840319156646729,-1.2555965185165405,0.9193251132965088
1783153216139032600,2.505032470703125,2.071993827819824,-1.3111836910247803,0.5998520255088806
1783153216148744000,2.514743896484375,2.1074230670928955,-1.2977449893951416,0.3005368411540985
1783153216158455300,2.524455322265625,2.068939685821533,-1.1859599351882935,0.014660334214568138
1783153216168167000,2.5341669921875,1.9577654600143433,-0.9013051390647888,-0.28282228112220764
1783153216177878300,2.543878173828125,1.7745113372802734,-0.5012001991271973,-0.6145123243331909
1783153216187589600,2.553589599609375,1.5228421688079834,-0.07055285573005676,-0.9884272217750549
1783153216197301000,2.563301025390625,1.1966497898101807,0.32962843775749207,-1.3518813848495483
1783153216207012400,2.573012451171875,0.8081509470939636,0.6472690105438232,-1.6530290842056274
1783153216216723700,2.5827236328125,0.3500154912471771,0.7975374460220337,-1.8979787826538086
1783153216226435000,2.59243505859375,-0.14423631131649017,0.8299123644828796,-2.0769569873809814
1783153216236146700,2.602146728515625,-0.6781167984008789,0.7376744151115417,-2.1380417346954346
1783153216245858000,2.611858154296875,-1.261475920677185,0.5428141355514526,-2.1227705478668213
1783153216255569400,2.6215693359375,-1.8643821477890015,0.4047626554965973,-2.078178644180298
1783153216265280800,2.63128076171875,-2.4166643619537354,0.45118704438209534,-2.0097639560699463
1783153216274992000,2.6409921875,-2.824099540710449,0.762108325958252,-1.8576629161834717
1783153216284703500,2.650703369140625,-2.9933042526245117,1.2043616771697998,-1.557736873626709
1783153216294414800,2.660414794921875,-2.938938856124878,1.6973154544830322,-1.081886887550354
1783153216304126500,2.67012646484375,-2.7239205837249756,2.11330246925354,-0.4868452548980713
1783153216313837800,2.679837890625,-2.4545369148254395,2.2385261058807373,0.10384403169155121
1783153216323549200,2.689549072265625,-2.21806263923645,2.0448875427246094,0.6016845703125
1783153216333260500,2.699260498046875,-1.9834973812103271,1.627068042755127,1.0628741979599
1783153216342972000,2.708971923828125,-1.7861937284469604,1.1011285781860352,1.506960153579712
1783153216352683500,2.71868359375,-1.6713544130325317,0.5501443147659302,1.8332289457321167
1783153216362395000,2.728394775390625,-1.5968310832977295,0.055892523378133774,1.951122522354126
1783153216372106200,2.738106201171875,-1.5180318355560303,-0.28312769532203674,1.909584879875183
1783153216381817600,2.747817626953125,-1.4117443561553955,-0.5207473039627075,1.7489320039749146
1783153216391529000,2.757529052734375,-1.2791905403137207,-0.6752916574478149,1.5100144147872925
1783153216401240300,2.767240234375,-1.0458468198776245,-0.693617045879364,1.2968287467956543
1783153216410951700,2.77695166015625,-0.7019398808479309,-0.5726693272590637,1.295607089996338
1783153216420663300,2.786663330078125,-0.5956524610519409,-0.4321744441986084,1.1880979537963867
1783153216430374700,2.796374755859375,-0.48631078004837036,-0.4999784827232361,1.0408837795257568
1783153216440086000,2.8060859375,-0.37147149443626404,-0.7516475319862366,0.948034942150116
1783153216449797400,2.81579736328125,-0.39346200227737427,-0.9330691695213318,0.9327637553215027
1783153216459508700,2.8255087890625,-0.5455629825592041,-0.7687512636184692,1.012784719467163
1783153216469220000,2.83522021484375,-0.7446991801261902,-0.1328592747449875,1.1251806020736694
1783153216478931500,2.844931396484375,-0.877252995967865,0.46401485800743103,1.1190721988677979
1783153216488643000,2.85464306640625,-0.6469635963439941,0.3113030195236206,0.5015056133270264
1783153216498354400,2.8643544921875,0.0689493864774704,-0.15301723778247833,-0.4837910234928131
1783153216508065800,2.874065673828125,0.846023440361023,-0.3436015844345093,-0.9688801169395447
1783153216517777200,2.883777099609375,1.3139324188232422,-0.7577560544013977,-0.8771766424179077
1783153216527488500,2.893488525390625,1.4440429210662842,-1.3343958854675293,-0.40254834294319153
1783153216537199900,2.903199951171875,1.4269392490386963,-1.5988926887512207,0.31825143098831177
1783153216546911500,2.912911376953125,1.401894450187683,-1.3905937671661377,1.1123528480529785
1783153216556622800,2.922622802734375,1.3945642709732056,-0.9947647452354431,1.8197903633117676
1783153216566334200,2.932334228515625,1.2314680814743042,-0.6490252017974854,2.19179630279541
1783153216576045600,2.942045654296875,0.8637380003929138,-0.51341712474823,2.098947525024414
1783153216585757000,2.9517568359375,0.5326588153839111,-0.49081575870513916,1.7434344291687012
1783153216595468300,2.96146826171875,0.33596599102020264,-0.5305208563804626,1.155722975730896
1783153216605180000,2.971179931640625,0.2754157483577728,-0.4737120568752289,0.4049917459487915
1783153216614891300,2.980891357421875,0.30969956517219543,-0.42728766798973083,-0.34879377484321594
1783153216624602600,2.9906025390625,0.2895416021347046,-0.4321744441986084,-0.974988579750061
1783153216634314000,3.00031396484375,0.2778591513633728,-0.697892963886261,-1.45939040184021
1783153216644025300,3.010025390625,0.19478392601013184,-1.1309837102890015,-1.8155144453048706
1783153216653736700,3.01973681640625,0.07994463294744492,-1.345391035079956,-2.0543556213378906
1783153216663448000,3.029447998046875,-0.0165692325681448,-1.2604832649230957,-2.1575889587402344
1783153216673159700,3.03915966796875,-0.09781191498041153,-0.989267110824585,-2.13315486907959
1783153216682871000,3.04887109375,-0.18821731209754944,-0.592216432094574,-1.9663937091827393
1783153216692582400,3.05858251953125,-0.2957264184951782,-0.07727217674255371,-1.7312175035476685
1783153216702293800,3.068293701171875,-0.39407283067703247,0.548922598361969,-1.5076473951339722
1783153216712005000,3.078005126953125,-0.4557684063911438,1.1988641023635864,-1.326225757598877
1783153216721716700,3.087716796875,-0.46004435420036316,1.5653724670410156,-1.2400963306427002
1783153216731428000,3.097427978515625,-0.39712706208229065,1.5238348245620728,-1.1503016948699951
1783153216741139500,3.107139404296875,-0.2963372766971588,1.3766206502914429,-0.9597173929214478
1783153216750850800,3.116850830078125,-0.22975492477416992,1.2575054168701172,-0.7299624681472778
1783153216760562200,3.126562255859375,-0.19676917791366577,1.1359468698501587,-0.4978405237197876
1783153216770273500,3.1362734375,-0.16928105056285858,1.061423420906067,-0.20157960057258606
1783153216779985000,3.14598486328125,-0.14790138602256775,0.9642987251281738,0.11911521852016449
1783153216789696500,3.155696533203125,-0.12102411687374115,0.781044602394104,0.4159869849681854
1783153216799407900,3.165407958984375,-0.09170344471931458,0.5409815907478333,0.675597071647644
1783153216809119200,3.175119140625,-0.05199837312102318,0.2972535490989685,0.8802309036254883
1783153216818830600,3.18483056640625,-0.04100312292575836,0.06444438546895981,1.0292776823043823
1783153216828542000,3.1945419921875,-0.05444176122546196,-0.12369657307863235,1.1306782960891724
1783153216838253600,3.204253662109375,-0.07887565344572067,-0.20188501477241516,1.2094775438308716
1783153216847965000,3.21396484375,-0.08131904155015945,-0.08643488585948944,1.2736165523529053
1783153216857676300,3.22367626953125,-0.05566345527768135,0.23494713008403778,1.3011046648025513
1783153216867387600,3.2333876953125,0.006032116711139679,0.4798968732357025,1.2937744855880737
1783153216877099000,3.24309912109375,0.03718532621860504,0.6081748008728027,1.2320789098739624
1783153216886810400,3.252810302734375,0.059175826609134674,0.6576534509658813,1.1581664085388184
1783153216896522000,3.26252197265625,0.10071343928575516,0.7651625275611877,1.129456639289856
1783153216906233300,3.2722333984375,0.11354123055934906,0.9276479482650757,1.155722975730896
1783153216915944700,3.28194482421875,0.11231953650712967,1.025383472442627,1.2320789098739624
1783153216925656000,3.291656005859375,0.1477486789226532,0.9252045154571533,1.3298144340515137
1783153216935367400,3.301367431640625,0.19722731411457062,0.4530195891857147,1.3866232633590698
1783153216945078800,3.311078857421875,0.2522035539150238,-0.31122666597366333,1.387234091758728
1783153216954790400,3.320790283203125,0.2118876427412033,-1.2830846309661865,1.2174185514450073
1783153216964501800,3.330501708984375,0.05428905040025711,-2.1138370037078857,0.781884491443634
1783153216974213000,3.340213134765625,-0.139960378408432,-2.2280654907226562,0.2101314514875412
1783153216983924500,3.349924560546875,-0.3598653972148895,-1.6508147716522217,-0.3512371778488159
1783153216993635800,3.3596357421875,-0.6677324175834656,-0.6007682681083679,-0.7336275577545166
1783153217003347200,3.36934716796875,-1.038516640663147,0.6258893609046936,-0.8411366939544678
1783153217013058800,3.379058837890625,-1.265751838684082,1.5788110494613647,-0.6688777208328247
1783153217022770200,3.388770263671875,-1.1997803449630737,1.8481947183609009,-0.3176405727863312
1783153217032481500,3.3984814453125,-0.8344936966896057,1.3051515817642212,0.18814095854759216
1783153217042193000,3.40819287109375,-0.2205922156572342,0.12797249853610992,0.6774296164512634
1783153217051904300,3.417904296875,0.43797749280929565,-1.3753225803375244,1.0164498090744019
1783153217061615600,3.42761572265625,1.035996913909912,-2.7736282348632812,1.1856545209884644
1783153217071327000,3.437326904296875,1.5295615196228027,-3.8615472316741943,1.1642749309539795
1783153217081038600,3.44703857421875,1.5790401697158813,-3.972721576690674,0.9730796813964844
1783153217090750000,3.45675,1.4141113758087158,-3.402801036834717,0.8423583507537842
1783153217100461300,3.46646142578125,0.8765658140182495,-2.5402846336364746,0.5577035546302795
1783153217110172700,3.476172607421875,0.11659546941518784,-1.4083083868026733,0.17958909273147583
1783153217119884000,3.485884033203125,-0.6976639032363892,-0.1701209545135498,-0.2761029601097107
1783153217129595600,3.495595703125,-1.4068576097488403,0.8512920141220093,-0.7647807598114014
1783153217139307000,3.50530712890625,-1.9163042306900024,1.4835189580917358,-1.1930609941482544
1783153217149018400,3.515018310546875,-2.2107326984405518,1.751680850982666,-1.469774842262268
1783153217158729700,3.524729736328125,-2.269373893737793,1.76023268699646,-1.5730080604553223
1783153217168441000,3.534441162109375,-2.200348138809204,1.5696483850479126,-1.4728291034698486
1783153217178152400,3.54415234375,-1.9303536415100098,1.104793667793274,-1.216273307800293
1783153217187864000,3.553864013671875,-1.5320812463760376,0.5776324272155762,-0.7983773946762085
1783153217197575400,3.563575439453125,-1.0293539762496948,0.10659284889698029,-0.24128466844558716
1783153217207286800,3.573286865234375,-0.4783697724342346,-0.27885177731513977,0.3836120665073395
1783153217216998100,3.582998046875,0.04023956134915352,-0.5372401475906372,0.9938485026359558
1783153217226709500,3.59270947265625,0.342074453830719,-0.6404733657836914,1.4403778314590454
1783153217236421000,3.602421142578125,0.4868452548980713,-0.6783458590507507,1.6779974699020386
1783153217246132500,3.612132568359375,0.5515950918197632,-0.6441384553909302,1.738471269607544
1783153217255843800,3.62184375,0.5540384650230408,-0.5714476108551025,1.641957402229309
1783153217265555200,3.63155517578125,0.522885262966156,-0.4315635859966278,1.4031161069869995
1783153217275266600,3.6412666015625,0.503948986530304,-0.23242738842964172,1.073258638381958
1783153217284978000,3.65097802734375,0.5143333673477173,-0.05100574716925621,0.7317950129508972
1783153217294689300,3.660689208984375,0.5424323678016663,0.07116370648145676,0.46485477685928345
1783153217304401000,3.67040087890625,0.554649293422699,0.144465371966362,0.31886225938796997
1783153217314112300,3.6801123046875,0.5332696437835693,0.21112407743930817,0.2870981991291046
1783153217323823600,3.68982373046875,0.4734066128730774,0.23983390629291534,0.3683409094810486
1783153217333535000,3.699534912109375,0.3567348122596741,0.36933353543281555,0.49295374751091003
1783153217343246300,3.709246337890625,0.20822255313396454,0.7352310419082642,0.5015056133270264
1783153217352958000,3.7189580078125,0.1599656194448471,1.2391799688339233,0.33230090141296387
1783153217362669300,3.72866943359375,0.19783815741539001,1.5152829885482788,0.0006108472589403391
1783153217372380700,3.738380615234375,0.420873761177063,1.2092485427856445,-0.3921639323234558
1783153217382092000,3.748092041015625,0.758672297000885,0.27831727266311646,-0.7220214605331421
1783153217391803400,3.757803466796875,0.9791881442070007,-0.8683193922042847,-0.92054682970047
1783153217401514800,3.7675146484375,1.014006495475769,-1.4156385660171509,-0.8832851648330688
1783153217411226400,3.777226318359375,0.8661814332008362,-1.4559544324874878,-0.7214106321334839
1783153217420937700,3.786937744140625,0.6236750483512878,-1.1144908666610718,-0.5399889945983887
1783153217430649000,3.796649169921875,0.38910970091819763,-0.5897729992866516,-0.3689517378807068
1783153217440360400,3.8063603515625,0.16668494045734406,0.06261184066534042,-0.25350162386894226
1783153217450071800,3.81607177734375,-0.05810684710741043,0.8396859169006348,-0.15271180868148804
1783153217459783200,3.825783203125,-0.3122192919254303,1.4108281135559082,0.006719320081174374
1783153217469494800,3.835494873046875,-0.5767161846160889,1.562318205833435,0.17225892841815948
1783153217479206100,3.8452060546875,-0.7734090089797974,1.3442457914352417,0.22906772792339325
1783153217488917500,3.85491748046875,-0.789901852607727,0.9050465822219849,0.13805148005485535
1783153217498628900,3.86462890625,-0.6304707527160645,0.38277217745780945,-0.07330167293548584
1783153217508340200,3.87434033203125,-0.3873535096645355,-0.12858334183692932,-0.3261924386024475
1783153217518051800,3.8840517578125,-0.11125055700540543,-0.6911736726760864,-0.5998520255088806
1783153217527763200,3.89376318359375,0.15752223134040833,-1.3240114450454712,-0.8741224408149719
1783153217537474600,3.903474609375,0.38849884271621704,-1.8407882452011108,-1.0598963499069214
1783153217547186000,3.91318603515625,0.5632011890411377,-2.126053810119629,-1.1044882535934448
1783153217556897300,3.922897216796875,0.6786513328552246,-2.290371894836426,-1.0281323194503784
1783153217566608600,3.932608642578125,0.7458444833755493,-2.372225284576416,-0.883895993232727
1783153217576320300,3.9423203125,0.7684458494186401,-2.2671597003936768,-0.7556180357933044
1783153217586031600,3.952031494140625,0.7165238261222839,-1.9421888589859009,-0.7391251921653748
1783153217595743000,3.961742919921875,0.582748293876648,-1.4425158500671387,-0.8582404255867004
1783153217605454300,3.971454345703125,0.37322768568992615,-0.7876875400543213,-1.084941029548645
1783153217615165700,3.981165771484375,0.12514732778072357,-0.059557609260082245,-1.35798978805542
1783153217624877300,3.990877197265625,-0.10697462409734726,0.6350520849227905,-1.6059937477111816
1783153217634588700,4.000588623046875,-0.2969481348991394,1.2037508487701416,-1.751375436782837
1783153217644300000,4.010300048828125,-0.42217180132865906,1.5262782573699951,-1.751375436782837
1783153217654011400,4.020011474609375,-0.4551575779914856,1.5727026462554932,-1.5760623216629028
1783153217663722800,4.02972265625,-0.3995704650878906,1.3674579858779907,-1.2119972705841064
1783153217673434000,4.03943408203125,-0.2749576270580292,0.9288696050643921,-0.6859814524650574
1783153217683145700,4.049145751953125,-0.0886492058634758,0.30458372831344604,-0.05131116881966591
1783153217692857000,4.058857177734375,0.12270393967628479,-0.36314868927001953,0.6236750483512878
1783153217702568400,4.068568359375,0.2668638825416565,-0.9165763258934021,1.2009257078170776
1783153217712279800,4.07827978515625,0.3158080279827118,-1.32767653465271,1.5888136625289917
1783153217721991200,4.0879912109375,0.2901524603366852,-1.5164283514022827,1.7654249668121338
1783153217731702800,4.097702880859375,0.2149418741464615,-1.479777455329895,1.7409147024154663
1783153217741414100,4.1074140625,0.07933378964662552,-1.2898039817810059,1.5484977960586548
1783153217751125500,4.11712548828125,-0.08315158635377884,-0.9935430884361267,1.2778924703598022
1783153217760836900,4.1268369140625,-0.24075017869472504,-0.6233696341514587,1.0231691598892212
1783153217770548200,4.13654833984375,-0.3995704650878906,-0.22876229882240295,0.833195686340332
1783153217780259600,4.146259521484375,-0.5376219153404236,0.08948912471532822,0.7415685653686523
1783153217789971200,4.15597119140625,-0.6323032975196838,0.27831727266311646,0.7330167293548584
1783153217799682600,4.1656826171875,-0.6750625967979431,0.38093963265419006,0.7488987445831299
1783153217809394000,4.175393798828125,-0.6463527679443359,0.4823402762413025,0.7458444833755493
1783153217819105300,4.185105224609375,-0.5895439386367798,0.6203917264938354,0.6774296164512634
1783153217828816600,4.194816650390625,-0.539454460144043,0.8060893416404724,0.573585569858551
1783153217838528300,4.2045283203125,-0.5144097208976746,1.01133394241333,0.5302154421806335
1783153217848239600,4.214239501953125,-0.5321243405342102,1.080359697341919,0.5937435626983643
1783153217857951000,4.223950927734375,-0.558390736579895,0.7749360799789429,0.7837170362472534
1783153217867662300,4.233662353515625,-0.558390736579895,0.16103461384773254,1.0482138395309448
1783153217877373700,4.243373779296875,-0.5095229744911194,-0.5402944087982178,1.2045907974243164
1783153217887085000,4.2530849609375,-0.37147149443626404,-1.119377613067627,1.1483927965164185
1783153217896796700,4.262796630859375,-0.1808871477842331,-1.466338872909546,0.8399149775505066
1783153217916219400,4.282219482421875,0.24670593440532684,-1.411973476409912,-0.1459924876689911
1783153217925930800,4.2919306640625,0.4349232614040375,-1.0185878276824951,-0.5369347333908081
1783153217935642000,4.30164208984375,0.6151232123374939,-0.46454933285713196,-0.6627692580223083
1783153217945353700,4.311353759765625,0.7647807598114014,0.14018943905830383,-0.4752391576766968
1783153217955065000,4.321065185546875,0.833195686340332,0.5147151947021484,-0.007941014133393764
1783153217964776400,4.3307763671875,0.8209787011146545,0.5238778591156006,0.6120689511299133
1783153217974487800,4.34048779296875,0.7831062078475952,0.21417832374572754,1.2027583122253418
1783153217984199200,4.35019921875,0.7476770281791687,-0.2501419484615326,1.6266862154006958
1783153217993910500,4.35991064453125,0.735460102558136,-0.6282563805580139,1.8594954013824463
1783153218003622100,4.3696220703125,0.7238540053367615,-0.7785248160362244,1.9114174842834473
1783153218013333500,4.37933349609375,0.6859814524650574,-0.7040014863014221,1.774587631225586
1783153218023044900,4.389044921875,0.6694886088371277,-0.4614951014518738,1.4782503843307495
1783153218032756200,4.398756103515625,0.656660795211792,-0.18111620843410492,1.064706802368164
1783153218042467600,4.408467529296875,0.6090146899223328,0.04550812020897865,0.5729747414588928
1783153218052179200,4.41817919921875,0.5222744345664978,0.16286714375019073,0.08185353130102158
1783153218061890600,4.427890625,0.38483378291130066,0.1671430766582489,-0.37444937229156494
1783153218071602000,4.437601806640625,0.20577916502952576,0.09376505762338638,-0.7440119385719299
1783153218081313300,4.447313232421875,-0.011071606539189816,-0.016187451779842377,-0.9914814829826355
1783153218091024600,4.457024658203125,-0.25418880581855774,-0.07360709458589554,-1.119759440422058
1783153218100736300,4.466736328125,-0.511966347694397,0.032069481909275055,-1.1588536500930786
1783153218110447600,4.476447509765625,-0.7471425533294678,0.34428879618644714,-1.1545777320861816
1783153218120159000,4.486158935546875,-0.9340618252754211,0.7468371391296387,-1.1167051792144775
1783153218129870300,4.495870361328125,-1.0391275882720947,1.0883007049560547,-1.054398775100708
1783153218139581700,4.505581787109375,-1.0831085443496704,1.303318977355957,-0.9223793745040894
1783153218149293300,4.515293212890625,-1.0873844623565674,1.3839508295059204,-0.6884248852729797
1783153218159004700,4.525004638671875,-1.0568420886993408,1.4071630239486694,-0.3170297145843506
1783153218168716000,4.534716064453125,-1.011028528213501,1.372955560684204,0.16004198789596558
1783153218178427400,4.544427490234375,-0.9529981017112732,1.2837718725204468,0.6700994372367859
1783153218188138800,4.554138671875,-0.8503757119178772,1.0828031301498413,1.1019684076309204
1783153218197850000,4.56385009765625,-0.6866686940193176,0.6839198470115662,1.3750171661376953
1783153218207561700,4.573561767578125,-0.49058669805526733,0.21601086854934692,1.4788612127304077
1783153218217273000,4.583273193359375,-0.3238253891468048,-0.1969982385635376,1.447708010673523
1783153218226984400,4.592984375,-0.2053210288286209,-0.4211791753768921,1.298661231994629
1783153218236695800,4.60269580078125,-0.1784437596797943,-0.41018393635749817,1.0628741979599
1783153218246407200,4.6124072265625,-0.24991288781166077,-0.197609081864357,0.7501204609870911
1783153218256118800,4.622118896484375,-0.3513135313987732,0.17569494247436523,0.4062134325504303
1783153218265830100,4.631830078125,-0.4783697724342346,0.5837408900260925,0.11483928561210632
1783153218275541500,4.64154150390625,-0.6042042970657349,0.8806126713752747,-0.07146912813186646
1783153218285252900,4.6512529296875,-0.7098808884620667,1.071807861328125,-0.12705622613430023
1783153218294964200,4.660964111328125,-0.7697439193725586,1.1738194227218628,-0.10140064358711243
1783153218304675600,4.670675537109375,-0.7642462849617004,1.1634349822998047,-0.130721315741539
1783153218314387200,4.68038720703125,-0.7446991801261902,1.0406546592712402,-0.3799470067024231
1783153218324098600,4.6900986328125,-0.6487961411476135,0.6442148089408875,-0.8979454636573792
1783153218333810000,4.699809814453125,-0.3488701283931732,-0.12247487902641296,-1.5614019632339478
1783153218343521300,4.709521240234375,0.1617981642484665,-0.8664868474006653,-2.0940606594085693
1783153218353232600,4.719232666015625,0.762948215007782,-1.4211361408233643,-2.3115224838256836
1783153218362944300,4.7289443359375,1.3182083368301392,-1.9079813957214355,-2.2223386764526367
1783153218372655600,4.738655517578125,1.7812305688858032,-2.2512776851654053,-1.9108065366744995
1783153218382367000,4.748366943359375,2.1135315895080566,-2.322746753692627,-1.455114483833313
1783153218392078300,4.758078369140625,2.2644107341766357,-1.9672335386276245,-0.8753440976142883
1783153218401789700,4.767789794921875,2.1715619564056396,-1.2012311220169067,-0.1832541823387146
1783153218411501300,4.777501220703125,1.8252116441726685,-0.2843494117259979,0.5522059202194214
1783153218421212700,4.787212646484375,1.3023263216018677,0.34306707978248596,1.060430884361267
1783153218430924000,4.796924072265625,0.8338065147399902,0.47806432843208313,1.235133171081543
1783153218440635400,4.806635498046875,0.5375455617904663,0.34184539318084717,1.1184613704681396
1783153218450346800,4.8163466796875,0.4618005156517029,0.08765657991170883,0.7330167293548584
1783153218460058400,4.826058349609375,0.555260181427002,-0.3264978528022766,0.12339114397764206
1783153218469769700,4.835769775390625,0.8020424246788025,-0.8518264889717102,-0.6224533319473267
1783153218479481000,4.845481201171875,1.1691616773605347,-1.4089192152023315,-1.3512704372406006
1783153218489192400,4.8551923828125,1.5326157808303833,-1.9287502765655518,-1.894924521446228
1783153218498903800,4.86490380859375,1.7793980836868286,-2.349623918533325,-2.1575889587402344
1783153218508615200,4.874615234375,1.8142163753509521,-2.6270248889923096,-2.208899974822998
1783153218518326800,4.884326904296875,1.6450116634368896,-2.550058126449585,-2.1612539291381836
1783153218528038100,4.8940380859375,1.3108782768249512,-1.9635685682296753,-2.055577278137207
1783153218537749500,4.90374951171875,0.841747522354126,-0.9660549163818359,-1.875988245010376
1783153218547460900,4.9134609375,0.29503923654556274,0.09559759497642517,-1.604161262512207
1783153218557172500,4.92317236328125,-0.23952847719192505,0.9313129782676697,-1.204667091369629
1783153218566883800,4.9328837890625,-0.6292490363121033,1.4126605987548828,-0.6505523324012756
1783153218576595200,4.94259521484375,-0.8503757119178772,1.5641508102416992,0.023823043331503868
1783153218586306600,4.952306640625,-0.9224557280540466,1.4328186511993408,0.6927008032798767
1783153218596018000,4.962017822265625,-0.8827506303787231,1.1506071090698242,1.2461284399032593
1783153218605729300,4.971729248046875,-0.7679113745689392,0.864119827747345,1.6395140886306763
1783153218615441000,4.98144091796875,-0.5828246474266052,0.6326087117195129,1.8827075958251953
1783153218625152300,4.99115234375,-0.3635304868221283,0.445078581571579,1.9908275604248047
1783153218634863600,5.000863525390625,-0.17111359536647797,0.3259633779525757,1.9682261943817139
1783153218644575000,5.010574951171875,-0.06116108223795891,0.2874799966812134,1.852776050567627
1783153218654286300,5.020286376953125,-0.030007870867848396,0.32901760935783386,1.666391372680664
1783153218663998000,5.029998046875,-0.06849125027656555,0.42430979013442993,1.4635900259017944
1783153218673709300,5.039709228515625,-0.17661121487617493,0.5666372179985046,1.2326897382736206
1783153218683420700,5.049420654296875,-0.30549997091293335,0.6704812049865723,0.91566002368927
1783153218693132000,5.059132080078125,-0.4679853618144989,0.724846601486206,0.4575245976448059
1783153218702843400,5.068843505859375,-0.6023717522621155,0.725457489490509,-0.06719319522380829
1783153218712555000,5.078554931640625,-0.6359683275222778,0.8164737224578857,-0.5204418897628784
1783153218722266400,5.088266357421875,-0.6158103942871094,1.1109020709991455,-0.7824953198432922
1783153218731977700,5.097977783203125,-0.618253767490387,1.4560308456420898,-0.8112051486968994
1783153218741689000,5.107689208984375,-0.6836144328117371,1.654556155204773,-0.6853706240653992
1783153218751400400,5.117400390625,-0.7593594789505005,1.6307331323623657,-0.5473191738128662
1783153218761112000,5.127112060546875,-0.7654679417610168,1.29904305934906,-0.49051034450531006
1783153218770823400,5.136823486328125,-0.6213080286979675,0.8861103057861328,-0.48928865790367126
1783153218780534800,5.14653466796875,-0.32077115774154663,0.4585172235965729,-0.5216635465621948
1783153218790246100,5.15624609375,0.03474193811416626,-0.12369657307863235,-0.6493306159973145
1783153218799957500,5.16595751953125,0.3695625960826874,-0.7418739795684814,-0.8539644479751587
1783153218809668900,5.1756689453125,0.6016845703125,-1.0259180068969727,-1.0568420886993408
1783153218819380500,5.18538037109375,0.648108959197998,-0.8817580342292786,-1.2174949645996094
1783153218829091800,5.195091796875,0.5241069197654724,-0.5292991399765015,-1.330501675605774
1783153218838803200,5.20480322265625,0.35917818546295166,0.02107422985136509,-1.3011809587478638
1783153218848514600,5.2145146484375,0.20822255313396454,0.7584432363510132,-1.0275214910507202
1783153218858226200,5.22422607421875,0.05123481526970863,1.5091744661331177,-0.5845808386802673
1783153218867937500,5.2339375,-0.08987089991569519,1.8885107040405273,-0.14782503247261047
1783153218877649000,5.24364892578125,-0.16989189386367798,1.7565675973892212,0.16248537600040436
1783153218887360300,5.2533603515625,-0.15767495334148407,1.1817604303359985,0.26755109429359436
1783153218897071600,5.263071533203125,-0.0880383625626564,0.3748311400413513,0.130721315741539
1783153218906783000,5.272782958984375,0.022524992004036903,-0.46393850445747375,-0.24189551174640656
1783153218916494600,5.28249462890625,0.15019206702709198,-1.1358704566955566,-0.7678350210189819
1783153218926206000,5.2922060546875,0.2149418741464615,-1.5408622026443481,-1.3463836908340454
1783153218935917300,5.301917236328125,0.2656421959400177,-1.6208832263946533,-1.9150824546813965
1783153218945628700,5.311628662109375,0.3567348122596741,-1.5964492559432983,-2.4306375980377197
1783153218955340300,5.32134033203125,0.5320479869842529,-1.5396405458450317,-2.8008110523223877
1783153218965051600,5.3310517578125,0.7293516397476196,-1.338060975074768,-2.926645517349243
1783153218974763000,5.340762939453125,0.833195686340332,-1.0295830965042114,-2.7800421714782715
1783153218984474400,5.350474365234375,0.7605048418045044,-0.6850652098655701,-2.4068145751953125
1783153218994185700,5.360185791015625,0.5094466209411621,-0.3411581814289093,-1.857051968574524
1783153219003897000,5.36989697265625,0.13919681310653687,0.018630841746926308,-1.2181057929992676
1783153219013608700,5.379608642578125,-0.25113457441329956,0.3858264088630676,-0.6175665855407715
1783153219023320000,5.389320068359375,-0.5803812742233276,0.697969377040863,-0.17775654792785645
1783153219033031400,5.399031494140625,-0.8399913311004639,0.8983272314071655,0.07024743407964706
1783153219042742800,5.40874267578125,-1.011028528213501,1.082192301750183,0.23334364593029022
1783153219052454100,5.4184541015625,-1.0977689027786255,1.2917128801345825,0.4080459773540497
1783153219062165800,5.428165771484375,-1.090438723564148,1.5110070705413818,0.6004628539085388
1783153219071877000,5.437877197265625,-1.0012550354003906,1.6600537300109863,0.818535327911377
1783153219081588500,5.44758837890625,-0.8283852338790894,1.6600537300109863,1.0866972208023071
1783153219091299800,5.4572998046875,-0.5974849462509155,1.5946931838989258,1.4617575407028198
1783153219101011200,5.46701123046875,-0.3665847182273865,1.4914599657058716,1.9419597387313843
1783153219110722800,5.476722900390625,-0.1918824017047882,1.2874369621276855,2.4874463081359863
1783153219120434200,5.48643408203125,-0.13263021409511566,0.919096052646637,2.989562749862671
1783153219130145500,5.4961455078125,-0.19615831971168518,0.37177690863609314,3.382948398590088
1783153219139857000,5.50585693359375,-0.34398335218429565,-0.2880144715309143,3.545433759689331
1783153219149548500,5.515548583984375,-0.4936409294605255,-0.9843803644180298,3.3701207637786865
1783153219159279900,5.52527978515625,-0.5889331102371216,-1.475501537322998,2.853343963623047
1783153219168991200,5.5349912109375,-0.5644991993904114,-1.6831896305084229,2.147815227508545
1783153219178702600,5.54470263671875,-0.5840463638305664,-1.5762913227081299,1.1997040510177612
1783153219188414000,5.5544140625,-0.5492280125617981,-1.4632846117019653,0.04703523963689804
1783153219198125300,5.564125244140625,-0.4942517876625061,-1.271478533744812,-1.1753464937210083
1783153219207837000,5.5738369140625,-0.405678927898407,-0.7382088899612427,-2.2822017669677734
1783153219217548300,5.58354833984375,-0.24869118630886078,-0.20249587297439575,-2.900379180908203
1783153219227259600,5.593259765625,-0.1656159609556198,0.7908181548118591,-3.062253713607788
1783153219236971000,5.602970947265625,-0.2725142240524292,1.4810755252838135,-2.911985158920288
1783153219246682600,5.6126826171875,-0.41056570410728455,1.5733134746551514,-2.59067964553833
1783153219256394000,5.62239404296875,-0.4411080777645111,1.168932557106018,-2.0946714878082275
1783153219266105300,5.632105224609375,-0.34215080738067627,0.5666372179985046,-1.330501675605774
1783153219275816700,5.641816650390625,-0.15034478902816772,-0.0009162708884105086,-0.36223241686820984
1783153219285528000,5.651528076171875,0.06345175951719284,-0.35948359966278076,0.6768187880516052
1783153219295239400,5.661239501953125,0.25770118832588196,-0.6300889253616333,1.506960153579712
1783153219304951000,5.670950927734375,0.4178195297718048,-1.113879919052124,1.8173469305038452
1783153219314662400,5.680662353515625,0.5265503525733948,-1.7100669145584106,1.5460543632507324
1783153219324373800,5.690373779296875,0.5888567566871643,-2.126053810119629,0.8900044560432434
1783153219334085000,5.700085205078125,0.6255075931549072,-2.0545847415924072,0.13499724864959717
1783153219343796700,5.709796630859375,0.5986303091049194,-1.475501537322998,-0.4856235682964325
1783153219353508000,5.719508056640625,0.4825693368911743,-0.5476245880126953,-0.8276980519294739
1783153219363219500,5.729219482421875,0.25709033012390137,0.3375694751739502,-0.9077190160751343
1783153219372930800,5.738930908203125,0.0231358390301466,0.9172635078430176,-0.8393041491508484
1783153219382642200,5.74864208984375,-0.1668376624584198,1.1194539070129395,-0.7171346545219421
1783153219392353500,5.758353515625,-0.30611082911491394,0.9997279047966003,-0.5870242118835449
1783153219402065200,5.768065185546875,-0.38491013646125793,0.6692595481872559,-0.46546560525894165
1783153219411776500,5.777776611328125,-0.38491013646125793,0.2972535490989685,-0.3787252902984619
1783153219421487900,5.78748779296875,-0.31771692633628845,-0.01435491070151329,-0.35917818546295166
1783153219431199200,5.79719921875,-0.19676917791366577,-0.30633988976478577,-0.45447036623954773
1783153219440910800,5.806910888671875,-0.02023431472480297,-0.6404733657836914,-0.6963658928871155
1783153219450622200,5.816622314453125,0.23632153868675232,-1.0534061193466187,-1.0556204319000244
1783153219460333600,5.82633349609375,0.5888567566871643,-1.3576080799102783,-1.391586422920227
1783153219470045000,5.836044921875,0.948034942150116,-1.3985347747802734,-1.5589585304260254
1783153219479756500,5.845756591796875,1.202147364616394,-1.2201673984527588,-1.4844352006912231
1783153219489468000,5.855468017578125,1.2840009927749634,-0.9483403563499451,-1.1838983297348022
1783153219499179300,5.86517919921875,1.1575555801391602,-0.642916738986969,-0.7427902817726135
1783153219508890600,5.874890625,0.864959716796875,-0.3301629424095154,-0.27060532569885254
1783153219518602000,5.88460205078125,0.49417543411254883,-0.027793550863862038,0.15515519678592682
1783153219528313300,5.894313232421875,0.15446799993515015,0.259991854429245,0.499673068523407
1783153219538025000,5.90402490234375,-0.10575293004512787,0.49028128385543823,0.7959339618682861
1783153219547736300,5.913736328125,-0.2835094928741455,0.5855734348297119,1.0567657947540283
1783153219557447700,5.92344775390625,-0.3867426812648773,0.540370762348175,1.2552911043167114
1783153219567159000,5.933158935546875,-0.44599485397338867,0.40720605850219727,1.3890666961669922
1783153219576870700,5.94287060546875,-0.4582118093967438,0.23861220479011536,1.4776395559310913
1783153219586582000,5.95258203125,-0.4423297643661499,0.07299624383449554,1.5118470191955566
1783153219596293400,5.96229345703125,-0.4423297643661499,-0.09620844572782516,1.4507622718811035
1783153219606004700,5.972004638671875,-0.4808131456375122,-0.27946263551712036,1.258345365524292
1783153219615716000,5.981716064453125,-0.5455629825592041,-0.45049986243247986,0.9309312105178833
1783153219625427700,5.991427734375,-0.605426013469696,-0.47615543007850647,0.5204418897628784
1783153219635139000,6.00113916015625,-0.6475744247436523,-0.29351210594177246,0.17470231652259827
1783153219644850400,6.010850341796875,-0.6402443051338196,0.04611896723508835,0.011606098152697086
1783153219654561800,6.020561767578125,-0.6151995658874512,0.38643723726272583,0.023823043331503868
1783153219664273200,6.030273193359375,-0.586489737033844,0.5336514115333557,0.17286977171897888
1783153219673984800,6.03998486328125,-0.530902624130249,0.40842774510383606,0.38727715611457825
1783153219683696000,6.049696044921875,-0.4453839957714081,0.07299624383449554,0.546097457408905
1783153219693407500,6.059407470703125,-0.3354314863681793,-0.20005246996879578,0.582748293876648
1783153219703118800,6.069118896484375,-0.17416782677173615,-0.06933116167783737,0.6261184215545654
1783153219712830200,6.078830322265625,-0.005573981441557407,0.4145362079143524,0.7879929542541504
1783153219722541800,6.088541748046875,0.12575818598270416,0.812808632850647,0.994459331035614
1783153219732253200,6.098253173828125,0.24670593440532684,0.8305231928825378,1.106244444847107
1783153219741964500,6.107964599609375,0.33474430441856384,0.47623178362846375,1.0702043771743774
1783153219751676000,6.117676025390625,0.3549022674560547,0.1653105467557907,0.9865183234214783
1783153219761387500,6.127387451171875,0.24976016581058502,0.05405998229980469,0.8710681796073914
1783153219771099000,6.137098876953125,0.04818057641386986,-0.10048437118530273,0.6700994372367859
1783153219780810200,6.146810302734375,-0.11002886295318604,-0.34971004724502563,0.38605546951293945
1783153219790521600,6.156521484375,-0.13812783360481262,-0.6398624777793884,0.05619794875383377
1783153219800233000,6.16623291015625,-0.03733803704380989,-0.8225058317184448,-0.2516690790653229
1783153219809944600,6.175944580078125,0.1471378356218338,-0.8530482053756714,-0.4556920528411865
1783153219819656000,6.185656005859375,0.35856732726097107,-0.6539120078086853,-0.43797749280929565
1783153219829367300,6.1953671875,0.5234960913658142,-0.36070531606674194,-0.19241689145565033
1783153219839078700,6.20507861328125,0.5748072862625122,-0.1322484314441681,0.20463383197784424
1783153219848790000,6.2147900390625,0.497229665517807,-0.05100574716925621,0.6047387719154358
1783153219858501600,6.224501708984375,0.3054236173629761,-0.13774605095386505,0.8490777015686035
1783153219868213000,6.234212890625,0.04879142343997955,-0.33382803201675415,0.8814526200294495
1783153219877924400,6.24392431640625,-0.2059318870306015,-0.5054761171340942,0.6963658928871155
1783153219887635700,6.2536357421875,-0.39773792028427124,-0.5781669020652771,0.3280249834060669
1783153219897347300,6.263347412109375,-0.5284592509269714,-0.568393349647522,-0.1447708010673523
1783153219907058700,6.27305859375,-0.5968741178512573,-0.4688252806663513,-0.5931326746940613
1783153219916770000,6.28277001953125,-0.5962632894515991,-0.34482327103614807,-0.9297859072685242
1783153219926481400,6.2924814453125,-0.5461738109588623,-0.2996205687522888,-1.1393065452575684
1783153219936192800,6.30219287109375,-0.4319453537464142,-0.38697174191474915,-1.2284902334213257
1783153219945904400,6.311904296875,-0.2969481348991394,-0.587940514087677,-1.1985586881637573
1783153219955615700,6.32161572265625,-0.18394137918949127,-0.9385668039321899,-1.0959362983703613
1783153219965327000,6.3313271484375,-0.1277434378862381,-1.3814311027526855,-0.9725452065467834
1783153219975038500,6.34103857421875,-0.12102411687374115,-1.735722541809082,-0.9003888368606567
1783153219984750000,6.35075,-0.1265217363834381,-1.8658329248428345,-0.8893936276435852
1783153219994461400,6.36046142578125,-0.09720107167959213,-1.6673076152801514,-0.893058717250824
1783153220004172800,6.3701728515625,-0.03245126083493233,-1.2134480476379395,-0.841747522354126
1783153220013884200,6.37988427734375,0.05978667363524437,-0.6551336646080017,-0.6878139972686768
1783153220023595500,6.389595458984375,0.15263545513153076,-0.10659284889698029,-0.40254834294319153
1783153220033307100,6.39930712890625,0.1868429034948349,0.38216131925582886,0.02076880633831024
1783153220043018500,6.4090185546875,0.1617981642484665,0.785320520401001,0.5448757410049438
1783153220052729900,6.418729736328125,0.14469444751739502,1.0681427717208862,1.0928057432174683
1783153220062441200,6.428441162109375,0.1624090075492859,1.2135244607925415,1.595533013343811
1783153220072152600,6.438152587890625,0.1996707022190094,1.2031400203704834,1.9938818216323853
1783153220081864200,6.4478642578125,0.2674747407436371,1.0809705257415771,2.2455508708953857
1783153220091575600,6.457575439453125,0.367730051279068,0.8879428505897522,2.321295976638794
1783153220101287000,6.467286865234375,0.46363306045532227,0.6875849366188049,2.2296688556671143
1783153220110998300,6.476998291015625,0.5192201733589172,0.45057621598243713,1.991438388824463
1783153220120709600,6.486709716796875,0.5222744345664978,0.2337254285812378,1.6688346862792969
1783153220130421200,6.496421142578125,0.48928865790367126,0.10659284889698029,1.3438639640808105
1783153220140132600,6.506132568359375,0.42576053738594055,0.07482878863811493,1.045770525932312
1783153220149844000,6.515843994140625,0.30908870697021484,0.12797249853610992,0.7727217674255371
1783153220159555300,6.525555419921875,0.1624090075492859,0.30519455671310425,0.5790832042694092
1783153220169267000,6.535266845703125,0.0011453386396169662,0.6124507188796997,0.499673068523407
1783153220178978300,6.544978271484375,-0.16378341615200043,1.035767912864685,0.5583143830299377
1783153220188689700,6.554689697265625,-0.31954947113990784,1.4890165328979492,0.7531746625900269
1783153220198401000,6.564401123046875,-0.43622130155563354,1.9068360328674316,1.007897973060608
1783153220208112600,6.574112548828125,-0.4973060190677643,2.127962827682495,1.192984700202942
1783153220217824000,6.583823974609375,-0.48936501145362854,1.9673099517822266,1.2155860662460327
1783153220227535400,6.593535400390625,-0.37086063623428345,1.44625723361969,1.0799779891967773
1783153220237246700,6.603246826171875,-0.22364644706249237,0.8176954388618469,0.8466343283653259
1783153220246958000,6.6129580078125,-0.1668376624584198,0.387658953666687,0.5943543910980225
1783153220256669700,6.622669677734375,-0.22608983516693115,0.1530935913324356,0.3292466700077057
1783153220266381000,6.632381103515625,-0.3244362473487854,0.08826743066310883,0.0922379344701767
1783153220276092400,6.642092529296875,-0.4148416519165039,0.2202867865562439,-0.029320668429136276
1783153220285803800,6.6518037109375,-0.5205182433128357,0.6100073456764221,0.03665083646774292
1783153220295515400,6.661515380859375,-0.6487961411476135,1.1677109003067017,0.2626643180847168
1783153220305226800,6.671226806640625,-0.799064576625824,1.7144192457199097,0.5913001298904419
1783153220314938000,6.680938232421875,-0.8931350708007812,1.9550930261611938,0.8612946271896362
1783153220324649500,6.6906494140625,-0.8674794435501099,1.8317018747329712,0.9779664874076843
1783153220334360800,6.70036083984375,-0.7049940824508667,1.4450355768203735,0.9028322696685791
1783153220344072400,6.710072509765625,-0.4527141749858856,0.9197068810462952,0.6169557571411133
1783153220353783800,6.71978369140625,-0.11919157207012177,0.3381803035736084,0.16248537600040436
1783153220363495200,6.7294951171875,0.28404396772384644,-0.2238755226135254,-0.37506023049354553
1783153220373206500,6.73920654296875,0.7091936469078064,-0.7076665759086609,-0.9095515608787537
1783153220382918100,6.748918212890625,1.0842539072036743,-1.0912786722183228,-1.3842562437057495
1783153220392629500,6.75862939453125,1.3780714273452759,-1.2446012496948242,-1.7666466236114502
1783153220402340900,6.7683408203125,1.5625473260879517,-1.2555965185165405,-2.0635182857513428
1783153220412052200,6.77805224609375,1.62851881980896,-1.2867497205734253,-2.275482416152954
1783153220421763800,6.787763916015625,1.5949221849441528,-1.3056859970092773,-2.370163679122925
1783153220431475200,6.79747509765625,1.4660334587097168,-1.1413681507110596,-2.30968976020813
1783153220441186600,6.8071865234375,1.2534586191177368,-0.7870767116546631,-2.0879523754119873
1783153220450898000,6.81689794921875,0.9932376146316528,-0.4022429287433624,-1.757483959197998
1783153220460609300,6.826609375,0.726908266544342,-0.08276980370283127,-1.3750935792922974
1783153220470321000,6.83632080078125,0.46546560525894165,0.09498675167560577,-0.9902597665786743
1783153220480032300,6.8460322265625,0.24548424780368805,0.14698512852191925,-0.6444438695907593
1783153220489743600,6.85574365234375,0.07566870748996735,0.26243525743484497,-0.34635040163993835
1783153220499455000,6.865455078125,-0.035505495965480804,0.49944397807121277,-0.08857285231351852
1783153220509166600,6.87516650390625,-0.08620581775903702,0.8213604688644409,0.1423274129629135
1783153220518878000,6.8848779296875,-0.07643226534128189,1.1255624294281006,0.36284327507019043
1783153220528589300,6.89458935546875,-0.0067956759594380856,1.3601278066635132,0.5894675850868225
1783153220538300700,6.90430078125,0.09399411827325821,1.460917592048645,0.8063184022903442
1783153220548012000,6.914011962890625,0.19478392601013184,1.3479108810424805,0.994459331035614
1783153220557723600,6.9237236328125,0.280913382768631,1.0198858976364136,1.113574504852295
1783153220567435000,6.93343505859375,0.31886225938796997,0.6271110773086548,1.1923738718032837
1783153220577146400,6.943146484375,0.2644205093383789,0.3003077805042267,1.1771026849746704
1783153220586857700,6.952857666015625,0.12392564117908478,0.08887827396392822,1.0769237279891968
1783153220596569300,6.9625693359375,-0.1008661538362503,0.032069481909275055,0.8869501948356628
1783153220606280700,6.97228076171875,-0.37208232283592224,0.11514470726251602,0.6407787799835205
1783153220615992000,6.981991943359375,-0.6237514019012451,0.23739051818847656,0.3799470067024231
1783153220625703400,6.991703369140625,-0.8106706738471985,0.2966426908969879,0.10934165865182877
1783153220635415000,7.0014150390625,-0.905351996421814,0.33329352736473083,-0.11056335270404816
1783153220645126400,7.01112646484375,-0.9145147204399109,0.3113030195236206,-0.25777754187583923
1783153220654837800,7.020837646484375,-0.822276771068573,0.12858334183692932,-0.3127537965774536
1783153220664549000,7.030549072265625,-0.6512395143508911,-0.13896775245666504,-0.23945212364196777
1783153220674260500,7.040260498046875,-0.4417189359664917,-0.3136700689792633,-0.033596597611904144
1783153220683972000,7.04997216796875,-0.18882815539836884,-0.17317520081996918,0.29503923654556274
1783153220693683500,7.059683349609375,0.061619218438863754,0.34551048278808594,0.6872031688690186
1783153220703394800,7.069394775390625,0.2393757700920105,1.1487746238708496,0.9602518677711487
1783153220713106400,7.0791064453125,0.26930728554725647,1.7779473066329956,0.8771766424179077
1783153220722817800,7.08881787109375,0.0952158197760582,1.8610224723815918,0.393385648727417
1783153220732529200,7.098529052734375,-0.10697462409734726,1.5110070705413818,-0.15943112969398499
1783153220742240500,7.108240478515625,-0.21631628274917603,1.178706169128418,-0.4618005156517029
1783153220751952000,7.117951904296875,-0.30183491110801697,0.7523347735404968,-0.550373375415802
1783153220761663500,7.12766357421875,-0.375747412443161,0.06933116167783737,-0.5436540842056274
1783153220771374800,7.137374755859375,-0.34276166558265686,-0.6068767309188843,-0.4960079789161682
1783153220781086200,7.147086181640625,-0.1283542811870575,-1.0246962308883667,-0.39643988013267517
1783153220790797600,7.156797607421875,0.19417306780815125,-1.0705097913742065,-0.2877090573310852
1783153220800509200,7.16650927734375,0.554649293422699,-0.878703773021698,-0.19302773475646973
1783153220810220500,7.176220458984375,0.8955020904541016,-0.6520794630050659,-0.130721315741539
1783153220819932000,7.185931884765625,1.156944751739502,-0.5818319916725159,-0.09834641218185425
1783153220829643300,7.195643310546875,1.3456965684890747,-0.7266027927398682,-0.08674030750989914
1783153220839355000,7.20535498046875,1.4782503843307495,-1.1077715158462524,-0.14660334587097168
1783153220849066200,7.215066162109375,1.5423892736434937,-1.6831896305084229,-0.3793361485004425
1783153220858777600,7.224777587890625,1.540556788444519,-2.1822519302368164,-0.7898254990577698
1783153220868489000,7.234489013671875,1.4715310335159302,-2.456522226333618,-1.2272684574127197
1783153220878200300,7.244200439453125,1.369519591331482,-2.4595766067504883,-1.5418548583984375
1783153220887912000,7.253911865234375,1.2259705066680908,-2.2457799911499023,-1.6799063682556152
1783153220897623300,7.263623291015625,1.032942771911621,-1.822462797164917,-1.6701327562332153
1783153220907334700,7.273334716796875,0.7989882230758667,-1.2470446825027466,-1.5424656867980957
1783153220917046000,7.2830458984375,0.5216635465621948,-0.6624638438224792,-1.3610440492630005
1783153220926757600,7.292757568359375,0.22349373996257782,-0.22570806741714478,-1.1887850761413574
1783153220936469000,7.302468994140625,-0.06604786217212677,-0.006413896102458239,-1.0324082374572754
1783153220946180400,7.312180419921875,-0.3091650605201721,0.09865183383226395,-0.8790091872215271
1783153220955891700,7.3218916015625,-0.5046361684799194,0.21601086854934692,-0.7391251921653748
1783153220965603300,7.331603271484375,-0.6665107011795044,0.27892813086509705,-0.6377245187759399
1783153220975314700,7.341314697265625,-0.7618029117584229,0.28137150406837463,-0.5821374654769897
1783153220985026000,7.351026123046875,-0.7727981209754944,0.26426780223846436,-0.5705313682556152
1783153220994737400,7.3607373046875,-0.6781167984008789,0.22761696577072144,-0.5864133834838867
1783153221004449000,7.370448974609375,-0.4685961902141571,0.18913358449935913,-0.578472375869751
1783153221014160400,7.380160400390625,-0.16134002804756165,0.18607935309410095,-0.47829338908195496
1783153221023871700,7.389871826171875,0.17706935107707977,0.21540001034736633,-0.23945212364196777
1783153221033583000,7.3995830078125,0.448361873626709,0.2679328918457031,0.1441599577665329
1783153221043294700,7.409294677734375,0.6230642199516296,0.3271850645542145,0.6450546979904175
1783153221053006000,7.419006103515625,0.7153021693229675,0.34489962458610535,1.1673290729522705
1783153221062717400,7.428717529296875,0.7275190949440002,0.285647451877594,1.5509412288665771
1783153221072428800,7.4384287109375,0.6255075931549072,0.15798036754131317,1.7177025079727173
1783153221082140200,7.44814013671875,0.4581354558467865,-0.1047603040933609,1.5961438417434692
1783153221091851800,7.457851806640625,0.2901524603366852,-0.5024218559265137,1.1948171854019165
1783153221101563100,7.467563232421875,0.1465269923210144,-0.9013051390647888,0.5858024954795837
1783153221111274500,7.4772744140625,0.008475505746901035,-1.1303728818893433,-0.09040539711713791
1783153221120985900,7.48698583984375,-0.14362546801567078,-0.9636115431785583,-0.6511631608009338
1783153221130697500,7.496697509765625,-0.30244573950767517,-0.31855684518814087,-0.9174925684928894
1783153221140408800,7.506408935546875,-0.4404972195625305,0.5794649720191956,-0.7922688722610474
1783153221150120200,7.5161201171875,-0.5547256469726562,1.2892694473266602,-0.3573456406593323
1783153221159831800,7.525831787109375,-0.6249731183052063,1.528721570968628,0.24617144465446472
1783153221169543200,7.535543212890625,-0.6445202231407166,1.3802857398986816,0.81425940990448
1783153221179254500,7.545254638671875,-0.6237514019012451,1.0333244800567627,1.1966497898101807
1783153221188966000,7.5549658203125,-0.6133670210838318,0.6924717426300049,1.3084348440170288
1783153221198677200,7.56467724609375,-0.6353574991226196,0.5183802843093872,1.060430884361267
1783153221208388900,7.574388916015625,-0.7098808884620667,0.5971795320510864,0.4343124032020569
1783153221218100200,7.584100341796875,-0.7935669422149658,0.8219713568687439,-0.3927747905254364
1783153221227811600,7.5938115234375,-0.8082273006439209,1.004003882408142,-1.1460257768630981
1783153221237523000,7.60352294921875,-0.6909446120262146,0.840296745300293,-1.6420338153839111
1783153221247234600,7.613234619140625,-0.4282802939414978,0.2434989959001541,-1.7984106540679932
1783153221256946000,7.62294580078125,-0.057496000081300735,-0.34787750244140625,-1.5320812463760376
1783153221266657300,7.6326572265625,0.30786702036857605,-0.5659499764442444,-0.888171911239624
1783153221276368600,7.64236865234375,0.5485408306121826,-0.569004237651825,-0.11056335270404816
1783153221286080300,7.652080322265625,0.6474980711936951,-0.4859289824962616,0.6639909744262695
1783153221295791600,7.66179150390625,0.5894675850868225,-0.4340069890022278,1.2113101482391357
1783153221305503000,7.6715029296875,0.4575245976448059,-0.4566083252429962,1.4678659439086914
1783153221315214300,7.68121435546875,0.3298575282096863,-0.42362257838249207,1.4373235702514648
1783153221324926000,7.690926025390625,0.20761170983314514,-0.33199548721313477,1.166107416152954
1783153221334637300,7.70063720703125,0.07627955079078674,-0.24525517225265503,0.7201889157295227
1783153221344348700,7.7103486328125,-0.057496000081300735,-0.17745113372802734,0.21868331730365753
1783153221354060000,7.72006005859375,-0.19860170781612396,-0.09804098308086395,-0.21196399629116058
1783153221363771600,7.729771728515625,-0.3598653972148895,-0.02229592576622963,-0.5106683373451233
1783153221373483000,7.73948291015625,-0.5302917957305908,-0.00519220158457756,-0.6584933400154114
1783153221383194400,7.7491943359375,-0.7062157988548279,-0.1169772520661354,-0.6865923404693604
1783153221392905700,7.75890576171875,-0.8784747123718262,-0.26724568009376526,-0.6511631608009338
1783153221402617300,7.768617431640625,-1.038516640663147,-0.39735615253448486,-0.601073682308197
1783153221412328700,7.77832861328125,-1.1576318740844727,-0.5030327439308167,-0.5650337338447571
1783153221422040000,7.7880400390625,-1.2126082181930542,-0.5812211632728577,-0.5656445622444153
1783153221431751400,7.79775146484375,-1.1912285089492798,-0.5848862528800964,-0.6035171151161194
1783153221441463000,7.807463134765625,-1.1002122163772583,-0.5427377820014954,-0.6432221531867981
1783153221451174400,7.81717431640625,-0.9303967356681824,-0.4614951014518738,-0.6322268843650818
1783153221460885800,7.8268857421875,-0.6775059700012207,-0.34421244263648987,-0.5387672781944275
1783153221470597000,7.83659716796875,-0.3733040392398834,-0.19944162666797638,-0.37689274549484253
1783153221480308700,7.846308837890625,-0.06971294432878494,-0.04611896723508835,-0.1820324808359146
1783153221490020000,7.85602001953125,0.18501035869121552,0.06383354216814041,0.03665083646774292
1783153221499731500,7.8657314453125,0.3549022674560547,0.06322269141674042,0.25472331047058105
1783153221509442800,7.87544287109375,0.4489727318286896,-0.05405998229980469,0.45080527663230896
1783153221519154400,7.885154541015625,0.47951510548591614,-0.25380703806877136,0.5894675850868225
1783153221528865800,7.89486572265625,0.4691306948661804,-0.4706578254699707,0.6358919739723206
1783153221538577200,7.9045771484375,0.4569137394428253,-0.6581879258155823,0.5949652194976807
1783153221548288500,7.91428857421875,0.46607646346092224,-0.7889092564582825,0.5033381581306458
1783153221558000000,7.924000244140625,0.4856235682964325,-0.8127322793006897,0.41171106696128845
1783153221567711500,7.93371142578125,0.5131117105484009,-0.7192726731300354,0.33596599102020264
1783153221577422800,7.9434228515625,0.5485408306121826,-0.5928272604942322,0.3011476993560791
1783153221587134200,7.95313427734375,0.601073682308197,-0.3918585181236267,0.34879377484321594
1783153221596845600,7.962845458984375,0.6316160559654236,-0.1951656937599182,0.4715740978717804
1783153221606557200,7.97255712890625,0.6157340407371521,-0.16034740209579468,0.5992411375045776
1783153221616268500,7.9822685546875,0.5577035546302795,-0.2623589038848877,0.712247908115387
1783153221625980000,7.99197998046875,0.4856235682964325,-0.4627167880535126,0.731184184551239
1783153221635691500,8.00169140625,0.41232189536094666,-0.6600204706192017,0.6420004963874817
1783153221645403000,8.01140283203125,0.33596599102020264,-0.7156075835227966,0.5247178077697754
1783153221655114200,8.0211142578125,0.25892287492752075,-0.7498149871826172,0.41537612676620483
1783153221664825600,8.03082568359375,0.18317782878875732,-0.8750386834144592,0.2608317732810974
1783153221674537200,8.040537109375,0.120871402323246,-1.0515735149383545,-0.010995250195264816
1783153221684248600,8.05024853515625,0.09093988686800003,-1.0472975969314575,-0.29748260974884033
1783153221693960000,8.0599599609375,0.035352785140275955,-0.7962393760681152,-0.46241137385368347
1783153221703671300,8.06967138671875,-0.09903360903263092,-0.34604495763778687,-0.43614494800567627
1783153221713383000,8.0793828125,-0.28961795568466187,0.11942064017057419,-0.3029802441596985
1783153221723094300,8.08909423828125,-0.45088163018226624,0.38399386405944824,-0.20524467527866364
1783153221732805600,8.0988056640625,-0.5217399001121521,0.4182012975215912,-0.1985253542661667
1783153221742517000,8.10851708984375,-0.5223507881164551,0.3394020199775696,-0.2608317732810974
1783153221752228600,8.118228515625,-0.5107446908950806,0.2575484812259674,-0.37078428268432617
1783153221761940000,8.12793994140625,-0.4722612798213959,0.19096612930297852,-0.5436540842056274
1783153221771651300,8.1376513671875,-0.35558944940567017,0.13713520765304565,-0.7366818189620972
1783153221781362700,8.14736279296875,-0.13568444550037384,0.07238540053367615,-0.9003888368606567
1783153221791074300,8.15707421875,0.17645850777626038,-0.0925433561205864,-0.9975899457931519
1783153221800785700,8.16678564453125,0.5491516590118408,-0.41445985436439514,-0.9994224905967712
1783153221810497000,8.1764970703125,0.9529217481613159,-0.9086353182792664,-0.9089407324790955
1783153221820208400,8.18620849609375,1.3053805828094482,-1.6129422187805176,-0.7959339618682861
1783153221829920000,8.195919921875,1.5142903327941895,-2.3789446353912354,-0.7495095729827881
1783153221839631400,8.20563134765625,1.5631581544876099,-2.9416112899780273,-0.7837170362472534
1783153221849342700,8.2153427734375,1.4929107427597046,-3.134639024734497,-0.8582404255867004
1783153221859054000,8.22505419921875,1.3566917181015015,-2.911068916320801,-0.9083298444747925
1783153221868765700,8.234765625,1.1960389614105225,-2.2842633724212646,-0.8808417320251465
1783153221878477000,8.24447705078125,1.0121738910675049,-1.4003673791885376,-0.7855495810508728
1783153221888188400,8.2541884765625,0.8124268651008606,-0.4462239146232605,-0.6676560640335083
1783153221897899800,8.263899658203124,0.5595360994338989,0.4676799178123474,-0.6554391384124756
1783153221907611400,8.273611328125,0.24853847920894623,1.2190220355987549,-0.846023440361023
1783153221917322800,8.28332275390625,-0.09170344471931458,1.7211384773254395,-1.183287501335144
1783153221927034000,8.2930341796875,-0.4704287350177765,1.987467885017395,-1.5583477020263672
1783153221936745500,8.302745361328125,-0.8656468987464905,2.0253405570983887,-1.8582737445831299
1783153221946457000,8.31245703125,-1.2284902334213257,1.9013384580612183,-2.006098747253418
1783153221956168400,8.32216845703125,-1.4771050214767456,1.7425181865692139,-1.9651719331741333
1783153221965879800,8.3318798828125,-1.5540717840194702,1.5873630046844482,-1.7354934215545654
1783153221975591400,8.34159130859375,-1.4819917678833008,1.4487006664276123,-1.3421077728271484
1783153221985302800,8.351302734375,-1.2962942123413086,1.3106491565704346,-0.8319739699363708
1783153221995014100,8.36101416015625,-1.0592855215072632,1.1579372882843018,-0.261442631483078
1783153222004725500,8.3707255859375,-0.8357154130935669,0.8995489478111267,0.2901524603366852
1783153222014437000,8.38043701171875,-0.6591805219650269,0.5440358519554138,0.7507312893867493
1783153222024148500,8.3901484375,-0.5205182433128357,0.17508409917354584,1.0885298252105713
1783153222033859800,8.39985986328125,-0.4203392565250397,-0.10048437118530273,1.2949961423873901
1783153222043571200,8.4095712890625,-0.35864371061325073,-0.25808295607566833,1.392731785774231
1783153222053282800,8.41928271484375,-0.30183491110801697,-0.25747212767601013,1.443432092666626
1783153222062994200,8.428994140625,-0.23769593238830566,-0.1951656937599182,1.4990191459655762
1783153222072705500,8.43870556640625,-0.17111359536647797,-0.14202198386192322,1.5149011611938477
1783153222082417000,8.4484169921875,-0.09231429547071457,-0.16706672310829163,1.4440429210662842
1783153222092128500,8.45812841796875,0.030466007068753242,-0.3179459869861603,1.2326897382736206
1783153222101840000,8.46783984375,0.22105035185813904,-0.5983248949050903,0.9003888368606567
1783153222111551200,8.47755126953125,0.46363306045532227,-0.8848122358322144,0.5351021885871887
1783153222121262600,8.4872626953125,0.7134696245193481,-1.0619579553604126,0.23273280262947083
1783153222130974200,8.49697412109375,0.9236010313034058,-1.2226108312606812,0.04947862774133682
1783153222140685600,8.506685546875,1.0720369815826416,-1.4956594705581665,-0.05008947476744652
1783153222150397000,8.51639697265625,1.0811996459960938,-1.7797034978866577,-0.11239589750766754
1783153222160108300,8.5261083984375,0.962695300579071,-1.7228946685791016,-0.12094775587320328
1783153222169820000,8.53581982421875,0.7067502737045288,-1.2867497205734253,-0.0916270911693573
1783153222179531300,8.54553125,0.3915531039237976,-0.6294780969619751,-0.06963659077882767
1783153222189242600,8.55524267578125,0.0952158197760582,0.08215895295143127,-0.07452336698770523
1783153222198954000,8.5649541015625,-0.09720107167959213,0.6588751077651978,-0.15271180868148804
1783153222208665600,8.57466552734375,-0.17538951337337494,0.9948410987854004,-0.30725616216659546
1783153222218377000,8.584376953125,-0.18516308069229126,1.0204967260360718,-0.5131117105484009
1783153222228088300,8.59408837890625,-0.12163496017456055,0.8176954388618469,-0.6951441764831543
1783153222237799700,8.603799560546875,0.0023670331574976444,0.5367056727409363,-0.7934905886650085
1783153222247511300,8.61351123046875,0.16485241055488586,0.23739051818847656,-0.7873821258544922
1783153222257222700,8.62322265625,0.3665083646774292,0.017409147694706917,-0.6572716236114502
1783153222266934000,8.63293408203125,0.5723638534545898,-0.06810946762561798,-0.420873761177063
1783153222276645600,8.642645751953125,0.7336275577545166,-0.11209046840667725,-0.1954711228609085
1783153222286357000,8.65235693359375,0.8179244995117188,-0.1963873952627182,-0.0647498071193695
1783153222296068400,8.662068359375,0.8319739699363708,-0.24525517225265503,-0.04459185153245926
1783153222305779700,8.67177978515625,0.7953231334686279,-0.1817270666360855,-0.12400199472904205
1783153222315491300,8.6814912109375,0.6988092660903931,0.018630841746926308,-0.2901524603366852
1783153222325202700,8.69120263671875,0.5302154421806335,0.29481014609336853,-0.53143709897995
1783153222334914000,8.7009140625,0.3133646547794342,0.6057314276695251,-0.7776085734367371
1783153222344625700,8.710625732421875,0.08971819281578064,0.910544216632843,-0.9639933109283447
1783153222354337000,8.7203369140625,-0.11613733321428299,1.1567156314849854,-1.0666157007217407
1783153222364048400,8.73004833984375,-0.2871745824813843,1.381507396697998,-1.0739458799362183
1783153222373759700,8.739759765625,-0.42400434613227844,1.6179053783416748,-0.9468895792961121
1783153222383471000,8.74947119140625,-0.49913856387138367,1.8237608671188354,-0.6395570635795593
1783153222393182700,8.7591826171875,-0.48875415325164795,1.9721966981887817,-0.14171656966209412
1783153222402894000,8.76889404296875,-0.4258368909358978,2.014345169067383,0.4709632396697998
1783153222412605400,8.77860546875,-0.38185590505599976,1.9257723093032837,1.0592091083526611
1783153222422317000,8.788317138671875,-0.39468368887901306,1.7345771789550781,1.5430002212524414
1783153222432028400,8.7980283203125,-0.4527141749858856,1.6154619455337524,1.9260777235031128
1783153222441739800,8.80773974609375,-0.5131880640983582,1.6466151475906372,2.2449400424957275
1783153222451451100,8.817451171875,-0.5602232813835144,1.7522916793823242,2.4959981441497803
1783153222461162500,8.82716259765625,-0.6005392074584961,1.8182631731033325,2.6096158027648926
1783153222470874000,8.8368740234375,-0.6280273199081421,1.7858883142471313,2.5638022422790527
1783153222480585500,8.84658544921875,-0.6158103942871094,1.6380633115768433,2.4062037467956543
1783153222490296800,8.856296875,-0.5791595578193665,1.3735663890838623,2.1435394287109375
1783153222500008400,8.866008544921876,-0.540065348148346,1.031491994857788,1.783750295639038
1783153222509719800,8.8757197265625,-0.5241833329200745,0.7077429294586182,1.3621894121170044
1783153222519431200,8.88543115234375,-0.5651100873947144,0.4517979025840759,0.8948912620544434
1783153222529142500,8.895142578125,-0.6481853127479553,0.30397287011146545,0.4202629029750824
1783153222538854100,8.904854248046876,-0.7446991801261902,0.2862583100795746,-0.018936265259981155
1783153222548565500,8.9145654296875,-0.8253310322761536,0.4401918053627014,-0.34573954343795776
1783153222558276900,8.92427685546875,-0.8442672491073608,0.7883747220039368,-0.47829338908195496
1783153222567988200,8.93398828125,-0.7886801958084106,1.3320287466049194,-0.3799470067024231
1783153222577699800,8.943699951171874,-0.6738408803939819,1.867130994796753,-0.08307522535324097
1783153222587411200,8.9534111328125,-0.5089121460914612,2.1957669258117676,0.30969956517219543
1783153222597122600,8.96312255859375,-0.3213820159435272,2.2770094871520996,0.6780404448509216
1783153222606834200,8.972834228515625,-0.17050273716449738,2.0222861766815186,0.943759024143219
1783153222616545500,8.982545654296874,-0.10636378079652786,1.4713020324707031,1.0598199367523193
1783153222626257000,8.9922568359375,-0.10575293004512787,0.7596648931503296,1.012784719467163
1783153222635968300,9.00196826171875,-0.12468919903039932,0.07055285573005676,0.8209787011146545
1783153222645679900,9.011679931640625,-0.13873867690563202,-0.3936910629272461,0.527161180973053
1783153222655391200,9.02139111328125,-0.1937149316072464,-0.5745018720626831,0.16370706260204315
1783153222665102600,9.0311025390625,-0.27740100026130676,-0.49142661690711975,-0.19180603325366974
1783153222674814000,9.04081396484375,-0.3085542321205139,-0.19027891755104065,-0.4850127100944519
1783153222684525600,9.050525634765625,-0.22670069336891174,0.22639526426792145,-0.6652126908302307
1783153222694237000,9.06023681640625,-0.06543701142072678,0.5000548362731934,-0.7550072073936462
1783153222703948300,9.0699482421875,0.10682191699743271,0.31680065393447876,-0.8997780084609985
1783153222713660000,9.079659912109374,0.26930728554725647,-0.29412296414375305,-1.168627142906189
1783153222723371300,9.089371337890626,0.3903313875198364,-0.9721634387969971,-1.4893219470977783
1783153222733082600,9.09908251953125,0.40010493993759155,-1.3692141771316528,-1.7831394672393799
1783153222742794000,9.1087939453125,0.3042019307613373,-1.4021998643875122,-2.0164830684661865
1783153222752505600,9.118505615234374,0.120871402323246,-1.1969552040100098,-2.1496479511260986
1783153222762217000,9.128217041015626,-0.09720107167959213,-0.7577560544013977,-2.1313223838806152
1783153222771928300,9.13792822265625,-0.28961795568466187,-0.21959958970546722,-1.922412633895874
1783153222781639700,9.1476396484375,-0.43561044335365295,0.1689756214618683,-1.5607911348342896
1783153222791351300,9.157351318359375,-0.5284592509269714,0.26304611563682556,-1.1460257768630981
1783153222801062700,9.167062744140624,-0.5718293786048889,0.025350160896778107,-0.7660024762153625
1783153222810774000,9.17677392578125,-0.5657209157943726,-0.4975350797176361,-0.5015056133270264
1783153222820485400,9.1864853515625,-0.5174639821052551,-1.1535850763320923,-0.4446968138217926
1783153222830197000,9.196197021484375,-0.5156314373016357,-1.7509936094284058,-0.6358919739723206
1783153222839908400,9.205908447265625,-0.5522822737693787,-2.201798915863037,-1.0507336854934692
1783153222849619700,9.21561962890625,-0.618253767490387,-2.3422937393188477,-1.543076515197754
1783153222859331300,9.225331298828126,-0.6378008723258972,-1.96540105342865,-1.8955353498458862
1783153222869042700,9.235042724609375,-0.5425087213516235,-1.2574291229248047,-1.9676153659820557
1783153222878754000,9.244754150390625,-0.32810133695602417,-0.5121954083442688,-1.738547682762146
1783153222888465400,9.25446533203125,-0.05444176122546196,-0.09743013978004456,-1.2956833839416504
1783153222898177000,9.264177001953126,0.1990598440170288,-0.05650337040424347,-0.6713211536407471
1783153222907888400,9.273888427734375,0.4294256269931793,-0.14996300637722015,0.13438639044761658
1783153222917599700,9.283599853515625,0.6096255779266357,-0.24586601555347443,1.0488247871398926
1783153222927311000,9.29331103515625,0.70308518409729,-0.36314868927001953,1.9572309255599976
1783153222937022700,9.303022705078124,0.7330167293548584,-0.4077405333518982,2.7714903354644775
1783153222946734000,9.312734130859376,0.7214106321334839,-0.3710896968841553,3.4342596530914307
1783153222956445400,9.322445556640625,0.6823163628578186,-0.30756160616874695,3.866739511489868
1783153222966157000,9.332156982421875,0.6316160559654236,-0.2629697322845459,4.043274402618408
1783153222975868400,9.341868408203124,0.5851916670799255,-0.22754059731960297,3.9754703044891357
1783153222985579800,9.351579833984376,0.569309651851654,-0.15179555118083954,3.6975347995758057
1783153222995291100,9.361291015625,0.6035171151161194,-0.055892523378133774,3.276050090789795
1783153223005002800,9.371002685546875,0.6963658928871155,-0.011911521665751934,2.7995893955230713
1783153223014714000,9.380714111328125,0.8222004175186157,-0.040010496973991394,2.344508171081543
1783153223024425500,9.390425537109374,0.9266552925109863,-0.006413896102458239,1.9608960151672363
1783153223034136800,9.40013671875,0.9443698525428772,0.11636640131473541,1.6859384775161743
1783153223043848400,9.409848388671875,0.8637380003929138,0.26426780223846436,1.5136795043945312
1783153223053559800,9.419559814453125,0.6780404448509216,0.4285857081413269,1.4367127418518066
1783153223063271200,9.429271240234375,0.40987852215766907,0.6014555096626282,1.434880256652832
1783153223072982800,9.438982666015624,0.11048699915409088,0.7993699908256531,1.4880238771438599
1783153223082694100,9.448694091796876,-0.15706409513950348,1.071807861328125,1.6016415357589722
1783153223092405500,9.458405517578125,-0.3641413152217865,1.2788851261138916,1.725643515586853
1783153223102117000,9.4681171875,-0.48631078004837036,1.1707651615142822,1.756262183189392
1783153223111828500,9.477828369140624,-0.5791595578193665,0.5458683967590332,1.5356700420379639
1783153223121539800,9.487539794921876,-0.6720083355903625,-0.5659499764442444,0.9553651213645935
1783153223131251200,9.497251220703125,-0.7563052773475647,-1.721062183380127,0.129499614238739
1783153223140962600,9.506962646484375,-0.8057838678359985,-2.3887181282043457,-0.6817055344581604
1783153223150674200,9.516674072265625,-0.8289960622787476,-2.291593551635742,-1.223603367805481
1783153223160385500,9.526385498046874,-0.8381587862968445,-1.3050751686096191,-1.3286691904067993
1783153223170097000,9.536096923828126,-0.8186116814613342,0.2062373012304306,-1.031186580657959
1783153223179808500,9.54580859375,-0.7208760976791382,1.6661622524261475,-0.5259394645690918
1783153223189520000,9.555519775390625,-0.4954734742641449,2.6355769634246826,-0.01954711228609085
1783153223199231200,9.565231201171875,-0.19127154350280762,3.0510294437408447,0.39827242493629456
1783153223208942800,9.57494287109375,0.0689493864774704,3.0021615028381348,0.6328377723693848
1783153223218654200,9.584654296875,0.2137201875448227,2.6086995601654053,0.6462764143943787
1783153223228365600,9.594365478515625,0.2540360987186432,1.996019721031189,0.4605788290500641
1783153223238077000,9.604076904296875,0.20639002323150635,1.2116918563842773,0.11056335270404816
1783153223247788500,9.61378857421875,0.08055548369884491,0.3650575876235962,-0.39827242493629456
1783153223257500000,9.6235,-0.08559497445821762,-0.3429907262325287,-1.0195804834365845
1783153223267211300,9.633211181640625,-0.25296711921691895,-0.7919634580612183,-1.6725761890411377
1783153223276922600,9.642922607421875,-0.3788016438484192,-0.9746068120002747,-2.2730391025543213
1783153223286634200,9.65263427734375,-0.44843825697898865,-0.9831586480140686,-2.7171249389648438
1783153223296345600,9.662345703125,-0.5003602504730225,-0.7620319724082947,-2.9852869510650635
1783153223306057000,9.672056884765626,-0.5913764834403992,-0.4724903404712677,-3.1300578117370605
1783153223315768600,9.6817685546875,-0.7538618445396423,-0.21532365679740906,-3.2339017391204834
1783153223325480000,9.69147998046875,-0.9468895792961121,-0.06688777357339859,-3.33652400970459
1783153223335191300,9.70119140625,-1.1228135824203491,-0.047951508313417435,-3.458082675933838
1783153223344902700,9.710902587890626,-1.2083321809768677,0.019241688773036003,-3.4629695415496826
1783153223354614300,9.7206142578125,-1.1435824632644653,0.33207184076309204,-3.145328998565674
1783153223364325600,9.73032568359375,-0.8986326456069946,0.9416974186897278,-2.428194284439087
1783153223374037000,9.740037109375,-0.5247941613197327,1.618516206741333,-1.4019708633422852
1783153223383748400,9.749748291015624,-0.11186140775680542,2.0338923931121826,-0.26938363909721375
1783153223393460000,9.7594599609375,0.2387649267911911,2.055882692337036,0.758672297000885
1783153223403171300,9.76917138671875,0.47707170248031616,1.7150300741195679,1.563768982887268
1783153223412882700,9.778882568359375,0.5870242118835449,1.0895224809646606,2.0677943229675293
1783153223422594300,9.78859423828125,0.5913001298904419,0.3497864007949829,2.228447198867798
1783153223432305700,9.7983056640625,0.5436540842056274,-0.2586938142776489,2.072070360183716
1783153223442017000,9.80801708984375,0.4721849262714386,-0.5763344168663025,1.6682238578796387
1783153223451728400,9.817728271484375,0.4068242609500885,-0.6038225293159485,1.1416735649108887
1783153223461440000,9.82743994140625,0.363454133272171,-0.37231141328811646,0.6193991303443909
1783153223471151400,9.8371513671875,0.34818294644355774,0.010689826682209969,0.19974705576896667
1783153223480862700,9.84686279296875,0.37383851408958435,0.42430979013442993,-0.0659715011715889
1783153223490574300,9.85657421875,0.4434750974178314,0.7492805123329163,-0.17531315982341766
1783153223500285700,9.86628564453125,0.5399889945983887,0.8800018429756165,-0.16004198789596558
1783153223509997000,9.8759970703125,0.6603258848190308,0.7737144231796265,-0.10078980028629303
1783153223519708400,9.88570849609375,0.7849387526512146,0.5275429487228394,-0.062306419014930725
1783153223529420000,9.895419921875,0.8783983588218689,0.25388339161872864,-0.061084724962711334
1783153223539131400,9.90513134765625,0.9413156509399414,0.025350160896778107,-0.04886778071522713
1783153223548842800,9.9148427734375,0.9749122262001038,-0.07116370648145676,-0.0006108472589403391
1783153223558554000,9.92455419921875,0.9718579649925232,-0.00030542362947016954,0.06658235192298889
1783153223568265700,9.934265625,0.9119949340820312,0.11392301321029663,0.04825693368911743
1783153223577977000,9.94397705078125,0.7971556782722473,0.0528382882475853,-0.09956810623407364
1783153223587688400,9.9536884765625,0.6310052275657654,-0.08460234850645065,-0.29442837834358215
1783153223597400000,9.963400146484375,0.395218163728714,-0.1298050433397293,-0.47951510548591614
1783153223607111400,9.973111328125,0.1599656194448471,-0.1310267299413681,-0.6285618543624878
1783153223616822800,9.98282275390625,0.02008160389959812,-0.09498675167560577,-0.7550072073936462
1783153223626534400,9.992534423828126,0.04390464723110199,0.08032641559839249,-0.8405258059501648
1783153223636245800,10.002245849609375,0.15080291032791138,0.33023929595947266,-0.9040539264678955
1783153223645957000,10.01195703125,0.27297237515449524,0.4548521339893341,-0.92054682970047
1783153223655668700,10.021668701171874,0.3836120665073395,0.364446759223938,-0.8594620823860168
1783153223665380000,10.031380126953126,0.5137225389480591,-0.013744063675403595,-0.7715001106262207
1783153223675091500,10.041091552734375,0.6737645268440247,-0.6679614782333374,-0.7391251921653748
1783153223684802800,10.050802734375,0.8539644479751587,-1.4956594705581665,-0.860683798789978
1783153223694514400,10.060514404296875,1.0121738910675049,-2.1828627586364746,-1.1002122163772583
1783153223704225800,10.070225830078124,1.0579874515533447,-2.3655059337615967,-1.3085111379623413
1783153223713937200,10.079937255859376,0.9779664874076843,-1.9373021125793457,-1.3952515125274658
1783153223723648500,10.0896484375,0.786771297454834,-1.083337664604187,-1.3335559368133545
1783153223733360000,10.099360107421875,0.5253286361694336,-0.1585148572921753,-1.1246461868286133
1783153223743071500,10.109071533203124,0.2515927255153656,0.5324297547340393,-0.8081509470939636
1783153223752782800,10.118782958984376,0.06223006546497345,0.8341882824897766,-0.3958290219306946
1783153223762494500,10.128494384765625,-0.008017370477318764,0.6106181740760803,0.04825693368911743
1783153223772205800,10.138205810546875,-0.00129805039614439,-0.021685076877474785,0.4330907166004181
1783153223781917200,10.147917236328125,0.006642963737249374,-0.6673506498336792,0.6310052275657654
1783153223791628500,10.157628662109374,-0.03184041380882263,-1.0692881345748901,0.5320479869842529
1783153223801340200,10.167340087890626,-0.13201937079429626,-1.1859599351882935,0.12888877093791962
1783153223811051500,10.177051513671875,-0.2871745824813843,-1.0998305082321167,-0.46546560525894165
1783153223820763000,10.186762939453125,-0.4252260625362396,-0.8206732869148254,-1.0605071783065796
1783153223830474500,10.196474609375,-0.47592636942863464,-0.3943018913269043,-1.427626371383667
1783153223840185900,10.206185791015624,-0.4252260625362396,0.08154810965061188,-1.3964731693267822
1783153223849897200,10.215897216796876,-0.3238253891468048,0.44874367117881775,-0.9505546689033508
1783153223859608800,10.22560888671875,-0.26762744784355164,0.5764107704162598,-0.208298921585083
1783153223869320200,10.2353203125,-0.2566322088241577,0.44813281297683716,0.624285876750946
1783153223879031600,10.245031494140624,-0.2731250822544098,0.2050156146287918,1.3585243225097656
1783153223888743000,10.254742919921876,-0.29511559009552,-0.0522274412214756,1.8955353498458862
1783153223898454500,10.26445458984375,-0.29389387369155884,-0.22631891071796417,2.1820228099823
1783153223908166000,10.274165771484375,-0.26640576124191284,-0.3167243003845215,2.2064566612243652
1783153223917877200,10.283877197265625,-0.2181488275527954,-0.33260634541511536,2.000601053237915
1783153223927588900,10.2935888671875,-0.1533990204334259,-0.30084228515625,1.6456224918365479
1783153223937300200,10.30330029296875,-0.08987089991569519,-0.21776704490184784,1.249793529510498
1783153223947011600,10.313011474609375,-0.04527905210852623,-0.07421794533729553,0.9248227477073669
1783153223956723000,10.322722900390625,-0.03978142887353897,0.1659213900566101,0.7427902817726135
1783153223966434600,10.3324345703125,-0.06665870547294617,0.44752198457717896,0.7159129977226257
1783153223976146000,10.34214599609375,-0.14545799791812897,0.6839198470115662,0.7941014170646667
1783153223985857300,10.351857177734376,-0.26701661944389343,0.8323557376861572,0.9541434049606323
1783153223995569000,10.36156884765625,-0.4001813232898712,0.8995489478111267,1.1783243417739868
1783153224005280300,10.3712802734375,-0.503414511680603,0.8775584697723389,1.365243673324585
1783153224014991600,10.38099169921875,-0.5418978929519653,0.7596648931503296,1.4183872938156128
1783153224024703000,10.390702880859376,-0.4832565486431122,0.6607076525688171,1.2180293798446655
1783153224034414600,10.40041455078125,-0.3494809865951538,0.5904602408409119,0.7049177289009094
1783153224044126000,10.4101259765625,-0.13201937079429626,0.5293754935264587,-0.05008947476744652
1783153224053837300,10.41983740234375,0.18989713490009308,0.38399386405944824,-0.8521319031715393
1783153224063549000,10.429548828125,0.4825693368911743,0.16347800195217133,-1.5131449699401855
1783153224073260300,10.43926025390625,0.5888567566871643,-0.010689826682209969,-1.880264163017273
1783153224082971600,10.4489716796875,0.5479300022125244,0.002748812548816204,-1.9028655290603638
1783153224092683300,10.458683349609375,0.4752391576766968,0.27831727266311646,-1.6224867105484009
1783153224102394600,10.46839453125,0.3946073353290558,0.6588751077651978,-1.2217708826065063
1783153224112106000,10.47810595703125,0.2870981991291046,1.0003387928009033,-0.8612946271896362
1783153224121817300,10.4878173828125,0.14897038042545319,1.2080267667770386,-0.6554391384124756
1783153224131529000,10.497529052734375,0.036574479192495346,1.2452884912490845,-0.6407787799835205
1783153224141240300,10.507240234375,-0.04527905210852623,1.1695433855056763,-0.7977665066719055
1783153224150951700,10.51695166015625,-0.1283542811870575,1.0693644285202026,-1.0733349323272705
1783153224160663300,10.526663330078126,-0.2566322088241577,0.9722397923469543,-1.4141877889633179
1783153224170374700,10.536374755859375,-0.42461520433425903,0.9252045154571533,-1.7611490488052368
1783153224180086000,10.5460859375,-0.6121453046798706,0.8983272314071655,-2.0910065174102783
1783153224189797600,10.555797607421875,-0.7734090089797974,0.8103652596473694,-2.408036231994629
1783153224199509000,10.565509033203124,-0.877863883972168,0.5605286955833435,-2.686582565307617
1783153224209220400,10.575220458984376,-0.9022977352142334,0.18852274119853973,-2.8521223068237305
1783153224218931700,10.584931640625,-0.8106706738471985,-0.197609081864357,-2.833185911178589
1783153224228643300,10.594643310546875,-0.6634564995765686,-0.4468347728252411,-2.663370370864868
1783153224238354700,10.604354736328125,-0.5559473633766174,-0.45233240723609924,-2.4074254035949707
1783153224248066000,10.614066162109374,-0.5669426321983337,-0.2098260372877121,-2.2076783180236816
1783153224257777700,10.623777587890626,-0.6536829471588135,0.11636640131473541,-2.1820228099823
1783153224267489000,10.633489013671875,-0.5644991993904114,0.2703762650489807,-2.287088394165039
1783153224277200400,10.643200439453125,-0.10697462409734726,0.1543152928352356,-2.4123122692108154
1783153224286912000,10.652912109375,0.6682668924331665,-0.09376505762338638,-2.4159772396087646
1783153224296623400,10.662623291015626,1.5277290344238281,-0.24036839604377747,-2.0879523754119873
1783153224306334700,10.672334716796875,2.250361204147339,-0.1450762301683426,-1.3763152360916138
1783153224316046300,10.68204638671875,2.6858954429626465,0.06016845628619194,-0.3830012381076813
1783153224325757700,10.6917578125,2.872814655303955,0.2050156146287918,0.7226322889328003
1783153224335469000,10.701468994140624,2.86120867729187,0.1450762301683426,1.7507646083831787
1783153224345180400,10.711180419921876,2.65535306930542,-0.0784938707947731,2.558304786682129
1783153224354892000,10.72089208984375,2.282125473022461,-0.35826191306114197,3.0805790424346924
1783153224364603400,10.730603271484375,1.7952800989151,-0.5958815217018127,3.250394582748413
1783153224374314800,10.740314697265624,1.277281641960144,-0.7186617851257324,3.0842442512512207
1783153224384026400,10.7500263671875,0.8264763355255127,-0.6832326650619507,2.660316228866577
1783153224393737700,10.75973779296875,0.4556920528411865,-0.5103628635406494,2.0690159797668457
1783153224403449000,10.769448974609375,0.14225105941295624,-0.2348707765340805,1.4318259954452515
1783153224413160700,10.77916064453125,-0.14301460981369019,0.091932512819767,0.9083298444747925
1783153224422872000,10.7888720703125,-0.39773792028427124,0.39376741647720337,0.6193991303443909
1783153224432583400,10.79858349609375,-0.5925981998443604,0.5990120768547058,0.5607577562332153
1783153224442294800,10.808294677734375,-0.6866686940193176,0.5825192332267761,0.6633801460266113
1783153224452006400,10.81800634765625,-0.6439093947410583,0.3381803035736084,0.8454126119613647
1783153224461717800,10.8277177734375,-0.4924192428588867,-0.08948912471532822,1.054322361946106
1783153224471429000,10.83742919921875,-0.30244573950767517,-0.5390726923942566,1.2412415742874146
1783153224481140700,10.847140625,-0.14423631131649017,-0.8371661901473999,1.3634110689163208
1783153224490852000,10.85685205078125,-0.012293301522731781,-1.0033166408538818,1.3328686952590942
1783153224500563500,10.8665634765625,0.1617981642484665,-1.0619579553604126,1.1532796621322632
1783153224510275000,10.876275146484375,0.3665083646774292,-0.9642223715782166,0.9028322696685791
1783153224519986400,10.885986328125,0.5467082858085632,-0.7797465324401855,0.6682668924331665
1783153224529697800,10.89569775390625,0.6328377723693848,-0.6239804625511169,0.5143333673477173
1783153224539409400,10.905409423828125,0.5845808386802673,-0.5231906771659851,0.4422534108161926
1783153224549120800,10.915120849609375,0.4202629029750824,-0.5329642295837402,0.42514967918395996
1783153224558832000,10.92483203125,0.13858596980571747,-0.8194515705108643,0.33291175961494446
1783153224568543500,10.93454345703125,-0.22792237997055054,-1.2470446825027466,0.1172826737165451
1783153224578255000,10.944255126953125,-0.5712185502052307,-1.4516785144805908,-0.1698155403137207
1783153224587966500,10.953966552734375,-0.7837933897972107,-1.225054144859314,-0.44958359003067017
1783153224597677800,10.963677734375,-0.8357154130935669,-0.6856760382652283,-0.6682668924331665
1783153224607389400,10.973389404296874,-0.724541187286377,-0.12003148347139359,-0.7806627750396729
1783153224617100800,10.983100830078126,-0.5284592509269714,0.2062373012304306,-0.7519529461860657
1783153224626812200,10.992812255859375,-0.3262687921524048,0.15065020322799683,-0.5375455617904663
1783153224636523800,11.002523681640625,-0.14729054272174835,-0.11942064017057419,-0.11483928561210632
1783153224646235100,11.012235107421875,-0.04527905210852623,-0.4468347728252411,0.365286648273468
1783153224655946500,11.021946533203124,-0.0623827762901783,-0.9904888272285461,0.6817055344581604
1783153224665658000,11.031658203125,-0.19676917791366577,-1.6398195028305054,0.7201889157295227
1783153224675369500,11.041369384765625,-0.40751147270202637,-2.0747427940368652,0.5002838969230652
1783153224685080800,11.051080810546875,-0.6439093947410583,-2.1339948177337646,0.15393351018428802
1783153224694792200,11.060792236328124,-0.8913025259971619,-1.8395664691925049,-0.2510582208633423
1783153224704503800,11.07050390625,-1.1539667844772339,-1.3710466623306274,-0.7018635272979736
1783153224714215200,11.080215087890625,-1.3634874820709229,-0.8585458397865295,-1.1167051792144775
1783153224723926500,11.089926513671875,-1.45939040184021,-0.36131614446640015,-1.376926064491272
1783153224733638100,11.09963818359375,-1.4435083866119385,0.08460234850645065,-1.4257938861846924
1783153224743349500,11.109349609375,-1.35798978805542,0.39743250608444214,-1.2547565698623657
1783153224753060900,11.119060791015626,-1.2541457414627075,0.5220453143119812,-0.91566002368927
1783153224762772500,11.1287724609375,-1.17473566532135,0.38155046105384827,-0.5051707029342651
1783153224772483800,11.13848388671875,-1.1564102172851562,-0.08032641559839249,-0.1563768982887268
1783153224782195200,11.1481953125,-1.1612969636917114,-0.6233696341514587,0.03176405653357506
1783153224791906800,11.15790673828125,-1.1307545900344849,-0.9581139087677002,0.08124268800020218
1783153224801618200,11.1676181640625,-1.0684481859207153,-0.9782719016075134,0.04947862774133682
1783153224811329500,11.17732958984375,-0.9688801169395447,-0.6642963886260986,-0.021990500390529633
1783153224821041200,11.187041259765625,-0.8442672491073608,-0.08215895295143127,-0.0659715011715889
1783153224830752500,11.19675244140625,-0.7312605381011963,0.5324297547340393,-0.023212196305394173
1783153224840464000,11.2064638671875,-0.6549046039581299,0.9410865306854248,0.12827792763710022
1783153224850175500,11.216175537109375,-0.582213819026947,0.9991170763969421,0.34451785683631897
1783153224859886800,11.225886962890625,-0.5571690797805786,0.7150730490684509,0.5741963982582092
1783153224869598200,11.23559814453125,-0.5828246474266052,0.19707459211349487,0.7702783942222595
1783153224879309800,11.245309814453124,-0.5962632894515991,-0.3790307343006134,0.9150491952896118
1783153224889021200,11.255021240234376,-0.5663317441940308,-0.7339329719543457,0.9785773158073425
1783153224898732500,11.264732666015625,-0.5107446908950806,-0.7241594195365906,0.9553651213645935
1783153224908444000,11.27444384765625,-0.4032355546951294,-0.38513919711112976,0.9083298444747925
1783153224918155500,11.284155517578125,-0.2315874695777893,0.13774605095386505,0.8704573512077332
1783153224927867000,11.293866943359374,-0.03184041380882263,0.6674270033836365,0.8686248064041138
1783153224937578200,11.303578125,0.11842801421880722,1.1017394065856934,0.8991671800613403
1783153224947289900,11.313289794921875,0.19234053790569305,1.2941563129425049,0.9376505613327026
1783153224957001200,11.323001220703125,0.23387815058231354,1.1475529670715332,0.9834640622138977
1783153224966712600,11.332712646484374,0.255257785320282,0.706521213054657,1.0121738910675049
1783153224976424200,11.342424072265626,0.27236151695251465,0.22761696577072144,1.0274450778961182
1783153224986135600,11.352135498046875,0.3035911023616791,-0.010078979656100273,1.0433270931243896
1783153224995847000,11.361846923828125,0.28343313932418823,-0.03573456406593323,1.0341644287109375
1783153225005558500,11.37155859375,0.18073442578315735,-0.00030542362947016954,0.8869501948356628
1783153225015270000,11.381269775390624,0.06284090876579285,0.06872031837701797,0.5772506594657898
1783153225024981200,11.390981201171876,-0.03245126083493233,0.10903623700141907,0.1844758689403534
1783153225034692900,11.40069287109375,-0.139960378408432,0.026571854948997498,-0.17592400312423706
1783153225044404200,11.410404296875,-0.26701661944389343,-0.10353861004114151,-0.34451785683631897
1783153225054115600,11.420115478515624,-0.42461520433425903,-0.20677179098129272,-0.2779355049133301
1783153225063827200,11.4298271484375,-0.6017609238624573,-0.3167243003845215,-0.10078980028629303
1783153225073538600,11.43953857421875,-0.6390225887298584,-0.49142661690711975,0.021379653364419937
1783153225083250000,11.44925,-0.669564962387085,-0.5732801556587219,0.08796200156211853
1783153225092961500,11.45896142578125,-0.641465961933136,-0.5622848868370056,0.129499614238739
1783153225102673000,11.4686728515625,-0.6292490363121033,-0.7394306063652039,0.06413896381855011
1783153225112384300,11.47838427734375,-0.5840463638305664,-0.9544488191604614,-0.14965757727622986
1783153225122095600,11.488095703125,-0.5003602504730225,-1.044243335723877,-0.5173876285552979
1783153225131807200,11.49780712890625,-0.3244362473487854,-1.0283613204956055,-0.916270911693573
1783153225141518600,11.5075185546875,-0.10697462409734726,-1.008203387260437,-1.2816338539123535
1783153225151230000,11.51722998046875,0.14164020121097565,-1.0051491260528564,-1.580949068069458
1783153225160941600,11.526941650390626,0.3915531039237976,-1.0289721488952637,-1.7727551460266113
1783153225170653000,11.53665283203125,0.5729747414588928,-1.1047172546386719,-1.8521652221679688
1783153225180364300,11.5463642578125,0.6700994372367859,-1.2452120780944824,-1.8387266397476196
1783153225190076000,11.556075927734375,0.7256865501403809,-1.3832635879516602,-1.7635923624038696
1783153225199787300,11.565787353515624,0.8044858574867249,-1.488329291343689,-1.641422986984253
1783153225209499000,11.575498779296876,0.92054682970047,-1.521315097808838,-1.52475106716156
1783153225219210200,11.585210205078125,1.0030112266540527,-1.4241904020309448,-1.4471734762191772
1783153225228921600,11.594921630859375,0.9956810474395752,-1.193290114402771,-1.3708176612854004
1783153225238633000,11.604633056640624,0.8545753359794617,-0.846328854560852,-1.309122085571289
1783153225248344600,11.614344482421876,0.6236750483512878,-0.38758260011672974,-1.2315443754196167
1783153225258056000,11.624055908203125,0.37506023049354553,0.18791188299655914,-1.067226529121399
1783153225267767300,11.633767333984375,0.1330883502960205,0.7052994966506958,-0.786771297454834
1783153225277479000,11.64347900390625,-0.08987089991569519,1.0033929347991943,-0.42392799258232117
1783153225287190300,11.653190185546874,-0.271903395652771,1.0944092273712158,-0.04031591862440109
1783153225296901600,11.662901611328126,-0.38124504685401917,1.0327136516571045,0.3286358118057251
1783153225306613200,11.67261328125,-0.42461520433425903,0.91482013463974,0.6548282504081726
1783153225316324600,11.68232470703125,-0.39590537548065186,0.7786011695861816,0.9297095537185669
1783153225326036000,11.692035888671874,-0.29389387369155884,0.5605286955833435,1.1361758708953857
1783153225335747600,11.70174755859375,-0.11552648991346359,0.2752630412578583,1.2785032987594604
1783153225345459000,11.711458984375,0.10376767814159393,0.017409147694706917,1.3866232633590698
1783153225355170300,11.72117041015625,0.2993151545524597,-0.16095824539661407,1.462368369102478
1783153225364882000,11.7308818359375,0.43736663460731506,-0.2727433145046234,1.5167337656021118
1783153225374593300,11.74059326171875,0.5143333673477173,-0.2990097403526306,1.5625473260879517
1783153225384304600,11.7503046875,0.5357130169868469,-0.2996205687522888,1.591257095336914
1783153225394016300,11.760016357421875,0.4984513521194458,-0.2586938142776489,1.5839269161224365
1783153225403727600,11.7697275390625,0.4220954477787018,-0.10231691598892212,1.563768982887268
1783153225413439000,11.77943896484375,0.3396310806274414,0.20257222652435303,1.544832706451416
1783153225423150600,11.789150634765624,0.25953373312950134,0.4963897466659546,1.5051276683807373
1783153225432862000,11.798862060546876,0.18867544829845428,0.6686486601829529,1.4043378829956055
1783153225442573300,11.8085732421875,0.15202461183071136,0.7224032282829285,1.2980504035949707
1783153225452285000,11.818284912109375,0.1990598440170288,0.5764107704162598,1.1722159385681152
1783153225461996300,11.827996337890625,0.3158080279827118,0.2459423840045929,1.0109522342681885
1783153225471707600,11.837707763671874,0.342074453830719,-0.09437590092420578,0.8032641410827637
1783153225481419300,11.847419189453126,0.15324631333351135,-0.39857783913612366,0.5173876285552979
1783153225491130600,11.857130615234375,-0.2059318870306015,-0.5610632300376892,0.20219044387340546
1783153225500842000,11.866842041015625,-0.665289044380188,-0.4437805414199829,-0.08979454636573792
1783153225510553600,11.8765537109375,-1.105099081993103,-0.19883078336715698,-0.29748260974884033
1783153225520265000,11.886264892578126,-1.4410650730133057,0.03390202298760414,-0.4031592011451721
1783153225529976300,11.895976318359375,-1.6261518001556396,0.16286714375019073,-0.45385950803756714
1783153225539688000,11.90568798828125,-1.706783652305603,0.1053711548447609,-0.5418215394020081
1783153225549399300,11.9153994140625,-1.6970100402832031,0.08826743066310883,-0.6804838180541992
1783153225559110700,11.925110595703124,-1.59988534450531,0.154926136136055,-0.813648521900177
1783153225568822300,11.934822265625,-1.4117443561553955,0.1450762301683426,-0.9181034564971924
1783153225578533600,11.94453369140625,-1.1784007549285889,-0.04367557913064957,-0.9963682293891907
1783153225588245000,11.954244873046875,-0.947500467300415,-0.4034646153450012,-1.044625163078308
1783153225597956600,11.96395654296875,-0.7532510161399841,-0.7620319724082947,-0.9914814829826355
1783153225607668000,11.97366796875,-0.6072585582733154,-0.9837695360183716,-0.8490777015686035
1783153225617379300,11.98337939453125,-0.5211290717124939,-1.0955545902252197,-0.652384877204895
1783153225627091000,11.993091064453125,-0.4985277056694031,-1.1450332403182983,-0.4196520745754242
1783153225636802300,12.00280224609375,-0.5205182433128357,-1.1450332403182983,-0.18936264514923096
1783153225646513700,12.012513671875,-0.5455629825592041,-1.096165418624878,0.02076880633831024
1783153225656225300,12.022225341796876,-0.5718293786048889,-0.9868237376213074,0.14904673397541046
1783153225665936600,12.0319365234375,-0.6542937755584717,-0.8353336453437805,0.15087927877902985
1783153225675648000,12.04164794921875,-0.7569161057472229,-0.596492350101471,0.047646086663007736
1783153225685359600,12.051359619140625,-0.8485432267189026,-0.4059080183506012,-0.14843589067459106
1783153225695071000,12.061071044921874,-0.8858048915863037,-0.33504971861839294,-0.35856732726097107
1783153225704782300,12.0707822265625,-0.8363262414932251,-0.3136700689792633,-0.5210527181625366
1783153225714494000,12.080493896484375,-0.7086591720581055,-0.3014531135559082,-0.6285618543624878
1783153225724205300,12.090205322265625,-0.5205182433128357,-0.2904578745365143,-0.7104153633117676
1783153225733916700,12.099916748046875,-0.2706816792488098,-0.23303823173046112,-0.758672297000885
1783153225743628300,12.109628173828124,0.01763821393251419,-0.05894676223397255,-0.767224133014679
1783153225753339600,12.119339599609376,0.3500154912471771,0.35589489340782166,-0.6829272508621216
1783153225763051300,12.12905126953125,0.6908682584762573,1.0229400396347046,-0.4086568057537079
1783153225772762600,12.1387626953125,0.9541434049606323,1.713808298110962,0.2235700935125351
1783153225782474000,12.148473876953124,0.7727217674255371,1.7797797918319702,1.530172348022461
1783153225792185600,12.158185546875,0.2638096511363983,0.33146098256111145,2.5424225330352783
1783153225801897000,12.16789697265625,-0.17477867007255554,-1.174353837966919,2.9804000854492188
1783153225811608300,12.1776083984375,-0.37147149443626404,-1.7564913034439087,2.9425275325775146
1783153225821319700,12.187319580078125,-0.3629196286201477,-1.3392826318740845,2.611448287963867
1783153225831031300,12.19703125,-0.27984440326690674,-0.638029932975769,2.055577278137207
1783153225840742700,12.20674267578125,-0.21204034984111786,-0.04184303805232048,1.296217918395996
1783153225850454300,12.216454345703125,-0.11735902726650238,0.52571040391922,0.49234288930892944
1783153225860165600,12.22616552734375,0.026190076023340225,1.0693644285202026,-0.18081079423427582
1783153225869877000,12.235876953125,0.17584764957427979,1.484129786491394,-0.5625903010368347
1783153225879588600,12.245588623046874,0.22227205336093903,1.6594429016113281,-0.5289937257766724
1783153225889300000,12.255300048828126,0.19600561261177063,1.3876159191131592,-0.22723518311977386
1783153225899011300,12.26501123046875,0.2118876427412033,0.9398648738861084,0.16126367449760437
1783153225908723000,12.274722900390625,0.2271588295698166,0.4285857081413269,0.49417543411254883
1783153225918434300,12.284434326171874,0.18439951539039612,-0.2244863659143448,0.6792621612548828
1783153225928145700,12.294145751953126,0.06528430432081223,-0.851215660572052,0.6896465420722961
1783153225937857300,12.303857177734375,-0.06543701142072678,-1.0515735149383545,0.6303943991661072
1783153225947568600,12.313568603515625,-0.168670192360878,-0.6398624777793884,0.5876350402832031
1783153225966991600,12.33299169921875,-0.28106608986854553,0.42614230513572693,0.12644538283348083
1783153225976703000,12.342702880859376,-0.2584647536277771,0.6136724352836609,-0.3646758198738098
