time,seconds_elapsed,z,y,x
1783169717772130000,0.116130126953125,-0.08255364000797272,0.04217243939638138,-0.1876135766506195
1783169717782078000,0.126077880859375,-0.04937330633401871,0.14938710629940033,-0.2167871594429016
1783169717792058000,0.13605810546875,-0.005060702562332153,0.22319474816322327,-0.2292233258485794
1783169717802006000,0.146006103515625,0.044589199125766754,0.2514677047729492,-0.22270525991916656
1783169717811955000,0.155954833984375,0.07312469929456711,0.2307640016078949,-0.2122419774532318
1783169717821904000,0.16590380859375,0.07632330060005188,0.16324718296527863,-0.22170338034629822
1783169717831883000,0.175883056640625,0.07437679916620255,0.08384104073047638,-0.224633127450943
1783169717841832000,0.18583203125,0.06478948146104813,0.0007035587914288044,-0.21149733662605286
1783169717851780900,0.19578076171875,0.047387585043907166,-0.08856426924467087,-0.19416707754135132
1783169717861760000,0.205760009765625,0.03172992169857025,-0.1572875678539276,-0.1747952401638031
1783169717871709000,0.215708984375,0.027408408001065254,-0.21024931967258453,-0.1449872851371765
1783169717881656800,0.22565673828125,0.019992899149656296,-0.26340168714523315,-0.11994613707065582
1783169717891605800,0.235605712890625,0.004413671791553497,-0.3223526179790497,-0.09673961251974106
1783169717901585000,0.2455849609375,-0.0228625126183033,-0.34398114681243896,-0.07675497233867645
1783169717911533800,0.255533935546875,-0.0591249093413353,-0.3164363503456116,-0.05207625776529312
1783169717921483000,0.26548291015625,-0.0873914361000061,-0.2484370619058609,-0.007973776198923588
1783169717931462100,0.275462158203125,-0.10110325366258621,-0.17340995371341705,0.04070268198847771
1783169717941411000,0.2854111328125,-0.09892958402633667,-0.13363032042980194,0.06882007420063019
1783169717951359000,0.29535888671875,-0.08122595399618149,-0.13302817940711975,0.08621504157781601
1783169717961339000,0.3053388671875,-0.06920427829027176,-0.16108214855194092,0.09903790801763535
1783169717971287000,0.315287109375,-0.07752478867769241,-0.21049070358276367,0.11328581720590591
1783169717981236000,0.325236083984375,-0.09873367846012115,-0.2687976062297821,0.13916504383087158
1783169717991185000,0.335184814453125,-0.1252441108226776,-0.30215156078338623,0.16926300525665283
1783169718001164000,0.3451640625,-0.15177060663700104,-0.33840668201446533,0.20379944145679474
1783169718011113000,0.355113037109375,-0.17229318618774414,-0.4563101530075073,0.23321965336799622
1783169718021062000,0.365061767578125,-0.16823695600032806,-0.6240361928939819,0.2652636170387268
1783169718031041000,0.375041015625,-0.15249395370483398,-0.7830218076705933,0.3077833950519562
1783169718040990000,0.384989990234375,-0.1514061987400055,-0.8957592248916626,0.3311196267604828
1783169718050937900,0.394937744140625,-0.1634274423122406,-0.9083954095840454,0.3311576843261719
1783169718060886800,0.40488671875,-0.15460091829299927,-0.8378554582595825,0.31799447536468506
1783169718070866000,0.414865966796875,-0.1045641303062439,-0.7166608572006226,0.2826506197452545
1783169718080814800,0.42481494140625,-0.01779354177415371,-0.5739953517913818,0.22976022958755493
1783169718090764000,0.434763916015625,0.09521077573299408,-0.45779791474342346,0.16195055842399597
1783169718100743200,0.4447431640625,0.21577753126621246,-0.4199647307395935,0.10178149491548538
1783169718110692000,0.454692138671875,0.3163509964942932,-0.40051326155662537,0.07156287133693695
1783169718120640000,0.464639892578125,0.36395320296287537,-0.34952133893966675,0.07829132676124573
1783169718130589000,0.4745888671875,0.340216726064682,-0.3766900897026062,0.09404551982879639
1783169718140568000,0.484568115234375,0.24649864435195923,-0.44512802362442017,0.08903399854898453
1783169718150517000,0.49451708984375,0.11484794318675995,-0.5047098398208618,0.029661215841770172
1783169718160466000,0.5044658203125,-0.012369158677756786,-0.5180639028549194,-0.06973382830619812
1783169718170445000,0.514445068359375,-0.12866008281707764,-0.5355762839317322,-0.21637733280658722
1783169718180394000,0.52439404296875,-0.2281702160835266,-0.5630341172218323,-0.39341387152671814
1783169718190343000,0.534343017578125,-0.26708167791366577,-0.5108880996704102,-0.5488596558570862
1783169718200290800,0.544290771484375,-0.2600015103816986,-0.38119563460350037,-0.6353228688240051
1783169718210271000,0.55427099609375,-0.23726743459701538,-0.2555016279220581,-0.6530776619911194
1783169718220219000,0.564218994140625,-0.2111249417066574,-0.15418541431427002,-0.5974711179733276
1783169718230167800,0.574167724609375,-0.1903621405363083,-0.09089300781488419,-0.46365848183631897
1783169718240147000,0.58414697265625,-0.18548665940761566,-0.07479806244373322,-0.28961315751075745
1783169718250095900,0.594095947265625,-0.20074684917926788,-0.13211514055728912,-0.10355141758918762
1783169718260045000,0.604045166015625,-0.20279429852962494,-0.1786675900220871,0.06712497770786285
1783169718269994000,0.613993896484375,-0.18282724916934967,-0.18573987483978271,0.21317912638187408
1783169718279973000,0.62397314453125,-0.14393842220306396,-0.20148751139640808,0.2999856770038605
1783169718289921000,0.633921142578125,-0.09380361437797546,-0.19692924618721008,0.3260292410850525
1783169718299870000,0.643869873046875,-0.04651277884840965,-0.1610863357782364,0.2896779179573059
1783169718309849000,0.65384912109375,-0.028481047600507736,-0.11061225831508636,0.20724719762802124
1783169718319798000,0.663798095703125,-0.03441330045461655,-0.038990724831819534,0.09473023563623428
1783169718329747000,0.673746826171875,-0.04593280330300331,0.05306277051568031,-0.03473774343729019
1783169718339695900,0.68369580078125,-0.0641208216547966,0.17732131481170654,-0.1538635790348053
1783169718349675000,0.693675048828125,-0.08745330572128296,0.29741230607032776,-0.23304441571235657
1783169718359624000,0.7036240234375,-0.1132926195859909,0.3623977601528168,-0.2676708400249481
1783169718369595400,0.713595458984375,-0.1406930834054947,0.3358793258666992,-0.2690599262714386
1783169718379575300,0.7235751953125,-0.15569692850112915,0.2476758062839508,-0.244342640042305
1783169718389523200,0.733523193359375,-0.1679522693157196,0.15727561712265015,-0.20162606239318848
1783169718399472000,0.74347216796875,-0.18309633433818817,0.13277313113212585,-0.15118151903152466
1783169718409421300,0.75342138671875,-0.21047815680503845,0.15187571942806244,-0.10772458463907242
1783169718419400200,0.763400146484375,-0.23857475817203522,0.19630412757396698,-0.07656320929527283
1783169718429349000,0.77334912109375,-0.25146740674972534,0.2393951267004013,-0.07927431166172028
1783169718439298000,0.783298095703125,-0.23957930505275726,0.269147127866745,-0.11110840737819672
1783169718449277200,0.793277099609375,-0.21762873232364655,0.27397438883781433,-0.15247662365436554
1783169718459225000,0.80322509765625,-0.19192931056022644,0.2430524379014969,-0.1918775737285614
1783169718469174300,0.81317431640625,-0.17107196152210236,0.20648831129074097,-0.2103324830532074
1783169718479153200,0.823153076171875,-0.16286005079746246,0.19278188049793243,-0.18923276662826538
1783169718489102000,0.83310205078125,-0.1682415008544922,0.19303487241268158,-0.13285896182060242
1783169718499051000,0.843051025390625,-0.1797839105129242,0.18910905718803406,-0.06379148364067078
1783169718509000200,0.853000244140625,-0.19222034513950348,0.1611490547657013,0.005405692383646965
1783169718518979300,0.862979248046875,-0.19769766926765442,0.10747970640659332,0.05885080620646477
1783169718528928300,0.87292822265625,-0.19298945367336273,0.030956169590353966,0.09946560859680176
1783169718538876400,0.88287646484375,-0.17511926591396332,-0.05096422880887985,0.12318957597017288
1783169718548856300,0.892856201171875,-0.14561010897159576,-0.10882380604743958,0.1400761604309082
1783169718558804200,0.90280419921875,-0.10780385136604309,-0.1302461475133896,0.13775227963924408
1783169718568753200,0.912753173828125,-0.07361366599798203,-0.14813406765460968,0.1145034208893776
1783169718578702300,0.922702392578125,-0.041796330362558365,-0.14294904470443726,0.05586402863264084
1783169718588681200,0.93268115234375,0.0015644580125808716,-0.12459879368543625,-0.01182953268289566
1783169718598630100,0.942630126953125,0.05510503798723221,-0.09238380938768387,-0.0862206295132637
1783169718608579000,0.9525791015625,0.10564838349819183,-0.019972199574112892,-0.12792572379112244
1783169718618558200,0.96255810546875,0.14197136461734772,0.08347765356302261,-0.13347335159778595
1783169718628506000,0.972506103515625,0.1574709713459015,0.1686101257801056,-0.10329762101173401
1783169718638455000,0.982455078125,0.15967750549316406,0.2104203999042511,-0.050916705280542374
1783169718648404200,0.992404296875,0.15945859253406525,0.20923209190368652,0.02691817097365856
1783169718658383000,1.002383056640625,0.1655106544494629,0.1837836503982544,0.11124823987483978
1783169718668332000,1.01233203125,0.18263904750347137,0.14263886213302612,0.19390235841274261
1783169718678281200,1.02228125,0.2172606736421585,0.10417057573795319,0.27299079298973083
1783169718688260000,1.032260009765625,0.2531438171863556,0.08473562449216843,0.34197625517845154
1783169718698209300,1.042209228515625,0.2910007834434509,0.1495378315448761,0.41941699385643005
1783169718708157200,1.0521572265625,0.3028654456138611,0.1835906207561493,0.4966720938682556
1783169718718106400,1.0621064453125,0.29208388924598694,0.17236579954624176,0.5586422085762024
1783169718728085200,1.072085205078125,0.2827119529247284,0.24938176572322845,0.5945858359336853
1783169718738034200,1.0820341796875,0.25880980491638184,0.33299726247787476,0.6029271483421326
1783169718747983000,1.091983154296875,0.23380085825920105,0.43261975049972534,0.5936870574951172
1783169718757962200,1.101962158203125,0.21413639187812805,0.5602853894233704,0.5656977295875549
1783169718767911200,1.1119111328125,0.20848463475704193,0.7572586536407471,0.5310872793197632
1783169718777860000,1.121860107421875,0.20829419791698456,0.9528681635856628,0.4891800880432129
1783169718787808300,1.131808349609375,0.19259220361709595,1.0085114240646362,0.4292999804019928
1783169718797787100,1.141787109375,0.16287492215633392,0.8257367610931396,0.32866817712783813
1783169718807736000,1.151736083984375,0.10458019375801086,0.36836761236190796,0.1458568125963211
1783169718817685200,1.161685302734375,0.04999391734600067,-0.11009100824594498,-0.07694963365793228
1783169718827664100,1.1716640625,0.016679901629686356,-0.4108548164367676,-0.25754764676094055
1783169718837613000,1.181613037109375,-0.008683783933520317,-0.4768927991390228,-0.3388661742210388
1783169718847562000,1.19156201171875,-0.026182083413004875,-0.30935120582580566,-0.3252140283584595
1783169718857510100,1.20151025390625,-0.013230727054178715,-0.005631605628877878,-0.23681733012199402
1783169718867490300,1.211490234375,0.03634561225771904,0.31307393312454224,-0.08993840217590332
1783169718877438200,1.221438232421875,0.11313052475452423,0.5669040679931641,0.08314017206430435
1783169718887387400,1.231387451171875,0.19482219219207764,0.68198162317276,0.2623269557952881
1783169718897366300,1.2413662109375,0.25392916798591614,0.6316691637039185,0.42186442017555237
1783169718907315200,1.251315185546875,0.29742205142974854,0.4875364899635315,0.5535633563995361
1783169718917264100,1.26126416015625,0.3277834355831146,0.27351146936416626,0.6303122043609619
1783169718927213300,1.27121337890625,0.34734490513801575,0.0649835467338562,0.6542447209358215
1783169718937192200,1.281192138671875,0.3628354072570801,-0.09059742093086243,0.5973308086395264
1783169718947141000,1.29114111328125,0.37540897727012634,-0.18084315955638885,0.47178006172180176
1783169718957089300,1.30108935546875,0.37677592039108276,-0.194107785820961,0.3015662431716919
1783169718967069200,1.311069091796875,0.34899941086769104,-0.14033083617687225,0.10282599180936813
1783169718977017000,1.32101708984375,0.27034321427345276,-0.09247566014528275,-0.12476272881031036
1783169718986966000,1.330966064453125,0.1494748592376709,-0.08746971935033798,-0.3639862537384033
1783169718996915200,1.340915283203125,-0.007614379748702049,-0.10234545171260834,-0.579210638999939
1783169719006894000,1.35089404296875,-0.17656931281089783,-0.12189891934394836,-0.7292448878288269
1783169719016843000,1.360843017578125,-0.3332630693912506,-0.1686318814754486,-0.8140215277671814
1783169719026791200,1.370791259765625,-0.4533418118953705,-0.1738988161087036,-0.8432140350341797
1783169719036771300,1.380771240234375,-0.497469425201416,-0.04433485120534897,-0.8306471705436707
1783169719046719000,1.390718994140625,-0.4725523591041565,0.08608707040548325,-0.8188480138778687
1783169719056668200,1.400668212890625,-0.39037027955055237,0.13792996108531952,-0.7944811582565308
1783169719066617300,1.410617431640625,-0.27401119470596313,0.22055959701538086,-0.7496452331542969
1783169719076596200,1.42059619140625,-0.17882554233074188,0.23777806758880615,-0.6991183757781982
1783169719086545200,1.430545166015625,-0.1067151427268982,0.14277780055999756,-0.649526834487915
1783169719096494000,1.440494140625,-0.03559035435318947,0.018391842022538185,-0.5884941816329956
1783169719106473200,1.45047314453125,0.026882342994213104,-0.08995114266872406,-0.5082182288169861
1783169719116422100,1.460422119140625,0.06391265988349915,-0.18552052974700928,-0.4052846431732178
1783169719126370300,1.470370361328125,0.08934824913740158,-0.26006078720092773,-0.27416443824768066
1783169719136350200,1.48035009765625,0.11873086541891098,-0.27031558752059937,-0.10392293334007263
1783169719146298000,1.490298095703125,0.14489004015922546,-0.21669045090675354,0.09331770241260529
1783169719156247000,1.5002470703125,0.1676955223083496,-0.13522930443286896,0.28881874680519104
1783169719166196200,1.5101962890625,0.1756913959980011,-0.049741026014089584,0.4813562333583832
1783169719176175000,1.520175048828125,0.15778057277202606,-0.01581510901451111,0.646673858165741
1783169719186124000,1.5301240234375,0.11273878812789917,-0.014151165261864662,0.7668575048446655
1783169719196072200,1.540072265625,0.04643966257572174,-0.06446919590234756,0.837651789188385
1783169719206052400,1.55005224609375,-0.00904117338359356,-0.1470828503370285,0.8500107526779175
1783169719216000000,1.56,-0.04993893951177597,-0.22876141965389252,0.8061356544494629
1783169719225949200,1.56994921875,-0.08378079533576965,-0.2839471697807312,0.7375768423080444
1783169719235898400,1.5798984375,-0.12601293623447418,-0.28968489170074463,0.656528115272522
1783169719245877200,1.589877197265625,-0.17124620079994202,-0.23018082976341248,0.5776702761650085
1783169719255826200,1.599826171875,-0.2201434224843979,-0.13297763466835022,0.5099282264709473
1783169719265775000,1.609775146484375,-0.26522114872932434,-0.032812949270009995,0.4619694650173187
1783169719275754200,1.619754150390625,-0.30058127641677856,0.07975679636001587,0.4402835965156555
1783169719285703200,1.629703125,-0.32810771465301514,0.1702592670917511,0.44690555334091187
1783169719295651000,1.639651123046875,-0.35684362053871155,0.1818476915359497,0.46837812662124634
1783169719305600300,1.649600341796875,-0.3978765308856964,0.12609733641147614,0.4889366924762726
1783169719315579100,1.6595791015625,-0.43418022990226746,0.0616968609392643,0.5069771409034729
1783169719325528000,1.669528076171875,-0.479125052690506,0.00502212718129158,0.5120611786842346
1783169719335477000,1.67947705078125,-0.5199024677276611,-0.05415719375014305,0.512485921382904
1783169719345456000,1.6894560546875,-0.5490033030509949,-0.09731531143188477,0.49355778098106384
1783169719355405000,1.699405029296875,-0.562222957611084,-0.10027413070201874,0.46211355924606323
1783169719365394700,1.709394775390625,-0.5660528540611267,-0.0394563153386116,0.439555287361145
1783169719375343900,1.71934375,-0.5603035092353821,0.09609118849039078,0.43616586923599243
1783169719385322800,1.72932275390625,-0.5262417197227478,0.26493269205093384,0.46252238750457764
1783169719395271700,1.739271728515625,-0.4795388877391815,0.38832560181617737,0.5081852078437805
1783169719405220900,1.749220947265625,-0.4333021640777588,0.35986122488975525,0.532885730266571
1783169719415199700,1.75919970703125,-0.4085209369659424,0.1758737564086914,0.5078024864196777
1783169719425148700,1.769148681640625,-0.40731504559516907,-0.06879377365112305,0.4244903028011322
1783169719435097600,1.77909765625,-0.45251035690307617,-0.30537915229797363,0.3039305508136749
1783169719445045800,1.789045654296875,-0.5394572615623474,-0.4489871859550476,0.17070245742797852
1783169719455025700,1.799025634765625,-0.6623410582542419,-0.4744523763656616,0.04099365323781967
1783169719464973600,1.8089736328125,-0.7836541533470154,-0.41531500220298767,-0.07137549668550491
1783169719474922800,1.8189228515625,-0.860437273979187,-0.2926337718963623,-0.15609799325466156
1783169719484901600,1.828901611328125,-0.8815444111824036,-0.11984764039516449,-0.20648899674415588
1783169719494850600,1.8388505859375,-0.8573877811431885,0.07032610476016998,-0.2066866010427475
1783169719504799500,1.848799560546875,-0.8152816295623779,0.199937105178833,-0.14992770552635193
1783169719514747600,1.85874755859375,-0.777459979057312,0.2343674600124359,-0.0554976649582386
1783169719524727600,1.8687275390625,-0.7502549886703491,0.13048526644706726,0.04853978753089905
1783169719534675700,1.87867578125,-0.7256365418434143,-0.0877644345164299,0.14986057579517365
1783169719544625000,1.888625,-0.6936339139938354,-0.31993773579597473,0.2279718965291977
1783169719554603500,1.898603515625,-0.6515898108482361,-0.4544961750507355,0.28035199642181396
1783169719564552700,1.908552734375,-0.6186856627464294,-0.4918123781681061,0.30100348591804504
1783169719574501600,1.918501708984375,-0.5834704041481018,-0.4677123725414276,0.3035622537136078
1783169719584450800,1.928450927734375,-0.5478503704071045,-0.42209213972091675,0.2793698310852051
1783169719594429700,1.9384296875,-0.5208693146705627,-0.40952804684638977,0.24092575907707214
1783169719604378600,1.948378662109375,-0.5043672919273376,-0.3807014524936676,0.2143106609582901
1783169719614326800,1.958326904296875,-0.5182165503501892,-0.3559795618057251,0.21174047887325287
1783169719624306700,1.968306640625,-0.5701391100883484,-0.36653342843055725,0.2187451273202896
1783169719634254600,1.978254638671875,-0.6319316625595093,-0.3950057029724121,0.2391422688961029
1783169719644203800,1.988203857421875,-0.6850233674049377,-0.4367899000644684,0.2552887499332428
1783169719654152700,1.998152587890625,-0.7057058811187744,-0.49186164140701294,0.25168710947036743
1783169719664131600,2.008131591796875,-0.6902249455451965,-0.5301797389984131,0.2186439335346222
1783169719674080500,2.01808056640625,-0.6494420766830444,-0.554899275302887,0.15206463634967804
1783169719684028700,2.028028564453125,-0.5948257446289062,-0.5632568001747131,0.07126406580209732
1783169719694008600,2.038008544921875,-0.5403451919555664,-0.549618124961853,-0.026990659534931183
1783169719703956500,2.04795654296875,-0.4885874092578888,-0.5182756781578064,-0.12587861716747284
1783169719713906000,2.057906005859375,-0.4573322832584381,-0.43752387166023254,-0.19610856473445892
1783169719723854800,2.067854736328125,-0.4602215588092804,-0.3346840441226959,-0.23025986552238464
1783169719733833700,2.077833740234375,-0.4910937249660492,-0.25079235434532166,-0.2315664142370224
1783169719743782700,2.08778271484375,-0.5434759855270386,-0.19083209335803986,-0.21050268411636353
1783169719753731800,2.09773193359375,-0.5933254361152649,-0.14995330572128296,-0.1687014102935791
1783169719763710700,2.107710693359375,-0.6389831900596619,-0.14908085763454437,-0.11836127936840057
1783169719773659600,2.11765966796875,-0.6665908098220825,-0.14117465913295746,-0.06389139592647552
1783169719783607800,2.12760791015625,-0.684176504611969,-0.14081381261348724,-0.012247106060385704
1783169719793556700,2.137556640625,-0.6949974298477173,-0.1850840449333191,0.02140219137072563
1783169719803535600,2.14753564453125,-0.6980683207511902,-0.22065427899360657,0.03554677218198776
1783169719813484500,2.157484619140625,-0.7061904072761536,-0.2356799989938736,0.02563399076461792
1783169719823433700,2.167433837890625,-0.7182356119155884,-0.2366030514240265,-0.006466686725616455
1783169719833412600,2.17741259765625,-0.7337252497673035,-0.21810638904571533,-0.0700688436627388
1783169719843361500,2.187361572265625,-0.7469605803489685,-0.19054026901721954,-0.15365402400493622
1783169719853309700,2.197309814453125,-0.7468553185462952,-0.16062432527542114,-0.2398003488779068
1783169719863258600,2.207258544921875,-0.7352439165115356,-0.1323639303445816,-0.30695730447769165
1783169719873237500,2.217237548828125,-0.7249190807342529,-0.10338570177555084,-0.34904852509498596
1783169719883186700,2.227186767578125,-0.7093859314918518,-0.08914444595575333,-0.3582596182823181
1783169719893136000,2.237135986328125,-0.6824452877044678,-0.08508142083883286,-0.3259959816932678
1783169719903114800,2.24711474609375,-0.6316928863525391,-0.1033451184630394,-0.25828003883361816
1783169719913063700,2.257063720703125,-0.5789679288864136,-0.15887530148029327,-0.16436418890953064
1783169719923012600,2.2670126953125,-0.5320680141448975,-0.20646066963672638,-0.05443049222230911
1783169719932991700,2.27699169921875,-0.4857271611690521,-0.2680654227733612,0.0681779757142067
1783169719942940700,2.286940673828125,-0.4490671455860138,-0.345568984746933,0.16987955570220947
1783169719952888800,2.296888916015625,-0.40773117542266846,-0.392632395029068,0.24014760553836823
1783169719962837800,2.306837646484375,-0.3685734272003174,-0.3901834785938263,0.2823488116264343
1783169719972816600,2.316816650390625,-0.3328568935394287,-0.3698333501815796,0.3155001699924469
1783169719982765600,2.326765625,-0.29698944091796875,-0.3173389732837677,0.36733806133270264
1783169719992714800,2.33671484375,-0.284260630607605,-0.2474738210439682,0.45123428106307983
1783169720002693600,2.346693603515625,-0.29848721623420715,-0.24533849954605103,0.518701434135437
1783169720012642600,2.356642578125,-0.3298611342906952,-0.3721561133861542,0.5118613839149475
1783169720022590700,2.3665908203125,-0.37153586745262146,-0.5916754007339478,0.3983295261859894
1783169720032539600,2.37653955078125,-0.4112018346786499,-0.7890304327011108,0.19021514058113098
1783169720042518500,2.3865185546875,-0.4615323841571808,-0.902889609336853,-0.05919734761118889
1783169720052467700,2.3964677734375,-0.5288971662521362,-0.8780677914619446,-0.29005929827690125
1783169720062417000,2.4064169921875,-0.5874736309051514,-0.6560326218605042,-0.4451026916503906
1783169720072395800,2.416395751953125,-0.6161055564880371,-0.3303664028644562,-0.49792516231536865
1783169720082344700,2.4263447265625,-0.5739349126815796,-0.010141545906662941,-0.45153874158859253
1783169720092293600,2.436293701171875,-0.47737550735473633,0.20672088861465454,-0.3530648946762085
1783169720102241800,2.44624169921875,-0.35210466384887695,0.26971346139907837,-0.22475725412368774
1783169720112221700,2.4562216796875,-0.23542344570159912,0.2504052519798279,-0.07193837314844131
1783169720122169900,2.466169921875,-0.14659637212753296,0.18043868243694305,0.08793491125106812
1783169720132118800,2.476118896484375,-0.09295714646577835,0.07746320962905884,0.24634979665279388
1783169720142097700,2.48609765625,-0.0660560205578804,-0.0627780556678772,0.37633630633354187
1783169720152046600,2.496046630859375,-0.037147268652915955,-0.2705811858177185,0.44824403524398804
1783169720161995800,2.505995849609375,0.028059694916009903,-0.40926024317741394,0.4555802643299103
1783169720171943700,2.515943603515625,0.13107503950595856,-0.42347943782806396,0.4310501515865326
1783169720181923600,2.525923583984375,0.24532198905944824,-0.3687107264995575,0.3954349160194397
1783169720191871700,2.535871826171875,0.34236395359039307,-0.2734420597553253,0.3655584454536438
1783169720201820700,2.545820556640625,0.4142761826515198,-0.18564961850643158,0.3522317111492157
1783169720211799600,2.555799560546875,0.4328968822956085,-0.15327051281929016,0.35188737511634827
1783169720221748500,2.56574853515625,0.3932725191116333,-0.19869232177734375,0.33498215675354004
1783169720231698000,2.575697998046875,0.31624093651771545,-0.2701435089111328,0.2831592857837677
1783169720241646800,2.585646728515625,0.23760388791561127,-0.3170018196105957,0.1969900131225586
1783169720251625700,2.595625732421875,0.1811802089214325,-0.3084494471549988,0.08377466350793839
1783169720261574700,2.60557470703125,0.15466177463531494,-0.23936036229133606,-0.04077605530619621
1783169720271522800,2.615522705078125,0.16349954903125763,-0.15969249606132507,-0.1681022346019745
1783169720281502700,2.625502685546875,0.19931000471115112,-0.07418877631425858,-0.2817875146865845
1783169720291450600,2.63545068359375,0.2503246068954468,0.02392616868019104,-0.37418827414512634
1783169720301399800,2.64539990234375,0.31365856528282166,0.1028369665145874,-0.4221861660480499
1783169720311348700,2.6553486328125,0.3637530207633972,0.16629141569137573,-0.4121737480163574
1783169720321327600,2.66532763671875,0.3776334226131439,0.17381112277507782,-0.3518606126308441
1783169720331276500,2.675276611328125,0.3591843843460083,0.10353213548660278,-0.2555597424507141
1783169720341224700,2.685224609375,0.30893346667289734,0.015972990542650223,-0.13525517284870148
1783169720351204600,2.69520458984375,0.23006027936935425,-0.052194081246852875,-0.015280007384717464
1783169720361182200,2.70518212890625,0.14163294434547424,-0.11657653003931046,0.09049835801124573
1783169720371131400,2.71513134765625,0.06197929382324219,-0.14574868977069855,0.15652161836624146
1783169720381080300,2.725080322265625,0.0017289984971284866,-0.12143801897764206,0.18711841106414795
1783169720391059500,2.7350595703125,-0.034013696014881134,-0.07859214395284653,0.19841793179512024
1783169720401008400,2.74500830078125,-0.05022382363677025,-0.01699642464518547,0.196886345744133
1783169720410957300,2.754957275390625,-0.06683656573295593,0.04963388293981552,0.18531590700149536
1783169720420936400,2.7649365234375,-0.08868567645549774,0.10272452980279922,0.18202850222587585
1783169720430885400,2.774885498046875,-0.12817174196243286,0.13372397422790527,0.1942564845085144
1783169720440833300,2.784833251953125,-0.183174267411232,0.1567600518465042,0.20686255395412445
1783169720450782200,2.7947822265625,-0.23885905742645264,0.1605844646692276,0.2193232774734497
1783169720460761300,2.80476123046875,-0.2833458483219147,0.13737662136554718,0.2278083711862564
1783169720470710300,2.814710205078125,-0.301216185092926,0.13464459776878357,0.22963766753673553
1783169720480659200,2.8246591796875,-0.28951987624168396,0.1599547415971756,0.23444387316703796
1783169720490638300,2.834638427734375,-0.27320167422294617,0.17557743191719055,0.23945775628089905
1783169720500587300,2.844587158203125,-0.27479690313339233,0.16206109523773193,0.22754250466823578
1783169720510536400,2.854536376953125,-0.2809460759162903,0.12673553824424744,0.20876142382621765
1783169720520484000,2.864484130859375,-0.29399529099464417,0.06801337003707886,0.18438869714736938
1783169720530463200,2.874463134765625,-0.31177079677581787,0.030256852507591248,0.15931440889835358
1783169720540412400,2.884412353515625,-0.34541717171669006,-0.0021695278119295835,0.12892214953899384
1783169720550361300,2.894361328125,-0.3829719126224518,-0.039227742701768875,0.09251870214939117
1783169720560340500,2.904340576171875,-0.4128352701663971,-0.0344843864440918,0.06934627145528793
1783169720570289400,2.914289306640625,-0.43697434663772583,0.005834732670336962,0.07377611100673676
1783169720580238300,2.92423828125,-0.4505692422389984,0.03158430755138397,0.10290070623159409
1783169720590186200,2.934186279296875,-0.44967618584632874,0.026580363512039185,0.1494780331850052
1783169720600166400,2.94416650390625,-0.4302079379558563,-0.0018392938654869795,0.22069868445396423
1783169720610114300,2.9541142578125,-0.3876740336418152,-0.051193274557590485,0.31496718525886536
1783169720620063200,2.964063232421875,-0.32934629917144775,-0.08734249323606491,0.4347151517868042
1783169720630042400,2.97404248046875,-0.25966155529022217,-0.07054346054792404,0.5813808441162109
1783169720639991300,2.9839912109375,-0.20341026782989502,-0.01770155504345894,0.7482371926307678
1783169720649940200,2.993940185546875,-0.16972386837005615,-0.03413092717528343,0.8743468523025513
1783169720659889200,3.00388916015625,-0.1640433520078659,-0.16664981842041016,0.9290761351585388
1783169720669868300,3.013868408203125,-0.18665233254432678,-0.38343343138694763,0.8817238211631775
1783169720679817200,3.023817138671875,-0.23293595016002655,-0.6508587598800659,0.7244593501091003
1783169720689765000,3.03376513671875,-0.31124556064605713,-0.9664588570594788,0.42943304777145386
1783169720699744300,3.043744140625,-0.40706825256347656,-1.1839404106140137,0.031177805736660957
1783169720709693400,3.053693359375,-0.49955546855926514,-1.170026183128357,-0.36043742299079895
1783169720719642400,3.063642333984375,-0.5746539235115051,-0.9468740820884705,-0.6529912352561951
1783169720729621500,3.07362158203125,-0.6247131824493408,-0.6054311990737915,-0.7897136211395264
1783169720739570400,3.0835703125,-0.6621659994125366,-0.17391841113567352,-0.7709601521492004
1783169720749519400,3.093519287109375,-0.6899263858795166,0.2127479463815689,-0.6437047123908997
1783169720759467300,3.10346728515625,-0.7188690900802612,0.43189308047294617,-0.4603551924228668
1783169720769447400,3.113447509765625,-0.7381467819213867,0.4491778314113617,-0.2845514714717865
1783169720779395300,3.123395263671875,-0.7391371726989746,0.29041269421577454,-0.15201659500598907
1783169720789344300,3.13334423828125,-0.7061251401901245,0.05257641151547432,-0.08653475344181061
1783169720799323400,3.143323486328125,-0.6418633460998535,-0.18637783825397491,-0.09918690472841263
1783169720809272300,3.153272216796875,-0.5615339875221252,-0.36280226707458496,-0.18596307933330536
1783169720819221200,3.16322119140625,-0.47065550088882446,-0.46822217106819153,-0.3327924609184265
1783169720829170200,3.173170166015625,-0.3702651858329773,-0.4888956546783447,-0.5072769522666931
1783169720839149300,3.1831494140625,-0.2678152620792389,-0.4101811349391937,-0.6587919592857361
1783169720849098200,3.19309814453125,-0.17847348749637604,-0.24718540906906128,-0.7401363253593445
1783169720859046100,3.203046142578125,-0.12128689885139465,-0.06116068363189697,-0.7387291193008423
1783169720869025300,3.213025390625,-0.09251024574041367,0.10873503983020782,-0.6419787406921387
1783169720878974200,3.22297412109375,-0.09886561334133148,0.2077455073595047,-0.4752773642539978
1783169720888923400,3.23292333984375,-0.12104417383670807,0.21455678343772888,-0.29331544041633606
1783169720898872300,3.242872314453125,-0.1443156749010086,0.12635394930839539,-0.13639956712722778
1783169720908851500,3.2528515625,-0.15353554487228394,-0.030639013275504112,-0.02960989624261856
1783169720918800400,3.26280029296875,-0.13943438231945038,-0.20062832534313202,0.02593299187719822
1783169720928748300,3.272748291015625,-0.09779327362775803,-0.338999480009079,0.049350082874298096
1783169720938728400,3.282728515625,-0.03453334420919418,-0.42403873801231384,0.058736126869916916
1783169720948676400,3.29267626953125,0.04589926078915596,-0.4497840702533722,0.04482545703649521
1783169720958625300,3.302625244140625,0.13471196591854095,-0.42675653100013733,0.023122025653719902
1783169720968574200,3.31257421875,0.22726120054721832,-0.38982897996902466,0.0047760335728526115
1783169720978553300,3.32255322265625,0.29134616255760193,-0.3593842685222626,-0.008218861185014248
1783169720988502300,3.332502197265625,0.3183794915676117,-0.3188135325908661,-0.008182399906218052
1783169720998451200,3.342451171875,0.2991831600666046,-0.28436848521232605,0.008508696220815182
1783169721008430300,3.352430419921875,0.24417391419410706,-0.2774130702018738,0.033039554953575134
1783169721018379300,3.362379150390625,0.17074736952781677,-0.2767523527145386,0.07147242873907089
1783169721028327200,3.3723271484375,0.1006634533405304,-0.2727925181388855,0.11714465916156769
1783169721038276400,3.3822763671875,0.04765402153134346,-0.27863258123397827,0.15127094089984894
1783169721048255200,3.392255126953125,0.02053908258676529,-0.2856735289096832,0.1712179332971573
1783169721058204400,3.402204345703125,0.021356407552957535,-0.2665773332118988,0.17843642830848694
1783169721068153300,3.4121533203125,0.046406976878643036,-0.21572242677211761,0.1781504601240158
1783169721078132500,3.422132568359375,0.09676708281040192,-0.14885205030441284,0.1734451949596405
1783169721088081400,3.432081298828125,0.16764304041862488,-0.0500662736594677,0.16496892273426056
1783169721098029300,3.442029296875,0.23239699006080627,0.05609691143035889,0.1527854949235916
1783169721107978200,3.451978271484375,0.2589963674545288,0.12959514558315277,0.13739824295043945
1783169721117957400,3.461957275390625,0.25495046377182007,0.17395809292793274,0.1215689554810524
1783169721127906300,3.47190625,0.23208469152450562,0.19271673262119293,0.11153654009103775
1783169721137855200,3.481855224609375,0.20423227548599243,0.19791390001773834,0.08924055844545364
1783169721147834400,3.49183447265625,0.1876927763223648,0.19453293085098267,0.06123268976807594
1783169721157783300,3.501783203125,0.1718059480190277,0.1878819614648819,0.03148943930864334
1783169721167732200,3.511732177734375,0.15717381238937378,0.19161352515220642,0.00801521260291338
1783169721177680100,3.52168017578125,0.14881175756454468,0.20363956689834595,-0.009363246150314808
1783169721187660300,3.531660400390625,0.15658855438232422,0.24758638441562653,-0.014454188756644726
1783169721197608200,3.541608154296875,0.17592017352581024,0.3535522520542145,0.0026579531840980053
1783169721207557000,3.55155712890625,0.21094165742397308,0.48833388090133667,0.05083026736974716
1783169721217536300,3.561536376953125,0.246454656124115,0.6173864006996155,0.13491825759410858
1783169721227485400,3.5714853515625,0.27821946144104004,0.7290142178535461,0.24321098625659943
1783169721237434400,3.581434326171875,0.30598077178001404,0.827261745929718,0.36050111055374146
1783169721247382500,3.591382568359375,0.3028762638568878,0.7452177405357361,0.45476362109184265
1783169721257362400,3.601362548828125,0.2605290710926056,0.4202684164047241,0.4813686013221741
1783169721267310300,3.611310302734375,0.17971380054950714,-0.06752167642116547,0.42050936818122864
1783169721277259300,3.62125927734375,0.09869617223739624,-0.5306451320648193,0.267465204000473
1783169721287238400,3.63123828125,0.05494140833616257,-0.8125364184379578,0.07842621207237244
1783169721297187300,3.641187255859375,0.03655681014060974,-0.7832227349281311,-0.08076424151659012
1783169721307136300,3.65113623046875,0.06475423276424408,-0.4013199508190155,-0.14867670834064484
1783169721317085200,3.661085205078125,0.13721193373203278,0.24008585512638092,-0.09841646254062653
1783169721327064300,3.671064208984375,0.2173597812652588,0.8802695870399475,0.04690878838300705
1783169721337013200,3.68101318359375,0.26854413747787476,1.2520133256912231,0.2157028615474701
1783169721346961200,3.690961181640625,0.2798897624015808,1.213705062866211,0.3459959328174591
1783169721356941300,3.70094140625,0.26463252305984497,0.8687419891357422,0.4236702024936676
1783169721366902000,3.710902099609375,0.22419726848602295,0.40984466671943665,0.43202078342437744
1783169721376851200,3.720851318359375,0.16022256016731262,-0.0028174747712910175,0.38810551166534424
1783169721386800400,3.73080029296875,0.08954073488712311,-0.23565205931663513,0.3081478774547577
1783169721396779300,3.740779296875,0.04466220736503601,-0.2828318178653717,0.19508258998394012
1783169721406728200,3.750728271484375,0.028989220038056374,-0.1704375296831131,0.05676744505763054
1783169721416676400,3.76067626953125,0.04189170151948929,0.0404355563223362,-0.09642744064331055
1783169721426656300,3.77065625,0.08045758306980133,0.2605929970741272,-0.25008881092071533
1783169721436604200,3.780604248046875,0.1271238923072815,0.4012795388698578,-0.38676223158836365
1783169721446553300,3.79055322265625,0.16780538856983185,0.4224835932254791,-0.4829685091972351
1783169721456502300,3.800502197265625,0.2001180499792099,0.36055469512939453,-0.5201246738433838
1783169721466481200,3.810481201171875,0.2170105278491974,0.24683186411857605,-0.5008708238601685
1783169721476430000,3.82043017578125,0.22927702963352203,0.13808594644069672,-0.43889370560646057
1783169721486379300,3.830379150390625,0.23040002584457397,0.049615368247032166,-0.34078943729400635
1783169721496358100,3.840358154296875,0.22527292370796204,0.0045022182166576385,-0.22898222506046295
1783169721506307000,3.85030712890625,0.2244415432214737,0.007365754805505276,-0.1092660054564476
1783169721516255200,3.860255126953125,0.23796667158603668,0.0461224727332592,-0.001315566711127758
1783169721526235100,3.870235107421875,0.2696300745010376,0.08969751745462418,0.08612389862537384
1783169721536183000,3.88018310546875,0.3092927932739258,0.0999717265367508,0.14470598101615906
1783169721546132000,3.890132080078125,0.3604976236820221,0.040423206984996796,0.17618606984615326
1783169721556081400,3.900081298828125,0.4027270972728729,-0.05277038738131523,0.1866413801908493
1783169721566060300,3.910060302734375,0.4307849705219269,-0.13472770154476166,0.17650672793388367
1783169721576009200,3.92000927734375,0.4450802803039551,-0.18460044264793396,0.15990112721920013
1783169721585957400,3.929957275390625,0.4440803825855255,-0.19404539465904236,0.12821869552135468
1783169721595937300,3.939937255859375,0.4226989448070526,-0.20717664062976837,0.09331317991018295
1783169721605885200,3.94988525390625,0.37976616621017456,-0.2107752114534378,0.04557911306619644
1783169721615834000,3.959834228515625,0.32767099142074585,-0.17706464231014252,0.0028223302215337753
1783169721625783300,3.969783203125,0.2701273560523987,-0.12557567656040192,-0.02449815534055233
1783169721635762200,3.97976220703125,0.22483816742897034,-0.09742020815610886,-0.04045022279024124
1783169721645711000,3.989711181640625,0.21449130773544312,-0.07621194422245026,-0.03592240810394287
1783169721655660000,3.999659912109375,0.23538728058338165,-0.05168129876255989,-0.007203145883977413
1783169721665639200,4.00963916015625,0.25572749972343445,-0.03356313705444336,0.046224597841501236
1783169721675588000,4.019588134765625,0.2608969807624817,-0.03055189922451973,0.10330572724342346
1783169721685536300,4.029536376953125,0.24081704020500183,-0.006144561804831028,0.16170808672904968
1783169721695485200,4.039485107421875,0.20014497637748718,0.02925417572259903,0.21343812346458435
1783169721705464000,4.049464111328125,0.15450617671012878,0.04654780030250549,0.2407863289117813
1783169721715413000,4.0594130859375,0.11956629902124405,0.06573401391506195,0.2443951815366745
1783169721725362200,4.069362060546875,0.0916660875082016,0.09097984433174133,0.2140929251909256
1783169721735341300,4.07934130859375,0.0655820220708847,0.07668772339820862,0.15107721090316772
1783169721745290200,4.089290283203125,0.033160500228405,0.0125582879409194,0.046985745429992676
1783169721755238400,4.09923828125,-0.005361059680581093,-0.05689588934183121,-0.08049284666776657
1783169721765187300,4.109187255859375,-0.04987305775284767,-0.11330035328865051,-0.21026435494422913
1783169721775166200,4.119166259765625,-0.08555808663368225,-0.145842045545578,-0.3149454593658447
1783169721785115100,4.129115234375,-0.1068534255027771,-0.14312399923801422,-0.38421154022216797
1783169721795064300,4.139064208984375,-0.10541504621505737,-0.08958914875984192,-0.3959534168243408
1783169721805043200,4.149043212890625,-0.08523460477590561,-0.014858424663543701,-0.35186710953712463
1783169721814992100,4.1589921875,-0.02584105357527733,0.06589633971452713,-0.24915483593940735
1783169721824941000,4.168941162109375,0.05985098332166672,0.11879737675189972,-0.08905116468667984
1783169721834889200,4.17888916015625,0.11433898657560349,0.05444607883691788,0.061886150389909744
1783169721844869000,4.188869140625,0.10531511902809143,-0.17228257656097412,0.12427588552236557
1783169721854817300,4.1988173828125,0.03671395406126976,-0.4771958887577057,0.05346136540174484
1783169721864766200,4.20876611328125,-0.09656582027673721,-0.7472178339958191,-0.14439886808395386
1783169721874745000,4.2187451171875,-0.274809867143631,-0.9060834050178528,-0.43485066294670105
1783169721884694000,4.228694091796875,-0.450646311044693,-0.8823856711387634,-0.7464669346809387
1783169721894643200,4.238643310546875,-0.566203236579895,-0.6421717405319214,-1.0131430625915527
1783169721904591000,4.248591064453125,-0.6160857677459717,-0.23422101140022278,-1.1861594915390015
1783169721914571300,4.2585712890625,-0.5962287187576294,0.2301408052444458,-1.2265359163284302
1783169721924519400,4.26851953125,-0.5278896689414978,0.6260465979576111,-1.1158784627914429
1783169721934468400,4.27846826171875,-0.4456840455532074,0.8360392451286316,-0.9044650793075562
1783169721944447200,4.288447265625,-0.3697202503681183,0.8333503603935242,-0.6542552709579468
1783169721954396200,4.298396240234375,-0.2969605326652527,0.6783159971237183,-0.41136062145233154
1783169721964345300,4.308345458984375,-0.2251615673303604,0.42028531432151794,-0.22117245197296143
1783169721974294300,4.318294189453125,-0.14687024056911469,0.1114284098148346,-0.106953464448452
1783169721984273200,4.328273193359375,-0.0668044164776802,-0.1587292104959488,-0.07668249309062958
1783169721994222000,4.33822216796875,0.010334307327866554,-0.3204754889011383,-0.10274072736501694
1783169722004170200,4.348170166015625,0.066738061606884,-0.37097087502479553,-0.1542176455259323
1783169722014150100,4.358150146484375,0.09465038776397705,-0.3109748959541321,-0.20675861835479736
1783169722024098000,4.36809814453125,0.09554018825292587,-0.16925519704818726,-0.23539407551288605
1783169722034047200,4.378047119140625,0.06915625184774399,-0.017252352088689804,-0.2272820770740509
1783169722043996200,4.38799609375,0.02214023284614086,0.08543102443218231,-0.18149186670780182
1783169722053975000,4.39797509765625,-0.03179596737027168,0.10905805975198746,-0.1001349613070488
1783169722063924000,4.407924072265625,-0.08714123070240021,0.0621214359998703,-0.0055139027535915375
1783169722073872100,4.4178720703125,-0.13140776753425598,-0.02250024303793907,0.06698533147573471
1783169722083852300,4.427852294921875,-0.16344845294952393,-0.10794469714164734,0.11973024159669876
1783169722093800200,4.43780029296875,-0.18529115617275238,-0.14272770285606384,0.15154623985290527
1783169722103749400,4.447749267578125,-0.20028860867023468,-0.1462959349155426,0.16035836935043335
1783169722113698300,4.4576982421875,-0.19965530931949615,-0.13511812686920166,0.1438041478395462
1783169722123677200,4.46767724609375,-0.1972120851278305,-0.12826596200466156,0.10842692106962204
1783169722133626000,4.477626220703125,-0.19186924397945404,-0.12637725472450256,0.06563098728656769
1783169722143575300,4.4875751953125,-0.19322505593299866,-0.1268150806427002,0.021216917783021927
1783169722153554200,4.49755419921875,-0.20819655060768127,-0.11197354644536972,-0.019313998520374298
1783169722163503000,4.507503173828125,-0.23544496297836304,-0.07407021522521973,-0.037728846073150635
1783169722173451300,4.517451171875,-0.2668686807155609,-0.04503803327679634,-0.01641157455742359
1783169722183400200,4.527400146484375,-0.3102518320083618,-0.03261971473693848,0.03059401735663414
1783169722193379000,4.537379150390625,-0.35216066241264343,-0.04730464890599251,0.08793587237596512
1783169722203328300,4.547328369140625,-0.3867746889591217,-0.09004969149827957,0.1474248170852661
1783169722213277200,4.557277099609375,-0.41348084807395935,-0.11136669665575027,0.18686597049236298
1783169722223256000,4.567256103515625,-0.4354585111141205,-0.08615820854902267,0.20677690207958221
1783169722233205000,4.577205078125,-0.45470118522644043,-0.022023698315024376,0.19612133502960205
1783169722243153200,4.587153076171875,-0.47019127011299133,0.07292214781045914,0.1694125235080719
1783169722253102300,4.597102294921875,-0.4657999575138092,0.16745583713054657,0.13834995031356812
1783169722263081000,4.6070810546875,-0.44819504022598267,0.26689547300338745,0.11225521564483643
1783169722273030400,4.617030517578125,-0.4107022285461426,0.34641826152801514,0.10018203407526016
1783169722282979300,4.626979248046875,-0.34879788756370544,0.37285852432250977,0.09563163667917252
1783169722292958200,4.636958251953125,-0.2803599536418915,0.3837242126464844,0.10949338972568512
1783169722302907100,4.6469072265625,-0.22239206731319427,0.3689711391925812,0.14222648739814758
1783169722312856300,4.656856201171875,-0.17873060703277588,0.3535732626914978,0.20978769659996033
1783169722322835200,4.666835205078125,-0.15542562305927277,0.36937084794044495,0.29738110303878784
1783169722332784000,4.6767841796875,-0.1432906687259674,0.3539753556251526,0.38097426295280457
1783169722342732300,4.686732177734375,-0.1353870928287506,0.280427485704422,0.42723363637924194
1783169722352681200,4.69668115234375,-0.11681606620550156,0.17004694044589996,0.4331434667110443
1783169722362660000,4.70666015625,-0.08580667525529861,0.0823136568069458,0.40134698152542114
1783169722372638000,4.716637939453125,-0.04894453287124634,0.06240919232368469,0.3601361811161041
1783169722382587000,4.7265869140625,-0.006505584344267845,0.13454583287239075,0.33270055055618286
1783169722392566000,4.73656591796875,0.047118496149778366,0.26146653294563293,0.3439721167087555
1783169722402515000,4.746514892578125,0.09673648327589035,0.4373987913131714,0.3966321051120758
1783169722412462800,4.756462890625,0.13914544880390167,0.6400991678237915,0.48619261384010315
1783169722422412000,4.766412109375,0.15837626159191132,0.7779931426048279,0.5907157063484192
1783169722432391000,4.776390869140625,0.15608008205890656,0.7758077383041382,0.6520370841026306
1783169722442339800,4.78633984375,0.14529426395893097,0.5609700083732605,0.6442619562149048
1783169722452288800,4.796288818359375,0.1025468036532402,0.13049957156181335,0.5470635294914246
1783169722462268000,4.806267822265625,0.048786409199237823,-0.4148530960083008,0.373568058013916
1783169722472217000,4.816217041015625,-0.005547136068344116,-0.9108951091766357,0.14867211878299713
1783169722482166000,4.826166015625,-0.054339807480573654,-1.217186450958252,-0.07776951789855957
1783169722492114200,4.8361142578125,-0.08737978339195251,-1.2643605470657349,-0.25716695189476013
1783169722502094000,4.846093994140625,-0.08798298984766006,-0.9918960332870483,-0.3249657154083252
1783169722512042000,4.8560419921875,-0.05528455227613449,-0.46107542514801025,-0.2551211416721344
1783169722521991000,4.865990966796875,-0.0008653495460748672,0.13912564516067505,-0.08676202595233917
1783169722531970000,4.875969970703125,0.04550241678953171,0.5641331076622009,0.09687784314155579
1783169722541919000,4.8859189453125,0.09404470026493073,0.6775827407836914,0.2212855964899063
1783169722551868000,4.895867919921875,0.13482490181922913,0.5107823014259338,0.2833513617515564
1783169722561816800,4.90581689453125,0.1468273103237152,0.2092597633600235,0.3196684420108795
1783169722571796000,4.9157958984375,0.14071987569332123,-0.04395945370197296,0.3627570569515228
1783169722581743900,4.925743896484375,0.11423040181398392,-0.1508142054080963,0.4029921889305115
1783169722591692800,4.93569287109375,0.09180179983377457,-0.15187202394008636,0.4090000092983246
1783169722601672000,4.945671875,0.07801259309053421,-0.13620324432849884,0.3566631078720093
1783169722611620900,4.955620849609375,0.06359530240297318,-0.11707615107297897,0.269593209028244
1783169722621569800,4.96556982421875,0.021645788103342056,-0.11431390047073364,0.1649525910615921
1783169722631519000,4.97551904296875,-0.055810652673244476,-0.15604430437088013,0.047648340463638306
1783169722641498000,4.985498046875,-0.14462091028690338,-0.18940679728984833,-0.07253582030534744
1783169722651447000,4.995447021484375,-0.22454237937927246,-0.17045094072818756,-0.1848391890525818
1783169722661395200,5.005395263671875,-0.2768395245075226,-0.08610053360462189,-0.2715093791484833
1783169722671375000,5.015375,-0.30023565888404846,0.007219825405627489,-0.33302411437034607
1783169722681323000,5.025322998046875,-0.2848111391067505,0.07778841257095337,-0.36021697521209717
1783169722691272000,5.03527197265625,-0.24225570261478424,0.12358865141868591,-0.35776472091674805
1783169722701220900,5.045220947265625,-0.173423171043396,0.16374661028385162,-0.3160630464553833
1783169722711200000,5.055199951171875,-0.09306734800338745,0.17949414253234863,-0.25532034039497375
1783169722721149000,5.06514892578125,-0.01372244581580162,0.15834785997867584,-0.19449131190776825
1783169722731097900,5.075097900390625,0.053693875670433044,0.10248644649982452,-0.14066137373447418
1783169722741077000,5.085076904296875,0.11015191674232483,0.013754839077591896,-0.0938212126493454
1783169722751025000,5.09502490234375,0.15210922062397003,-0.11523590236902237,-0.05941316857933998
1783169722760973800,5.104973876953125,0.18888534605503082,-0.25157323479652405,-0.029870986938476562
1783169722770923000,5.114923095703125,0.2246265709400177,-0.362190306186676,-0.004096116870641708
1783169722780902000,5.12490185546875,0.2507360577583313,-0.42592304944992065,0.00883218739181757
1783169722790850800,5.134850830078125,0.2704242765903473,-0.43249306082725525,0.02300286665558815
1783169722800800000,5.144800048828125,0.27194392681121826,-0.3642922043800354,0.05138156935572624
1783169722810779100,5.154779052734375,0.26082974672317505,-0.2571902573108673,0.08924879133701324
1783169722820728000,5.16472802734375,0.24252311885356903,-0.1906641572713852,0.13081231713294983
1783169722830676000,5.174676025390625,0.21780526638031006,-0.18247680366039276,0.17173443734645844
1783169722840625200,5.184625244140625,0.1812676042318344,-0.19789856672286987,0.20417077839374542
1783169722850604000,5.19460400390625,0.1314995139837265,-0.20213565230369568,0.23082396388053894
1783169722860553000,5.204552978515625,0.08077240735292435,-0.19563394784927368,0.24962010979652405
1783169722870502000,5.214501953125,0.03205440193414688,-0.17174778878688812,0.2575070858001709
1783169722880481000,5.22448095703125,0.0012331269681453705,-0.1664026826620102,0.2489505112171173
1783169722890430000,5.234429931640625,-0.010876799933612347,-0.15260671079158783,0.23851278424263
1783169722900379000,5.24437890625,-0.012089803814888,-0.10821358859539032,0.24544091522693634
1783169722910327000,5.2543271484375,-0.034923747181892395,-0.09463093429803848,0.25426238775253296
1783169722920307000,5.264306884765625,-0.08640529215335846,-0.12591303884983063,0.26673248410224915
1783169722930254800,5.2742548828125,-0.15441682934761047,-0.17488804459571838,0.26359689235687256
1783169722940204000,5.2842041015625,-0.23202259838581085,-0.26021265983581543,0.2419256567955017
1783169722950183000,5.294182861328125,-0.3157776892185211,-0.3749288320541382,0.19004088640213013
1783169722960131800,5.3041318359375,-0.3874378204345703,-0.4704480469226837,0.11143293231725693
1783169722970081000,5.3140810546875,-0.44662392139434814,-0.5335718989372253,0.023304671049118042
1783169722980029000,5.32402880859375,-0.4934762716293335,-0.5721404552459717,-0.06674215942621231
1783169722990009000,5.334009033203125,-0.5363012552261353,-0.5911828875541687,-0.14930681884288788
1783169722999957000,5.34395703125,-0.5754020810127258,-0.6160690188407898,-0.21708351373672485
1783169723009906200,5.35390625,-0.5872755646705627,-0.5640356540679932,-0.24462832510471344
1783169723019885000,5.363885009765625,-0.5796400308609009,-0.38190221786499023,-0.20831601321697235
1783169723029834000,5.373833984375,-0.5890167355537415,-0.14814910292625427,-0.13322339951992035
1783169723039783000,5.383782958984375,-0.63294917345047,0.021744288504123688,-0.07682338356971741
1783169723049732000,5.393732177734375,-0.6970690488815308,0.0712370052933693,-0.0816732719540596
1783169723059711000,5.4037109375,-0.7759218811988831,-0.024811074137687683,-0.1515873372554779
1783169723069660000,5.413659912109375,-0.8643867373466492,-0.21827533841133118,-0.2783282399177551
1783169723079608000,5.423608154296875,-0.9309885501861572,-0.415725976228714,-0.43469253182411194
1783169723089588000,5.433587890625,-0.9497113823890686,-0.5665727257728577,-0.6044656038284302
1783169723099536000,5.443535888671875,-0.8781400918960571,-0.6289882659912109,-0.7405996918678284
1783169723109484800,5.45348486328125,-0.7405577301979065,-0.5988253355026245,-0.8114237785339355
1783169723119464000,5.4634638671875,-0.5703770518302917,-0.4859963655471802,-0.7967425584793091
1783169723129412900,5.473412841796875,-0.425302118062973,-0.3648054897785187,-0.6990668177604675
1783169723139362000,5.483362060546875,-0.33444443345069885,-0.2748306095600128,-0.5355203151702881
1783169723149310000,5.49331005859375,-0.2955164611339569,-0.24314671754837036,-0.321275919675827
1783169723159290000,5.5032900390625,-0.29413849115371704,-0.2688315808773041,-0.10395950824022293
1783169723169238000,5.513238037109375,-0.31194889545440674,-0.32821688055992126,0.07871389389038086
1783169723179187000,5.52318701171875,-0.32131704688072205,-0.36908984184265137,0.20457574725151062
1783169723189166000,5.533166015625,-0.3152320086956024,-0.3628321886062622,0.2727380394935608
1783169723199115000,5.543114990234375,-0.2989848852157593,-0.3281537890434265,0.29931285977363586
1783169723209064000,5.55306396484375,-0.2843888998031616,-0.27114617824554443,0.28859445452690125
1783169723219012900,5.563012939453125,-0.27499520778656006,-0.19728203117847443,0.27408069372177124
1783169723228992000,5.572991943359375,-0.28708595037460327,-0.121029332280159,0.2578977346420288
1783169723238941000,5.58294091796875,-0.33196932077407837,-0.06229519098997116,0.24950605630874634
1783169723248889000,5.59288916015625,-0.39594748616218567,-0.04549543559551239,0.23997408151626587
1783169723258869000,5.602868896484375,-0.45253342390060425,-0.05476537346839905,0.22535154223442078
1783169723268817000,5.61281689453125,-0.4941391944885254,-0.07343999296426773,0.19114084541797638
1783169723278765800,5.622765869140625,-0.525879979133606,-0.09664716571569443,0.14611901342868805
1783169723288715000,5.632715087890625,-0.5357525944709778,-0.07836030423641205,0.11749403178691864
1783169723298694000,5.64269384765625,-0.5416690111160278,-0.02383860945701599,0.10998357832431793
1783169723308643000,5.65264306640625,-0.5468690991401672,0.022056978195905685,0.1230570375919342
1783169723318591000,5.662591064453125,-0.5521430373191833,0.0389103963971138,0.12949050962924957
1783169723328571100,5.672571044921875,-0.5502012968063354,0.05991767346858978,0.13216964900493622
1783169723338519000,5.68251904296875,-0.5461760759353638,0.0680064707994461,0.10325770825147629
1783169723348468000,5.692468017578125,-0.5408470630645752,0.0307144857943058,0.0321156270802021
1783169723358417200,5.702417236328125,-0.5312283635139465,-0.05688045173883438,-0.07513487339019775
1783169723368418300,5.712418212890625,-0.5101891160011292,-0.1824311912059784,-0.2047533094882965
1783169723378367200,5.7223671875,-0.49434593319892883,-0.2716670334339142,-0.32705360651016235
1783169723388316200,5.732316162109375,-0.4690070152282715,-0.32123059034347534,-0.4104646146297455
1783169723398295000,5.742294921875,-0.4399392008781433,-0.32637450098991394,-0.413688987493515
1783169723408244200,5.752244140625,-0.4310506284236908,-0.31515833735466003,-0.3529907464981079
1783169723418192100,5.762192138671875,-0.42634350061416626,-0.2944590747356415,-0.2523297965526581
1783169723428141000,5.77214111328125,-0.401699423789978,-0.24913980066776276,-0.13325506448745728
1783169723438120200,5.7821201171875,-0.350363165140152,-0.21344278752803802,-0.010996689088642597
1783169723448069000,5.792069091796875,-0.28572213649749756,-0.21826285123825073,0.09411054849624634
1783169723458018000,5.80201806640625,-0.1550004929304123,-0.21690486371517181,0.1523347944021225
1783169723467997200,5.8119970703125,-0.0412164069712162,-0.1849575787782669,0.18666373193264008
1783169723477946000,5.821946044921875,0.04338109493255615,-0.21177509427070618,0.23983007669448853
1783169723487894000,5.83189404296875,0.022791126742959023,-0.21422573924064636,0.2981080412864685
1783169723497843000,5.841843017578125,-0.029842527583241463,-0.22965194284915924,0.34252506494522095
1783169723507822000,5.851822021484375,-0.05902065336704254,-0.2429988980293274,0.3678317368030548
1783169723517771000,5.86177099609375,-0.07056960463523865,-0.2733355164527893,0.36701062321662903
1783169723527720200,5.87172021484375,-0.10545408725738525,-0.29870930314064026,0.33881068229675293
1783169723537699300,5.88169921875,-0.17211125791072845,-0.25328418612480164,0.29794901609420776
1783169723547648300,5.891648193359375,-0.26470431685447693,-0.19026073813438416,0.23274418711662292
1783169723557597200,5.90159716796875,-0.3432198762893677,-0.20912791788578033,0.13628557324409485
1783169723567545000,5.911545166015625,-0.3882075846195221,-0.27059951424598694,-0.0002214033156633377
1783169723577525200,5.921525146484375,-0.3993571996688843,-0.33054834604263306,-0.1612587720155716
1783169723587473200,5.93147314453125,-0.36163538694381714,-0.24935229122638702,-0.3313223719596863
1783169723597422000,5.941422119140625,-0.3048183023929596,-0.11578637361526489,-0.4504655599594116
1783169723607401200,5.951401123046875,-0.26567384600639343,0.0043528140522539616,-0.5208310484886169
1783169723617350100,5.96135009765625,-0.2387584149837494,0.14354753494262695,-0.5144431591033936
1783169723627299000,5.971299072265625,-0.22540079057216644,0.31489133834838867,-0.4342782497406006
1783169723637247000,5.9812470703125,-0.19395151734352112,0.4919813275337219,-0.29625633358955383
1783169723647227100,5.99122705078125,-0.14275172352790833,0.5730498433113098,-0.1454513818025589
1783169723657175000,6.001175048828125,-0.10764265060424805,0.45377108454704285,-0.04729811102151871
1783169723667124000,6.0111240234375,-0.09322909265756607,0.17806442081928253,-0.03385953605175018
1783169723677103000,6.02110302734375,-0.0862218365073204,-0.17333142459392548,-0.10868588835000992
1783169723687052000,6.031052001953125,-0.09547232836484909,-0.57589191198349,-0.2805825471878052
1783169723697001200,6.041001220703125,-0.11159949004650116,-0.8567876219749451,-0.5202600955963135
1783169723706950100,6.0509501953125,-0.11390551924705505,-0.8062134385108948,-0.7369500994682312
1783169723716929300,6.06092919921875,-0.10072353482246399,-0.44287633895874023,-0.8680774569511414
1783169723726878200,6.070878173828125,-0.0650733932852745,0.08233683556318283,-0.8672220706939697
1783169723736826000,6.080826171875,-0.0137857710942626,0.5541105270385742,-0.7285691499710083
1783169723746806300,6.09080615234375,0.02265825681388378,0.812886655330658,-0.5095116496086121
1783169723756754200,6.100754150390625,0.0387117974460125,0.7784669995307922,-0.28265732526779175
1783169723766703000,6.110703125,0.04559047147631645,0.5107498168945312,-0.09620250016450882
1783169723776682200,6.12068212890625,0.06718474626541138,0.1520211398601532,0.04138495773077011
1783169723786631200,6.130631103515625,0.11750278621912003,-0.20298755168914795,0.14503492414951324
1783169723796580000,6.140580078125,0.18661706149578094,-0.4175804555416107,0.19883017241954803
1783169723806528000,6.150528076171875,0.2516477406024933,-0.4670473337173462,0.1957494169473648
1783169723816508200,6.160508056640625,0.3112504184246063,-0.4390217065811157,0.14607608318328857
1783169723826456000,6.1704560546875,0.36564627289772034,-0.34872668981552124,0.07694174349308014
1783169723836405000,6.180405029296875,0.4028964638710022,-0.23533913493156433,0.0039983331225812435
1783169723846384000,6.190384033203125,0.3981208801269531,-0.133039653301239,-0.0506417416036129
1783169723856333000,6.2003330078125,0.3531430661678314,-0.06815493851900101,-0.07535957545042038
1783169723866282200,6.2102822265625,0.2855725586414337,-0.048716261982917786,-0.07493054121732712
1783169723876231200,6.220231201171875,0.2126830518245697,-0.053059760481119156,-0.05645190179347992
1783169723886210300,6.230210205078125,0.15332864224910736,-0.051309529691934586,-0.0391852967441082
1783169723896159200,6.2401591796875,0.11743772774934769,-0.04004700481891632,-0.032070159912109375
1783169723906107100,6.250107177734375,0.10139244049787521,-0.01296558603644371,-0.04336409270763397
1783169723916087000,6.260087158203125,0.11762018501758575,0.009174052625894547,-0.05838721990585327
1783169723926035200,6.27003515625,0.15637077391147614,0.004134287592023611,-0.06413672119379044
1783169723935984000,6.279984130859375,0.20956814289093018,-0.014001017436385155,-0.053720101714134216
1783169723945933000,6.28993310546875,0.26653769612312317,-0.03474624454975128,-0.03972066193819046
1783169723955912200,6.299912109375,0.3161082863807678,-0.0634743720293045,-0.01966056227684021
1783169723965861000,6.309861083984375,0.3468368649482727,-0.09507597237825394,0.00783550925552845
1783169723975809000,6.31980908203125,0.3549896776676178,-0.11336475610733032,0.03730542212724686
1783169723985789200,6.3297890625,0.33666524291038513,-0.13890980184078217,0.05272352695465088
1783169723995737000,6.339737060546875,0.3103799521923065,-0.1657406985759735,0.05044502764940262
1783169724005686000,6.34968603515625,0.2800569236278534,-0.18043603003025055,0.03161754459142685
1783169724015635000,6.359635009765625,0.24957850575447083,-0.16883228719234467,-0.007949710823595524
1783169724025614000,6.369614013671875,0.22506892681121826,-0.1023629829287529,-0.03738802671432495
1783169724035563000,6.37956298828125,0.19708213210105896,-0.01877010427415371,-0.050219833850860596
1783169724045512200,6.38951220703125,0.17214082181453705,0.03701885789632797,-0.04122793674468994
1783169724055491300,6.3994912109375,0.16158713400363922,0.06094107776880264,-0.015928953886032104
1783169724065440300,6.409440185546875,0.1563044935464859,0.051631465554237366,0.023245081305503845
1783169724075388200,6.41938818359375,0.1589222550392151,0.019129283726215363,0.0639382004737854
1783169724085337000,6.429337158203125,0.14704668521881104,0.0010592034086585045,0.10407629609107971
1783169724095316200,6.439316162109375,0.11719460785388947,-0.002025870606303215,0.14347559213638306
1783169724105265200,6.44926513671875,0.07364260405302048,0.011332012712955475,0.1784985512495041
1783169724115214000,6.459214111328125,0.020421037450432777,0.019586628302931786,0.2116652876138687
1783169724125193200,6.469193115234375,-0.023415660485625267,0.0489618256688118,0.23831845819950104
1783169724135142100,6.47914208984375,-0.04072368144989014,0.0717833936214447,0.25602394342422485
1783169724145090000,6.489090087890625,-0.0286430511623621,0.07512299716472626,0.2615966200828552
1783169724155039000,6.4990390625,0.004600685089826584,0.05378972366452217,0.2586088180541992
1783169724165018000,6.50901806640625,0.03714344650506973,0.008607067167758942,0.24805739521980286
1783169724174967000,6.518967041015625,0.059888146817684174,-0.06008809059858322,0.217026486992836
1783169724184916000,6.528916015625,0.06416384875774384,-0.1323755979537964,0.16813696920871735
1783169724194895000,6.53889501953125,0.049077268689870834,-0.1789225935935974,0.11395704746246338
1783169724204844000,6.548843994140625,0.03467755764722824,-0.15851852297782898,0.0786115750670433
1783169724214793200,6.558793212890625,0.025695959106087685,-0.06957627087831497,0.09031674265861511
1783169724224741000,6.5687412109375,0.003239387646317482,0.025600844994187355,0.12852618098258972
1783169724234721300,6.57872119140625,-0.041799671947956085,0.049520235508680344,0.16124582290649414
1783169724244669200,6.588669189453125,-0.10166008025407791,0.019629979506134987,0.14049340784549713
1783169724254618000,6.5986181640625,-0.16706161201000214,-0.047801628708839417,0.061898455023765564
1783169724264597200,6.60859716796875,-0.24291829764842987,-0.15577203035354614,-0.0879397764801979
1783169724274546200,6.618546142578125,-0.32021933794021606,-0.2543424069881439,-0.27627241611480713
1783169724284495000,6.6284951171875,-0.39171749353408813,-0.3115098178386688,-0.4736344814300537
1783169724294443000,6.638443115234375,-0.4281059205532074,-0.3221970498561859,-0.6364820599555969
1783169724304423200,6.648423095703125,-0.413190633058548,-0.27963733673095703,-0.7203236818313599
1783169724314371000,6.65837109375,-0.3557779788970947,-0.1371680349111557,-0.6996228098869324
1783169724324320000,6.668320068359375,-0.2709174156188965,0.07093111425638199,-0.5600372552871704
1783169724334299100,6.678299072265625,-0.17865529656410217,0.26522621512413025,-0.3154911994934082
1783169724344248000,6.688248046875,-0.116522416472435,0.36550143361091614,-0.014169702306389809
1783169724354197000,6.698197021484375,-0.08638040721416473,0.33373165130615234,0.28243476152420044
1783169724364146000,6.70814599609375,-0.09029019623994827,0.13881143927574158,0.5261630415916443
1783169724374172700,6.718172607421875,-0.12007652968168259,-0.1364595741033554,0.6847801208496094
1783169724384121600,6.72812158203125,-0.1725059151649475,-0.3671865463256836,0.7424697875976562
1783169724394069800,6.73806982421875,-0.24428847432136536,-0.5096725821495056,0.686457633972168
1783169724404049700,6.748049560546875,-0.3074708878993988,-0.5427597165107727,0.5386351943016052
1783169724413997600,6.75799755859375,-0.35607433319091797,-0.4754665195941925,0.3410831689834595
1783169724423946500,6.767946533203125,-0.3839839994907379,-0.32652950286865234,0.11753608286380768
1783169724433925600,6.777925537109375,-0.3916860520839691,-0.13400056958198547,-0.09522111713886261
1783169724443874600,6.78787451171875,-0.39278221130371094,0.052938688546419144,-0.26974231004714966
1783169724453823700,6.79782373046875,-0.4051382541656494,0.19278505444526672,-0.38826262950897217
1783169724463772700,6.807772705078125,-0.4261937141418457,0.22596776485443115,-0.4362786114215851
1783169724473751800,6.817751708984375,-0.45204445719718933,0.17887239158153534,-0.4185243248939514
1783169724483699700,6.82769970703125,-0.4742475152015686,0.10548951476812363,-0.33389171957969666
1783169724493648600,6.837648681640625,-0.48743635416030884,0.020050104707479477,-0.21595919132232666
1783169724503627800,6.847627685546875,-0.4906441569328308,-0.06406903266906738,-0.09452276676893234
1783169724513576700,6.85757666015625,-0.47245389223098755,-0.11100520938634872,0.012370029464364052
1783169724523525600,6.867525634765625,-0.44392186403274536,-0.10358111560344696,0.09986259043216705
1783169724533474600,6.877474609375,-0.41474834084510803,-0.06428474932909012,0.1566300392150879
1783169724543453700,6.88745361328125,-0.3802662789821625,-0.034594230353832245,0.17944614589214325
1783169724553402600,6.897402587890625,-0.3392326831817627,-0.012286962009966373,0.18232929706573486
1783169724563350800,6.907350830078125,-0.29770442843437195,0.007799664046615362,0.17073096334934235
1783169724573330700,6.91733056640625,-0.2537683844566345,0.031086917966604233,0.1605837643146515
1783169724583278600,6.927278564453125,-0.22384965419769287,0.046441107988357544,0.1530643254518509
1783169724593227500,6.9372275390625,-0.20421721041202545,0.061930958181619644,0.14733214676380157
1783169724603176700,6.9471767578125,-0.18785874545574188,0.0624430812895298,0.15036016702651978
1783169724613155600,6.957155517578125,-0.17579440772533417,0.03529701009392738,0.16248974204063416
1783169724623104800,6.967104736328125,-0.17256399989128113,-0.040397483855485916,0.18612051010131836
1783169724633053700,6.9770537109375,-0.1877472698688507,-0.14053112268447876,0.21238230168819427
1783169724643032800,6.98703271484375,-0.21792328357696533,-0.21993300318717957,0.23764878511428833
1783169724652980700,6.996980712890625,-0.2572261393070221,-0.2507787048816681,0.258104145526886
1783169724662929700,7.0069296875,-0.29206961393356323,-0.22577162086963654,0.26187705993652344
1783169724672878800,7.01687890625,-0.3079330623149872,-0.1444014459848404,0.24685505032539368
1783169724682857700,7.026857666015625,-0.30662092566490173,-0.046881016343832016,0.21191677451133728
1783169724692806700,7.036806640625,-0.293927937746048,0.04953025281429291,0.15520335733890533
1783169724702755600,7.046755615234375,-0.2806486189365387,0.16515378654003143,0.09073542803525925
1783169724712734700,7.056734619140625,-0.26232588291168213,0.2730453908443451,0.039473243057727814
1783169724722683600,7.06668359375,-0.2403089851140976,0.3513079583644867,0.012506075203418732
1783169724732631800,7.0766318359375,-0.22396351397037506,0.37520527839660645,0.0032987906597554684
1783169724742580700,7.086580810546875,-0.2032017707824707,0.3363140821456909,0.021461814641952515
1783169724752559600,7.0965595703125,-0.1897430717945099,0.23262377083301544,0.06687990576028824
1783169724762508500,7.106508544921875,-0.16978241503238678,0.11518768221139908,0.1321992576122284
1783169724772457500,7.11645751953125,-0.1406216025352478,0.030448807403445244,0.20884184539318085
1783169724782436600,7.1264365234375,-0.11123228073120117,-0.00038474006578326225,0.26888173818588257
1783169724792385500,7.136385498046875,-0.08570867776870728,-0.01644827052950859,0.29787930846214294
1783169724802334700,7.146334716796875,-0.05929171293973923,-0.03986571356654167,0.28533023595809937
1783169724812283000,7.156282958984375,-0.040422406047582626,-0.004915745463222265,0.26915526390075684
1783169724822261800,7.16626171875,-0.03221907094120979,0.13529542088508606,0.2849150598049164
1783169724832210700,7.176210693359375,-0.04160124063491821,0.2809008061885834,0.34351155161857605
1783169724842159900,7.186159912109375,-0.07594083249568939,0.25058576464653015,0.4003947973251343
1783169724852138800,7.196138671875,-0.12289267778396606,0.029194742441177368,0.41183412075042725
1783169724862087700,7.206087646484375,-0.16800954937934875,-0.3491118252277374,0.3581407964229584
1783169724872036600,7.21603662109375,-0.2138340175151825,-0.8230237364768982,0.20022305846214294
1783169724881984800,7.22598486328125,-0.24583616852760315,-1.2575565576553345,-0.04089075326919556
1783169724891964700,7.235964599609375,-0.25992241501808167,-1.4493601322174072,-0.2828831374645233
1783169724901912600,7.24591259765625,-0.25519290566444397,-1.2784712314605713,-0.4512583017349243
1783169724911861800,7.25586181640625,-0.23994357883930206,-0.7710011005401611,-0.4959707260131836
1783169724921840600,7.265840576171875,-0.1998307704925537,-0.02162192575633526,-0.4220898449420929
1783169724931789600,7.27578955078125,-0.1460215300321579,0.6951699256896973,-0.27539190649986267
1783169724941738500,7.285738525390625,-0.09802790731191635,1.0665247440338135,-0.11432446539402008
1783169724951687700,7.295687744140625,-0.045186661183834076,1.1532443761825562,0.03827226907014847
1783169724961666600,7.30566650390625,0.007272552698850632,1.0535939931869507,0.16686460375785828
1783169724971615700,7.31561572265625,0.05756974220275879,0.7623662352561951,0.25341057777404785
1783169724981564000,7.32556396484375,0.1029537245631218,0.34984415769577026,0.30180901288986206
1783169724991542500,7.33554248046875,0.1661675125360489,-0.045537449419498444,0.3291322886943817
1783169725001491700,7.34549169921875,0.22971026599407196,-0.2897743284702301,0.33706265687942505
1783169725011440600,7.355440673828125,0.26177433133125305,-0.37066829204559326,0.3080006539821625
1783169725021389800,7.365389892578125,0.258859783411026,-0.3177986741065979,0.24115560948848724
1783169725031368700,7.37536865234375,0.22438064217567444,-0.1903075873851776,0.14679154753684998
1783169725041317600,7.385317626953125,0.17127665877342224,-0.06115493178367615,0.03504983335733414
1783169725051265800,7.395265869140625,0.10986176878213882,0.027152298018336296,-0.07459330558776855
1783169725061245700,7.40524560546875,0.04982387647032738,0.05966178700327873,-0.15267236530780792
1783169725071193600,7.415193603515625,0.0015030838549137115,0.05623661354184151,-0.18549290299415588
1783169725081142800,7.425142822265625,-0.03196379542350769,0.04187045618891716,-0.17077228426933289
1783169725091091700,7.435091796875,-0.03861304745078087,-0.001980201806873083,-0.127441868185997
1783169725101070600,7.445070556640625,-0.017351433634757996,-0.046282682567834854,-0.06700914353132248
1783169725111019500,7.45501953125,0.032342325896024704,-0.04966665804386139,-0.0029929140582680702
1783169725120968700,7.46496875,0.08719944953918457,-0.016480209305882454,0.07127199321985245
1783169725130947600,7.474947509765625,0.14504781365394592,0.03776813670992851,0.14815716445446014
1783169725140896800,7.484896728515625,0.19806602597236633,0.08751171827316284,0.22734732925891876
1783169725150844700,7.4948447265625,0.24207371473312378,0.08876658231019974,0.28975266218185425
1783169725160824800,7.504824951171875,0.2680763006210327,0.051032789051532745,0.3345651626586914
1783169725170772700,7.514772705078125,0.283224493265152,-0.017258550971746445,0.3465707004070282
1783169725180721700,7.5247216796875,0.29155752062797546,-0.10654634982347488,0.32881808280944824
1783169725190670800,7.5346708984375,0.2956436276435852,-0.16201390326023102,0.28320130705833435
1783169725200649700,7.544649658203125,0.30352896451950073,-0.1663585752248764,0.21919411420822144
1783169725210598700,7.5545986328125,0.3072108030319214,-0.12501150369644165,0.1597885936498642
1783169725220546800,7.564546875,0.30509305000305176,-0.05636320263147354,0.11252894252538681
1783169725230526700,7.574526611328125,0.28288155794143677,0.01765623316168785,0.0852450281381607
1783169725240474600,7.584474609375,0.2479398101568222,0.060229793190956116,0.06937258690595627
1783169725250423600,7.594423583984375,0.2209353893995285,0.060774121433496475,0.06542155146598816
1783169725260372700,7.604372802734375,0.20732450485229492,0.045671332627534866,0.08347831666469574
1783169725270351600,7.6143515625,0.20877477526664734,0.03178463876247406,0.11338701844215393
1783169725280300500,7.624300537109375,0.2256709337234497,0.02358795888721943,0.15075889229774475
1783169725290249500,7.63424951171875,0.25214144587516785,0.028321241959929466,0.19882574677467346
1783169725300228600,7.644228515625,0.28101834654808044,0.034388456493616104,0.2552107274532318
1783169725310177800,7.654177734375,0.2911838889122009,-0.0026238085702061653,0.30125439167022705
1783169725320125700,7.664125732421875,0.28855136036872864,-0.033526599407196045,0.32086271047592163
1783169725330075000,7.674074951171875,0.27660149335861206,-0.05468158423900604,0.3166585862636566
1783169725340053800,7.6840537109375,0.25499045848846436,-0.0744430422782898,0.28136664628982544
1783169725350002700,7.694002685546875,0.22738799452781677,-0.07972239702939987,0.22358089685440063
1783169725359951600,7.70395166015625,0.19110217690467834,-0.1161712184548378,0.12875506281852722
1783169725369960200,7.713960205078125,0.15936727821826935,-0.1843210756778717,0.0011789542622864246
1783169725379909400,7.723909423828125,0.1446290761232376,-0.2282581627368927,-0.13814032077789307
1783169725389857300,7.733857177734375,0.14890488982200623,-0.21226249635219574,-0.24245211482048035
1783169725399806200,7.74380615234375,0.1510617882013321,-0.1329367756843567,-0.29485780000686646
1783169725409785300,7.753785400390625,0.13953977823257446,-0.039326999336481094,-0.2891434133052826
1783169725419734300,7.763734375,0.12411928176879883,0.024793926626443863,-0.2331608086824417
1783169725429683200,7.77368310546875,0.10897774994373322,0.08334438502788544,-0.13191542029380798
1783169725439662300,7.783662353515625,0.09189969301223755,0.12869934737682343,-0.007123949006199837
1783169725449611300,7.793611328125,0.08287597447633743,0.19511136412620544,0.14315183460712433
1783169725459560200,7.803560302734375,0.05294150859117508,0.22284366190433502,0.277050256729126
1783169725469508000,7.813508056640625,-0.035887982696294785,0.11495381593704224,0.33960068225860596
1783169725479488300,7.82348828125,-0.15697525441646576,-0.05580195039510727,0.3044394850730896
1783169725489436200,7.833436279296875,-0.2677971124649048,-0.1901102066040039,0.1666448563337326
1783169725499385000,7.843385009765625,-0.3555682301521301,-0.26160648465156555,-0.05187336355447769
1783169725509364200,7.8533642578125,-0.40822693705558777,-0.22893303632736206,-0.2926875352859497
1783169725519313400,7.8633134765625,-0.40745407342910767,-0.05569680780172348,-0.48266759514808655
1783169725529262300,7.873262451171875,-0.3670007586479187,0.18750640749931335,-0.5849441885948181
1783169725539210200,7.883210205078125,-0.28598901629447937,0.37994295358657837,-0.5712374448776245
1783169725549190400,7.8931904296875,-0.20467765629291534,0.45479974150657654,-0.4496382474899292
1783169725559138300,7.90313818359375,-0.15917567908763885,0.4107939302921295,-0.2557196617126465
1783169725569087200,7.913087158203125,-0.1578446328639984,0.26258039474487305,-0.027505651116371155
1783169725579066400,7.92306640625,-0.1922987550497055,0.04801458120346069,0.1707877218723297
1783169725589015300,7.933015380859375,-0.23547765612602234,-0.16082732379436493,0.2881225645542145
1783169725598964200,7.942964111328125,-0.26892322301864624,-0.30829665064811707,0.3156055808067322
1783169725608913200,7.9529130859375,-0.2766137719154358,-0.37119171023368835,0.2598952353000641
1783169725618892300,7.962892333984375,-0.2669459581375122,-0.34201836585998535,0.14745204150676727
1783169725628841200,7.97284130859375,-0.23503488302230835,-0.23247960209846497,-0.003608859144151211
1783169725638789000,7.9827890625,-0.1731182485818863,-0.08815944939851761,-0.1675860732793808
1783169725648769000,7.99276904296875,-0.08991502225399017,0.03670753538608551,-0.3099856376647949
1783169725658717200,8.00271728515625,0.01443454995751381,0.1273929625749588,-0.39012598991394043
1783169725668666000,8.012666015625,0.09797488152980804,0.19826342165470123,-0.38376522064208984
1783169725678615300,8.022615234375,0.13513238728046417,0.18830186128616333,-0.3111799657344818
1783169725688594400,8.032594482421874,0.13226988911628723,0.10539853572845459,-0.18954063951969147
1783169725698543400,8.04254345703125,0.09308147430419922,-0.011981889605522156,-0.046915583312511444
1783169725708491300,8.0524912109375,0.023652175441384315,-0.13245251774787903,0.09212300926446915
1783169725718471200,8.06247119140625,-0.06132769584655762,-0.22466525435447693,0.19834399223327637
1783169725728419300,8.07241943359375,-0.14213532209396362,-0.2698080241680145,0.2604757845401764
1783169725738368300,8.0823681640625,-0.19715969264507294,-0.24861377477645874,0.2851734161376953
1783169725748347400,8.092347412109374,-0.22428718209266663,-0.17979982495307922,0.3069268763065338
1783169725758296300,8.10229638671875,-0.22813570499420166,-0.04637704789638519,0.32919490337371826
1783169725768245200,8.112245361328124,-0.21451163291931152,0.11370398104190826,0.3624594211578369
1783169725778194200,8.122194091796874,-0.19468732178211212,0.2634021043777466,0.38799458742141724
1783169725788173300,8.13217333984375,-0.1824348121881485,0.3523420989513397,0.39500245451927185
1783169725798122200,8.142122314453125,-0.18395040929317474,0.36375692486763,0.374146431684494
1783169725808070100,8.152070068359375,-0.2095007598400116,0.2984148859977722,0.32734906673431396
1783169725818050000,8.162050048828124,-0.23581412434577942,0.18943141400814056,0.2656433582305908
1783169725827998200,8.171998291015624,-0.26209139823913574,0.06742676347494125,0.19800709187984467
1783169725837947100,8.181947021484374,-0.2784520089626312,-0.03894495218992233,0.13455434143543243
1783169725847896300,8.191896240234374,-0.2941931486129761,-0.10860973596572876,0.06007930636405945
1783169725857875500,8.20187548828125,-0.30113813281059265,-0.17201374471187592,-0.027442287653684616
1783169725867824400,8.211824462890625,-0.2892862856388092,-0.18811950087547302,-0.13143762946128845
1783169725877772300,8.221772216796875,-0.25827324390411377,-0.10927022248506546,-0.2198745608329773
1783169725887752200,8.231752197265624,-0.22222228348255157,0.02552618458867073,-0.29652249813079834
1783169725897700400,8.241700439453124,-0.1928257793188095,0.17061786353588104,-0.3577512204647064
1783169725907649300,8.251649169921874,-0.16339106857776642,0.2759459912776947,-0.3954291045665741
1783169725917598200,8.26159814453125,-0.13207174837589264,0.3327954411506653,-0.3988935947418213
1783169725927577300,8.271577392578125,-0.09216335415840149,0.34336844086647034,-0.36097657680511475
1783169725937526300,8.2815263671875,-0.044313278049230576,0.31284409761428833,-0.286805123090744
1783169725947475200,8.29147509765625,0.011411644518375397,0.21997299790382385,-0.19184240698814392
1783169725957454000,8.3014541015625,0.06884618103504181,0.0921279564499855,-0.08906569331884384
1783169725967403300,8.3114033203125,0.12791535258293152,-0.00959916040301323,0.0179172120988369
1783169725977351200,8.32135107421875,0.17673510313034058,-0.06353136897087097,0.10946603864431381
1783169725987300000,8.331300048828124,0.2179773449897766,-0.05407634750008583,0.17739209532737732
1783169725997279200,8.341279296875,0.24844014644622803,-0.011617569252848625,0.21784789860248566
1783169726007228200,8.351228271484375,0.271483451128006,0.021496091037988663,0.24248027801513672
1783169726017177300,8.36117724609375,0.285946786403656,0.03413359075784683,0.269207239151001
1783169726027156500,8.371156494140624,0.3004913926124573,0.0667613074183464,0.3047093152999878
1783169726037105400,8.38110546875,0.3188493549823761,0.1737745851278305,0.35313278436660767
1783169726047053300,8.39105322265625,0.3244386613368988,0.2285747081041336,0.39917266368865967
1783169726057002200,8.401002197265624,0.31835225224494934,0.12277265638113022,0.3984315097332001
1783169726066981400,8.4109814453125,0.3068532943725586,-0.1734348088502884,0.29316264390945435
1783169726076930300,8.420930419921875,0.30493447184562683,-0.5541683435440063,0.07025551050901413
1783169726086879200,8.430879150390625,0.32574108242988586,-0.8243567943572998,-0.208987295627594
1783169726096858400,8.4408583984375,0.34770098328590393,-0.8347668647766113,-0.45602694153785706
1783169726106807300,8.450807373046874,0.34763893485069275,-0.5409842133522034,-0.6113446354866028
1783169726116756200,8.460756103515624,0.31652867794036865,-0.03171568736433983,-0.6514619588851929
1783169726126704000,8.4707041015625,0.2575931251049042,0.5404597520828247,-0.5826693177223206
1783169726136684300,8.480684326171875,0.19370920956134796,0.9591896533966064,-0.4227653741836548
1783169726146632200,8.490632080078125,0.14898455142974854,1.1362684965133667,-0.20775212347507477
1783169726156581000,8.5005810546875,0.12482701241970062,1.1266206502914429,0.017151564359664917
1783169726166560300,8.510560302734374,0.12521770596504211,0.9322206377983093,0.201906219124794
1783169726176509200,8.52050927734375,0.158773273229599,0.5812828540802002,0.3255368173122406
1783169726186458400,8.530458251953124,0.22651609778404236,0.1713108867406845,0.381064772605896
1783169726196406000,8.540406005859374,0.31386351585388184,-0.17002007365226746,0.37461674213409424
1783169726206386400,8.550386474609375,0.39329296350479126,-0.369282066822052,0.2907314598560333
1783169726216334300,8.560334228515625,0.44710132479667664,-0.41061273217201233,0.15143665671348572
1783169726226283300,8.570283203125,0.4738025963306427,-0.33818620443344116,-0.013117673806846142
1783169726236262400,8.580262451171874,0.47270217537879944,-0.20655973255634308,-0.16176733374595642
1783169726246211300,8.59021142578125,0.4321750998497009,-0.04437488317489624,-0.28903743624687195
1783169726256160300,8.60016015625,0.3634125590324402,0.11931870877742767,-0.37766316533088684
1783169726266109200,8.610109130859374,0.28422385454177856,0.2350732982158661,-0.4231797456741333
1783169726276088300,8.62008837890625,0.20416682958602905,0.27894914150238037,-0.43406885862350464
1783169726286037200,8.630037353515625,0.14070622622966766,0.2804652452468872,-0.4170321226119995
1783169726295985200,8.639985107421875,0.10209972411394119,0.2543700039386749,-0.3778226673603058
1783169726305965300,8.64996533203125,0.0991341769695282,0.21190378069877625,-0.3261150121688843
1783169726315913200,8.659913330078124,0.1285080462694168,0.173141747713089,-0.2652077078819275
1783169726325862100,8.669862060546874,0.17728476226329803,0.14122137427330017,-0.20619018375873566
1783169726335841300,8.67984130859375,0.24319320917129517,0.09338781237602234,-0.15052931010723114
1783169726345790200,8.689790283203125,0.3254089951515198,0.04542645812034607,-0.10399723052978516
1783169726355739100,8.6997392578125,0.40700212121009827,0.02514515444636345,-0.07019159942865372
1783169726365687000,8.70968701171875,0.4641604721546173,0.01684265397489071,-0.04202520474791527
1783169726375673000,8.719673095703126,0.4969511926174164,0.0009872578084468842,-0.024755671620368958
1783169726385621000,8.72962109375,0.5098418593406677,-0.0003623315133154392,0.0000061104074120521545
1783169726395570000,8.73956982421875,0.5045826435089111,-0.009516680613160133,0.024910129606723785
1783169726405549000,8.749549072265625,0.4884501099586487,-0.02931671217083931,0.04740080609917641
1783169726415498000,8.759498046875,0.4716452956199646,-0.046494897454977036,0.06377764791250229
1783169726425447200,8.769447265625,0.4592483937740326,-0.06885776668787003,0.059387169778347015
1783169726435396000,8.77939599609375,0.45254257321357727,-0.090247742831707,0.03250442445278168
1783169726445375200,8.789375244140626,0.46365368366241455,-0.11792244017124176,-0.01047421619296074
1783169726455324200,8.79932421875,0.4776619076728821,-0.1661834418773651,-0.07782076299190521
1783169726465272000,8.80927197265625,0.4782416522502899,-0.19810549914836884,-0.14625655114650726
1783169726475252200,8.819252197265625,0.4672950208187103,-0.21798306703567505,-0.20541919767856598
1783169726485200100,8.8292001953125,0.44800370931625366,-0.21068118512630463,-0.23382633924484253
1783169726495149000,8.839149169921875,0.4145655930042267,-0.15516813099384308,-0.22330018877983093
1783169726505098000,8.849097900390625,0.3665548264980316,-0.061015784740448,-0.17095255851745605
1783169726515077000,8.8590771484375,0.30424964427948,0.03151920810341835,-0.09556593745946884
1783169726525026000,8.869026123046876,0.2344127595424652,0.1010853573679924,-0.017238367348909378
1783169726534974200,8.87897412109375,0.16159766912460327,0.13300974667072296,0.04010162129998207
1783169726544954000,8.8889541015625,0.1116815134882927,0.14966684579849243,0.06152621656656265
1783169726554902000,8.898902099609375,0.08016327023506165,0.18838414549827576,0.0520821139216423
1783169726564851000,8.908850830078125,0.06606383621692657,0.21815399825572968,0.014594647102057934
1783169726574800100,8.918800048828125,0.06653494387865067,0.2332940697669983,-0.030662313103675842
1783169726584779000,8.928779052734376,0.068052276968956,0.2224295735359192,-0.06666796654462814
1783169726594728000,8.93872802734375,0.06503118574619293,0.1833612620830536,-0.08351219445466995
1783169726604677000,8.948677001953126,0.06294620037078857,0.11876192688941956,-0.07821117341518402
1783169726614656300,8.95865625,0.06863338500261307,0.056961674243211746,-0.03769757226109505
1783169726624605200,8.968605224609375,0.08189405500888824,0.03944841027259827,0.046375758945941925
1783169726634553000,8.978552978515625,0.08768323808908463,-0.0031059705652296543,0.13768436014652252
1783169726644502300,8.988502197265625,0.07184875011444092,-0.1043006107211113,0.19020403921604156
1783169726654481200,8.998481201171876,0.037246569991111755,-0.21925942599773407,0.17760248482227325
1783169726664430000,9.00843017578125,-0.016876090317964554,-0.36632582545280457,0.06953753530979156
1783169726674379000,9.01837890625,-0.09020037204027176,-0.5419716835021973,-0.1353791356086731
1783169726684358100,9.028358154296875,-0.17318271100521088,-0.6585471034049988,-0.41491782665252686
1783169726694307000,9.03830712890625,-0.23279836773872375,-0.6188305616378784,-0.6934964656829834
1783169726704255200,9.048255126953125,-0.2520040273666382,-0.35423707962036133,-0.8817601203918457
1783169726714204200,9.0582041015625,-0.24114230275154114,0.030476538464426994,-0.9574484825134277
1783169726724183000,9.06818310546875,-0.2058347910642624,0.4294380247592926,-0.8807992339134216
1783169726734132000,9.078132080078126,-0.17655600607395172,0.6841284036636353,-0.6861211061477661
1783169726744081000,9.088080810546876,-0.1569570004940033,0.6982123255729675,-0.4241209030151367
1783169726754060000,9.09806005859375,-0.12401849031448364,0.5496063232421875,-0.1315407156944275
1783169726764009000,9.108009033203125,-0.09200982004404068,0.30562564730644226,0.14670075476169586
1783169726773958100,9.117958251953125,-0.05802255868911743,0.013633990660309792,0.3726302981376648
1783169726783937300,9.127937255859376,-0.007792580872774124,-0.23811808228492737,0.5214589238166809
1783169726793886200,9.13788623046875,0.06334152072668076,-0.39009907841682434,0.5774281620979309
1783169726803834000,9.147834228515626,0.12814517319202423,-0.43987753987312317,0.5391473770141602
1783169726813783300,9.157783203125,0.16947583854198456,-0.40784528851509094,0.4197040796279907
1783169726823762200,9.16776220703125,0.1915929764509201,-0.2932131588459015,0.26637712121009827
1783169726833711000,9.177711181640625,0.18913061916828156,-0.13085779547691345,0.10845457762479782
1783169726843660000,9.187659912109375,0.16595448553562164,0.020925752818584442,-0.018653305247426033
1783169726853639200,9.19763916015625,0.12666672468185425,0.10160994529724121,-0.10463958233594894
1783169726863588000,9.207588134765626,0.08244020491838455,0.1093149483203888,-0.14823926985263824
1783169726873537000,9.217537109375,0.03196798264980316,0.06414560973644257,-0.15106356143951416
1783169726883485200,9.227485107421876,-0.03564243018627167,-0.021632034331560135,-0.1219344213604927
1783169726893464000,9.237464111328125,-0.10289523005485535,-0.11534148454666138,-0.0848216786980629
1783169726903413000,9.2474130859375,-0.1653256118297577,-0.18573865294456482,-0.049006685614585876
1783169726913362000,9.25736181640625,-0.21002811193466187,-0.24510185420513153,-0.038522087037563324
1783169726923341000,9.267341064453126,-0.2337934523820877,-0.27897587418556213,-0.05760018900036812
1783169726933290000,9.2772900390625,-0.25204887986183167,-0.27409136295318604,-0.10380496084690094
1783169726943239200,9.2872392578125,-0.25357118248939514,-0.25011467933654785,-0.16392846405506134
1783169726953187300,9.297187255859376,-0.23872804641723633,-0.19259920716285706,-0.21997521817684174
1783169726963167200,9.307167236328125,-0.21219123899936676,-0.09701584279537201,-0.2554245889186859
1783169726973115100,9.317115234375,-0.20005173981189728,-0.023279309272766113,-0.2522341012954712
1783169726983064000,9.32706396484375,-0.2032836228609085,-0.004712922032922506,-0.22553245723247528
1783169726993043200,9.337043212890626,-0.21419592201709747,-0.019936082884669304,-0.17379122972488403
1783169727002992000,9.3469921875,-0.22535565495491028,-0.0519283302128315,-0.10187070071697235
1783169727012941000,9.356941162109376,-0.23935988545417786,-0.09149810671806335,-0.028947487473487854
1783169727022890000,9.366889892578126,-0.2532690465450287,-0.1321277767419815,0.03656627610325813
1783169727032869000,9.376869140625,-0.27271464467048645,-0.1682061403989792,0.08047354966402054
1783169727042818000,9.386818115234375,-0.29494720697402954,-0.1913255900144577,0.09668233245611191
1783169727052766200,9.39676611328125,-0.30957862734794617,-0.19154903292655945,0.08749229460954666
1783169727062745000,9.4067451171875,-0.31638795137405396,-0.17036020755767822,0.05994829535484314
1783169727072694000,9.416694091796876,-0.3187624216079712,-0.11147718131542206,0.00893012061715126
1783169727082643000,9.426642822265626,-0.3172742426395416,-0.02837091125547886,-0.058149851858615875
1783169727092592000,9.436592041015626,-0.31261610984802246,0.07078815996646881,-0.12626658380031586
1783169727102571000,9.446571044921875,-0.3056112229824066,0.1599912792444229,-0.18395838141441345
1783169727112520200,9.456520263671875,-0.2975463569164276,0.22718310356140137,-0.22540408372879028
1783169727122468000,9.466468017578125,-0.28095999360084534,0.2768581509590149,-0.239334836602211
1783169727132448300,9.4764482421875,-0.25215044617652893,0.3313935697078705,-0.2243122160434723
1783169727142396200,9.486396240234376,-0.21914143860340118,0.36521029472351074,-0.20124734938144684
1783169727152345000,9.496344970703126,-0.18275998532772064,0.35294538736343384,-0.1764056533575058
1783169727162294300,9.506294189453126,-0.14060892164707184,0.3322793245315552,-0.151750385761261
1783169727172273200,9.516273193359375,-0.10033553838729858,0.3129405081272125,-0.1330336630344391
1783169727182222000,9.52622216796875,-0.07331770658493042,0.30555203557014465,-0.11905956268310547
1783169727192171000,9.5361708984375,-0.05407344549894333,0.3022342622280121,-0.1067967638373375
1783169727202150100,9.546150146484376,-0.024118127301335335,0.32152271270751953,-0.08642010390758514
1783169727212099000,9.55609912109375,0.024640090763568878,0.4262600541114807,-0.04499836266040802
1783169727222047000,9.566046875,0.055589355528354645,0.5362673997879028,0.006461634766310453
1783169727231996200,9.57599609375,0.05614915490150452,0.4687650501728058,0.017319608479738235
1783169727241975000,9.58597509765625,0.0483131930232048,0.19513964653015137,-0.047178950160741806
1783169727251924000,9.595924072265625,0.06290784478187561,-0.13897070288658142,-0.18234823644161224
1783169727261873000,9.605872802734375,0.10521116852760315,-0.34045788645744324,-0.337312787771225
1783169727271852000,9.61585205078125,0.1695592701435089,-0.27246713638305664,-0.4715808629989624
1783169727281801200,9.62580126953125,0.24634569883346558,0.010614901781082153,-0.5572938919067383
1783169727291749000,9.6357490234375,0.3516140878200531,0.3745473027229309,-0.5698352456092834
1783169727301729300,9.645729248046875,0.47671234607696533,0.7185191512107849,-0.4837174117565155
1783169727311677200,9.65567724609375,0.6052594184875488,0.9565498232841492,-0.30290448665618896
1783169727321626000,9.665626220703125,0.7102980613708496,1.043172836303711,-0.03614574670791626
1783169727331575000,9.675574951171875,0.7622541785240173,0.9870828986167908,0.2773626446723938
1783169727341554200,9.68555419921875,0.7455343008041382,0.8460522890090942,0.5865018367767334
1783169727351503000,9.695503173828126,0.6748465895652771,0.6486950516700745,0.8547985553741455
1783169727361452000,9.7054521484375,0.5686243772506714,0.38935935497283936,1.0217106342315674
1783169727371469600,9.715469482421875,0.4591042995452881,0.13147668540477753,1.0512431859970093
1783169727381418500,9.72541845703125,0.37766724824905396,-0.08744902908802032,0.9376478791236877
1783169727391366400,9.735366455078125,0.33600714802742004,-0.23010151088237762,0.7171251177787781
1783169727401315300,9.7453154296875,0.3107108771800995,-0.275907963514328,0.44128552079200745
1783169727411294500,9.75529443359375,0.2815849483013153,-0.22320187091827393,0.15424895286560059
1783169727421243400,9.765243408203125,0.254004567861557,-0.1219969391822815,-0.11021517962217331
1783169727431192300,9.7751923828125,0.21407127380371094,-0.0017869069706648588,-0.30765262246131897
1783169727441171500,9.78517138671875,0.16695433855056763,0.10277310013771057,-0.4147433936595917
1783169727451120400,9.795120361328125,0.12011972069740295,0.20248106122016907,-0.4250365197658539
1783169727461068300,9.805068359375,0.0746816098690033,0.2524113059043884,-0.3520621657371521
1783169727471017500,9.815017578125,0.03392352536320686,0.23166236281394958,-0.22521209716796875
1783169727480996400,9.824996337890624,0.003782864660024643,0.14141926169395447,-0.0905115157365799
1783169727490945300,9.8349453125,-0.0029485411942005157,0.012605614960193634,0.03462110459804535
1783169727500894500,9.84489453125,0.02553943358361721,-0.08809500187635422,0.1274580955505371
1783169727510873600,9.85487353515625,0.09553556144237518,-0.1716735064983368,0.18824900686740875
1783169727520822500,9.864822509765625,0.20931203663349152,-0.17114409804344177,0.21245181560516357
1783169727530771500,9.874771484375,0.3334134817123413,-0.08793842792510986,0.20148783922195435
1783169727540719600,9.8847197265625,0.45828983187675476,-0.003619648050516844,0.1610778123140335
1783169727550699500,9.894699462890625,0.5764321684837341,0.06708328425884247,0.1017356589436531
1783169727560647400,9.9046474609375,0.6625520586967468,0.1122686043381691,0.04666418209671974
1783169727570596400,9.914596435546875,0.699669361114502,0.12067247927188873,0.005503696855157614
1783169727580575500,9.924575439453125,0.68852698802948,0.12240587919950485,-0.0036943303421139717
1783169727590524400,9.9345244140625,0.6455430388450623,0.12054113298654556,0.022670965641736984
1783169727600473300,9.944473388671875,0.5745354294776917,0.08677545189857483,0.0736372098326683
1783169727610421500,9.95442138671875,0.4913085997104645,0.02501615136861801,0.12758192420005798
1783169727620401400,9.9644013671875,0.4188639521598816,-0.03351074829697609,0.1861128956079483
1783169727630349300,9.974349365234374,0.3723057806491852,-0.0641205906867981,0.24165818095207214
1783169727640298200,9.98429833984375,0.3490625023841858,-0.035616301000118256,0.2785024642944336
1783169727650277400,9.99427734375,0.3554524779319763,0.01712174341082573,0.2921469211578369
1783169727660226300,10.004226318359375,0.3819006085395813,0.08862175792455673,0.29473257064819336
1783169727670175500,10.014175537109375,0.4159049093723297,0.1677035242319107,0.2921399772167206
1783169727680124400,10.02412451171875,0.4273665249347687,0.21624134480953217,0.29797443747520447
1783169727690103600,10.034103515625,0.4039708971977234,0.22391976416110992,0.3019199073314667
1783169727700052500,10.044052490234375,0.35966119170188904,0.2144157439470291,0.3043689429759979
1783169727710000600,10.054000732421875,0.30757054686546326,0.2038390040397644,0.29894036054611206
1783169727719980500,10.06398046875,0.25003740191459656,0.16255967319011688,0.2764614224433899
1783169727729928400,10.073928466796875,0.17530538141727448,0.06348662078380585,0.2248125970363617
1783169727739877400,10.08387744140625,0.10267990827560425,-0.05545211210846901,0.1403600424528122
1783169727749856500,10.0938564453125,0.05134507268667221,-0.12770099937915802,0.05111512541770935
1783169727759805400,10.103805419921875,0.01639506407082081,-0.12802207469940186,-0.027520567178726196
1783169727769754400,10.11375439453125,-0.020917687565088272,-0.06810068339109421,-0.09052323549985886
1783169727779702500,10.12370263671875,-0.0522238127887249,-0.0002823839895427227,-0.13030366599559784
1783169727789682400,10.133682373046875,-0.06402188539505005,0.048782628029584885,-0.14641232788562775
1783169727799630300,10.14363037109375,-0.05205501616001129,0.0748741552233696,-0.139533132314682
1783169727809579300,10.153579345703125,-0.013554763980209827,0.10345173627138138,-0.09157679229974747
1783169727819558400,10.163558349609374,0.016630353406071663,0.09402814507484436,-0.025811614468693733
1783169727829507300,10.17350732421875,0.023305563256144524,-0.02651132456958294,0.02282303385436535
1783169727839456500,10.18345654296875,0.005624016746878624,-0.21553383767604828,0.017504163086414337
1783169727849405400,10.193405517578125,-0.03099338337779045,-0.3978692889213562,-0.042611636221408844
1783169727859384600,10.203384521484375,-0.09527246654033661,-0.5179190635681152,-0.153585284948349
1783169727869333500,10.21333349609375,-0.20375926792621613,-0.5576531291007996,-0.29724738001823425
1783169727879281400,10.223281494140625,-0.3254091739654541,-0.48513033986091614,-0.4295809268951416
1783169727889261600,10.233261474609375,-0.4206952154636383,-0.2833503484725952,-0.5145267248153687
1783169727899209500,10.24320947265625,-0.47871842980384827,0.011561965569853783,-0.5261167883872986
1783169727909158400,10.253158447265625,-0.4898184835910797,0.3077342212200165,-0.4736090898513794
1783169727919107300,10.263107421875,-0.47635963559150696,0.4534990191459656,-0.384279727935791
1783169727929086500,10.27308642578125,-0.444975882768631,0.3999577760696411,-0.2871073782444
1783169727939035400,10.283035400390625,-0.39014941453933716,0.2226526290178299,-0.2006601244211197
1783169727948983600,10.292983642578125,-0.30960822105407715,0.001696284394711256,-0.12847168743610382
1783169727958963500,10.30296337890625,-0.20164577662944794,-0.21141347289085388,-0.07651766389608383
1783169727968911400,10.312911376953124,-0.07742609828710556,-0.3426639139652252,-0.042653441429138184
1783169727978860300,10.3228603515625,0.017914198338985443,-0.3839065432548523,-0.04143054038286209
1783169727988809500,10.3328095703125,0.06095806881785393,-0.39802131056785583,-0.08224854618310928
1783169727998788400,10.342788330078125,0.06452691555023193,-0.387551873922348,-0.14763125777244568
1783169728008737300,10.3527373046875,0.03974539786577225,-0.32740890979766846,-0.20294244587421417
1783169728018686500,10.3626865234375,-0.0064114779233932495,-0.230658620595932,-0.23038819432258606
1783169728028665600,10.37266552734375,-0.07462409138679504,-0.13347001373767853,-0.2141743302345276
1783169728038614500,10.382614501953125,-0.15518604218959808,-0.06900715082883835,-0.15750786662101746
1783169728048562400,10.3925625,-0.23236337304115295,-0.04390072450041771,-0.07313279807567596
1783169728058511600,10.40251171875,-0.2946901321411133,-0.08176981657743454,0.006915966048836708
1783169728068490500,10.412490478515625,-0.33110859990119934,-0.15610076487064362,0.04925303906202316
1783169728078439400,10.422439453125,-0.3463446795940399,-0.22228354215621948,0.0496130995452404
1783169728088388400,10.432388427734375,-0.34633588790893555,-0.2574833631515503,0.015645546838641167
1783169728098367500,10.442367431640625,-0.3427242636680603,-0.2523791790008545,-0.03354411572217941
1783169728108316400,10.45231640625,-0.33837398886680603,-0.21240831911563873,-0.08908646553754807
1783169728118264300,10.462264404296874,-0.3351311981678009,-0.1573917716741562,-0.1482190191745758
1783169728128213500,10.472213623046875,-0.31453564763069153,-0.11377239227294922,-0.19259607791900635
1783169728138192400,10.4821923828125,-0.279293030500412,-0.0764448493719101,-0.21085767447948456
1783169728148141300,10.492141357421875,-0.23899568617343903,-0.044238440692424774,-0.19012096524238586
1783169728158090200,10.50209033203125,-0.20521603524684906,-0.016268931329250336,-0.14721500873565674
1783169728168069400,10.5120693359375,-0.17673912644386292,0.01739315688610077,-0.07967884838581085
1783169728178018300,10.522018310546875,-0.15851029753684998,0.032418835908174515,-0.010076059028506279
1783169728187967500,10.531967529296875,-0.1573510318994522,0.024849601089954376,0.056916020810604095
1783169728197946600,10.541946533203125,-0.17242878675460815,0.010173657909035683,0.09006625413894653
1783169728207895600,10.5518955078125,-0.18387079238891602,-0.020002353936433792,0.10044272243976593
1783169728217843500,10.561843505859375,-0.18240022659301758,-0.05011431500315666,0.08602302521467209
1783169728227792400,10.57179248046875,-0.17200592160224915,-0.05835173651576042,0.056649696081876755
1783169728237771500,10.581771484375,-0.1656220257282257,-0.04863959178328514,0.023778840899467468
1783169728247720400,10.591720458984375,-0.17679370939731598,-0.00031546782702207565,-0.015530215576291084
1783169728257669400,10.60166943359375,-0.19755983352661133,0.07556720823049545,-0.06336591392755508
1783169728267648500,10.6116484375,-0.21839401125907898,0.1605129987001419,-0.1106540709733963
1783169728277597400,10.621597412109375,-0.22106914222240448,0.24955785274505615,-0.13812963664531708
1783169728287545300,10.63154541015625,-0.21610607206821442,0.3315046727657318,-0.14365968108177185
1783169728297494500,10.64149462890625,-0.20898084342479706,0.3750205636024475,-0.1359511762857437
1783169728307473400,10.651473388671874,-0.19832660257816315,0.3729768693447113,-0.1219959408044815
1783169728317422300,10.66142236328125,-0.18998512625694275,0.35359132289886475,-0.09979183226823807
1783169728327371300,10.671371337890625,-0.1866987943649292,0.3055915832519531,-0.07898934185504913
1783169728337350400,10.681350341796875,-0.17668770253658295,0.23594172298908234,-0.05491090938448906
1783169728347299300,10.69129931640625,-0.14776922762393951,0.18539012968540192,-0.03121037408709526
1783169728357248500,10.70124853515625,-0.10786021500825882,0.13340145349502563,-0.01363325398415327
1783169728367196700,10.71119677734375,-0.06314174830913544,0.09416243433952332,-0.0001973407343029976
1783169728377201000,10.721200927734374,-0.00701499730348587,0.11162260174751282,0.011724550276994705
1783169728387148800,10.731148681640626,0.0482887402176857,0.24621663987636566,0.03949280083179474
1783169728397097700,10.74109765625,0.083943672478199,0.44904109835624695,0.09453048557043076
1783169728407076900,10.751076904296875,0.10115993767976761,0.6707173585891724,0.17852285504341125
1783169728417026000,10.761026123046875,0.1057266816496849,0.7481365203857422,0.2668229043483734
1783169728426975000,10.77097509765625,0.1098862811923027,0.6163974404335022,0.3244422674179077
1783169728436923100,10.780923095703125,0.11018967628479004,0.3004089295864105,0.31755530834198
1783169728446903000,10.790903076171874,0.08275540173053741,-0.1779712438583374,0.2011653333902359
1783169728456851000,10.800850830078126,0.015373358502984047,-0.6950594186782837,-0.024665962904691696
1783169728466799900,10.8107998046875,-0.02420467510819435,-0.9868811368942261,-0.2863931953907013
1783169728476779000,10.820779052734375,-0.022970888763666153,-0.9671142101287842,-0.500380277633667
1783169728486728000,10.83072802734375,0.003628762438893318,-0.7245718836784363,-0.6227919459342957
1783169728496676900,10.8406767578125,0.055986810475587845,-0.25849446654319763,-0.6293318867683411
1783169728506625800,10.850625732421875,0.12165023386478424,0.31792837381362915,-0.5136796236038208
1783169728516605000,10.86060498046875,0.17557021975517273,0.7626608610153198,-0.3025502562522888
1783169728526553900,10.870553955078124,0.2137913703918457,0.9412609934806824,-0.0361366868019104
1783169728536501800,10.880501708984376,0.22397363185882568,0.8750529289245605,0.21348565816879272
1783169728546482000,10.89048193359375,0.22616037726402283,0.5891655087471008,0.41015610098838806
1783169728556429800,10.900429931640625,0.23772253096103668,0.1996590793132782,0.5412443280220032
1783169728566378800,10.910378662109375,0.2670564651489258,-0.14969997107982635,0.6225114464759827
1783169728576358000,10.92035791015625,0.30292871594429016,-0.33609989285469055,0.6374742388725281
1783169728586307000,10.93030712890625,0.33611994981765747,-0.32685181498527527,0.5825912952423096
1783169728596256000,10.940256103515624,0.3596699833869934,-0.23617427051067352,0.4805503785610199
1783169728606204200,10.9502041015625,0.38581982254981995,-0.12907925248146057,0.3531053364276886
1783169728616184000,10.96018408203125,0.40774011611938477,-0.021130042150616646,0.22551514208316803
1783169728626132000,10.970132080078125,0.41144031286239624,0.07209204882383347,0.11580808460712433
1783169728636081000,10.980080810546875,0.39578554034233093,0.1387857049703598,0.037775568664073944
1783169728646060000,10.99006005859375,0.3524037003517151,0.1615496128797531,-0.017677567899227142
1783169728656009000,11.000009033203124,0.28728967905044556,0.11951815336942673,-0.06455501914024353
1783169728665958000,11.0099580078125,0.20700974762439728,0.037795331329107285,-0.1197756677865982
1783169728675906800,11.01990673828125,0.14049029350280762,-0.03231680765748024,-0.17067083716392517
1783169728685886000,11.029885986328125,0.10069626569747925,-0.06094019487500191,-0.21026776731014252
1783169728695835000,11.0398349609375,0.10142289847135544,-0.041322194039821625,-0.2375824898481369
1783169728705782800,11.04978271484375,0.142297625541687,0.012212936766445637,-0.24078653752803802
1783169728715763000,11.059762939453124,0.21195068955421448,0.06090505048632622,-0.22157685458660126
1783169728725710800,11.0697109375,0.29602909088134766,0.06706386804580688,-0.18566280603408813
1783169728735659800,11.07965966796875,0.3757183253765106,0.031893372535705566,-0.14059892296791077
1783169728745609000,11.08960888671875,0.44351014494895935,-0.02646767348051071,-0.08556284010410309
1783169728755588000,11.099588134765625,0.48744869232177734,-0.08088421821594238,-0.031497471034526825
1783169728765537000,11.109537109375,0.5016526579856873,-0.11860363185405731,0.018249576911330223
1783169728775485000,11.11948486328125,0.48837998509407043,-0.13897037506103516,0.04735098406672478
1783169728785465000,11.129465087890624,0.46918365359306335,-0.14112141728401184,0.05743690952658653
1783169728795413000,11.1394130859375,0.4485207200050354,-0.11997982859611511,0.06278987228870392
1783169728805362000,11.14936181640625,0.419373482465744,-0.11166251450777054,0.06335446238517761
1783169728815310800,11.159310791015624,0.3870839774608612,-0.11124047636985779,0.07080917060375214
1783169728825290000,11.1692900390625,0.35502004623413086,-0.08464934676885605,0.08622514456510544
1783169728835239000,11.179239013671875,0.3182120621204376,-0.044564682990312576,0.10486330091953278
1783169728845187800,11.189187744140625,0.29552966356277466,-0.022667640820145607,0.12130513042211533
1783169728855167000,11.1991669921875,0.29435181617736816,-0.025831177830696106,0.13794322311878204
1783169728865116000,11.209115966796874,0.3112703561782837,-0.02049260586500168,0.16305550932884216
1783169728875063800,11.219063720703126,0.3256172835826874,0.00726324925199151,0.1876407265663147
1783169728885013000,11.229012939453124,0.32907113432884216,0.031040484085679054,0.2169637233018875
1783169728894992000,11.238991943359375,0.31498628854751587,0.05508415028452873,0.24589575827121735
1783169728904940800,11.24894091796875,0.282058984041214,0.06328588724136353,0.27613165974617004
1783169728914890000,11.258889892578125,0.2417413890361786,0.053002890199422836,0.29863643646240234
1783169728924869000,11.268869140625,0.19830389320850372,0.02858649753034115,0.30334436893463135
1783169728934818000,11.278818115234374,0.15158464014530182,0.013203257694840431,0.2826117277145386
1783169728944766000,11.288765869140626,0.11578723788261414,0.003452360164374113,0.24781911075115204
1783169728954746000,11.29874609375,0.09090784192085266,-0.010525494813919067,0.20890015363693237
1783169728964694000,11.308694091796875,0.07421861588954926,-0.01938663050532341,0.1591389775276184
1783169728974643000,11.318642822265625,0.07131339609622955,-0.016080083325505257,0.11528318375349045
1783169728984592000,11.328591796875,0.0814557820558548,0.006484879646450281,0.08253215998411179
1783169728994571000,11.338571044921874,0.09271690249443054,0.06663720309734344,0.06203325465321541
1783169729004520000,11.34852001953125,0.09483358263969421,0.12697245180606842,0.060099001973867416
1783169729014468900,11.35846875,0.0891970843076706,0.15875178575515747,0.08435430377721786
1783169729024448000,11.368447998046875,0.09115450829267502,0.2033354938030243,0.16241979598999023
1783169729034397000,11.37839697265625,0.10499913990497589,0.223709374666214,0.2873404026031494
1783169729044344800,11.3883447265625,0.11034756898880005,0.09893069416284561,0.40875282883644104
1783169729054293800,11.398293701171875,0.09082964807748795,-0.09821237623691559,0.47950372099876404
1783169729064273000,11.40827294921875,0.050802603363990784,-0.26486313343048096,0.46639323234558105
1783169729074221800,11.418221923828124,-0.01225872989743948,-0.41880276799201965,0.3709924519062042
1783169729084171000,11.4281708984375,-0.1284780204296112,-0.6431839466094971,0.17680992186069489
1783169729094150000,11.43814990234375,-0.27571791410446167,-0.8395298719406128,-0.09033922106027603
1783169729104099000,11.44809912109375,-0.39664435386657715,-0.8292916417121887,-0.3640298843383789
1783169729114048000,11.458048095703125,-0.48156172037124634,-0.6242423057556152,-0.5725296139717102
1783169729123996000,11.467995849609375,-0.5002562999725342,-0.29401594400405884,-0.6729494333267212
1783169729133975000,11.47797509765625,-0.47536614537239075,0.06712339073419571,-0.6720670461654663
1783169729143924000,11.487924072265624,-0.41764453053474426,0.3309688866138458,-0.5948231220245361
1783169729153873000,11.497872802734374,-0.3559802770614624,0.4062981605529785,-0.4845922589302063
1783169729163852000,11.50785205078125,-0.28182244300842285,0.3321214020252228,-0.35228216648101807
1783169729173801000,11.517801025390625,-0.2098676562309265,0.17145127058029175,-0.21446062624454498
1783169729183750000,11.52775,-0.1467273086309433,-0.024266306310892105,-0.10032447427511215
1783169729193698000,11.537697998046875,-0.08292334526777267,-0.1946537047624588,-0.02560843899846077
1783169729203678000,11.547677978515624,-0.019617609679698944,-0.2887687683105469,0.009694423526525497
1783169729213625900,11.5576259765625,0.03699824586510658,-0.3019016683101654,0.016498524695634842
1783169729223574800,11.56757470703125,0.0806218832731247,-0.2772570252418518,-0.006481092423200607
1783169729233554000,11.577553955078125,0.10671597719192505,-0.2109302431344986,-0.05099528282880783
1783169729243502800,11.5875029296875,0.10728056728839874,-0.12179717421531677,-0.09554331004619598
1783169729253451800,11.59745166015625,0.07790195941925049,-0.005012484733015299,-0.12699070572853088
1783169729263401000,11.60740087890625,0.029133882373571396,0.13721071183681488,-0.13516926765441895
1783169729273380000,11.617380126953124,-0.038438986986875534,0.26627787947654724,-0.1100921705365181
1783169729283329000,11.6273291015625,-0.10806839168071747,0.3362948000431061,-0.07447159290313721
1783169729293277000,11.63727685546875,-0.16024132072925568,0.34402889013290405,-0.027182109653949738
1783169729303256000,11.647256103515625,-0.19307675957679749,0.2883283197879791,0.008178277872502804
1783169729313205000,11.657205078125,-0.20367245376110077,0.1937430053949356,0.023715458810329437
1783169729323154000,11.66715380859375,-0.20149531960487366,0.09278631210327148,0.02078784629702568
1783169729333102800,11.677102783203125,-0.18812131881713867,0.0312334131449461,0.0010929238051176071
1783169729343082000,11.68708203125,-0.17375701665878296,0.020377837121486664,-0.02909081056714058
1783169729353031000,11.697031005859374,-0.1598692387342453,0.034424830228090286,-0.061537668108940125
1783169729362978800,11.706978759765626,-0.14389534294605255,0.0560893788933754,-0.08429784327745438
1783169729372987000,11.71698681640625,-0.1259535849094391,0.0665259137749672,-0.08447520434856415
1783169729382934800,11.726934814453125,-0.11755797266960144,0.05333022028207779,-0.0670594573020935
1783169729392883700,11.7368837890625,-0.11491894721984863,0.025619713589549065,-0.029002632945775986
1783169729402862800,11.74686279296875,-0.11658182740211487,0.00005097081884741783,0.016725707799196243
1783169729412811800,11.756811767578125,-0.11987613141536713,-0.020419269800186157,0.05495486035943031
1783169729422760700,11.7667607421875,-0.12093713134527206,-0.041717369109392166,0.07132690399885178
1783169729432709600,11.776709716796875,-0.11526960879564285,-0.03361544758081436,0.0703982338309288
1783169729442688800,11.786688720703125,-0.11339953541755676,0.01443676557391882,0.04776163399219513
1783169729452637700,11.7966376953125,-0.11395037919282913,0.07981869578361511,0.008236072957515717
1783169729462585600,11.806585693359375,-0.11170081049203873,0.13436396420001984,-0.04330701380968094
1783169729472564700,11.816564697265624,-0.10012035816907883,0.16743306815624237,-0.1042497456073761
1783169729482513700,11.826513671875,-0.07146874070167542,0.21096162497997284,-0.15885253250598907
1783169729492462600,11.836462646484375,-0.03967248275876045,0.2574799656867981,-0.20063430070877075
1783169729502411500,11.84641162109375,-0.012939671985805035,0.28461170196533203,-0.22710585594177246
1783169729512390700,11.856390625,0.005426332354545593,0.2828681468963623,-0.23362742364406586
1783169729522339600,11.866339599609375,0.01719776913523674,0.25393661856651306,-0.2318529635667801
1783169729532287500,11.87628759765625,0.03488932549953461,0.22152574360370636,-0.2106805443763733
1783169729542268000,11.886267822265625,0.05856749415397644,0.20501068234443665,-0.16320890188217163
1783169729552215600,11.896215576171874,0.07262107729911804,0.20040547847747803,-0.08261554688215256
1783169729562164700,11.906164794921875,0.07909415662288666,0.2085406333208084,0.02188609540462494
1783169729572113700,11.91611376953125,0.08813581615686417,0.25826185941696167,0.11120136082172394
1783169729582092800,11.9260927734375,0.11447474360466003,0.37229496240615845,0.14810052514076233
1783169729592041700,11.936041748046875,0.16092745959758759,0.567219614982605,0.13697277009487152
1783169729601990700,11.94599072265625,0.24135836958885193,0.8545219898223877,0.10816508531570435
1783169729611969800,11.9559697265625,0.3073682188987732,1.2846037149429321,0.1827775239944458
1783169729621918700,11.965918701171875,0.21584230661392212,1.4791313409805298,0.5222610235214233
1783169729631866600,11.97586669921875,0.05937330424785614,1.1423877477645874,0.7335349321365356
1783169729641815600,11.985815673828125,-0.09661629050970078,0.5164666175842285,0.8084496259689331
1783169729651794700,11.995794677734375,-0.17123830318450928,-0.33919018507003784,0.7770065069198608
1783169729661743600,12.00574365234375,-0.12977662682533264,-1.0073357820510864,0.6363998651504517
1783169729671692500,12.015692626953125,-0.051613252609968185,-1.312254548072815,0.37114712595939636
1783169729681671700,12.025671630859375,0.03514987230300903,-1.2348271608352661,0.053276244550943375
1783169729691620600,12.03562060546875,0.14904023706912994,-0.7984539866447449,-0.24338416755199432
1783169729701568500,12.045568603515624,0.1765352487564087,-0.25427138805389404,-0.3886873126029968
1783169729711517700,12.055517578125,0.17607927322387695,0.18613484501838684,-0.36154040694236755
