time,seconds_elapsed,z,y,x
1783169717754216000,0.0982158203125,-0.09367375820875168,-0.11926008015871048,-0.11601075530052185
1783169717764164900,0.108164794921875,-0.07558503746986389,-0.034690070897340775,-0.16552051901817322
1783169717774113000,0.118113037109375,-0.0514322966337204,0.07000625133514404,-0.2040380835533142
1783169717784093000,0.128093017578125,-0.015841281041502953,0.17204126715660095,-0.23119646310806274
1783169717794040800,0.138040771484375,0.03262824937701225,0.23755823075771332,-0.23541943728923798
1783169717803989800,0.14798974609375,0.07975395023822784,0.2588789761066437,-0.2239380180835724
1783169717813939000,0.15793896484375,0.10270560532808304,0.22321976721286774,-0.22148951888084412
1783169717823917800,0.167917724609375,0.10057613998651505,0.15281058847904205,-0.23369131982326508
1783169717833866800,0.17786669921875,0.09833589196205139,0.07066671550273895,-0.22968032956123352
1783169717843816000,0.18781591796875,0.09042736887931824,-0.012631905265152454,-0.2153802216053009
1783169717853795000,0.197795166015625,0.06865762174129486,-0.10099265724420547,-0.19837221503257751
1783169717863744000,0.207743896484375,0.0578467883169651,-0.1626344472169876,-0.180816650390625
1783169717873692200,0.217692138671875,0.053282395005226135,-0.21442414820194244,-0.14573323726654053
1783169717883641000,0.22764111328125,0.04400048032402992,-0.2716807723045349,-0.12233523279428482
1783169717893620000,0.237619873046875,0.024216389283537865,-0.3297840356826782,-0.09945575147867203
1783169717903569000,0.24756884765625,-0.0005201153689995408,-0.3378315567970276,-0.08256758004426956
1783169717913517800,0.257517822265625,-0.03783446550369263,-0.30071136355400085,-0.0526680052280426
1783169717923497000,0.2674970703125,-0.06516142934560776,-0.22654685378074646,-0.005372661165893078
1783169717933446000,0.27744580078125,-0.0763363167643547,-0.15899577736854553,0.040595896542072296
1783169717943394000,0.28739404296875,-0.07044487446546555,-0.12742027640342712,0.06432466208934784
1783169717953343000,0.297343017578125,-0.053036052733659744,-0.13354288041591644,0.0816408023238182
1783169717963321900,0.30732177734375,-0.04378529638051987,-0.1654115915298462,0.09503170847892761
1783169717973270800,0.317270751953125,-0.0562632717192173,-0.21616585552692413,0.11185942590236664
1783169717983220000,0.327219970703125,-0.07623804360628128,-0.27399852871894836,0.13575489819049835
1783169717993198800,0.33719873046875,-0.10531124472618103,-0.30118194222450256,0.17161117494106293
1783169718003147800,0.347147705078125,-0.1314789354801178,-0.35158252716064453,0.20037756860256195
1783169718013097000,0.357096923828125,-0.14642564952373505,-0.48434245586395264,0.22925156354904175
1783169718023044900,0.367044921875,-0.1391666829586029,-0.654830276966095,0.26589080691337585
1783169718033025000,0.37702490234375,-0.12409131973981857,-0.8059694766998291,0.3064339756965637
1783169718042973000,0.386972900390625,-0.12730123102664948,-0.9015175700187683,0.32447609305381775
1783169718052922000,0.396922119140625,-0.13665398955345154,-0.8955891132354736,0.31825172901153564
1783169718062901000,0.40690087890625,-0.1225738525390625,-0.8129861354827881,0.3051876127719879
1783169718072850000,0.416849853515625,-0.06554119288921356,-0.6846212148666382,0.2674439549446106
1783169718082798800,0.426798828125,0.027824707329273224,-0.543799638748169,0.20590682327747345
1783169718092778000,0.436778076171875,0.14943929016590118,-0.4376572370529175,0.14115525782108307
1783169718102727000,0.446726806640625,0.2640540301799774,-0.4156312942504883,0.08355428278446198
1783169718112675000,0.456675048828125,0.35710886120796204,-0.3846970796585083,0.062432486563920975
1783169718122624000,0.4666240234375,0.39346927404403687,-0.34217944741249084,0.07059640437364578
1783169718132603000,0.476602783203125,0.35179612040519714,-0.38352420926094055,0.08827899396419525
1783169718142551800,0.4865517578125,0.24766066670417786,-0.45658138394355774,0.07401324063539505
1783169718152501000,0.4965009765625,0.11382563412189484,-0.5069676041603088,0.004417917691171169
1783169718162479900,0.50647998046875,-0.009071791544556618,-0.5144398808479309,-0.10338924080133438
1783169718172428800,0.5164287109375,-0.12623010575771332,-0.5388022065162659,-0.25814446806907654
1783169718182378000,0.5263779296875,-0.21545478701591492,-0.5546384453773499,-0.4370154142379761
1783169718192326000,0.536325927734375,-0.24282915890216827,-0.48350274562835693,-0.5816615223884583
1783169718202306000,0.54630615234375,-0.2312753051519394,-0.3507412374019623,-0.6533165574073792
1783169718212254000,0.55625390625,-0.20671775937080383,-0.22652821242809296,-0.6566686630249023
1783169718222203100,0.566203125,-0.17902807891368866,-0.13528671860694885,-0.586987316608429
1783169718232182000,0.57618212890625,-0.15979045629501343,-0.07822023332118988,-0.4392812252044678
1783169718242131000,0.586130859375,-0.16259263455867767,-0.07752647995948792,-0.2594291865825653
1783169718252079900,0.596079833984375,-0.17722351849079132,-0.1423635333776474,-0.07627320289611816
1783169718262028000,0.606028076171875,-0.173211470246315,-0.17554625868797302,0.09098130464553833
1783169718272008000,0.616008056640625,-0.14833833277225494,-0.18301749229431152,0.22634685039520264
1783169718281955800,0.625955810546875,-0.10766947269439697,-0.19625899195671082,0.3000114858150482
1783169718291905000,0.635905029296875,-0.05571093410253525,-0.18726283311843872,0.31557127833366394
1783169718301884000,0.6458837890625,-0.014477742835879326,-0.14693884551525116,0.26935529708862305
1783169718311832800,0.655832763671875,-0.0015520902816206217,-0.09319519251585007,0.1785830557346344
1783169718321781800,0.66578173828125,-0.01053200289607048,-0.018797922879457474,0.06085402891039848
1783169718331731000,0.67573095703125,-0.021644841879606247,0.07847324013710022,-0.06903765350580215
1783169718341709800,0.685709716796875,-0.044022053480148315,0.2081257700920105,-0.1829405277967453
1783169718351659000,0.695658935546875,-0.06628741323947906,0.3219096064567566,-0.24938079714775085
1783169718361630200,0.705630126953125,-0.09432996064424515,0.37100762128829956,-0.2779538631439209
1783169718371610000,0.715610107421875,-0.11608000099658966,0.3251006007194519,-0.2730698883533478
1783169718381558300,0.725558349609375,-0.13100674748420715,0.23269902169704437,-0.24578367173671722
1783169718391507200,0.735507080078125,-0.14328259229660034,0.15110670030117035,-0.2002878189086914
1783169718401456000,0.7454560546875,-0.16453035175800323,0.13800367712974548,-0.14990374445915222
1783169718411435000,0.75543505859375,-0.19125491380691528,0.1649135798215866,-0.10569154471158981
1783169718421384200,0.76538427734375,-0.21535038948059082,0.20917879045009613,-0.08385655283927917
1783169718431332000,0.77533203125,-0.2239244431257248,0.2519635260105133,-0.09246441721916199
1783169718441312000,0.78531201171875,-0.21021288633346558,0.27796342968940735,-0.12751828134059906
1783169718451260200,0.79526025390625,-0.1861184686422348,0.27712827920913696,-0.17253635823726654
1783169718461209300,0.805209228515625,-0.1613958179950714,0.2401912957429886,-0.20556408166885376
1783169718471158300,0.815158203125,-0.1420128047466278,0.20688927173614502,-0.217966690659523
1783169718481137200,0.82513720703125,-0.13526061177253723,0.19644221663475037,-0.1883840262889862
1783169718491086300,0.83508642578125,-0.14376649260520935,0.19795888662338257,-0.12806183099746704
1783169718501035300,0.84503515625,-0.15702423453330994,0.19097048044204712,-0.058273427188396454
1783169718511014100,0.85501416015625,-0.1688002049922943,0.15710119903087616,0.010356234386563301
1783169718520963000,0.864963134765625,-0.1729358285665512,0.09890660643577576,0.059060655534267426
1783169718530911200,0.8749111328125,-0.16500893235206604,0.017316140234470367,0.10029837489128113
1783169718540860200,0.884860107421875,-0.14303945004940033,-0.06081781163811684,0.12217198312282562
1783169718550839300,0.89483935546875,-0.11096034198999405,-0.11015792936086655,0.13284780085086823
1783169718560788200,0.904788330078125,-0.07341456413269043,-0.12758299708366394,0.12853720784187317
1783169718570737200,0.914737060546875,-0.042208973318338394,-0.14506584405899048,0.0998738631606102
1783169718580716000,0.924716064453125,-0.008776447735726833,-0.13234391808509827,0.03388552740216255
1783169718590665200,0.934665283203125,0.036440830677747726,-0.11582673341035843,-0.037405695766210556
1783169718600613000,0.944613037109375,0.09202712774276733,-0.077920101583004,-0.1038971021771431
1783169718610593000,0.954593017578125,0.1418231874704361,0.003215500619262457,-0.13786067068576813
1783169718620541200,0.964541259765625,0.17219386994838715,0.10670274496078491,-0.13861434161663055
1783169718630490400,0.974490478515625,0.18448036909103394,0.18686576187610626,-0.10099425911903381
1783169718640439300,0.984439208984375,0.18717548251152039,0.2194729745388031,-0.04313628375530243
1783169718650418200,0.994418212890625,0.185056671500206,0.20903098583221436,0.036019254475831985
1783169718660367400,1.004367431640625,0.19296519458293915,0.17975351214408875,0.11903104931116104
1783169718670316300,1.01431640625,0.21772833168506622,0.13903485238552094,0.20289133489131927
1783169718680295200,1.024295166015625,0.25018373131752014,0.09924962371587753,0.2796745300292969
1783169718690244000,1.034244140625,0.28794336318969727,0.09727808088064194,0.35036200284957886
1783169718700192300,1.044192138671875,0.32274264097213745,0.16936585307121277,0.42668288946151733
1783169718710141200,1.05414111328125,0.3278639018535614,0.18467237055301666,0.5025925636291504
1783169718720120000,1.0641201171875,0.31723493337631226,0.18526412546634674,0.5587469339370728
1783169718730069200,1.0740693359375,0.3047947883605957,0.2699803411960602,0.5913932919502258
1783169718740018200,1.08401806640625,0.27913257479667664,0.3557748794555664,0.5944141149520874
1783169718749997000,1.0939970703125,0.25556838512420654,0.45983177423477173,0.5801475644111633
1783169718759946000,1.103946044921875,0.23833081126213074,0.5992168188095093,0.5502216219902039
1783169718769894100,1.11389404296875,0.23421995341777802,0.8054919838905334,0.5183504819869995
1783169718779843000,1.123843017578125,0.23216480016708374,0.9798115491867065,0.47187912464141846
1783169718789822200,1.133822265625,0.21491949260234833,1.0006343126296997,0.40217193961143494
1783169718799771400,1.143771484375,0.17842726409435272,0.7577215433120728,0.28894659876823425
1783169718809720300,1.15372021484375,0.11927951872348785,0.26876649260520935,0.09319279342889786
1783169718819699200,1.16369921875,0.06828584522008896,-0.1817985624074936,-0.12674729526042938
1783169718829648400,1.1736484375,0.039690952748060226,-0.44113051891326904,-0.28916868567466736
1783169718839597300,1.183597412109375,0.012833240441977978,-0.45448336005210876,-0.3531687259674072
1783169718849545200,1.193545166015625,-0.0011611381778493524,-0.25039732456207275,-0.3203524351119995
1783169718859525000,1.203525146484375,0.020686369389295578,0.0645049586892128,-0.21704363822937012
1783169718869473300,1.213473388671875,0.07747454941272736,0.3770492672920227,-0.06516009569168091
1783169718879422200,1.223422119140625,0.1570836305618286,0.6108524799346924,0.11082930862903595
1783169718889401000,1.233401123046875,0.2344503253698349,0.6853405237197876,0.28666505217552185
1783169718899350300,1.243350341796875,0.2914166748523712,0.6151925921440125,0.4430274963378906
1783169718909299200,1.25329931640625,0.33073583245277405,0.4547398090362549,0.5633408427238464
1783169718919247000,1.2632470703125,0.35854244232177734,0.23419971764087677,0.6329308748245239
1783169718929227000,1.27322705078125,0.37724822759628296,0.03548635542392731,0.6396089792251587
1783169718939175200,1.283175048828125,0.39142048358917236,-0.10997416824102402,0.5673856735229492
1783169718949124000,1.2931240234375,0.40308353304862976,-0.18620476126670837,0.4339431822299957
1783169718959103200,1.303103271484375,0.3991612493991852,-0.18253253400325775,0.25636041164398193
1783169718969052200,1.31305224609375,0.36525627970695496,-0.12407560646533966,0.05243018642067909
1783169718979001300,1.32300146484375,0.27602332830429077,-0.08334629237651825,-0.18250402808189392
1783169718988950300,1.3329501953125,0.14667066931724548,-0.08378730714321136,-0.42150357365608215
1783169718998929200,1.34292919921875,-0.014987471513450146,-0.0987635925412178,-0.619562566280365
1783169719008878300,1.35287841796875,-0.18217939138412476,-0.12313871085643768,-0.7603617906570435
1783169719018826200,1.362826171875,-0.33646777272224426,-0.17432387173175812,-0.8313387632369995
1783169719028806100,1.37280615234375,-0.44130364060401917,-0.15076421201229095,-0.8499417304992676
1783169719038754300,1.38275439453125,-0.4715944230556488,-0.006392385344952345,-0.83803391456604
1783169719048703200,1.392703125,-0.4333844482898712,0.10242464393377304,-0.8240454196929932
1783169719058652200,1.402652099609375,-0.34052401781082153,0.15735048055648804,-0.7968894243240356
1783169719068631300,1.41263134765625,-0.22670425474643707,0.23761309683322906,-0.7477239966392517
1783169719078580200,1.422580322265625,-0.1389690637588501,0.22917965054512024,-0.6962083578109741
1783169719088528100,1.432528076171875,-0.06645918637514114,0.12383858859539032,-0.6443408727645874
1783169719098508000,1.442508056640625,0.00404614070430398,0.0014897723449394107,-0.5827678442001343
1783169719108456200,1.452456298828125,0.06321199238300323,-0.10527502000331879,-0.4979144334793091
1783169719118405000,1.462405029296875,0.09544636309146881,-0.1972946971654892,-0.39146682620048523
1783169719128354300,1.472354248046875,0.12121031433343887,-0.2610017657279968,-0.25024154782295227
1783169719138333200,1.482333251953125,0.14883475005626678,-0.258638471364975,-0.07458236068487167
1783169719148282400,1.492282470703125,0.17500270903110504,-0.198843851685524,0.12311606854200363
1783169719158231300,1.502231201171875,0.19768936932086945,-0.11166927218437195,0.3189990222454071
1783169719168210200,1.512210205078125,0.1999722421169281,-0.03385916352272034,0.5098616480827332
1783169719178159400,1.522159423828125,0.17627809941768646,-0.010302704758942127,0.6652504205703735
1783169719188107300,1.532107177734375,0.12627218663692474,-0.014479872770607471,0.7796822190284729
1783169719198056200,1.54205615234375,0.06033577769994736,-0.0764084905385971,0.8388347625732422
1783169719208035300,1.552035400390625,0.007126619108021259,-0.15966129302978516,0.8359547853469849
1783169719217984300,1.561984375,-0.031560856848955154,-0.2383803427219391,0.7881326675415039
1783169719227933200,1.57193310546875,-0.0644407719373703,-0.28465622663497925,0.7136576771736145
1783169719237912000,1.581912109375,-0.1084686890244484,-0.27707234025001526,0.6302919387817383
1783169719247861200,1.591861328125,-0.15491154789924622,-0.21053913235664368,0.5557146072387695
1783169719257809200,1.60180908203125,-0.20321597158908844,-0.1089286133646965,0.491413414478302
1783169719267758000,1.611758056640625,-0.24683508276939392,-0.006823285017162561,0.4477767050266266
1783169719277737200,1.6217373046875,-0.27978476881980896,0.10563241690397263,0.43134286999702454
1783169719287686100,1.63168603515625,-0.30671200156211853,0.18647027015686035,0.4415092170238495
1783169719297635000,1.641635009765625,-0.33913013339042664,0.17882408201694489,0.4646204113960266
1783169719307614200,1.6516142578125,-0.3777531385421753,0.1178818941116333,0.4846782684326172
1783169719317563400,1.6615634765625,-0.41757699847221375,0.0547625795006752,0.5002159476280212
1783169719327512300,1.67151220703125,-0.45971378684043884,-0.001871403306722641,0.5044346451759338
1783169719337491200,1.6814912109375,-0.5011235475540161,-0.059177037328481674,0.49969637393951416
1783169719347440000,1.691440185546875,-0.5265383720397949,-0.09778221696615219,0.47845420241355896
1783169719357388300,1.70138818359375,-0.5375529527664185,-0.08931576460599899,0.4496278762817383
1783169719367378700,1.711378662109375,-0.539834201335907,-0.013217801228165627,0.42895054817199707
1783169719377357800,1.72135791015625,-0.529824435710907,0.13331198692321777,0.43224117159843445
1783169719387306800,1.731306640625,-0.49237215518951416,0.3004860579967499,0.46311092376708984
1783169719397255700,1.741255615234375,-0.4416711628437042,0.39912235736846924,0.5101000070571899
1783169719407234600,1.751234619140625,-0.39939558506011963,0.3400028347969055,0.5239825248718262
1783169719417183700,1.761183837890625,-0.3809140622615814,0.13453464210033417,0.4870295822620392
1783169719427131600,1.771131591796875,-0.3879131078720093,-0.11274785548448563,0.39585307240486145
1783169719437080600,1.78108056640625,-0.43947696685791016,-0.34103667736053467,0.2675081491470337
1783169719447059700,1.791059814453125,-0.5357640981674194,-0.45521438121795654,0.13774454593658447
1783169719457008600,1.801008544921875,-0.6621941924095154,-0.46445050835609436,0.009290703572332859
1783169719466957800,1.810957763671875,-0.7741971611976624,-0.3919592499732971,-0.0995127409696579
1783169719476936700,1.820936767578125,-0.8435648083686829,-0.2557140588760376,-0.17978253960609436
1783169719486886000,1.830885986328125,-0.8543764352798462,-0.07701142877340317,-0.21784178912639618
1783169719496834800,1.840834716796875,-0.8236901760101318,0.10555145889520645,-0.20503996312618256
1783169719506782700,1.85078271484375,-0.7810092568397522,0.21887242794036865,-0.14208070933818817
1783169719516762600,1.8607626953125,-0.7453138828277588,0.2295234650373459,-0.04358769208192825
1783169719526710800,1.870710693359375,-0.719760537147522,0.09893243759870529,0.06095203384757042
1783169719536659700,1.88065966796875,-0.693681001663208,-0.1312485635280609,0.16021336615085602
1783169719546638800,1.890638916015625,-0.6595688462257385,-0.3510136902332306,0.23137809336185455
1783169719556587800,1.900587890625,-0.6180450916290283,-0.46113699674606323,0.27919062972068787
1783169719566536700,1.91053662109375,-0.5844301581382751,-0.4872511625289917,0.2944662570953369
1783169719576485600,1.920485595703125,-0.5480772256851196,-0.4509248435497284,0.2906707227230072
1783169719586464800,1.93046484375,-0.5151506662368774,-0.4105696976184845,0.26281672716140747
1783169719596412700,1.94041259765625,-0.4891161620616913,-0.4014992415904999,0.224710613489151
1783169719606361600,1.950361572265625,-0.47741690278053284,-0.3715663552284241,0.20358534157276154
1783169719616340700,1.9603408203125,-0.49972352385520935,-0.3471510410308838,0.2049073427915573
1783169719626289700,1.97028955078125,-0.5563164949417114,-0.3698664605617523,0.2135586142539978
1783169719636238600,1.980238525390625,-0.6186507344245911,-0.39755773544311523,0.23618564009666443
1783169719646187800,1.990187744140625,-0.6651415228843689,-0.4442344307899475,0.25005030632019043
1783169719656167000,2.0001669921875,-0.6787851452827454,-0.4982025921344757,0.23961152136325836
1783169719666115800,2.01011572265625,-0.6575669646263123,-0.5284947156906128,0.19755594432353973
1783169719676063700,2.020063720703125,-0.6133342385292053,-0.5566456913948059,0.12971405684947968
1783169719686043600,2.030043701171875,-0.5591695308685303,-0.5554877519607544,0.04368090257048607
1783169719695991800,2.03999169921875,-0.5024706125259399,-0.5432893633842468,-0.05426110699772835
1783169719705940700,2.049940673828125,-0.45585647225379944,-0.5006484389305115,-0.15114717185497284
1783169719715889700,2.0598896484375,-0.42955589294433594,-0.4105917811393738,-0.21438179910182953
1783169719725868800,2.069868896484375,-0.43847134709358215,-0.31141939759254456,-0.2409215271472931
1783169719735817700,2.079817626953125,-0.4752637445926666,-0.2329016923904419,-0.23591266572475433
1783169719745766700,2.0897666015625,-0.5269650220870972,-0.1754426658153534,-0.21124140918254852
1783169719755745500,2.09974560546875,-0.5763434767723083,-0.1423206627368927,-0.16821031272411346
1783169719765693700,2.109693603515625,-0.6191625595092773,-0.1444738209247589,-0.11550022661685944
1783169719775642600,2.119642578125,-0.6449621915817261,-0.13341371715068817,-0.061165351420640945
1783169719785591600,2.129591552734375,-0.6613864898681641,-0.1410207748413086,-0.012255867011845112
1783169719795570700,2.13957080078125,-0.6691067218780518,-0.18814407289028168,0.017465543001890182
1783169719805519600,2.14951953125,-0.672980546951294,-0.21992278099060059,0.02719460241496563
1783169719815468800,2.15946875,-0.6808850765228271,-0.23204921185970306,0.013050021603703499
1783169719825447700,2.16944775390625,-0.6963396668434143,-0.2308982014656067,-0.026489663869142532
1783169719835396900,2.17939697265625,-0.7121481895446777,-0.20877905189990997,-0.09336403757333755
1783169719845344800,2.1893447265625,-0.7211185097694397,-0.17806987464427948,-0.1815817803144455
1783169719855293700,2.199293701171875,-0.7204460501670837,-0.14930427074432373,-0.2614190876483917
1783169719865272800,2.20927294921875,-0.7057533860206604,-0.1229698657989502,-0.32434266805648804
1783169719875221800,2.2192216796875,-0.6981857419013977,-0.09566793590784073,-0.3609853684902191
1783169719885170700,2.229170654296875,-0.6783185601234436,-0.08325840532779694,-0.36067724227905273
1783169719895149800,2.23914990234375,-0.6488621234893799,-0.08052067458629608,-0.32244035601615906
1783169719905098800,2.2490986328125,-0.5964234471321106,-0.10925378650426865,-0.24844735860824585
1783169719915047700,2.259047607421875,-0.5408248901367188,-0.16245602071285248,-0.15112586319446564
1783169719924995600,2.26899560546875,-0.4949982762336731,-0.2119860202074051,-0.03550633043050766
1783169719934974700,2.278974609375,-0.45147424936294556,-0.2789626717567444,0.08125783503055573
1783169719944923600,2.288923583984375,-0.41431596875190735,-0.355135977268219,0.18029387295246124
1783169719954872600,2.29887255859375,-0.37413230538368225,-0.3881980776786804,0.24300359189510345
1783169719964851700,2.308851806640625,-0.3344152569770813,-0.38270795345306396,0.2794361710548401
1783169719974800600,2.318800537109375,-0.30025169253349304,-0.3598513901233673,0.3170836865901947
1783169719984749800,2.328749755859375,-0.26540929079055786,-0.2970290184020996,0.37644875049591064
1783169719994697700,2.33869775390625,-0.26002517342567444,-0.2339371293783188,0.45788952708244324
1783169720004678000,2.348677978515625,-0.2765410542488098,-0.2543577253818512,0.5157091617584229
1783169720014625800,2.358625732421875,-0.3110763728618622,-0.4079432785511017,0.49091246724128723
1783169720024574700,2.36857470703125,-0.35106268525123596,-0.6323471069335938,0.3560135066509247
1783169720034553900,2.378553955078125,-0.39352890849113464,-0.8138833045959473,0.13407684862613678
1783169720044502800,2.388502685546875,-0.44809362292289734,-0.904674768447876,-0.11915595084428787
1783169720054451700,2.39845166015625,-0.5157238245010376,-0.8431754112243652,-0.336678683757782
1783169720064400600,2.408400634765625,-0.5724973678588867,-0.5912875533103943,-0.4726642072200775
1783169720074379800,2.4183798828125,-0.586834728717804,-0.25834447145462036,-0.5044916272163391
1783169720084328700,2.42832861328125,-0.531903862953186,0.048956092447042465,-0.44310659170150757
1783169720094276600,2.438276611328125,-0.42662376165390015,0.2333083599805832,-0.3368525803089142
1783169720104256500,2.448256591796875,-0.3006005883216858,0.2753133177757263,-0.20400665700435638
1783169720114204700,2.45820458984375,-0.1878519207239151,0.24585743248462677,-0.04951828345656395
1783169720124153600,2.468153564453125,-0.1043865904211998,0.16614076495170593,0.11342722922563553
1783169720134132700,2.4781328125,-0.06102287396788597,0.05979595705866814,0.2675595283508301
1783169720144081700,2.48808154296875,-0.034447189420461655,-0.09854734688997269,0.3884534537792206
1783169720154030800,2.49803076171875,-0.0015824503498151898,-0.3019161820411682,0.4452355206012726
1783169720163978500,2.507978515625,0.073961041867733,-0.4168965518474579,0.44320619106292725
1783169720173958700,2.517958740234375,0.18064621090888977,-0.4127652049064636,0.41760310530662537
1783169720183906800,2.52790673828125,0.29157644510269165,-0.34878861904144287,0.3807319104671478
1783169720193855700,2.537855712890625,0.38609763979911804,-0.24911607801914215,0.3531111776828766
1783169720203835000,2.5478349609375,0.4497498571872711,-0.16722068190574646,0.34434938430786133
1783169720213783800,2.55778369140625,0.4553539454936981,-0.15275172889232635,0.3429933190345764
1783169720223732700,2.567732666015625,0.405973345041275,-0.2061726152896881,0.31978943943977356
1783169720233681700,2.577681640625,0.3269277811050415,-0.27525898814201355,0.25850799679756165
1783169720243660800,2.587660888671875,0.2508929371833801,-0.31499549746513367,0.1685006022453308
1783169720253609700,2.597609619140625,0.19954906404018402,-0.29243478178977966,0.05156305804848671
1783169720263557600,2.6075576171875,0.18065419793128967,-0.21715867519378662,-0.07654164731502533
1783169720273537500,2.61753759765625,0.19457614421844482,-0.13908864557743073,-0.20015466213226318
1783169720283485700,2.627485595703125,0.2350178360939026,-0.049441318958997726,-0.3122468590736389
1783169720293434600,2.6374345703125,0.2879777252674103,0.04489583522081375,-0.39469191431999207
1783169720303383600,2.647383544921875,0.3510752022266388,0.12238716334104538,-0.432537317276001
1783169720313362700,2.65736279296875,0.39677131175994873,0.17942115664482117,-0.41159048676490784
1783169720323311900,2.667311767578125,0.4038843512535095,0.16838981211185455,-0.3438958525657654
1783169720333259500,2.677259521484375,0.3777180016040802,0.09083829075098038,-0.23943841457366943
1783169720343239700,2.68723974609375,0.3213476538658142,0.006709834095090628,-0.12016156315803528
1783169720353187800,2.697187744140625,0.23842109739780426,-0.06028704345226288,-0.0001030643325066194
1783169720363166200,2.707166259765625,0.14811968803405762,-0.12087448686361313,0.09813535213470459
1783169720373115400,2.717115478515625,0.07475972175598145,-0.13815467059612274,0.15713609755039215
1783169720383094300,2.72709423828125,0.019061574712395668,-0.11114729195833206,0.1834782212972641
1783169720393043200,2.737043212890625,-0.013709686696529388,-0.06199119985103607,0.1890317052602768
1783169720402992000,2.7469921875,-0.02749527432024479,0.004291151650249958,0.18592965602874756
1783169720412971300,2.75697119140625,-0.04328009486198425,0.06535317003726959,0.17740407586097717
1783169720422920200,2.766920166015625,-0.06902700662612915,0.11615750193595886,0.17415741086006165
1783169720432868400,2.776868408203125,-0.11170442402362823,0.14530685544013977,0.18657919764518738
1783169720442817300,2.7868173828125,-0.17047160863876343,0.16415858268737793,0.20355072617530823
1783169720452796200,2.796796142578125,-0.2226533144712448,0.1617649346590042,0.2142457216978073
1783169720462745300,2.806745361328125,-0.2622329592704773,0.1398116946220398,0.2201392948627472
1783169720472694300,2.8166943359375,-0.2724083662033081,0.14156858623027802,0.2215435802936554
1783169720482673400,2.82667333984375,-0.2608100175857544,0.1685762256383896,0.22837750613689423
1783169720492622300,2.836622314453125,-0.24705132842063904,0.1800379455089569,0.2290121465921402
1783169720502570500,2.846570556640625,-0.24709340929985046,0.16098356246948242,0.21515092253684998
1783169720512519400,2.85651953125,-0.25869548320770264,0.12184520810842514,0.19540651142597198
1783169720522498300,2.866498291015625,-0.27013054490089417,0.062076687812805176,0.17381812632083893
1783169720532447200,2.876447265625,-0.2903093099594116,0.03099573217332363,0.146261066198349
1783169720542396400,2.886396484375,-0.32705163955688477,-0.0065111625008285046,0.11301629990339279
1783169720552375300,2.896375244140625,-0.3645137846469879,-0.03892289847135544,0.07875606417655945
1783169720562324200,2.90632421875,-0.3935867249965668,-0.024885907769203186,0.06071341410279274
1783169720572273200,2.916273193359375,-0.4141308665275574,0.018440525978803635,0.06851781159639359
1783169720582221300,2.92622119140625,-0.4260607659816742,0.036676786839962006,0.1023242399096489
1783169720592201200,2.936201171875,-0.4208151400089264,0.026445455849170685,0.15400874614715576
1783169720602149400,2.9461494140625,-0.39865177869796753,-0.005588643718510866,0.2300577014684677
1783169720612098300,2.956098388671875,-0.35104402899742126,-0.05782175436615944,0.32962051033973694
1783169720622077200,2.9660771484375,-0.2896778881549835,-0.08576257526874542,0.4538535177707672
1783169720632026400,2.9760263671875,-0.22122906148433685,-0.05582305043935776,0.608053982257843
1783169720641975300,2.985975341796875,-0.16597166657447815,-0.005621932912617922,0.7716383934020996
1783169720651923500,2.99592333984375,-0.14070278406143188,-0.04662502557039261,0.8810849785804749
1783169720661903400,3.0059033203125,-0.1400899887084961,-0.20056238770484924,0.9210510849952698
1783169720671851500,3.0158515625,-0.16695170104503632,-0.42714279890060425,0.855743408203125
1783169720681800400,3.025800537109375,-0.21869026124477386,-0.7071555256843567,0.6703682541847229
1783169720691779300,3.035779296875,-0.3014916777610779,-1.0182111263275146,0.3461393117904663
1783169720701728300,3.045728271484375,-0.40044328570365906,-1.197924256324768,-0.05964735150337219
1783169720711677400,3.055677490234375,-0.4902496039867401,-1.1341239213943481,-0.4378681480884552
1783169720721626400,3.06562646484375,-0.5586177706718445,-0.8799790143966675,-0.7022747993469238
1783169720731605200,3.075605224609375,-0.6068859100341797,-0.5216552019119263,-0.8058762550354004
1783169720741554200,3.08555419921875,-0.6393650770187378,-0.0809616968035698,-0.7599396705627441
1783169720751502300,3.09550244140625,-0.6671367883682251,0.2755279839038849,-0.6174924969673157
1783169720761482200,3.105482177734375,-0.6979535222053528,0.4586639702320099,-0.4293971657752991
1783169720771430100,3.11543017578125,-0.7149072289466858,0.4312549829483032,-0.2610284090042114
1783169720781379300,3.12537939453125,-0.7084511518478394,0.2522090673446655,-0.13981088995933533
1783169720791328500,3.13532861328125,-0.6714603900909424,0.004310858901590109,-0.08906755596399307
1783169720801307100,3.14530712890625,-0.6017811894416809,-0.22011372447013855,-0.11939137428998947
1783169720811256300,3.15525634765625,-0.5179970860481262,-0.38457590341567993,-0.21702951192855835
1783169720821204500,3.16520458984375,-0.42633748054504395,-0.4758349657058716,-0.3757280707359314
1783169720831184400,3.175184326171875,-0.32315221428871155,-0.4765135645866394,-0.5481501817703247
1783169720841132300,3.18513232421875,-0.22089695930480957,-0.37761253118515015,-0.6893371343612671
1783169720851081500,3.19508154296875,-0.13812750577926636,-0.20522825419902802,-0.754356861114502
1783169720861060400,3.205060302734375,-0.08871442079544067,-0.0166170597076416,-0.7346593737602234
1783169720871009300,3.21500927734375,-0.06662163883447647,0.1410766988992691,-0.6192976236343384
1783169720880958200,3.224958251953125,-0.07529076188802719,0.22344426810741425,-0.44767099618911743
1783169720890907400,3.234907470703125,-0.0996115431189537,0.20850394666194916,-0.26688122749328613
1783169720900886300,3.24488623046875,-0.12192537635564804,0.10496849566698074,-0.1198989748954773
1783169720910835200,3.254835205078125,-0.12301594018936157,-0.06249773129820824,-0.020899688825011253
1783169720920783400,3.264783447265625,-0.1065051406621933,-0.22873544692993164,0.02509390190243721
1783169720930763300,3.27476318359375,-0.06000741198658943,-0.35820794105529785,0.04658214747905731
1783169720940711200,3.284711181640625,0.007751662749797106,-0.4303215444087982,0.04884743317961693
1783169720950660400,3.294660400390625,0.08915038406848907,-0.44229060411453247,0.031567513942718506
1783169720960609500,3.304609619140625,0.1805250346660614,-0.41532182693481445,0.010354369878768921
1783169720970588200,3.314588134765625,0.26944026350975037,-0.37932708859443665,-0.006883206311613321
1783169720980537300,3.324537353515625,0.32472482323646545,-0.347961962223053,-0.018152639269828796
1783169720990485500,3.334485595703125,0.34332406520843506,-0.3074571490287781,-0.014328072778880596
1783169721000465400,3.34446533203125,0.3159787356853485,-0.276119202375412,0.006160424090921879
1783169721010413300,3.354413330078125,0.25515294075012207,-0.2725178003311157,0.031038610264658928
1783169721020362500,3.364362548828125,0.18169230222702026,-0.27027276158332825,0.0722009614109993
1783169721030311400,3.3743115234375,0.11326450854539871,-0.26729536056518555,0.11645843833684921
1783169721040290300,3.384290283203125,0.06548233330249786,-0.27527284622192383,0.14921212196350098
1783169721050239200,3.3942392578125,0.04421167075634003,-0.2804068922996521,0.1677439957857132
1783169721060188400,3.4041884765625,0.05006689578294754,-0.2534826099872589,0.17057573795318604
1783169721070167300,3.414167236328125,0.08043332397937775,-0.20098264515399933,0.1675218790769577
1783169721080116200,3.4241162109375,0.13836880028247833,-0.12713637948036194,0.16409093141555786
1783169721090064400,3.434064453125,0.20921847224235535,-0.02407657355070114,0.15596136450767517
1783169721100013300,3.444013427734375,0.26588866114616394,0.07750411331653595,0.1394582986831665
1783169721109992200,3.4539921875,0.2855824828147888,0.1456781029701233,0.12408439815044403
1783169721119941000,3.463941162109375,0.2776358723640442,0.18432830274105072,0.11463789641857147
1783169721129890300,3.473890380859375,0.25319603085517883,0.19866755604743958,0.09975855052471161
1783169721139869200,3.483869140625,0.2263479232788086,0.20541946589946747,0.07585322111845016
1783169721149818400,3.493818359375,0.21099266409873962,0.1970536857843399,0.048828527331352234
1783169721159766500,3.5037666015625,0.19532102346420288,0.1926453411579132,0.01931510865688324
1783169721169715500,3.513715576171875,0.1815524846315384,0.19974081218242645,-0.004229898564517498
1783169721179694300,3.5236943359375,0.17526449263095856,0.21350376307964325,-0.01804238371551037
1783169721189643300,3.533643310546875,0.18671582639217377,0.2687656879425049,-0.020261328667402267
1783169721199592400,3.543592529296875,0.2082730382680893,0.3827069103717804,0.0008258462767116725
1783169721209571300,3.5535712890625,0.2439412921667099,0.5203167200088501,0.060446031391620636
1783169721219520300,3.563520263671875,0.27963003516197205,0.6475550532341003,0.14562058448791504
1783169721229469200,3.57346923828125,0.3100963532924652,0.75628662109375,0.25897297263145447
1783169721239417300,3.583417236328125,0.33595749735832214,0.8364722728729248,0.37236982583999634
1783169721249397200,3.593397216796875,0.32496076822280884,0.7036505937576294,0.458540141582489
1783169721259345400,3.603345458984375,0.2726917266845703,0.3356086313724518,0.467509925365448
1783169721269294300,3.61329443359375,0.1872287392616272,-0.1623833179473877,0.38753947615623474
1783169721279273200,3.623273193359375,0.11513351649045944,-0.5993593335151672,0.22203733026981354
1783169721289222100,3.63322216796875,0.07470805943012238,-0.8303408622741699,0.034020017832517624
1783169721299171300,3.64317138671875,0.0648125484585762,-0.7307980060577393,-0.11391538381576538
1783169721309119200,3.653119140625,0.10206244885921478,-0.281757652759552,-0.15516269207000732
1783169721319099400,3.663099365234375,0.17849278450012207,0.3811281621456146,-0.08208581805229187
1783169721329047300,3.67304736328125,0.2579843997955322,0.9892359972000122,0.07153970003128052
1783169721338996500,3.68299658203125,0.30022212862968445,1.2836012840270996,0.23727087676525116
1783169721348975400,3.692975341796875,0.30478841066360474,1.1684885025024414,0.3578561544418335
1783169721358924300,3.70292431640625,0.28527143597602844,0.7849363684654236,0.42257601022720337
1783169721368886300,3.71288623046875,0.24047333002090454,0.3241671621799469,0.41679564118385315
1783169721378835200,3.722835205078125,0.1699371039867401,-0.061419952660799026,0.36580780148506165
1783169721388814300,3.732814453125,0.10379190742969513,-0.2526676654815674,0.2783794403076172
1783169721398763300,3.74276318359375,0.06787172704935074,-0.26448118686676025,0.16025865077972412
1783169721408711200,3.752711181640625,0.056121326982975006,-0.12990500032901764,0.019279422238469124
1783169721418691000,3.762691162109375,0.07449660450220108,0.09295471012592316,-0.13552533090114594
1783169721428639200,3.77263916015625,0.11860574036836624,0.304064005613327,-0.2880493700504303
1783169721438588200,3.782588134765625,0.1635710895061493,0.42163246870040894,-0.4205930233001709
1783169721448537000,3.792537109375,0.20235256850719452,0.4215797185897827,-0.5042767524719238
1783169721458516200,3.80251611328125,0.22977806627750397,0.34374991059303284,-0.5281943082809448
1783169721468465200,3.812465087890625,0.24736984074115753,0.22656656801700592,-0.4994015693664551
1783169721478413000,3.8224130859375,0.25703924894332886,0.12328198552131653,-0.4287593364715576
1783169721488393200,3.832393310546875,0.2551462650299072,0.041972748935222626,-0.326703280210495
1783169721498341000,3.842341064453125,0.25179523229599,0.0041486723348498344,-0.21220733225345612
1783169721508290300,3.852290283203125,0.2516958713531494,0.019287411123514175,-0.09445353597402573
1783169721518239200,3.8622392578125,0.26920777559280396,0.057967960834503174,0.008460063487291336
1783169721528218400,3.87221826171875,0.3021891415119171,0.09979503601789474,0.09211874008178711
1783169721538167300,3.882167236328125,0.34505724906921387,0.09725544601678848,0.14733938872814178
1783169721548116200,3.8921162109375,0.3944666087627411,0.029643379151821136,0.16972725093364716
1783169721558095000,3.90209521484375,0.4367232620716095,-0.06564239412546158,0.17725440859794617
1783169721568044300,3.912044189453125,0.46101048588752747,-0.14242824912071228,0.16560041904449463
1783169721577992200,3.9219921875,0.4708159863948822,-0.18179163336753845,0.14588716626167297
1783169721587941000,3.931941162109375,0.4673541486263275,-0.19147275388240814,0.11555828899145126
1783169721597920300,3.941920166015625,0.4425736963748932,-0.2039981335401535,0.07407715916633606
1783169721607869200,3.951869140625,0.39733245968818665,-0.2017568200826645,0.027523502707481384
1783169721617818000,3.961818115234375,0.34435978531837463,-0.16207891702651978,-0.01281779445707798
1783169721627797200,3.97179736328125,0.28561684489250183,-0.11317981779575348,-0.035766519606113434
1783169721637746200,3.98174609375,0.24666810035705566,-0.08998475223779678,-0.04918139427900314
1783169721647694000,3.991694091796875,0.2435721755027771,-0.06845895200967789,-0.04014076292514801
1783169721657643000,4.00164306640625,0.26772651076316833,-0.042567700147628784,-0.004436826333403587
1783169721667622100,4.0116220703125,0.2851848602294922,-0.02652881294488907,0.05143336206674576
1783169721677571300,4.0215712890625,0.28465837240219116,-0.024278707802295685,0.1079789325594902
1783169721687520300,4.031520263671875,0.2613655626773834,0.00971281435340643,0.16424699127674103
1783169721697499400,4.04149951171875,0.2161719799041748,0.0373697429895401,0.21121104061603546
1783169721707448300,4.0514482421875,0.17471908032894135,0.055562593042850494,0.23732946813106537
1783169721717397200,4.061397216796875,0.14042049646377563,0.0762777253985405,0.23468095064163208
1783169721727376100,4.071376220703125,0.11126234382390976,0.10132262855768204,0.1965854912996292
1783169721737325300,4.0813251953125,0.08558600395917892,0.07143077254295349,0.1276269406080246
1783169721747273200,4.091273193359375,0.05343712493777275,0.004816593136638403,0.013614611700177193
1783169721757222100,4.10122216796875,0.012396215461194515,-0.0660189613699913,-0.11401844769716263
1783169721767201300,4.111201171875,-0.03201013058423996,-0.11620090901851654,-0.24215297400951385
1783169721777150200,4.121150146484375,-0.06612548977136612,-0.14553669095039368,-0.34016290307044983
1783169721787099100,4.13109912109375,-0.08027726411819458,-0.1306847780942917,-0.3979255259037018
1783169721797078000,4.141078125,-0.07663725316524506,-0.06749621778726578,-0.3997335433959961
1783169721807027200,4.151027099609375,-0.05023414269089699,0.004512193612754345,-0.34427109360694885
1783169721816976400,4.160976318359375,0.018927352502942085,0.08476708829402924,-0.22759747505187988
1783169721826924000,4.170924072265625,0.10211970657110214,0.12313471734523773,-0.06305752694606781
1783169721836903200,4.180903076171875,0.14374785125255585,0.026645459234714508,0.07549848407506943
1783169721846852400,4.190852294921875,0.12143641710281372,-0.22744354605674744,0.11328954249620438
1783169721856801300,4.20080126953125,0.040054209530353546,-0.5326934456825256,0.01383858360350132
1783169721866780200,4.2107802734375,-0.10163528472185135,-0.7856775522232056,-0.2052985578775406
1783169721876729300,4.220729248046875,-0.28809091448783875,-0.9143050312995911,-0.507327675819397
1783169721886678300,4.23067822265625,-0.45311689376831055,-0.8471360802650452,-0.8135855793952942
1783169721896626200,4.240626220703125,-0.5563327670097351,-0.5648093223571777,-1.066660761833191
1783169721906606000,4.250606201171875,-0.5900395512580872,-0.1362137645483017,-1.2139852046966553
1783169721916554200,4.26055419921875,-0.5594249367713928,0.32440871000289917,-1.2259830236434937
1783169721926503200,4.270503173828125,-0.4851054549217224,0.6907813549041748,-1.0893492698669434
1783169721936482300,4.280482421875,-0.40567612648010254,0.8567767143249512,-0.864782989025116
1783169721946431200,4.29043115234375,-0.3297467529773712,0.8157060146331787,-0.611181378364563
1783169721956380200,4.300380126953125,-0.2588949501514435,0.6398577094078064,-0.37516722083091736
1783169721966329000,4.3103291015625,-0.18321509659290314,0.3646136522293091,-0.19826647639274597
1783169721976308200,4.32030810546875,-0.10449258983135223,0.057430535554885864,-0.10360149294137955
1783169721986257200,4.330257080078125,-0.02484063431620598,-0.19415882229804993,-0.08693196624517441
1783169721996205000,4.340205078125,0.04844876006245613,-0.3365386128425598,-0.12144094705581665
1783169722006184200,4.35018408203125,0.10148561000823975,-0.3624948263168335,-0.1760953962802887
1783169722016133400,4.36013330078125,0.12400263547897339,-0.2807701528072357,-0.2217121571302414
1783169722026082300,4.370082275390625,0.11931094527244568,-0.1351037621498108,-0.24581722915172577
1783169722036031200,4.38003125,0.08734022825956345,0.013890781439840794,-0.22955062985420227
1783169722046010400,4.39001025390625,0.03957883641123772,0.09985921531915665,-0.1757097691297531
1783169722055959300,4.399959228515625,-0.017894312739372253,0.10952116549015045,-0.08699535578489304
1783169722065907200,4.4099072265625,-0.06830395758152008,0.05279210954904556,0.0029848709236830473
1783169722075887000,4.41988720703125,-0.1131926029920578,-0.03953835368156433,0.07089681178331375
1783169722085835300,4.429835205078125,-0.14290495216846466,-0.11559770256280899,0.11935169249773026
1783169722095784200,4.4397841796875,-0.16343046724796295,-0.13949984312057495,0.14653165638446808
1783169722105733000,4.449733154296875,-0.17340746521949768,-0.14024366438388824,0.14975620806217194
1783169722115712300,4.459712158203125,-0.17388631403446198,-0.12833267450332642,0.12987171113491058
1783169722125661200,4.4696611328125,-0.1698380410671234,-0.12261299788951874,0.09537285566329956
1783169722135610000,4.479610107421875,-0.16511784493923187,-0.1232987642288208,0.04746019467711449
1783169722145589000,4.489589111328125,-0.16757142543792725,-0.1233174055814743,0.005845638457685709
1783169722155538200,4.4995380859375,-0.1866750717163086,-0.09838196635246277,-0.03243197500705719
1783169722165486000,4.509486083984375,-0.2148156315088272,-0.06262263655662537,-0.04225504398345947
1783169722175435300,4.519435302734375,-0.2505778968334198,-0.037274666130542755,-0.018255436792969704
1783169722185414100,4.5294140625,-0.2907591462135315,-0.028858279809355736,0.034804053604602814
1783169722195363300,4.53936328125,-0.3339681327342987,-0.05152950435876846,0.09304658323526382
1783169722205312300,4.549312255859375,-0.36447542905807495,-0.0918060839176178,0.14944009482860565
1783169722215291100,4.559291015625,-0.3926658034324646,-0.10339376330375671,0.18323346972465515
1783169722225240300,4.569240234375,-0.41355615854263306,-0.07181400060653687,0.19707152247428894
1783169722235188200,4.579188232421875,-0.43285635113716125,0.0014889733865857124,0.1837032586336136
1783169722245137200,4.58913720703125,-0.4439103305339813,0.0968431904911995,0.1544921100139618
1783169722255116300,4.5991162109375,-0.4369661509990692,0.19209301471710205,0.12454938888549805
1783169722265065200,4.609065185546875,-0.4181322753429413,0.29122650623321533,0.10231545567512512
1783169722275014100,4.61901416015625,-0.3722095191478729,0.3620162606239319,0.08983162045478821
1783169722284993300,4.6289931640625,-0.3090585172176361,0.3807675838470459,0.09031578153371811
1783169722294942200,4.638942138671875,-0.2413977086544037,0.3876071274280548,0.1060878187417984
1783169722304891100,4.64889111328125,-0.18558929860591888,0.36587145924568176,0.1465393751859665
1783169722314839000,4.658839111328125,-0.1459023505449295,0.35892167687416077,0.21870917081832886
1783169722324819200,4.668819091796875,-0.12594275176525116,0.37482795119285583,0.30663928389549255
1783169722334767000,4.67876708984375,-0.11350605636835098,0.3489089906215668,0.3856728672981262
1783169722344716300,4.68871630859375,-0.10502894967794418,0.2637096643447876,0.42463943362236023
1783169722354695200,4.698695068359375,-0.0846238061785698,0.15512406826019287,0.4210529625415802
1783169722364673000,4.708673095703125,-0.04914011433720589,0.07742847502231598,0.38408163189888
1783169722374622000,4.7186220703125,-0.013814615085721016,0.07325876504182816,0.34480851888656616
1783169722384569900,4.72856982421875,0.03140745684504509,0.15997076034545898,0.32367873191833496
1783169722394550000,4.738550048828125,0.08446189016103745,0.299360066652298,0.3435685634613037
1783169722404498200,4.748498291015625,0.1325354129076004,0.48106569051742554,0.40506812930107117
1783169722414447000,4.758447021484375,0.17201995849609375,0.6828702092170715,0.4991224706172943
1783169722424426000,4.768426025390625,0.18365557491779327,0.7947477102279663,0.5961608290672302
1783169722434375200,4.778375244140625,0.18187153339385986,0.755626916885376,0.6495503187179565
1783169722444324000,4.788323974609375,0.16367575526237488,0.4952153265476227,0.623142421245575
1783169722454303000,4.798302978515625,0.11839721351861954,0.028713403269648552,0.5105109214782715
1783169722464252000,4.808251953125,0.06313902139663696,-0.5193318724632263,0.32280227541923523
1783169722474201000,4.818201171875,0.007869374938309193,-0.9860793352127075,0.09304232895374298
1783169722484149000,4.82814892578125,-0.036675188690423965,-1.2416753768920898,-0.12923894822597504
1783169722494129000,4.83812890625,-0.06578034162521362,-1.2316228151321411,-0.29027870297431946
1783169722504077000,4.8480771484375,-0.05654130503535271,-0.8988456130027771,-0.3278660178184509
1783169722514026000,4.85802587890625,-0.018992066383361816,-0.3305715322494507,-0.23647378385066986
1783169722524004900,4.8680048828125,0.03507223352789879,0.2501901388168335,-0.05590134859085083
1783169722533953800,4.877953857421875,0.08121096342802048,0.6147547960281372,0.1197034940123558
1783169722543903000,4.887903076171875,0.12622079253196716,0.6678590178489685,0.23049499094486237
1783169722553851000,4.897850830078125,0.16595807671546936,0.4598464369773865,0.28497207164764404
1783169722563831000,4.9078310546875,0.17509324848651886,0.15679627656936646,0.31926053762435913
1783169722573779000,4.917779052734375,0.16225947439670563,-0.07398740947246552,0.36585813760757446
1783169722583728000,4.92772802734375,0.13623160123825073,-0.14937031269073486,0.4023413062095642
1783169722593707000,4.93770703125,0.11661715805530548,-0.1408471316099167,0.39624401926994324
1783169722603656000,4.947656005859375,0.10140198469161987,-0.1291675716638565,0.3340304493904114
1783169722613605000,4.957605224609375,0.08446960896253586,-0.10922235995531082,0.24029116332530975
1783169722623554000,4.967553955078125,0.03401602432131767,-0.1190507560968399,0.13454049825668335
1783169722633533000,4.977532958984375,-0.04825940728187561,-0.16083203256130219,0.01546710729598999
1783169722643481900,4.98748193359375,-0.13858744502067566,-0.18481166660785675,-0.10450030863285065
1783169722653430000,4.997429931640625,-0.2107468545436859,-0.15098391473293304,-0.21040649712085724
1783169722663410000,5.007409912109375,-0.2585788369178772,-0.06193607300519943,-0.29392215609550476
1783169722673358000,5.017358154296875,-0.272045373916626,0.029079588130116463,-0.3488274812698364
1783169722683307000,5.02730712890625,-0.2522175908088684,0.09153364598751068,-0.37228700518608093
1783169722693256000,5.037255859375,-0.20461918413639069,0.13560709357261658,-0.35832539200782776
1783169722703234800,5.04723486328125,-0.13123445212841034,0.17412465810775757,-0.3140372931957245
1783169722713184000,5.05718408203125,-0.04808150976896286,0.1826728731393814,-0.2532876431941986
1783169722723132000,5.0671318359375,0.02604891173541546,0.15369608998298645,-0.1913371980190277
1783169722733112000,5.077112060546875,0.09253712743520737,0.09421544522047043,-0.13777491450309753
1783169722743060000,5.08706005859375,0.1457982212305069,-0.005943376570940018,-0.09252860397100449
1783169722753009200,5.097009033203125,0.18443135917186737,-0.13824602961540222,-0.06124364957213402
1783169722762958000,5.1069580078125,0.22195397317409515,-0.2726381719112396,-0.03225940093398094
1783169722772937000,5.11693701171875,0.2569199502468109,-0.3733520209789276,-0.007781756576150656
1783169722782886100,5.12688623046875,0.2831701934337616,-0.42711591720581055,0.0031409321818500757
1783169722792835000,5.1368349609375,0.2988964319229126,-0.41737887263298035,0.01895584724843502
1783169722802814000,5.14681396484375,0.296780526638031,-0.3363654911518097,0.050104979425668716
1783169722812763000,5.156762939453125,0.28369084000587463,-0.2354186475276947,0.09054587781429291
1783169722822711000,5.1667109375,0.26406681537628174,-0.18075433373451233,0.13112500309944153
1783169722832660000,5.176659912109375,0.2378666251897812,-0.18291255831718445,0.17186470329761505
1783169722842638800,5.186638916015625,0.19654901325702667,-0.19258329272270203,0.2021467089653015
1783169722852588000,5.196588134765625,0.14570607244968414,-0.1985088288784027,0.22806619107723236
1783169722862537000,5.206536865234375,0.09659658372402191,-0.18816591799259186,0.2468036562204361
1783169722872515800,5.216515869140625,0.049726542085409164,-0.16451384127140045,0.24920077621936798
1783169722882464800,5.22646484375,0.022482939064502716,-0.16108129918575287,0.2395593225955963
1783169722892413000,5.236412841796875,0.017254887148737907,-0.13862791657447815,0.23189261555671692
1783169722902361900,5.24636181640625,0.010722951963543892,-0.09690897166728973,0.240177184343338
1783169722912341000,5.256341064453125,-0.017769142985343933,-0.09044734388589859,0.24678555130958557
1783169722922290200,5.266290283203125,-0.07415518909692764,-0.12854598462581635,0.26099592447280884
1783169722932239000,5.276239013671875,-0.14489273726940155,-0.18401777744293213,0.25240668654441833
1783169722942218000,5.286218017578125,-0.22343654930591583,-0.27603664994239807,0.22609145939350128
1783169722952167000,5.2961669921875,-0.30466002225875854,-0.3942972421646118,0.16870033740997314
1783169722962116000,5.3061162109375,-0.37381166219711304,-0.48031681776046753,0.08716738969087601
1783169722972064000,5.31606396484375,-0.430747389793396,-0.5364999175071716,-0.0027590349782258272
1783169722982044000,5.3260439453125,-0.47485971450805664,-0.5709114074707031,-0.09111499786376953
1783169722991992000,5.335991943359375,-0.5176074504852295,-0.5934809446334839,-0.17220798134803772
1783169723001941000,5.34594091796875,-0.5551793575286865,-0.6118878722190857,-0.2359267771244049
1783169723011920000,5.355919921875,-0.5608010292053223,-0.5309112668037415,-0.2505006492137909
1783169723021869000,5.365869140625,-0.5530242919921875,-0.3303512930870056,-0.20010273158550262
1783169723031818000,5.37581787109375,-0.5684908628463745,-0.10158468037843704,-0.12572915852069855
1783169723041766000,5.385765869140625,-0.6188925504684448,0.0469917431473732,-0.078631691634655
1783169723051745800,5.395745849609375,-0.6850497126579285,0.06998308002948761,-0.09793375432491302
1783169723061694000,5.40569384765625,-0.7667754888534546,-0.05384006351232529,-0.1815386414527893
1783169723071643000,5.415642822265625,-0.8525393605232239,-0.2545936703681946,-0.31626075506210327
1783169723081621800,5.425621826171875,-0.914764940738678,-0.4449569582939148,-0.47754552960395813
1783169723091571200,5.4355712890625,-0.916043758392334,-0.5822327733039856,-0.643760085105896
1783169723101520100,5.44552001953125,-0.8285512328147888,-0.6271342039108276,-0.7680420875549316
1783169723111469000,5.455468994140625,-0.682092547416687,-0.5746846199035645,-0.8235721588134766
1783169723121448000,5.465447998046875,-0.5140425562858582,-0.45595768094062805,-0.7928246259689331
1783169723131397000,5.475397216796875,-0.3777962923049927,-0.33790746331214905,-0.6786043047904968
1783169723141345000,5.485344970703125,-0.295242041349411,-0.2555454969406128,-0.504193127155304
1783169723151325000,5.495324951171875,-0.2681771218776703,-0.24091248214244843,-0.28449004888534546
1783169723161273000,5.505273193359375,-0.2704083323478699,-0.27568137645721436,-0.07146859169006348
1783169723171222000,5.515221923828125,-0.28751567006111145,-0.3338056802749634,0.1025301069021225
1783169723181171000,5.5251708984375,-0.29413390159606934,-0.36682114005088806,0.21556638181209564
1783169723191149800,5.53514990234375,-0.28409668803215027,-0.3549272119998932,0.2750965356826782
1783169723201099000,5.54509912109375,-0.26937606930732727,-0.3146815001964569,0.2942841053009033
1783169723211047000,5.555046875,-0.2554549276828766,-0.25289884209632874,0.277570903301239
1783169723221026800,5.56502685546875,-0.24842073023319244,-0.17793138325214386,0.2614092230796814
1783169723230975000,5.57497509765625,-0.2687968313694,-0.10298576951026917,0.2471884787082672
1783169723240924000,5.584923828125,-0.31859901547431946,-0.04818830266594887,0.23824186623096466
1783169723250902800,5.59490283203125,-0.38205283880233765,-0.039501335471868515,0.2284153252840042
1783169723260852200,5.604852294921875,-0.43558183312416077,-0.05336815118789673,0.21025656163692474
1783169723270801200,5.61480126953125,-0.4754754602909088,-0.07318366318941116,0.17383331060409546
1783169723280750000,5.62475,-0.5036420822143555,-0.09436112642288208,0.13133005797863007
1783169723290729000,5.63472900390625,-0.5107710957527161,-0.06422851979732513,0.1064489483833313
1783169723300678000,5.644677978515625,-0.5158673524856567,-0.008451275527477264,0.10825137048959732
1783169723310626000,5.6546259765625,-0.5206708908081055,0.034382473677396774,0.11703474074602127
1783169723320606000,5.66460595703125,-0.5257732272148132,0.047257792204618454,0.12436535954475403
1783169723330554000,5.67455419921875,-0.5226597189903259,0.06979905813932419,0.12246865779161453
1783169723340503000,5.6845029296875,-0.519500195980072,0.0714787095785141,0.08156170696020126
1783169723350452000,5.694451904296875,-0.5124819278717041,0.02226695604622364,0.006188121158629656
1783169723360430800,5.704430908203125,-0.5009999871253967,-0.07426677644252777,-0.1068476215004921
1783169723370402000,5.714402099609375,-0.4803852438926697,-0.20096826553344727,-0.2391982078552246
1783169723380350200,5.72435009765625,-0.46353569626808167,-0.2773498594760895,-0.35801246762275696
1783169723390330000,5.734330078125,-0.4369775950908661,-0.31882113218307495,-0.4252578318119049
1783169723400278000,5.744278076171875,-0.40868204832077026,-0.31914496421813965,-0.4121992886066437
1783169723410227000,5.75422705078125,-0.40283215045928955,-0.30736154317855835,-0.3420337736606598
1783169723420176100,5.764176025390625,-0.39873620867729187,-0.2833142578601837,-0.23752173781394958
1783169723430155000,5.774155029296875,-0.3667955696582794,-0.2379462569952011,-0.11520754545927048
1783169723440104000,5.78410400390625,-0.3117664158344269,-0.20424288511276245,0.004168379586189985
1783169723450053000,5.79405322265625,-0.2423686981201172,-0.2172284573316574,0.10083659738302231
1783169723460032300,5.8040322265625,-0.10363877564668655,-0.2040090560913086,0.15369608998298645
1783169723469981200,5.813981201171875,0.00515747768804431,-0.1829216182231903,0.1883517950773239
1783169723479929000,5.82392919921875,0.07535973191261292,-0.21173648536205292,0.2451586276292801
1783169723489878300,5.833878173828125,0.03880838304758072,-0.2101721465587616,0.30141550302505493
1783169723499857200,5.843857177734375,-0.010638795793056488,-0.22902199625968933,0.34026357531547546
1783169723509806000,5.85380615234375,-0.034269023686647415,-0.24338042736053467,0.3608950674533844
1783169723519755000,5.863755126953125,-0.050390735268592834,-0.2770102918148041,0.3542049527168274
1783169723529734100,5.873734130859375,-0.09080660343170166,-0.29116740822792053,0.32292744517326355
1783169723539683000,5.88368310546875,-0.16283206641674042,-0.23245054483413696,0.279634028673172
1783169723549631200,5.89363134765625,-0.25502297282218933,-0.18400871753692627,0.21006321907043457
1783169723559580200,5.903580078125,-0.3289097249507904,-0.21367260813713074,0.10535705089569092
1783169723569559000,5.91355908203125,-0.3674917221069336,-0.2785203158855438,-0.04060308635234833
1783169723579508000,5.923508056640625,-0.36847496032714844,-0.32325848937034607,-0.20439840853214264
1783169723589457200,5.93345703125,-0.3234614133834839,-0.2185259461402893,-0.36824458837509155
1783169723599436000,5.94343603515625,-0.2698189616203308,-0.08455110341310501,-0.47929441928863525
1783169723609385000,5.953385009765625,-0.233305424451828,0.035518579185009,-0.5339347720146179
1783169723619334100,5.963334228515625,-0.21008558571338654,0.18266195058822632,-0.5103458166122437
1783169723629282000,5.973281982421875,-0.1930786520242691,0.3586505651473999,-0.4153575301170349
1783169723639262200,5.98326220703125,-0.1570679098367691,0.5264475345611572,-0.27379053831100464
1783169723649210000,5.993210205078125,-0.10892222076654434,0.5720989108085632,-0.1271856427192688
1783169723659159300,6.0031591796875,-0.07928577065467834,0.4097558259963989,-0.04444682598114014
1783169723669138200,6.01313818359375,-0.067656010389328,0.11904676258563995,-0.048705488443374634
1783169723679087000,6.023087158203125,-0.06030621752142906,-0.2511121332645416,-0.1436149626970291
1783169723689036000,6.0330361328125,-0.07153809815645218,-0.6481529474258423,-0.33420780301094055
1783169723698985200,6.042985107421875,-0.0887804701924324,-0.8729077577590942,-0.5751708745956421
1783169723708964000,6.052964111328125,-0.08723636716604233,-0.753151535987854,-0.7801706194877625
1783169723718912000,6.062912109375,-0.06934898346662521,-0.33854421973228455,-0.8873556852340698
1783169723728861200,6.072861083984375,-0.026508839800953865,0.19199447333812714,-0.8548771142959595
1783169723738840000,6.082840087890625,0.022427277639508247,0.6295555830001831,-0.6976696252822876
1783169723748789000,6.0927890625,0.05380011349916458,0.8341808915138245,-0.4714261293411255
1783169723758738000,6.102738037109375,0.06598833948373795,0.7462222576141357,-0.24996216595172882
1783169723768687000,6.11268701171875,0.07558184117078781,0.45042550563812256,-0.07430006563663483
1783169723778666000,6.122666015625,0.10051542520523071,0.0785565972328186,0.0564318522810936
1783169723788615200,6.132615234375,0.15660665929317474,-0.2553665339946747,0.15097913146018982
1783169723798563000,6.14256298828125,0.22688427567481995,-0.43200093507766724,0.19306212663650513
1783169723808543200,6.152543212890625,0.28965312242507935,-0.46360814571380615,0.18119961023330688
1783169723818491100,6.1624912109375,0.3482533097267151,-0.42183858156204224,0.12653982639312744
1783169723828440000,6.172440185546875,0.4009045362472534,-0.3226398229598999,0.052437376230955124
1783169723838389200,6.18238916015625,0.43151864409446716,-0.2083265781402588,-0.014824486337602139
1783169723848368000,6.1923681640625,0.41751042008399963,-0.11288128048181534,-0.06547248363494873
1783169723858317000,6.202317138671875,0.36643338203430176,-0.05678631737828255,-0.08596284687519073
1783169723868266000,6.212265869140625,0.296552836894989,-0.04423590376973152,-0.07727640867233276
1783169723878245000,6.2222451171875,0.2263021171092987,-0.050209108740091324,-0.06047080084681511
1783169723888193000,6.232193115234375,0.17061515152454376,-0.04526734724640846,-0.04229152947664261
1783169723898142200,6.24214208984375,0.13828995823860168,-0.03561605140566826,-0.03939853981137276
1783169723908121000,6.25212109375,0.1269339770078659,0.0010458233300596476,-0.0550355538725853
1783169723918070000,6.262070068359375,0.15204332768917084,0.013962686993181705,-0.06684241443872452
1783169723928019000,6.27201904296875,0.1931481510400772,0.002641855739057064,-0.06821846961975098
1783169723937968000,6.281968017578125,0.24720260500907898,-0.012175706215202808,-0.059427905827760696
1783169723947947000,6.291947021484375,0.30465176701545715,-0.033606696873903275,-0.04505935311317444
1783169723957896000,6.30189599609375,0.34969887137413025,-0.0653795376420021,-0.021323930472135544
1783169723967844000,6.311843994140625,0.3786005675792694,-0.09448336064815521,0.007025951519608498
1783169723977824300,6.32182421875,0.3798229694366455,-0.11156754195690155,0.03442242369055748
1783169723987772200,6.331772216796875,0.3594684302806854,-0.13897758722305298,0.04638587310910225
1783169723997721000,6.34172119140625,0.32981014251708984,-0.16607418656349182,0.04005660489201546
1783169724007670300,6.351670166015625,0.3003166913986206,-0.17542162537574768,0.016165120527148247
1783169724017649200,6.361649169921875,0.27062031626701355,-0.15587908029556274,-0.02286430262029171
1783169724027598000,6.37159814453125,0.24607901275157928,-0.0808999091386795,-0.048631452023983
1783169724037547000,6.381547119140625,0.21576878428459167,-0.0006261091912165284,-0.05595487728714943
1783169724047526100,6.391526123046875,0.19417454302310944,0.04916435107588768,-0.046122487634420395
1783169724057475000,6.40147509765625,0.18668386340141296,0.06677743047475815,-0.014141385443508625
1783169724067423200,6.41142333984375,0.18377648293972015,0.05112922936677933,0.02214258722960949
1783169724077372200,6.4213720703125,0.18360258638858795,0.021216604858636856,0.06557421386241913
1783169724087351000,6.43135107421875,0.16754984855651855,0.0020391824655234814,0.10496769100427628
1783169724097300000,6.441300048828125,0.13450801372528076,0.004999286029487848,0.14288312196731567
1783169724107249000,6.451248779296875,0.08932588249444962,0.016953948885202408,0.17999613285064697
1783169724117228000,6.46122802734375,0.036868270486593246,0.030533408746123314,0.20930048823356628
1783169724127177000,6.471177001953125,-0.004806472919881344,0.0602303184568882,0.2340250164270401
1783169724137125000,6.481125,-0.014458567835390568,0.07670862972736359,0.2490585595369339
1783169724147074300,6.49107421875,0.003179814200848341,0.07668758928775787,0.2547912895679474
1783169724157053000,6.501052978515625,0.03765416890382767,0.051780641078948975,0.2495720088481903
1783169724167002000,6.511002197265625,0.06886455416679382,-0.0005014732014387846,0.23656514286994934
1783169724176951300,6.520951416015625,0.08961191028356552,-0.06934285163879395,0.2028077095746994
1783169724186930200,6.53093017578125,0.09007743000984192,-0.1413659155368805,0.14852848649024963
1783169724196879000,6.540879150390625,0.07146992534399033,-0.17712125182151794,0.09637980163097382
1783169724206828000,6.550828125,0.059062253683805466,-0.14065805077552795,0.06983580440282822
1783169724216776200,6.560776123046875,0.048771798610687256,-0.04344521090388298,0.08999859541654587
1783169724226756000,6.570756103515625,0.023481624200940132,0.039792418479919434,0.13081713020801544
1783169724236704000,6.5807041015625,-0.02925295941531658,0.051181428134441376,0.15273627638816833
1783169724246653200,6.590653076171875,-0.0880395770072937,0.012971458956599236,0.12386814504861832
1783169724256632000,6.600632080078125,-0.15473179519176483,-0.062077220529317856,0.027170101180672646
1783169724266581000,6.6105810546875,-0.23273365199565887,-0.17260107398033142,-0.12990233302116394
1783169724276530000,6.620530029296875,-0.31177225708961487,-0.2661150395870209,-0.3260801136493683
1783169724286478000,6.63047802734375,-0.3781161308288574,-0.3128814697265625,-0.5189344882965088
1783169724296458000,6.6404580078125,-0.4034518599510193,-0.3142162561416626,-0.6705970168113708
1783169724306406100,6.65040625,-0.3769313097000122,-0.25420325994491577,-0.7318254709243774
1783169724316355300,6.660355224609375,-0.3143957555294037,-0.09461519122123718,-0.6864374876022339
1783169724326334000,6.670333984375,-0.2266126424074173,0.11710131913423538,-0.5264829993247986
1783169724336283100,6.680283203125,-0.1393003612756729,0.2996453046798706,-0.265279084444046
1783169724346232000,6.690232177734375,-0.08144132792949677,0.3781334459781647,0.0399431549012661
1783169724356181200,6.70018115234375,-0.05812668427824974,0.31240636110305786,0.32876110076904297
1783169724366207500,6.71020751953125,-0.06798703968524933,0.08972775191068649,0.5589237213134766
1783169724376157000,6.720156982421875,-0.10191012173891068,-0.1848369538784027,0.6963854432106018
1783169724386104600,6.7301044921875,-0.16024692356586456,-0.3999849557876587,0.7298203706741333
1783169724396084700,6.740084716796875,-0.2309189736843109,-0.5233495235443115,0.6550657153129578
1783169724406033000,6.750032958984375,-0.2922278642654419,-0.5326663255691528,0.4944739043712616
1783169724415981800,6.75998193359375,-0.3375444710254669,-0.44822704792022705,0.2871183156967163
1783169724425930800,6.7699306640625,-0.36028653383255005,-0.2854098975658417,0.06654147803783417
1783169724435909600,6.77990966796875,-0.3645031154155731,-0.08886249363422394,-0.13963672518730164
1783169724445858800,6.78985888671875,-0.36830344796180725,0.0908348336815834,-0.3048296868801117
1783169724455806700,6.799806640625,-0.38300544023513794,0.21250906586647034,-0.4117260277271271
1783169724465786600,6.80978662109375,-0.4034497141838074,0.22700518369674683,-0.4450043737888336
1783169724475734800,6.81973486328125,-0.430857390165329,0.17001354694366455,-0.41492876410484314
1783169724485683700,6.82968359375,-0.45138874650001526,0.09384473413228989,-0.3191148638725281
1783169724495632600,6.839632568359375,-0.4627141058444977,0.006901049055159092,-0.19994108378887177
1783169724505611800,6.84961181640625,-0.4609338045120239,-0.07366303354501724,-0.07796058058738708
1783169724515560700,6.859560791015625,-0.4403552711009979,-0.11013635993003845,0.024819329380989075
1783169724525509600,6.869509521484375,-0.4110674262046814,-0.09075307101011276,0.1052614375948906
1783169724535488500,6.879488525390625,-0.38229623436927795,-0.05325523018836975,0.15497760474681854
1783169724545437700,6.889437744140625,-0.3469688892364502,-0.02520655281841755,0.17217709124088287
1783169724555385600,6.899385498046875,-0.3035756051540375,-0.0023339942563325167,0.17230811715126038
1783169724565365800,6.90936572265625,-0.2612941861152649,0.018070880323648453,0.16049407422542572
1783169724575314000,6.91931396484375,-0.21968042850494385,0.0401839055120945,0.14971013367176056
1783169724585262800,6.929262939453125,-0.19303204119205475,0.05228690803050995,0.14446264505386353
1783169724595211800,6.939211669921875,-0.17562589049339294,0.06893832236528397,0.1391373872756958
1783169724605190700,6.949190673828125,-0.1586378514766693,0.06510603427886963,0.1428317129611969
1783169724615139800,6.959139892578125,-0.1497572660446167,0.02906494028866291,0.1599968522787094
1783169724625087700,6.969087646484375,-0.1486256867647171,-0.055384960025548935,0.18247047066688538
1783169724635067600,6.979067626953125,-0.16615115106105804,-0.1545938402414322,0.21052075922489166
1783169724645015800,6.989015869140625,-0.19876448810100555,-0.22684858739376068,0.2350311577320099
1783169724654964700,6.99896484375,-0.23891884088516235,-0.24764494597911835,0.24974325299263
1783169724664913700,7.00891357421875,-0.2684849798679352,-0.20671962201595306,0.2548306882381439
1783169724674892500,7.018892578125,-0.2810322046279907,-0.12098261713981628,0.2346910685300827
1783169724684841700,7.028841796875,-0.27861323952674866,-0.023900805041193962,0.19163547456264496
1783169724694790700,7.038790771484375,-0.26605910062789917,0.07830865681171417,0.13221688568592072
1783169724704769500,7.04876953125,-0.2489592283964157,0.19015023112297058,0.0729551687836647
1783169724714718500,7.058718505859375,-0.22892186045646667,0.29774540662765503,0.026264892891049385
1783169724724666600,7.06866650390625,-0.2115306258201599,0.36501872539520264,-0.0000798948312876746
1783169724734615800,7.07861572265625,-0.19208581745624542,0.3779808580875397,-0.0030983216129243374
1783169724744594700,7.0885947265625,-0.17391560971736908,0.3282753527164459,0.02137080207467079
1783169724754543900,7.0985439453125,-0.1608211100101471,0.2115870863199234,0.07182838022708893
1783169724764492800,7.108492919921875,-0.13875947892665863,0.09915507584810257,0.13926787674427032
1783169724774471700,7.1184716796875,-0.10897548496723175,0.024770060554146767,0.21183103322982788
1783169724784420600,7.128420654296875,-0.07978431135416031,0.0007091998122632504,0.2700623869895935
1783169724794368800,7.13836865234375,-0.05475379154086113,-0.016262060031294823,0.28947868943214417
1783169724804317700,7.148317626953125,-0.029163744300603867,-0.03543655201792717,0.27492210268974304
1783169724814296800,7.158296875,-0.011926966719329357,0.02171648107469082,0.25988590717315674
1783169724824245800,7.168245849609375,-0.006718888878822327,0.17420722544193268,0.2862514555454254
1783169724834194700,7.178194580078125,-0.02039262279868126,0.298455148935318,0.3492472171783447
1783169724844173600,7.188173583984375,-0.058825500309467316,0.22374014556407928,0.39942702651023865
1783169724854122800,7.198122802734375,-0.10459085553884506,-0.03117043524980545,0.3994315564632416
1783169724864071700,7.20807177734375,-0.15056847035884857,-0.43372106552124023,0.3277597725391388
1783169724874019600,7.21801953125,-0.1955133080482483,-0.914398729801178,0.14956818521022797
1783169724883999500,7.22799951171875,-0.2250640094280243,-1.318909764289856,-0.1004168838262558
1783169724893947600,7.23794775390625,-0.23267611861228943,-1.4386076927185059,-0.3335409462451935
1783169724903896800,7.247896728515625,-0.22701983153820038,-1.1961710453033447,-0.47888457775115967
1783169724913875500,7.25787548828125,-0.20809221267700195,-0.6314818263053894,-0.4990699887275696
1783169724923825000,7.267824951171875,-0.16352714598178864,0.14163649082183838,-0.4046225845813751
1783169724933773800,7.27777392578125,-0.10899865627288818,0.8054243326187134,-0.24656051397323608
1783169724943721700,7.2877216796875,-0.06265991926193237,1.1065173149108887,-0.09233924746513367
1783169724953701600,7.29770166015625,-0.008048605173826218,1.1523807048797607,0.05829979106783867
1783169724963649800,7.30764990234375,0.04466733708977699,1.0121005773544312,0.17930397391319275
1783169724973598700,7.3175986328125,0.09141833335161209,0.6911856532096863,0.2574480473995209
1783169724983577900,7.327577880859375,0.141737699508667,0.26734408736228943,0.3005150854587555
1783169724993526800,7.33752685546875,0.20657314360141754,-0.1018693745136261,0.32601219415664673
1783169725003475700,7.347475830078125,0.26652464270591736,-0.3161289393901825,0.325398325920105
1783169725013424600,7.357424560546875,0.2908499538898468,-0.36537396907806396,0.2892336845397949
1783169725023403500,7.367403564453125,0.2787272334098816,-0.290199875831604,0.21798932552337646
1783169725033352700,7.377352783203125,0.239955335855484,-0.1548343151807785,0.11790452897548676
1783169725043300600,7.387300537109375,0.18490619957447052,-0.036378514021635056,0.0065314024686813354
1783169725053280500,7.397280517578125,0.12265081703662872,0.04397757723927498,-0.10151170939207077
1783169725063228700,7.407228759765625,0.06604079902172089,0.06558486819267273,-0.17197762429714203
1783169725073177600,7.417177490234375,0.018373414874076843,0.05963722988963127,-0.19270579516887665
1783169725083126800,7.427126708984375,-0.01028459519147873,0.03970693424344063,-0.17196643352508545
1783169725093106000,7.43710595703125,-0.00983532052487135,-0.008049936965107918,-0.12492275983095169
1783169725103054800,7.447054931640625,0.017592309042811394,-0.04434855654835701,-0.062193598598241806
1783169725113002800,7.457002685546875,0.06902088224887848,-0.037510622292757034,0.005357214715331793
1783169725122982700,7.466982666015625,0.1240529716014862,-0.0041731735691428185,0.07772062718868256
1783169725132930800,7.476930908203125,0.18288566172122955,0.05390344560146332,0.15713103115558624
1783169725142879700,7.486879638671875,0.23644636571407318,0.09415499120950699,0.23380982875823975
1783169725152828700,7.49682861328125,0.274623304605484,0.08841268718242645,0.2934414744377136
1783169725162807800,7.506807861328125,0.29918137192726135,0.0450870506465435,0.3327483832836151
1783169725172756700,7.5167568359375,0.31197360157966614,-0.028911009430885315,0.3359884023666382
1783169725182705700,7.52670556640625,0.31847572326660156,-0.11877059191465378,0.3134974539279938
1783169725192684500,7.5366845703125,0.32529953122138977,-0.16272953152656555,0.2629842162132263
1783169725202633700,7.5466337890625,0.3313145339488983,-0.156158447265625,0.20034268498420715
1783169725212581600,7.55658154296875,0.33618679642677307,-0.1050846055150032,0.1409669816493988
1783169725222530600,7.566530517578125,0.3284844160079956,-0.0377308689057827,0.09969623386859894
1783169725232509700,7.576509765625,0.30304962396621704,0.03307352960109711,0.07471658289432526
1783169725242458600,7.586458740234375,0.26752012968063354,0.06720326840877533,0.059065718203783035
1783169725252407800,7.59640771484375,0.2426062524318695,0.06314168125391006,0.05952511355280876
1783169725262386700,7.60638671875,0.23213256895542145,0.04575124382972717,0.08025355637073517
1783169725272336000,7.6163359375,0.23535339534282684,0.03236246854066849,0.11359313875436783
1783169725282283800,7.62628369140625,0.2554706633090973,0.03129800036549568,0.15221723914146423
1783169725292263700,7.636263671875,0.28452441096305847,0.03382907062768936,0.20184896886348724
1783169725302211800,7.6462119140625,0.3100718557834625,0.035402730107307434,0.25852423906326294
1783169725312160800,7.656160888671875,0.31614038348197937,-0.005659483373165131,0.2964223325252533
1783169725322109700,7.666109619140625,0.31378480792045593,-0.033183787018060684,0.3151145279407501
1783169725332088800,7.6760888671875,0.29897257685661316,-0.056708551943302155,0.3038181960582733
1783169725342037800,7.686037841796875,0.27663078904151917,-0.0697079747915268,0.26466095447540283
1783169725351986700,7.695986572265625,0.24739861488342285,-0.08062347024679184,0.20155228674411774
1783169725361965600,7.705965576171875,0.21242651343345642,-0.12274535745382309,0.09585302323102951
1783169725371944200,7.715944091796875,0.18208298087120056,-0.19307571649551392,-0.03786215931177139
1783169725381892000,7.72589208984375,0.1706835925579071,-0.2278675138950348,-0.16779112815856934
1783169725391841300,7.73584130859375,0.17529751360416412,-0.19586777687072754,-0.2644447088241577
1783169725401820200,7.745820068359375,0.17634254693984985,-0.10999014973640442,-0.3057284951210022
1783169725411769000,7.75576904296875,0.16319239139556885,-0.02177613601088524,-0.29077431559562683
1783169725421718000,7.765718017578125,0.14691300690174103,0.042826827615499496,-0.22438809275627136
1783169725431697200,7.775697265625,0.13080595433712006,0.0961475744843483,-0.11722435802221298
1783169725441646300,7.785646240234375,0.11598385870456696,0.14652206003665924,0.013046559877693653
1783169725451594200,7.79559423828125,0.10902182757854462,0.2145967185497284,0.16548936069011688
1783169725461543400,7.80554345703125,0.06604106724262238,0.21747612953186035,0.28864219784736633
1783169725471522300,7.815522216796875,-0.03417448326945305,0.0838237926363945,0.33185943961143494
1783169725481471200,7.82547119140625,-0.154422327876091,-0.08355321735143661,0.27807289361953735
1783169725491420200,7.835420166015625,-0.25989842414855957,-0.20346391201019287,0.12003745883703232
1783169725501399300,7.8453994140625,-0.34228676557540894,-0.26161321997642517,-0.1080513671040535
1783169725511348200,7.85534814453125,-0.38453301787376404,-0.20149396359920502,-0.3463837802410126
1783169725521297200,7.865297119140625,-0.37720319628715515,-0.004794222768396139,-0.5191662311553955
1783169725531245300,7.875245361328125,-0.32728996872901917,0.23501144349575043,-0.5966814756393433
1783169725541225200,7.88522509765625,-0.24401666224002838,0.4111159145832062,-0.5609977841377258
1783169725551173000,7.895173095703125,-0.1653498113155365,0.4625228941440582,-0.4243853688240051
1783169725561122300,7.905122314453125,-0.12953722476959229,0.39258429408073425,-0.21849079430103302
1783169725571101200,7.91510107421875,-0.1379205882549286,0.22593672573566437,0.006777478381991386
1783169725581050000,7.925050048828125,-0.17302024364471436,0.00815220270305872,0.19340328872203827
1783169725590999000,7.9349990234375,-0.21820876002311707,-0.19308076798915863,0.29334771633148193
1783169725600947200,7.944947265625,-0.24489469826221466,-0.3243969976902008,0.3036360442638397
1783169725610927400,7.95492724609375,-0.24841301143169403,-0.3668176829814911,0.23188357055187225
1783169725620875000,7.964875,-0.23639363050460815,-0.3207063674926758,0.11072970926761627
1783169725630824400,7.974824462890625,-0.19914506375789642,-0.20005612075328827,-0.044609278440475464
1783169725640803300,7.98480322265625,-0.1324155628681183,-0.05429839342832565,-0.208294078707695
1783169725650752300,7.994752197265625,-0.04464496672153473,0.06045881658792496,-0.3401953876018524
1783169725660701200,8.004701171875,0.0608268640935421,0.15013357996940613,-0.40215757489204407
1783169725670650400,8.014650390625,0.13338442146778107,0.20796091854572296,-0.381914347410202
1783169725680629200,8.024629150390625,0.16268078982830048,0.17924486100673676,-0.29798880219459534
1783169725690578200,8.034578125,0.15276505053043365,0.08727312088012695,-0.17318163812160492
1783169725700526300,8.0445263671875,0.10858932882547379,-0.030702251940965652,-0.027542944997549057
1783169725710506200,8.05450634765625,0.03405037894845009,-0.14691966772079468,0.1074305847287178
1783169725720454100,8.0644541015625,-0.05204828828573227,-0.23157118260860443,0.2072322815656662
1783169725730403000,8.074403076171874,-0.12706074118614197,-0.2663235664367676,0.25818681716918945
1783169725740352300,8.084352294921874,-0.17953194677829742,-0.23505058884620667,0.28238561749458313
1783169725750331100,8.0943310546875,-0.20138904452323914,-0.15213121473789215,0.3027702569961548
1783169725760280000,8.104280029296875,-0.2007157951593399,-0.011771438643336296,0.3280889391899109
1783169725770229200,8.114229248046875,-0.18440233170986176,0.1496150642633438,0.3596809506416321
1783169725780208400,8.12420849609375,-0.165031298995018,0.291542112827301,0.38227200508117676
1783169725790156000,8.134156005859374,-0.15314507484436035,0.36570313572883606,0.38484302163124084
1783169725800105200,8.144105224609374,-0.1620379090309143,0.36118483543395996,0.35914137959480286
1783169725810054400,8.154054443359374,-0.1881089210510254,0.2838122844696045,0.3086012601852417
1783169725820033300,8.164033203125,-0.21608994901180267,0.16917037963867188,0.24337883293628693
1783169725829982200,8.173982177734375,-0.23926956951618195,0.047795750200748444,0.17886748909950256
1783169725839931100,8.18393115234375,-0.2553763687610626,-0.0497736819088459,0.11260617524385452
1783169725849910300,8.19391015625,-0.26965785026550293,-0.11959803849458694,0.03748718649148941
1783169725859859200,8.203859130859374,-0.2734632194042206,-0.17582641541957855,-0.05740470439195633
1783169725869807400,8.213807373046874,-0.25890904664993286,-0.17652550339698792,-0.1544036865234375
1783169725879787300,8.223787353515625,-0.22442059218883514,-0.08067167550325394,-0.24437779188156128
1783169725889735200,8.233735107421875,-0.19076621532440186,0.059355735778808594,-0.3172945976257324
1783169725899684000,8.24368408203125,-0.16105999052524567,0.197532519698143,-0.3736092746257782
1783169725909633300,8.25363330078125,-0.13059262931346893,0.2967062294483185,-0.4076117277145386
1783169725919612200,8.263612060546874,-0.0984802320599556,0.3428305983543396,-0.40320470929145813
1783169725929561000,8.27356103515625,-0.05825372040271759,0.34915879368782043,-0.35531896352767944
1783169725939510300,8.28351025390625,-0.006120476871728897,0.3051159679889679,-0.278995156288147
1783169725949489200,8.2934892578125,0.04872865602374077,0.20152166485786438,-0.18099482357501984
1783169725959437000,8.30343701171875,0.10730302333831787,0.07153623551130295,-0.07681621611118317
1783169725969386200,8.31338623046875,0.1638192981481552,-0.017763284966349602,0.028929119929671288
1783169725979335400,8.32333544921875,0.21191464364528656,-0.06148333474993706,0.11634019017219543
1783169725989314300,8.333314208984374,0.25470712780952454,-0.04161748290061951,0.17839904129505157
1783169725999263200,8.34326318359375,0.28122368454933167,-0.00022317290131468326,0.21478579938411713
1783169726009212200,8.353212158203124,0.3026978075504303,0.03169640898704529,0.24436287581920624
1783169726019191300,8.36319140625,0.31564876437187195,0.04147500544786453,0.2679600715637207
1783169726029140200,8.37314013671875,0.3294774889945984,0.09093603491783142,0.30422914028167725
1783169726039088000,8.383088134765625,0.346722811460495,0.19848592579364777,0.3555205464363098
1783169726049037300,8.393037353515625,0.3500826358795166,0.22657987475395203,0.3948594331741333
1783169726059016200,8.40301611328125,0.3440375328063965,0.0838637426495552,0.37835076451301575
1783169726068965000,8.412965087890624,0.3308735191822052,-0.24218814074993134,0.24699780344963074
1783169726078914000,8.4229140625,0.3339684009552002,-0.6199879050254822,0.006957508157938719
1783169726088893200,8.43289306640625,0.35715627670288086,-0.8454449772834778,-0.2715572118759155
1783169726098842000,8.442842041015625,0.3778253197669983,-0.796556293964386,-0.5022575259208679
1783169726108791300,8.452791259765625,0.3695303797721863,-0.44930216670036316,-0.6352882981300354
1783169726118739200,8.4627392578125,0.3326280117034912,0.08839324861764908,-0.6548737287521362
1783169726128718000,8.472718017578124,0.27150633931159973,0.6468250751495361,-0.56195467710495
1783169726138667300,8.482667236328124,0.20843203365802765,1.0187510251998901,-0.39154326915740967
1783169726148616200,8.4926162109375,0.16893309354782104,1.1518936157226562,-0.1698066145181656
1783169726158595300,8.50259521484375,0.148446723818779,1.1080448627471924,0.04837845265865326
1783169726168544300,8.512544189453125,0.15704767405986786,0.8763909339904785,0.22343787550926208
1783169726178493200,8.5224931640625,0.19619880616664886,0.5026814937591553,0.3338610529899597
1783169726188441300,8.53244140625,0.2679792642593384,0.09984217584133148,0.37630385160446167
1783169726198421200,8.542421142578124,0.3584633469581604,-0.2184428572654724,0.3561224341392517
1783169726208369200,8.552369140625,0.4324457049369812,-0.3847964107990265,0.2597127854824066
1783169726218318300,8.562318359375,0.48117169737815857,-0.40124568343162537,0.11215955764055252
1783169726228297200,8.572297119140625,0.5027238726615906,-0.30852535367012024,-0.05338972061872482
1783169726238246100,8.58224609375,0.4943564534187317,-0.17282743752002716,-0.19725634157657623
1783169726248195000,8.592195068359375,0.4467061161994934,-0.007649397477507591,-0.3174549341201782
1783169726258144300,8.602144287109375,0.3736976981163025,0.15331631898880005,-0.39698782563209534
1783169726268123100,8.612123046875,0.2942686378955841,0.2534075081348419,-0.4364108741283417
1783169726278072000,8.622072021484374,0.21512269973754883,0.2858874201774597,-0.4399124085903168
1783169726288020200,8.632020263671874,0.1542883664369583,0.28267189860343933,-0.4193538725376129
1783169726297999000,8.6419990234375,0.12538029253482819,0.251460462808609,-0.37427958846092224
1783169726307948300,8.6519482421875,0.1299409568309784,0.20476245880126953,-0.3233562111854553
1783169726317897200,8.661897216796875,0.16470053791999817,0.17193900048732758,-0.2632444202899933
1783169726327846400,8.671846435546875,0.21586252748966217,0.13867318630218506,-0.2014676034450531
1783169726337825300,8.6818251953125,0.2836620807647705,0.08948594331741333,-0.1501373052597046
1783169726347774200,8.691774169921874,0.36855965852737427,0.04423297569155693,-0.10655813664197922
1783169726357722400,8.701722412109374,0.44886595010757446,0.027788488194346428,-0.07115620374679565
1783169726367708200,8.711708251953125,0.49697569012641907,0.01985200121998787,-0.04807911068201065
1783169726377656300,8.72165625,0.5271162986755371,0.004518318921327591,-0.02803056873381138
1783169726387605200,8.731605224609375,0.5370775461196899,0.003810983384028077,-0.0005779059720225632
1783169726397584100,8.741584228515626,0.5272470116615295,-0.0076217008754611015,0.022050973027944565
1783169726407533000,8.751532958984376,0.511067271232605,-0.029870813712477684,0.04235731065273285
1783169726417482200,8.761482177734376,0.495038241147995,-0.04693927988409996,0.05350610241293907
1783169726427431200,8.77143115234375,0.4825277626514435,-0.06972581893205643,0.04761092737317085
1783169726437410000,8.78141015625,0.4798488914966583,-0.08946543186903,0.020383302122354507
1783169726447359000,8.79135888671875,0.4912291169166565,-0.12250194698572159,-0.029407955706119537
1783169726457307100,8.80130712890625,0.5025568604469299,-0.16854266822338104,-0.09915907680988312
1783169726467287000,8.811287109375,0.5021203756332397,-0.1980808675289154,-0.16781270503997803
1783169726477235200,8.821235107421876,0.4900496006011963,-0.21449445188045502,-0.22107166051864624
1783169726487184100,8.83118408203125,0.46965938806533813,-0.20179995894432068,-0.24091488122940063
1783169726497133000,8.841133056640626,0.43378233909606934,-0.13447019457817078,-0.22081492841243744
1783169726507112000,8.85111181640625,0.38068902492523193,-0.03519793599843979,-0.16451597213745117
1783169726517061000,8.86106103515625,0.3151385188102722,0.05054892599582672,-0.08784916251897812
1783169726527009000,8.871009033203125,0.24429230391979218,0.1159532368183136,-0.012507003732025623
1783169726536989200,8.8809892578125,0.17614440619945526,0.13830940425395966,0.03917989134788513
1783169726546937300,8.890937255859376,0.12921364605426788,0.16159795224666595,0.05435831472277641
1783169726556886300,8.90088623046875,0.10010023415088654,0.20112697780132294,0.03881024569272995
1783169726566835200,8.910835205078126,0.09111552685499191,0.2268720269203186,-0.002177933230996132
1783169726576814000,8.92081396484375,0.09307641535997391,0.23762772977352142,-0.0465235598385334
1783169726586763300,8.93076318359375,0.09519815444946289,0.22016192972660065,-0.08039817214012146
1783169726596712200,8.940712158203125,0.09133657068014145,0.17747065424919128,-0.09289718419313431
1783169726606691000,8.950691162109376,0.09010911732912064,0.109554722905159,-0.08097101747989655
1783169726616640000,8.960639892578126,0.09771670401096344,0.05709284543991089,-0.032886575907468796
1783169726626588200,8.970588134765626,0.11135715246200562,0.042266231030225754,0.058934688568115234
1783169726636537000,8.980537109375,0.1133156418800354,-0.017122793942689896,0.1435995101928711
1783169726646516000,8.990515869140625,0.09371157735586166,-0.1204952523112297,0.1852782517671585
1783169726656465200,9.000465087890625,0.055023569613695145,-0.24073217809200287,0.15486681461334229
1783169726666414000,9.0104140625,-0.002915096003562212,-0.39808371663093567,0.029291043058037758
1783169726676393000,9.02039306640625,-0.08127941191196442,-0.5661307573318481,-0.1968081295490265
1783169726686342000,9.030341796875,-0.16103176772594452,-0.6631830334663391,-0.4817328155040741
1783169726696290000,9.0402900390625,-0.2137940376996994,-0.5759879350662231,-0.7459200024604797
1783169726706239200,9.0502392578125,-0.22584085166454315,-0.27794933319091797,-0.9192875027656555
1783169726716218000,9.060218017578125,-0.20843122899532318,0.11649785190820694,-0.9602733254432678
1783169726726167300,9.070167236328125,-0.17291346192359924,0.5016721487045288,-0.8557569980621338
1783169726736116200,9.0801162109375,-0.14728160202503204,0.7088311910629272,-0.6417751908302307
1783169726746095000,9.09009521484375,-0.12352859228849411,0.6836768388748169,-0.3743847906589508
1783169726756044000,9.1000439453125,-0.09134003520011902,0.5107911229133606,-0.08089032024145126
1783169726765993200,9.1099931640625,-0.05955547094345093,0.2531694173812866,0.18909162282943726
1783169726775941000,9.119941162109376,-0.024490961804986,-0.03669383376836777,0.40158605575561523
1783169726785921000,9.129921142578125,0.032095883041620255,-0.27148449420928955,0.5329504609107971
1783169726795869200,9.139869140625,0.10300760716199875,-0.40152400732040405,0.567996084690094
1783169726805818000,9.149818115234375,0.1644669771194458,-0.4366476237773895,0.5109027028083801
1783169726815797000,9.159796875,0.2015211284160614,-0.3861634135246277,0.382589191198349
1783169726825746200,9.16974609375,0.21886231005191803,-0.2583223581314087,0.226040318608284
1783169726835695000,9.179695068359376,0.21175193786621094,-0.09205429255962372,0.07051277905702591
1783169726845643000,9.18964306640625,0.18580874800682068,0.050811514258384705,-0.0484202615916729
1783169726855623000,9.199622802734375,0.14395610988140106,0.1099022626876831,-0.1229482963681221
1783169726865571000,9.209571044921875,0.10017746686935425,0.11128924041986465,-0.15937155485153198
1783169726875520000,9.21952001953125,0.04478984326124191,0.05258944258093834,-0.15415707230567932
1783169726885499000,9.229498779296875,-0.02123657986521721,-0.03797135129570961,-0.12239328771829605
1783169726895448300,9.2394482421875,-0.08893387019634247,-0.12553715705871582,-0.08615539222955704
1783169726905397200,9.249397216796876,-0.14945393800735474,-0.19363364577293396,-0.05179928243160248
1783169726915376000,9.259376220703125,-0.18885619938373566,-0.24909530580043793,-0.047986168414354324
1783169726925325000,9.269324951171875,-0.21399085223674774,-0.27765852212905884,-0.07211866974830627
1783169726935274200,9.279274169921875,-0.22719933092594147,-0.2664300799369812,-0.12289556115865707
1783169726945222100,9.28922216796875,-0.2258019745349884,-0.2367108166217804,-0.18101079761981964
1783169726955202000,9.2992021484375,-0.2066197544336319,-0.1717326045036316,-0.23624210059642792
1783169726965150200,9.309150146484376,-0.1822395771741867,-0.0742846205830574,-0.26386067271232605
1783169726975099100,9.31909912109375,-0.17230598628520966,-0.011003382503986359,-0.2569071650505066
1783169726985078000,9.329078125,-0.17903073132038116,-0.0002085255109705031,-0.22362856566905975
1783169726995027000,9.33902685546875,-0.19076009094715118,-0.0226211566478014,-0.16843454539775848
1783169727004976000,9.34897607421875,-0.20226389169692993,-0.05481158196926117,-0.0942964106798172
1783169727014924000,9.358924072265625,-0.2160007357597351,-0.09596434235572815,-0.023737287148833275
1783169727024904000,9.368904052734376,-0.23021802306175232,-0.13351890444755554,0.03982970491051674
1783169727034852000,9.37885205078125,-0.24909557402133942,-0.17049583792686462,0.07867590337991714
1783169727044801000,9.388801025390626,-0.27051350474357605,-0.18703407049179077,0.09037916362285614
1783169727054780000,9.39877978515625,-0.28415024280548096,-0.1828068345785141,0.0751887634396553
1783169727064729000,9.40872900390625,-0.2898842692375183,-0.15576589107513428,0.04289447143673897
1783169727074678300,9.41867822265625,-0.2940606474876404,-0.09346070885658264,-0.012045743875205517
1783169727084627200,9.428627197265625,-0.2904374301433563,-0.0034149715211242437,-0.08194732666015625
1783169727094606000,9.438606201171876,-0.28540751338005066,0.0944889560341835,-0.14678917825222015
1783169727104555000,9.448554931640626,-0.277274489402771,0.18277381360530853,-0.20267987251281738
1783169727114503200,9.458503173828126,-0.26804450154304504,0.23938728868961334,-0.23710016906261444
1783169727124483000,9.468483154296875,-0.24923725426197052,0.2911519408226013,-0.24529844522476196
1783169727134431200,9.47843115234375,-0.2196037322282791,0.34792786836624146,-0.23081617057323456
1783169727144380200,9.488380126953125,-0.1847887635231018,0.3698675334453583,-0.20254085958003998
1783169727154329000,9.4983291015625,-0.1481923907995224,0.3524203598499298,-0.17889145016670227
1783169727164308000,9.508307861328126,-0.10625879466533661,0.33175504207611084,-0.15688176453113556
1783169727174257200,9.518257080078126,-0.06803098320960999,0.3145155906677246,-0.13933178782463074
1783169727184205000,9.528205078125,-0.04282975569367409,0.31123778223991394,-0.12324443459510803
1783169727194185000,9.53818505859375,-0.024335699155926704,0.3053463399410248,-0.1114647388458252
1783169727204133000,9.548133056640625,0.011768242344260216,0.33794793486595154,-0.08831175416707993
1783169727214082000,9.55808203125,0.06054137274622917,0.45727699995040894,-0.04122653231024742
1783169727224031200,9.56803125,0.08490104228258133,0.5471371412277222,0.004605138208717108
1783169727234010000,9.578010009765626,0.08048472553491592,0.4331088066101074,0.0002716424351092428
1783169727243959300,9.587959228515626,0.07337408512830734,0.1304810494184494,-0.0805523693561554
1783169727253908200,9.597908203125,0.09597313404083252,-0.1918807476758957,-0.22118830680847168
1783169727263887000,9.60788720703125,0.14307886362075806,-0.34359464049339294,-0.3753770887851715
1783169727273836000,9.6178359375,0.2095516324043274,-0.22362376749515533,-0.5010538101196289
1783169727283784200,9.6277841796875,0.29245078563690186,0.08349169790744781,-0.5759533047676086
1783169727293733000,9.637733154296875,0.4011690020561218,0.4528295397758484,-0.568984866142273
1783169727303712300,9.647712158203126,0.5283780694007874,0.7808361649513245,-0.46577808260917664
1783169727313661200,9.6576611328125,0.6537671685218811,0.9940876960754395,-0.26300421357154846
1783169727323610000,9.667610107421876,0.7530684471130371,1.0483261346817017,0.015692144632339478
1783169727333589000,9.677589111328125,0.7886543869972229,0.9660336971282959,0.3322485089302063
1783169727343538000,9.687537841796875,0.7615184187889099,0.8138742446899414,0.6377301216125488
1783169727353486000,9.697486083984375,0.6817671060562134,0.603195309638977,0.8908721208572388
1783169727363466000,9.707466064453126,0.570236325263977,0.3440665602684021,1.0305572748184204
1783169727373452500,9.71745263671875,0.46616795659065247,0.08662676811218262,1.0309251546859741
1783169727383401500,9.7274013671875,0.3926878869533539,-0.11983798444271088,0.8920143246650696
1783169727393350400,9.737350341796875,0.35835230350494385,-0.24554717540740967,0.6571741700172424
1783169727403329300,9.747329345703125,0.3325422704219818,-0.2645975649356842,0.3746742606163025
1783169727413278500,9.757278564453125,0.30323976278305054,-0.20080554485321045,0.09097171574831009
1783169727423227600,9.7672275390625,0.27196893095970154,-0.09429986774921417,-0.1653553992509842
1783169727433206500,9.77720654296875,0.23122896254062653,0.025464080274105072,-0.34433606266975403
1783169727443155500,9.787155517578125,0.18272587656974792,0.1290605068206787,-0.43192583322525024
1783169727453103600,9.797103515625,0.13787850737571716,0.2214711308479309,-0.421779990196228
1783169727463052500,9.807052490234375,0.09300903975963593,0.2558935582637787,-0.33428025245666504
1783169727473031400,9.817031494140625,0.05311381816864014,0.22464881837368011,-0.20535315573215485
1783169727482980600,9.826980712890625,0.026510702446103096,0.11924783140420914,-0.07186166942119598
1783169727492929500,9.836929443359375,0.027090206742286682,-0.004877579398453236,0.048775527626276016
1783169727502908400,9.846908447265625,0.061114754527807236,-0.10389097779989243,0.13328827917575836
1783169727512857300,9.856857421875,0.1429014950990677,-0.17613880336284637,0.1894410401582718
1783169727522805500,9.866805419921874,0.25914502143859863,-0.15478664636611938,0.20604903995990753
1783169727532754400,9.87675439453125,0.3834856152534485,-0.06430468708276749,0.18761277198791504
1783169727542733300,9.8867333984375,0.5103530287742615,0.016079900786280632,0.14117737114429474
1783169727552682500,9.8966826171875,0.6208334565162659,0.08555271476507187,0.08128127455711365
1783169727562631400,9.90663134765625,0.6999948620796204,0.12089899182319641,0.02648034319281578
1783169727572610300,9.9166103515625,0.7270669341087341,0.12677551805973053,-0.007535680662840605
1783169727582559200,9.926559326171875,0.7099140286445618,0.12920992076396942,-0.005941512528806925
1783169727592508700,9.9365087890625,0.6589587330818176,0.12100525200366974,0.02304220199584961
1783169727602456300,9.946456298828124,0.5849215388298035,0.08094464987516403,0.07496532052755356
1783169727612436500,9.9564365234375,0.5025251507759094,0.017179252579808235,0.13091939687728882
1783169727622384600,9.966384521484375,0.43242067098617554,-0.03953036665916443,0.18834567070007324
1783169727632333600,9.97633349609375,0.3908676207065582,-0.06052033603191376,0.24100862443447113
1783169727642312400,9.9863125,0.37323322892189026,-0.019757458940148354,0.27450212836265564
1783169727652261400,9.996261474609375,0.38609445095062256,0.03301654011011124,0.2876424491405487
1783169727662210600,10.00621044921875,0.4151490032672882,0.10959254205226898,0.28566238284111023
1783169727672158500,10.016158447265624,0.4459284842014313,0.18714112043380737,0.28705841302871704
1783169727682138400,10.026138427734375,0.45260369777679443,0.2275194376707077,0.2887822687625885
1783169727692086500,10.03608642578125,0.42309585213661194,0.2273721694946289,0.29559198021888733
1783169727702035500,10.046035400390625,0.3750050365924835,0.21933075785636902,0.2943216562271118
1783169727712014300,10.056014404296874,0.32324251532554626,0.20439068973064423,0.2883167564868927
1783169727721963500,10.065963623046875,0.2617373466491699,0.15171469748020172,0.2638294994831085
1783169727731912400,10.075912353515625,0.1867285966873169,0.04358662664890289,0.1988619714975357
1783169727741861400,10.085861328125,0.1170845478773117,-0.0697801485657692,0.11327249556779861
1783169727751840300,10.09584033203125,0.07152185589075089,-0.13084909319877625,0.026730947196483612
1783169727761789400,10.10578955078125,0.034265030175447464,-0.11422564089298248,-0.049247972667217255
1783169727771737300,10.1157373046875,-0.00250603468157351,-0.0480804443359375,-0.10506356507539749
1783169727781717500,10.125717529296875,-0.030474819242954254,0.017905231565237045,-0.14377154409885406
1783169727791665700,10.135665771484375,-0.03778679296374321,0.060022588819265366,-0.15550516545772552
1783169727801614600,10.145614501953125,-0.01902269385755062,0.08352551609277725,-0.14079546928405762
1783169727811593500,10.155593505859375,0.01950659044086933,0.11446772515773773,-0.08722838014364243
1783169727821542400,10.16554248046875,0.046483878046274185,0.08227436989545822,-0.019464777782559395
1783169727831491600,10.17549169921875,0.04831746593117714,-0.05848727747797966,0.01853426918387413
1783169727841439500,10.185439453125,0.02490348555147648,-0.24878159165382385,0.0041276332922279835
1783169727851419400,10.19541943359375,-0.014071877114474773,-0.4234146475791931,-0.06730074435472488
1783169727861367600,10.205367431640624,-0.08754555881023407,-0.5274025797843933,-0.18843835592269897
1783169727871316500,10.21531640625,-0.20096373558044434,-0.5471339225769043,-0.3333713114261627
1783169727881295400,10.22529541015625,-0.3214579224586487,-0.44791093468666077,-0.4588450789451599
1783169727891244300,10.235244384765625,-0.4092167913913727,-0.22619612514972687,-0.5302172303199768
1783169727901193500,10.245193359375,-0.4558953642845154,0.08057846873998642,-0.5306433439254761
1783169727911142400,10.255142333984375,-0.464216411113739,0.3555631637573242,-0.4634752571582794
1783169727921121300,10.265121337890625,-0.4434504210948944,0.4617191553115845,-0.3721756935119629
1783169727931070200,10.2750703125,-0.409229576587677,0.3766559362411499,-0.27675729990005493
1783169727941018400,10.285018310546874,-0.35035374760627747,0.18563617765903473,-0.19277743995189667
1783169727950998500,10.29499853515625,-0.2639687955379486,-0.041792187839746475,-0.12427907437086105
1783169727960946400,10.304946533203125,-0.15083105862140656,-0.23774677515029907,-0.0755285769701004
1783169727970895600,10.3148955078125,-0.029693180695176125,-0.35072392225265503,-0.05049726366996765
1783169727980844500,10.324844482421875,0.05726328864693642,-0.3854965567588806,-0.05258358269929886
1783169727990823400,10.334823486328125,0.08996530622243881,-0.3928719162940979,-0.10514772683382034
1783169728000772400,10.3447724609375,0.08762652426958084,-0.37445375323295593,-0.16838128864765167
1783169728010721500,10.354721435546875,0.059120044112205505,-0.30695727467536926,-0.22159497439861298
1783169728020700400,10.364700439453125,0.006491455249488354,-0.2064836621284485,-0.238684743642807
1783169728030648600,10.374648681640625,-0.06372465193271637,-0.11525069177150726,-0.21370695531368256
1783169728040597500,10.384597412109375,-0.14442987740039825,-0.05583769828081131,-0.15023477375507355
1783169728050546400,10.39454638671875,-0.2181405872106552,-0.040775127708911896,-0.0640956312417984
1783169728060525300,10.404525390625,-0.27607953548431396,-0.08909711986780167,0.01079831924289465
1783169728070474500,10.414474609375,-0.3098768889904022,-0.16723506152629852,0.04506894201040268
1783169728080423400,10.42442333984375,-0.32052820920944214,-0.22440487146377563,0.03875698149204254
1783169728090402300,10.43440234375,-0.31788262724876404,-0.2539854049682617,-0.001344363670796156
1783169728100351200,10.444351318359375,-0.3149243891239166,-0.24212181568145752,-0.05248850956559181
1783169728110299400,10.45429931640625,-0.3123680353164673,-0.19772666692733765,-0.11078936606645584
1783169728120248600,10.46424853515625,-0.3057934641838074,-0.14130333065986633,-0.16705955564975739
1783169728130227200,10.474227294921874,-0.28207162022590637,-0.10156524181365967,-0.207229882478714
1783169728140176600,10.4841767578125,-0.24484144151210785,-0.062488943338394165,-0.21684309840202332
1783169728150125600,10.49412548828125,-0.20545169711112976,-0.03460058942437172,-0.19152602553367615
1783169728160104400,10.5041044921875,-0.17336618900299072,-0.00523604080080986,-0.14302213490009308
1783169728170053400,10.514053466796875,-0.14603497087955475,0.024153539910912514,-0.07310217618942261
1783169728180002600,10.52400244140625,-0.13103258609771729,0.035943884402513504,-0.0009201221400871873
1783169728189950500,10.533950439453125,-0.13500815629959106,0.026087526232004166,0.05655009299516678
1783169728199929600,10.5439296875,-0.14768347144126892,0.010861702263355255,0.08655859529972076
1783169728209878500,10.55387841796875,-0.15789403021335602,-0.023245135322213173,0.09306203573942184
1783169728219827500,10.563827392578125,-0.15525908768177032,-0.04687589406967163,0.0724443718791008
1783169728229806300,10.573806396484375,-0.14150093495845795,-0.05480252951383591,0.043602604418992996
1783169728239755500,10.583755615234375,-0.13883964717388153,-0.03544720634818077,0.008890963159501553
1783169728249704400,10.593704345703125,-0.15312430262565613,0.016925986856222153,-0.03442748263478279
1783169728259683300,10.603683349609375,-0.17775268852710724,0.0953155979514122,-0.08028391748666763
1783169728269632300,10.61363232421875,-0.19267171621322632,0.18400658667087555,-0.12518082559108734
1783169728279580400,10.623580322265624,-0.19432660937309265,0.2704397439956665,-0.1512715369462967
1783169728289529300,10.633529296875,-0.18908949196338654,0.3478754162788391,-0.15053598582744598
1783169728299508200,10.64350830078125,-0.1815679371356964,0.38567793369293213,-0.14457155764102936
1783169728309457700,10.653457763671875,-0.16999542713165283,0.37523141503334045,-0.12778165936470032
1783169728319406600,10.663406494140625,-0.1633247435092926,0.3525886833667755,-0.10306939482688904
1783169728329385500,10.673385498046875,-0.1601012498140335,0.2958199381828308,-0.08281046152114868
1783169728339334400,10.68333447265625,-0.1453193724155426,0.22797538340091705,-0.05692693218588829
1783169728349283600,10.69328369140625,-0.11657214909791946,0.17591138184070587,-0.03395823389291763
1783169728359231500,10.7032314453125,-0.0733857974410057,0.12943069636821747,-0.016654344275593758
1783169728369210400,10.71321044921875,-0.0261802040040493,0.09335710853338242,-0.004597148858010769
1783169728379184000,10.72318408203125,0.03062368929386139,0.13477565348148346,0.009475260972976685
1783169728389133000,10.733133056640625,0.08460862934589386,0.285866916179657,0.045460425317287445
1783169728399112000,10.74311181640625,0.1143161877989769,0.5038815140724182,0.1025753766298294
1783169728409060900,10.753060791015624,0.1292964667081833,0.7076748609542847,0.1899411678314209
1783169728419010000,10.763010009765624,0.13257934153079987,0.7421428561210632,0.2750193178653717
1783169728428958000,10.7729580078125,0.13920928537845612,0.5722480416297913,0.3223649859428406
1783169728438937900,10.782937744140625,0.1363418698310852,0.22212627530097961,0.2975086569786072
1783169728448886000,10.792885986328125,0.09592306613922119,-0.28059276938438416,0.15487240254878998
1783169728458835000,10.8028349609375,0.03099946118891239,-0.7756906747817993,-0.0863330215215683
1783169728468813800,10.812813720703126,0.00028868665685877204,-1.0025616884231567,-0.3398616909980774
1783169728478762800,10.8227626953125,0.005300755612552166,-0.9313905239105225,-0.5415689945220947
1783169728488712000,10.8327119140625,0.03808293864130974,-0.6453843116760254,-0.6407975554466248
1783169728498661000,10.8426611328125,0.0945344939827919,-0.1398465782403946,-0.6221317648887634
1783169728508640000,10.852639892578125,0.16073109209537506,0.42842671275138855,-0.484803169965744
1783169728518589000,10.8625888671875,0.21215033531188965,0.8248667120933533,-0.26125797629356384
1783169728528537000,10.872537109375,0.24392159283161163,0.9482256770133972,0.007485080510377884
1783169728538516000,10.882515869140626,0.24985910952091217,0.8380650877952576,0.24929264187812805
1783169728548465000,10.89246484375,0.25534868240356445,0.5200461149215698,0.4333719313144684
1783169728558414000,10.9024140625,0.26861441135406494,0.12540292739868164,0.5540975332260132
1783169728568363000,10.912363037109374,0.30043840408325195,-0.19832001626491547,0.6217943429946899
1783169728578342000,10.922341796875,0.335407555103302,-0.3404521048069,0.6253176927566528
1783169728588290800,10.932290771484375,0.3684842884540558,-0.3101935386657715,0.5578653812408447
1783169728598239000,10.942239013671875,0.39077335596084595,-0.2142837941646576,0.4489508867263794
1783169728608219000,10.952218994140624,0.41673544049263,-0.10502761602401733,0.31978359818458557
1783169728618167000,10.9621669921875,0.43652617931365967,0.0041497377678751945,0.19492927193641663
1783169728628116000,10.972115966796874,0.4373008906841278,0.09488816559314728,0.09013628214597702
1783169728638094800,10.9820947265625,0.4144384562969208,0.1553208827972412,0.015850069001317024
1783169728648043800,10.992043701171875,0.366454154253006,0.16258811950683594,-0.03627545014023781
1783169728657993000,11.001992919921875,0.2972170412540436,0.10974513739347458,-0.08217769116163254
1783169728667942100,11.011942138671875,0.2179858535528183,0.026607641950249672,-0.1363237500190735
1783169728677921000,11.021921142578124,0.15355919301509857,-0.036860812455415726,-0.18569636344909668
1783169728687870000,11.031869873046874,0.12297758460044861,-0.05729764327406883,-0.22589704394340515
1783169728697818000,11.041818115234374,0.13429789245128632,-0.024818796664476395,-0.2490343153476715
1783169728707798000,11.051798095703125,0.1815093457698822,0.028498221188783646,-0.24634265899658203
1783169728717746000,11.061745849609375,0.2547321617603302,0.069365493953228,-0.22045646607875824
1783169728727695000,11.071695068359375,0.3392803370952606,0.06860675662755966,-0.1851823776960373
1783169728737644000,11.08164404296875,0.4161977469921112,0.024990838021039963,-0.1365991234779358
1783169728747623000,11.091622802734374,0.47993889451026917,-0.035589419305324554,-0.08356040716171265
1783169728757571800,11.10157177734375,0.5171715021133423,-0.08437346667051315,-0.028298217803239822
1783169728767520000,11.11152001953125,0.5239689350128174,-0.12043453752994537,0.015223960392177105
1783169728777500000,11.1215,0.511966347694397,-0.13822950422763824,0.04043450951576233
1783169728787447800,11.13144775390625,0.4924802780151367,-0.13192100822925568,0.050993144512176514
1783169728797397000,11.14139697265625,0.46912407875061035,-0.11152226477861404,0.054789744317531586
1783169728807346000,11.151345947265625,0.43804553151130676,-0.10730328410863876,0.05432955175638199
1783169728817324800,11.16132470703125,0.4069456458091736,-0.10332958400249481,0.06591882556676865
1783169728827273700,11.171273681640624,0.3724862039089203,-0.07381536811590195,0.08137315511703491
1783169728837223200,11.18122314453125,0.3373228907585144,-0.0327499583363533,0.09911486506462097
1783169728847201800,11.191201904296875,0.3198397755622864,-0.019223229959607124,0.11490660905838013
1783169728857151000,11.20115087890625,0.3231615424156189,-0.0209465604275465,0.1357186883687973
1783169728867099100,11.21109912109375,0.3421216607093811,-0.009720271453261375,0.16076678037643433
1783169728877048000,11.221048095703125,0.3548417091369629,0.01581784524023533,0.18685723841190338
1783169728887027000,11.23102685546875,0.3538360893726349,0.040474455803632736,0.21341028809547424
1783169728896976000,11.240975830078124,0.33598625659942627,0.06343702971935272,0.24431706964969635
1783169728906925000,11.250925048828124,0.30147916078567505,0.06748875975608826,0.27388161420822144
1783169728916904000,11.260904052734375,0.25897377729415894,0.05427362397313118,0.29295650124549866
1783169728926852900,11.270852783203125,0.2144363969564438,0.030174413695931435,0.29223984479904175
1783169728936801000,11.280801025390625,0.1705951690673828,0.015400527976453304,0.26777100563049316
1783169728946750000,11.29075,0.1371527910232544,0.005363073665648699,0.23378533124923706
1783169728956728800,11.300728759765626,0.11293906718492508,-0.00780439330264926,0.19101949036121368
1783169728966678000,11.310677978515624,0.09804187715053558,-0.015795474871993065,0.14252465963363647
1783169728976627000,11.320626953125,0.09940008819103241,-0.006983873434364796,0.09970049560070038
1783169728986605800,11.330605712890625,0.10954726487398148,0.01883786916732788,0.07046803832054138
1783169728996554800,11.3405546875,0.12087368965148926,0.08602090179920197,0.052976664155721664
1783169729006504000,11.35050390625,0.11948112398386002,0.14076749980449677,0.05338519439101219
1783169729016451800,11.360451904296875,0.11388129740953445,0.17101381719112396,0.08787152916193008
1783169729026432000,11.370431884765624,0.1194225326180458,0.2192993313074112,0.1771092712879181
1783169729036380200,11.380380126953124,0.13447551429271698,0.21581564843654633,0.3064025342464447
1783169729046329000,11.3903291015625,0.1370002031326294,0.06571216881275177,0.421852171421051
1783169729056308000,11.400307861328125,0.11138112097978592,-0.12908022105693817,0.47601714730262756
1783169729066257000,11.4102568359375,0.06713536381721497,-0.2894209027290344,0.4453260600566864
1783169729076206000,11.4202060546875,-0.004708468914031982,-0.454094260931015,0.33125194907188416
1783169729086185000,11.43018505859375,-0.1326427310705185,-0.6879392266273499,0.1185772493481636
1783169729096134000,11.4401337890625,-0.27714505791664124,-0.8531082272529602,-0.15555523335933685
1783169729106082000,11.45008203125,-0.3934799134731293,-0.7969748973846436,-0.421180784702301
1783169729116031000,11.460031005859374,-0.463847815990448,-0.5607141852378845,-0.6081117987632751
1783169729126009900,11.470009765625,-0.4727798104286194,-0.21556797623634338,-0.6872284412384033
1783169729135958800,11.479958740234375,-0.4366622865200043,0.13734188675880432,-0.6692907214164734
1783169729145908000,11.489907958984375,-0.37851402163505554,0.36566054821014404,-0.5842727422714233
1783169729155886800,11.499886962890624,-0.314711332321167,0.40571582317352295,-0.4660843312740326
1783169729165835800,11.509835693359374,-0.23934520781040192,0.3090569078922272,-0.33001118898391724
1783169729175784700,11.51978466796875,-0.17026041448116302,0.13849422335624695,-0.19812560081481934
1783169729185732900,11.52973291015625,-0.1083160862326622,-0.05660122632980347,-0.09075413644313812
1783169729195713000,11.539713134765625,-0.04651850089430809,-0.216642826795578,-0.025716548785567284
1783169729205661200,11.5496611328125,0.019002718850970268,-0.2924901843070984,0.004282895475625992
1783169729215610000,11.559610107421875,0.07401777058839798,-0.2972734868526459,0.007919708266854286
1783169729225589000,11.569589111328124,0.11343254894018173,-0.2606116235256195,-0.020065853372216225
1783169729235538000,11.579537841796874,0.13636024296283722,-0.19060669839382172,-0.06621923297643661
1783169729245486800,11.58948681640625,0.13040007650852203,-0.09474461525678635,-0.1109856367111206
1783169729255435000,11.59943505859375,0.0956500917673111,0.025657692924141884,-0.13898931443691254
1783169729265415000,11.609414794921875,0.042924296110868454,0.1689317673444748,-0.14207938313484192
1783169729275363000,11.619363037109375,-0.02652748115360737,0.2907748520374298,-0.11236275732517242
1783169729285312000,11.62931201171875,-0.09465406835079193,0.34602850675582886,-0.07343373447656631
1783169729295291000,11.639290771484376,-0.1410471349954605,0.3413373529911041,-0.028556810691952705
1783169729305239800,11.64923974609375,-0.17005881667137146,0.27486297488212585,0.005461877211928368
1783169729315189000,11.65918896484375,-0.1780187338590622,0.17827093601226807,0.015631956979632378
1783169729325138000,11.669137939453124,-0.1720103770494461,0.08026634156703949,0.011872904375195503
1783169729335116800,11.67911669921875,-0.15797817707061768,0.03269403055310249,-0.013379188254475594
1783169729345065700,11.689065673828125,-0.14472202956676483,0.02720418944954872,-0.04627162590622902
1783169729355014000,11.699013916015625,-0.1299995481967926,0.0420510470867157,-0.07482443749904633
1783169729364994000,11.708994140625,-0.11424801498651505,0.06604453176259995,-0.0941786989569664
1783169729374969600,11.718969482421874,-0.09808582067489624,0.06883791834115982,-0.09282820671796799
1783169729384918800,11.728918701171875,-0.08951283991336823,0.052206214517354965,-0.06791166961193085
1783169729394867700,11.73886767578125,-0.08935943990945816,0.025437183678150177,-0.02725931815803051
1783169729404846600,11.7488466796875,-0.0905275046825409,-0.00036698358599096537,0.015963520854711533
1783169729414795500,11.75879541015625,-0.09289451688528061,-0.02165576070547104,0.050343066453933716
1783169729424743700,11.76874365234375,-0.09388414770364761,-0.03928349167108536,0.06489937007427216
1783169729434723600,11.7787236328125,-0.08782705664634705,-0.019711386412382126,0.060504354536533356
1783169729444671700,11.788671630859374,-0.08847660571336746,0.03254196420311928,0.03412894159555435
1783169729454620700,11.79862060546875,-0.0885370597243309,0.09544183313846588,-0.008802013471722603
1783169729464599600,11.808599609375,-0.0845353901386261,0.14700649678707123,-0.06439363956451416
1783169729474548500,11.818548583984375,-0.07027123123407364,0.1797838807106018,-0.1240372583270073
1783169729484497700,11.82849755859375,-0.039323169738054276,0.2247082144021988,-0.17592228949069977
1783169729494446800,11.83844677734375,-0.007032076828181744,0.2701617181301117,-0.21599701046943665
1783169729504425700,11.84842578125,0.016635967418551445,0.2925325334072113,-0.2371038943529129
1783169729514374700,11.858374755859375,0.033539850264787674,0.2819187641143799,-0.24132554233074188
1783169729524322800,11.86832275390625,0.04542633891105652,0.25207990407943726,-0.23634089529514313
1783169729534302700,11.878302734375,0.06714920699596405,0.22127166390419006,-0.21204620599746704
1783169729544250600,11.888250732421875,0.08835223317146301,0.2066040337085724,-0.15877526998519897
1783169729554199800,11.89819970703125,0.099962018430233,0.2059451788663864,-0.07157857716083527
1783169729564148700,11.908148681640625,0.1063634604215622,0.21980878710746765,0.03370629623532295
1783169729574127600,11.918127685546875,0.1168520525097847,0.28085243701934814,0.11523471027612686
1783169729584076500,11.92807666015625,0.14760063588619232,0.4102615714073181,0.1410583257675171
1783169729594024700,11.938024658203124,0.20156347751617432,0.6218854188919067,0.12347666174173355
1783169729604004600,11.948004638671875,0.285275936126709,0.9257680773735046,0.09861978143453598
1783169729613952500,11.957952392578125,0.32378900051116943,1.4225051403045654,0.2648242115974426
1783169729623901700,11.967901611328125,0.21298843622207642,1.4263571500778198,0.5612310767173767
1783169729633850600,11.9778505859375,0.05207172408699989,1.0547417402267456,0.7495967745780945
1783169729643829500,11.98782958984375,-0.09549722820520401,0.3519662916660309,0.8013520836830139
1783169729653778700,11.99777880859375,-0.14145034551620483,-0.4898674488067627,0.7524700164794922
1783169729663727900,12.007727783203125,-0.0878470316529274,-1.0941088199615479,0.5841656923294067
1783169729673706800,12.017706787109375,-0.00811811350286007,-1.32101571559906,0.3019992709159851
1783169729683655700,12.02765576171875,0.0815795511007309,-1.1737065315246582,-0.01895105466246605
1783169729693603800,12.037603759765625,0.19155824184417725,-0.6777886152267456,-0.29712381958961487
1783169729703552800,12.047552734375,0.20183324813842773,-0.15773716568946838,-0.4033128321170807
1783169729713531600,12.05753173828125,0.20493024587631226,0.27166426181793213,-0.35159239172935486
