time,seconds_elapsed,z,y,x
1783169576748098600,0.1450986328125,-0.35693010863065716,0.6931894774153828,-0.7443879689287394
1783169576758046700,0.155046630859375,0.06605974136292934,0.5823065517246723,-0.5813592244045809
1783169576767995600,0.16499560546875,0.21889058820605276,0.5010612239286303,-0.4833325288839638
1783169576777974500,0.174974609375,0.11595102273523807,0.5323755228638649,-0.38247006194815036
1783169576787923500,0.18492333984375,-0.07926116824150085,0.5486629330590367,-0.29561060233106834
1783169576797872600,0.19487255859375,-0.17520225312709808,0.4891729254752397,-0.28232480337098237
1783169576807821800,0.20482177734375,-0.2552215462595224,0.3946136503368616,-0.26614742942154407
1783169576817800700,0.21480078125,-0.4136100272297859,0.34566900216490026,-0.30695918615087864
1783169576827749600,0.22474951171875,-0.5647656343370676,0.2861234650015831,-0.4614155153039843
1783169576837697800,0.23469775390625,-0.4694564176142215,0.38730069697499275,-0.6008334114097058
1783169576847677700,0.244677734375,-0.1852016690939665,0.6931029681757092,-0.6270026756066829
1783169576857625600,0.25462548828125,0.06802841108739376,0.8678931333705783,-0.5184008100578561
1783169576867574800,0.26457470703125,0.4031961852431297,0.8955120849192142,-0.5840765936044976
1783169576877523700,0.274523681640625,0.8037263661473989,0.8918404106691479,-0.6581519932385533
1783169576887502600,0.284502685546875,0.8716565775573253,0.6800029558449984,-0.6874945537094026
1783169576897451500,0.294451416015625,0.9270704217433929,0.33674802908450363,-0.641681408496201
1783169576907399700,0.304399658203125,1.2490052048385143,0.16325433344095944,-0.42332094511147583
1783169576917379600,0.314379638671875,1.4341659574002026,0.18570698826760051,-0.10770195756703614
1783169576927327700,0.32432763671875,1.5535785187661646,0.2930921349704265,0.17770371455401182
1783169576937276700,0.334276611328125,1.6352946789443492,0.3906605287969112,0.5071476677028462
1783169576947225600,0.3442255859375,1.4191875839769839,0.22192951751053333,0.7298440414000302
1783169576957204500,0.35420458984375,1.2917168038398026,-0.38078093981742855,0.75778937535882
1783169576967153700,0.364153564453125,1.3310188866585493,-0.6352572206676006,0.6762061939105392
1783169576977102800,0.374102783203125,1.2525053219139575,-0.2053714736804366,0.44401017046216873
1783169576987081700,0.384081787109375,1.2268833894014357,0.0976084335759282,0.11353157703597098
1783169576997030700,0.39403076171875,1.1403618747681379,0.033200551073253155,-0.006776654528081416
1783169577006978800,0.403978759765625,1.0276876817464828,-0.07596388026177883,0.056553661870956416
1783169577016927700,0.413927734375,1.6824895608395336,-0.1127776533961296,0.26273396771624685
1783169577026906600,0.42390673828125,2.5170915422439575,0.0497007272362709,0.4007723921623081
1783169577036855800,0.433855712890625,2.7084049722164867,0.49700201166570185,0.34697314356602726
1783169577046804700,0.4438046875,2.16391114153564,0.8868871721759438,0.2438650896605104
1783169577056752600,0.453752685546875,1.4079156638562678,0.8854393114551902,0.01522642990015447
1783169577066732500,0.463732666015625,1.0863374391138554,0.966578548528254,-0.2046240893792361
1783169577076680700,0.4736806640625,1.2198708802908658,1.8614856532916426,-0.2738664793662727
1783169577086629600,0.483629638671875,0.9772498724073171,1.041376599881053,-0.6370243034053593
1783169577096608500,0.4936083984375,0.5526601860016584,-0.5906710599660873,-0.7026381276316941
1783169577106557700,0.5035576171875,0.2036351514071226,-1.4798518960371612,-0.3900765914291143
1783169577116506600,0.513506591796875,-0.5067927533179521,-2.0277552429005503,-0.1978806795336306
1783169577126455600,0.52345556640625,-1.1924696631461382,-2.163326911906898,-0.1574482775107026
1783169577136434400,0.533434326171875,-1.3761679419398307,-1.612247273094952,-0.06089885146841406
1783169577146384000,0.5433837890625,-1.128214925378561,-1.052462057518959,0.036418782467395064
1783169577156331800,0.553331787109375,-0.6144383045226335,-0.8369564355760812,0.10145648730620742
1783169577166311700,0.563311767578125,-0.07421908242106437,-0.9008657209068536,0.10544866221491246
1783169577176259800,0.573259765625,0.5370294861495495,-1.2012626259326935,0.13969452109001576
1783169577186208800,0.583208740234375,0.92653499969244,-1.4721566653594373,0.2694757335940376
1783169577196157700,0.59315771484375,0.9167489342153072,-1.6783675124734638,0.34910756177883595
1783169577206136600,0.603136474609375,0.5075438639461994,-1.7244339748606086,0.46055809475705023
1783169577216085800,0.613085693359375,-0.5392395634144544,-1.6951698864534497,0.58797568340227
1783169577226033700,0.62303369140625,-2.4565847588330505,-1.5051277915909886,0.5187723467839881
1783169577236013600,0.633013671875,-3.7811154525160786,-1.1168468514069914,0.6312493002004921
1783169577245993700,0.64299365234375,-2.606228207811713,-1.0155500847071408,0.6837647925965488
1783169577255943000,0.65294287109375,-1.255628422370553,-1.0067641361832618,0.32031437881905583
1783169577265892000,0.66289208984375,-0.9186305101782083,-0.7078004788309336,-0.0694038641590625
1783169577275870700,0.67287060546875,-0.8685895912021399,-0.3144076024606824,0.07296970341447741
1783169577285820000,0.68281982421875,-0.8886310932338237,-0.2253513086527586,0.5883371371258049
1783169577295769000,0.69276904296875,-1.0685913545429706,-0.3406660793110728,1.1290393204387277
1783169577305717000,0.702717041015625,-1.2778934456706046,-0.6226607739448548,1.41188398296535
1783169577315697000,0.71269677734375,-1.305849374088645,-0.7296174661025404,1.4320736612960696
1783169577325645000,0.72264501953125,-1.3093126662850378,-0.5381330634772777,1.38803081369102
1783169577335594000,0.732593994140625,-1.3831190762519836,-0.16249445498436688,1.2704276398345826
1783169577345572900,0.74257275390625,-1.3202630993664264,0.3077627576187253,1.0319514766708016
1783169577355521800,0.752521728515625,-0.9564677811414003,0.7196119126558304,0.709473526609689
1783169577365471000,0.762470947265625,-0.525142649000883,0.9296814810246229,0.4472456817846745
1783169577375419000,0.7724189453125,-0.2211731461852789,1.0703545648232102,0.27694499176247045
1783169577385398800,0.782398681640625,0.028747371056675908,1.3533081676170229,0.2776005147954449
1783169577395347000,0.792346923828125,0.17860650861263275,1.493388546219468,0.5601720594691112
1783169577405295900,0.8022958984375,0.4065443266272545,1.2889648747831581,0.9441071890011429
1783169577415274800,0.812274658203125,0.682910952246189,1.0178946020066737,1.33521400026083
1783169577425224000,0.822223876953125,0.7782493950635194,0.7567042104706168,1.6785791093975304
1783169577435172900,0.8321728515625,0.7686363480657339,0.589472497831285,1.9375174842230976
1783169577445122000,0.8421220703125,0.6929898631900548,0.5734875777140259,2.0491179105333983
1783169577455101000,0.852100830078125,0.5464443802267313,0.6654439768776297,1.9405097979068755
1783169577465049900,0.8620498046875,0.42063247321248054,0.8893477170705795,1.6013152524530887
1783169577474998000,0.871998046875,0.2287619938790798,0.9996481666982173,1.0754871784713118
1783169577484978000,0.88197802734375,0.11119652168452739,1.1559849758356808,0.8511107062000781
1783169577494926000,0.891926025390625,0.41165947768390176,1.3960188898354768,1.151073019200936
1783169577504875000,0.901875,0.5863152028441428,1.0075053099393845,0.8252342874698341
1783169577514824000,0.911823974609375,0.710337888354063,0.9405959660097956,0.7870463033728301
1783169577524802800,0.921802734375,0.7737433158159256,1.2295508550450205,1.0634814641833306
1783169577534752000,0.931751953125,0.6408890890747309,1.23031657872051,1.005981315242499
1783169577544701000,0.941700927734375,0.6225602361798286,1.145775716510415,0.9886864815704524
1783169577554679800,0.9516796875,0.6529086126923561,1.1081743001297115,1.1672330766893924
1783169577564628000,0.9616279296875,0.621819062423706,1.0228563160672783,1.3815927434675395
1783169577574577000,0.971576904296875,0.650851680162549,0.8684212488979101,1.5082378864355384
1783169577584525800,0.98152587890625,0.8202461237937212,0.82136723677814,1.5530122631855308
1783169577594505000,0.9915048828125,0.9668798695623874,0.8003770557194948,1.5269124840281902
1783169577604454000,1.001453857421875,0.9966846407175064,0.7119613979026674,1.4459472883477806
1783169577614403000,1.011403076171875,1.0386597421377897,0.6237020996913314,1.489667041478306
1783169577624351000,1.02135107421875,1.0817074412256478,0.49310734231472014,1.4988355595789848
1783169577634331000,1.031330810546875,1.016364908221364,0.40547991226613517,1.4424614920586347
1783169577644279000,1.041279052734375,0.9452800321727991,0.5439218760117888,1.4044041486039758
1783169577654228000,1.05122802734375,1.023379170897603,0.5663005888193845,1.1535850750871002
1783169577664207000,1.06120703125,1.0465455269515513,0.43639965892583127,1.028343442241475
1783169577674156000,1.071156005859375,0.9231728297829628,0.2957540476560592,1.1398156390622258
1783169577684105000,1.08110498046875,0.7608803271114826,0.18605127166062593,1.270503627680242
1783169577694054000,1.091053955078125,0.6232739374071359,0.1293719375833869,1.4249560843758284
1783169577704033000,1.101032958984375,0.6360685370504856,0.09066051413416862,1.5077280372172592
1783169577713982000,1.11098193359375,0.5620972919106483,0.0894365252971649,1.457128461445123
1783169577723929900,1.120929931640625,0.3651800505816936,0.11191986752301454,1.2676022071503101
1783169577733909000,1.130908935546875,0.12670681002736092,0.22242986824810504,0.8880540970634668
1783169577743858000,1.14085791015625,-0.026143326038122177,0.2793213837713003,0.9991168363004922
1783169577753806800,1.150806884765625,-0.1819195786833763,-0.012837854263186455,1.3172867139041422
1783169577763755800,1.160755859375,-0.4087549884140491,-0.010092062686383723,1.247511751410365
1783169577773735000,1.17073486328125,-0.34877895087897776,0.20886545327603817,1.0967951933074742
1783169577783684000,1.18068408203125,-0.22484394365251062,0.149795424669981,0.9337254957184195
1783169577793631700,1.1906318359375,-0.2367091534912586,0.005291968928277492,1.0103536120425909
1783169577803612000,1.20061181640625,-0.3178255942106247,-0.06974982805252075,1.1571502932880073
1783169577813560000,1.21056005859375,-0.3101619277149439,-0.11521043350100517,1.2215500655494629
1783169577823509000,1.220509033203125,-0.22195991264879703,-0.17154256157577036,1.189627060131356
1783169577833458000,1.2304580078125,-0.08720949689745902,-0.1905702103897929,1.122087966930866
1783169577843437000,1.24043701171875,-0.14980068536698818,-0.1396522163182497,1.0016118679866195
1783169577853386000,1.250385986328125,-0.33286651147603985,-0.13269962070137262,0.8870034920319915
1783169577863335000,1.2603349609375,-0.4759188916265964,-0.10531038625538348,0.7445368028149009
1783169577873282800,1.27028271484375,-0.6288964534640312,-0.10387918440848588,0.5398004121676087
1783169577883263000,1.280262939453125,-0.7536264104604721,-0.11700082404911517,0.3823840641651302
1783169577893211000,1.2902109375,-0.8045797681063414,-0.1086433300703764,0.34624640019405634
1783169577903159800,1.300159912109375,-0.7642933504253625,-0.1055345504000783,0.3493194144312292
1783169577913139000,1.310138916015625,-0.5523825381040572,-0.34107787498235703,0.4427305424477905
1783169577923088000,1.320087890625,-0.3708469903022051,-0.5967579786643386,0.6660596245579421
1783169577933036800,1.330036865234375,-0.5302443560540676,-0.6067381054088473,0.8285061487473547
1783169577942984700,1.339984619140625,-0.8298504029631614,-0.5670157513514161,0.8551429573908448
1783169577952965000,1.349965087890625,-1.111536177778244,-0.6086658586010336,0.8685798735257237
1783169577962912800,1.359912841796875,-1.3389531867891549,-0.5440136459484696,0.8868659832574427
1783169577972862000,1.369862060546875,-1.5128870274156332,-0.24824761559367178,0.7947479637913405
1783169577982841000,1.379841064453125,-1.4973790771603583,0.15670418114513157,0.4939158091533929
1783169577992790000,1.3897900390625,-1.4280582881748676,0.5476213150516152,0.17071644948255268
1783169578002739000,1.399739013671875,-1.4537322431355715,0.8562295835837721,-0.04260015624975785
1783169578012688000,1.40968798828125,-1.3232862465798854,1.016605146718025,-0.15077314712833612
1783169578022667000,1.4196669921875,-0.8352420328736305,1.102015192978084,-0.18148568077813834
1783169578032616000,1.429615966796875,-0.46004795327782627,1.1139449924856424,-0.0941414698514156
1783169578042563800,1.439563720703125,-0.23558687146306037,1.0039075777083635,0.054809804745158175
1783169578052544000,1.4495439453125,0.06716331869065761,0.8596025671482086,0.1902404487124644
1783169578062492000,1.459491943359375,0.2666647312939167,0.7502449513286352,0.31613764112368226
1783169578072440800,1.46944091796875,0.2471528060942888,0.6188315710455179,0.3597115560427308
1783169578082389800,1.4793896484375,0.22614567390084264,0.49866848357319826,0.342109263856709
1783169578092369000,1.489368896484375,0.19003566512167452,0.4587196272835135,0.26121391854211684
1783169578102317800,1.49931787109375,0.09145137225091457,0.44998803929537534,0.16203494771383703
1783169578112265700,1.509265625,-0.0031838907331228255,0.4897592009305954,0.029548458306491374
1783169578122215000,1.51921484375,-0.027197803527116773,0.5751306687459349,-0.13550159944482146
1783169578132193800,1.52919384765625,0.006430909830331802,0.642742607986927,-0.26819216005690394
1783169578142143000,1.53914306640625,0.12572773586213587,0.7214791678324342,-0.3309656828233972
1783169578152092000,1.549091796875,0.23333880027532578,0.7491656316593289,-0.2867075119672343
1783169578162071000,1.559071044921875,0.33088615131378174,0.6872703164994717,-0.15750797180868684
1783169578172020000,1.56902001953125,0.51013504948318,0.5911623506143688,-0.03411952908169478
1783169578181969000,1.578968994140625,0.7437924141883849,0.5082277545571326,0.07786551263201981
1783169578191917000,1.5889169921875,1.0432511615812778,0.4353013422951102,0.21788751211073248
1783169578201897000,1.59889697265625,1.30102823754251,0.36236586994379755,0.34833887896127996
1783169578211844900,1.608844970703125,1.449400351411104,0.27031419371217486,0.42218839741759
1783169578221793800,1.618793701171875,1.5357961938381195,0.18718407508283852,0.4593749493870884
1783169578231773000,1.62877294921875,1.5539157878965137,0.15708938107043505,0.4504103563606739
1783169578241747200,1.638747314453125,1.499071268031001,0.16407061825990676,0.3903182181652635
1783169578251696000,1.648696044921875,1.4313929855555294,0.1221148060619831,0.30183051802553235
1783169578261644000,1.65864404296875,1.3898855016469955,0.031038112342357635,0.26871519755031914
1783169578271624200,1.668624267578125,1.2553332388162612,-0.07979132959544658,0.2507670876013115
1783169578281572000,1.678572021484375,1.1335966184169053,-0.22882278415560722,0.21373568966090678
1783169578291521300,1.688521240234375,1.1291963376313447,-0.3826458569064736,0.17037612987859174
1783169578301500400,1.69850048828125,1.1362649608433246,-0.48601212335675953,0.19110322128795088
1783169578311449300,1.708449462890625,1.0482874021828175,-0.5704010098755359,0.24458562248740343
1783169578321398300,1.718398193359375,0.9261889627337455,-0.639562808907032,0.32516492412276565
1783169578331347200,1.72834716796875,0.8201040849745274,-0.6699924339622259,0.40053701250385493
1783169578341326300,1.738326416015625,0.6061065295070409,-0.6647916504487394,0.42205213075205683
1783169578351275300,1.748275146484375,0.38517303729653357,-0.6397340738207101,0.4087702590484172
1783169578361223200,1.75822314453125,0.2615694539815187,-0.6104577104538679,0.3942074076235294
1783169578371172000,1.768172119140625,0.20545418352782724,-0.5716489641100168,0.38771450194027274
1783169578381151200,1.778151123046875,0.0975806687861681,-0.562623946133256,0.4290378979861736
1783169578391100200,1.78810009765625,-0.08988426906466483,-0.5492652828663587,0.5174881887249648
1783169578401049000,1.798049072265625,-0.23976152679920196,-0.5489885117515921,0.5593799592433497
1783169578411028200,1.8080283203125,-0.31476912924945355,-0.48899143142849205,0.557880806726776
1783169578420977200,1.81797705078125,-0.3788695532381534,-0.4104910184264183,0.594277377362363
1783169578430925000,1.827925048828125,-0.39292496659755705,-0.37622926786243915,0.6970111545953899
1783169578440874000,1.8378740234375,-0.32626082960069175,-0.34199703565388917,0.7613637997794895
1783169578450853000,1.84785302734375,-0.2906026562422514,-0.2922904631987214,0.7653997042320668
1783169578460802300,1.85780224609375,-0.2873860322833061,-0.2778676778316498,0.7845239452883601
1783169578470751200,1.867751220703125,-0.2319943999290466,-0.2747381476342678,0.8168636417485773
1783169578480730400,1.87773046875,-0.180913031989336,-0.26403993574827905,0.8729158569034189
1783169578490679300,1.88767919921875,-0.20641747560203075,-0.26765695720165966,0.9471461183056235
1783169578500628200,1.897628173828125,-0.14066051657795905,-0.22784955520927905,1.0273610801406203
1783169578510576000,1.907576171875,-0.06898118176758289,-0.20553163267821073,1.0867232966262848
1783169578520556300,1.917556396484375,0.02388005728125572,-0.16798194648474454,1.0957203306175767
1783169578530504200,1.927504150390625,0.09840893630385399,-0.1126926054611802,1.1240758528124541
1783169578540453000,1.937453125,0.18692893127799032,-0.09995704252868891,1.1037828602377324
1783169578550432300,1.947432373046875,0.4187117342829704,-0.10762626198232174,1.0392714442953466
1783169578560381200,1.957381103515625,0.8336626547276973,-0.30596272245943545,1.1319801231309772
1783169578570330000,1.967330078125,0.9555150104612111,-0.6562815962567925,1.2954966146394609
1783169578580278300,1.9772783203125,0.6533002423584461,-0.8603913794383407,1.3603358742967246
1783169578590258200,1.987258056640625,-0.0000526069700717926,-0.7990735719054937,1.359326404993236
1783169578600206000,1.9972060546875,-0.8450544018357992,-0.7327797295257449,1.294969814286381
1783169578610155000,2.007155029296875,-1.3092594747930764,-0.5574211167931556,1.161755083669722
1783169578620134100,2.017134033203125,-1.5016986939251422,-0.12445084779411554,0.9529266744684427
1783169578630083000,2.0270830078125,-1.4860352608472107,0.41659897991269823,0.6547832474578171
1783169578640032300,2.0370322265625,-1.204706044384837,0.9339499521240592,0.29141755282171067
1783169578649981200,2.046981201171875,-0.8511731769770383,1.3460583426192403,0.11394289778321981
1783169578659960300,2.056960205078125,-0.3084966248512268,1.5003931642845272,0.13311726159155368
1783169578669909200,2.0669091796875,0.2600859374254942,1.4030556566044687,0.422409858148545
1783169578679857200,2.076857177734375,0.5313888499140739,1.178228956347704,0.932870340193808
1783169578689806300,2.086806396484375,0.8202455392718314,1.0269166973739863,1.4097387876302003
1783169578699785200,2.09678515625,1.1861235089898108,0.8878370202466845,1.84115276709795
1783169578709734100,2.106734130859375,1.3145365384131669,0.6803390559315681,2.246038658993691
1783169578719683000,2.11668310546875,1.2417501191437244,0.5224567709177732,2.5531723249286413
1783169578729662200,2.126662109375,1.1049708279132842,0.5201560927599668,2.702531404007971
1783169578739611100,2.136611083984375,0.9129536335855722,0.6521332444056868,2.6462650346457957
1783169578749559000,2.14655908203125,0.7369751353889703,0.9391334922417998,2.413188684698939
1783169578759508200,2.15650830078125,0.5634568898260593,1.1906895017310977,2.0775188062399623
1783169578769487000,2.166487060546875,0.5271913982242346,1.3118366318047046,1.8024325758203863
1783169578779436000,2.17643603515625,0.5027501999288797,1.3422408301576971,1.5538327857881784
1783169578789385200,2.18638525390625,0.4109837703794241,1.344149001866579,1.3974701115570962
1783169578799364000,2.196364013671875,0.2901227637708187,1.2311030529230833,1.4408990650475024
1783169578809313300,2.206313232421875,0.1745733075737953,1.034291025534272,1.5178379278212786
1783169578819262200,2.21626220703125,0.1764081217855215,0.8606225578457116,1.5559586919009685
1783169578829210400,2.22621044921875,0.1994265938013792,0.7378656544879079,1.550597018737346
1783169578839190300,2.236190185546875,0.23616204100251195,0.5926239475995302,1.5199052356146274
1783169578849138200,2.24613818359375,0.3302127820968628,0.46221799079328774,1.4758252708695827
1783169578859087000,2.256087158203125,0.44627544851303097,0.4099254934981465,1.3974524297699331
1783169578869066200,2.266066162109375,0.48456221680939193,0.3147051241025328,1.3611748093388973
1783169578879015200,2.27601513671875,0.3850269068241119,0.19132921206355094,1.3536544968366622
1783169578888964000,2.285964111328125,0.3219640091896057,0.055629532763361925,1.3380290576815603
1783169578898913000,2.2959130859375,0.4157710046559572,-0.02786211265474558,1.3519479851797223
1783169578908892200,2.30589208984375,0.5027285726189613,-0.11007423965632915,1.4333561023220418
1783169578918840000,2.315840087890625,0.5843728366047144,-0.2244344860687852,1.5360145127639173
1783169578928789200,2.325789306640625,0.6005249299824238,-0.3568205107763409,1.655890015466511
1783169578938738200,2.33573828125,0.5800397758364677,-0.43728988576382394,1.7694782545931635
1783169578948717000,2.345717041015625,0.592148731303215,-0.4437897691771388,1.7943655892208217
1783169578958666000,2.355666015625,0.7497755802512168,-0.41004532048553227,1.7539836022108792
1783169578968615200,2.365615234375,0.8789514107406139,-0.4316358055248856,1.7521859051391482
1783169578978594300,2.37559423828125,0.9105757985383272,-0.503422984623909,1.7328376460686326
1783169578988543200,2.385543212890625,0.9780249484330416,-0.5035132932558656,1.684396125113219
1783169578998491400,2.395491455078125,0.9264525821059941,-0.5156932681322097,1.6638871517002582
1783169579008440300,2.4054404296875,0.8208937740474939,-0.5961755026012658,1.736405421552807
1783169579018419200,2.415419189453125,0.7830459816902875,-0.6883072583317756,1.8335504754006862
1783169579028368100,2.4253681640625,0.7202437808185815,-0.8008215846166015,1.8554409662999212
1783169579038317300,2.4353173828125,0.5940811606705189,-0.9142097711265087,1.7829772031135855
1783169579048296200,2.445296142578125,0.4897890115469694,-0.994575978000462,1.712539538927376
1783169579058245000,2.4552451171875,0.3588099310278892,-1.0937129363179205,1.6418923236437142
1783169579068194000,2.465194091796875,0.1607750838458538,-1.1788058794528244,1.5336023370556533
1783169579078142200,2.47514208984375,-0.05823591586947441,-1.2031897946029901,1.3167822715133428
1783169579088122000,2.4851220703125,-0.30099194830954074,-1.100635136796534,1.0563913597919046
1783169579098070300,2.4950703125,-0.6695873602926731,-1.0306509154662489,0.8038166747793555
1783169579108019200,2.505019287109375,-0.9963713369846343,-0.954552887430787,0.6098351946413517
1783169579117998000,2.514998046875,-1.1797352692574261,-0.805699419786036,0.3986798768624663
1783169579127947000,2.524947021484375,-1.2183335877209902,-0.6253837691679597,0.18325667250603436
1783169579137896200,2.534896240234375,-1.238477965605259,-0.4616434057757258,0.00376665905714035
1783169579147844400,2.54484423828125,-1.136048103222251,-0.3633428982824087,-0.1928634358935058
1783169579157824300,2.55482421875,-0.7307417939573526,-0.33732816706001756,-0.32569691210761664
1783169579167772400,2.5647724609375,-0.25861177321970463,-0.394620372338593,-0.2465308748036623
1783169579177721300,2.574721435546875,-0.23161504522264004,-0.46958559695184227,-0.09021744654178619
1783169579187700200,2.5847001953125,-0.43221945063173767,-0.46879766144454477,-0.03917261122018099
1783169579197649200,2.594649169921875,-0.5482137279868126,-0.44591129137575625,-0.05675020735636353
1783169579207598300,2.604598388671875,-0.7171990062952042,-0.3630149815022945,-0.08352320960015058
1783169579217547300,2.61454736328125,-0.9894804084271192,-0.13502280295193195,-0.24435440754741428
1783169579227526100,2.624526123046875,-1.2448106757581234,0.15977292106598615,-0.5419590515062213
1783169579237475000,2.63447509765625,-1.360734225964546,0.3927694837749004,-0.9008037615865468
1783169579247460600,2.644460693359375,-1.2238035435646772,0.5577601394891739,-1.2206681681483984
1783169579257409800,2.654409912109375,-0.9040665627747774,0.6906871392056345,-1.3854223847582936
1783169579267389000,2.664388916015625,-0.5068617269009351,0.7557213369131088,-1.3069281092360614
1783169579277337900,2.674337890625,-0.034981297010183335,0.6887889043688774,-1.1394384763129055
1783169579287286800,2.684286865234375,0.3046177375912666,0.6065852529346942,-1.012724944283813
1783169579297265700,2.694265625,0.3629717268824577,0.5021686006486415,-0.8477633685335516
1783169579307214800,2.70421484375,0.36368367454409595,0.39338732341229915,-0.6925938496097922
1783169579317162800,2.714162841796875,0.27462299682199953,0.3480509288653731,-0.6591819938734174
1783169579327111700,2.724111572265625,-0.05905073938369751,0.38788054268956185,-0.8293179035216569
1783169579337090800,2.7340908203125,-0.4988029236078262,0.46694443479329345,-1.1223201682515442
1783169579347039700,2.744039794921875,-0.8898433916330337,0.5827884900227188,-1.4193585566297173
1783169579356988700,2.75398876953125,-1.0629705920517445,0.7270718732729554,-1.6838754622399805
1783169579366967600,2.763967529296875,-1.0446885009080171,0.8472168405666947,-1.889295743498206
1783169579376916700,2.773916748046875,-0.8814099098086356,0.9176283473983406,-1.970031952728331
1783169579386865700,2.78386572265625,-0.665876230815053,0.8981915332615374,-1.8920203461565077
1783169579396813600,2.7938134765625,-0.4082914625555277,0.7608604533672332,-1.6788456513792276
1783169579406793500,2.80379345703125,-0.10525777928531169,0.5829249758839606,-1.4411859191648662
1783169579416741600,2.81374169921875,0.22024726351201532,0.4326306617811322,-1.2472035622440278
1783169579426690800,2.82369091796875,0.7007949839830399,0.3067053575202823,-1.054379946904257
1783169579436669700,2.833669677734375,1.0654764373928307,0.21296733563691375,-0.8637912510097027
1783169579446619000,2.843618896484375,1.3320184190899134,0.11742284885346889,-0.7262764120463281
1783169579456567800,2.85356787109375,1.6327859109938143,0.05008388133496046,-0.6503275101579725
1783169579466515700,2.863515625,1.8931623557984827,-0.021426818910241126,-0.5980342822104692
1783169579476495600,2.87349560546875,2.0732675785362717,-0.08106354148834943,-0.5022206230968237
1783169579486443800,2.88344384765625,2.1481465861707925,-0.17695377296954393,-0.3653393327966332
1783169579496392700,2.893392822265625,2.0946213322103024,-0.3086141137510538,-0.20499628369249404
1783169579506341600,2.903341552734375,2.031733791142702,-0.3903355346262455,-0.06835165169239044
1783169579516320800,2.91332080078125,1.9074270279943941,-0.4701446921393275,0.034109354747552424
1783169579526269700,2.923269775390625,1.749321455618739,-0.6036068216457963,0.13197422903627157
1783169579536218600,2.933218505859375,1.6884055068850516,-0.7447326176479458,0.20346213292777537
1783169579546197800,2.94319775390625,1.5784230371654033,-0.8602049169555306,0.2306440812986344
1783169579556146700,2.953146728515625,1.4605524445444344,-0.931743966512382,0.24261859673075375
1783169579566094600,2.963094482421875,1.4027303701728582,-0.9947957582309842,0.2914832384690642
1783169579576043500,2.97304345703125,1.270811378455162,-1.0935282274007796,0.3395319607146084
1783169579586022700,2.983022705078125,1.2189835760623215,-1.1331836537018418,0.37019481000378723
1783169579595971600,2.9929716796875,1.163579084226489,-1.1011913093745709,0.3948316039364785
1783169579605920800,3.002920654296875,1.0083440988510846,-1.0860381639063357,0.43590924506038425
1783169579615900000,3.01289990234375,0.8756406787574291,-1.085927689269185,0.4516474969401955
1783169579625848800,3.022848876953125,0.8011603150516748,-1.0752633796527982,0.4482650879602879
1783169579635796700,3.032796630859375,0.729129682585597,-1.0735504382550716,0.43772382020168005
1783169579645745700,3.04274560546875,0.6961141326904297,-1.0635054295808075,0.4399250565730035
1783169579655724800,3.052724853515625,0.7013005954176187,-1.0419912246480583,0.4480402662284672
1783169579665673700,3.062673828125,0.6325333486616611,-1.0492705680012702,0.4852334671344608
1783169579675622700,3.07262255859375,0.3848088801592588,-1.1266373007982968,0.555530334610492
1783169579685601800,3.082601806640625,0.2098006882995367,-1.1697753085181117,0.6342697440002113
1783169579695550700,3.09255078125,0.05241641593575477,-1.1580334327980875,0.6691235421732068
1783169579705499600,3.102499755859375,-0.10678688854873179,-1.1609274006739259,0.6586334200799465
1783169579715447600,3.112447509765625,-0.11868073996007442,-1.142959490045905,0.66061078456752
1783169579725427700,3.122427734375,-0.17264964603483676,-1.1252432160913943,0.7062055377896874
1783169579735375600,3.132375732421875,-0.2885065607458353,-1.1227227577030658,0.7710442859902977
1783169579745324500,3.142324462890625,-0.40010581801235673,-1.1341627278670667,0.791617556811124
1783169579755303700,3.1523037109375,-0.5256587818294763,-1.0840168872117995,0.7497231194116175
1783169579765252600,3.162252685546875,-0.6221101543247699,-0.9930123819455504,0.6430591996554285
1783169579775201800,3.172201904296875,-0.6525847875654697,-0.890620513485372,0.5009732168516143
1783169579785149700,3.182149658203125,-0.6882312704861163,-0.8586483351632952,0.3770432876590639
1783169579795129900,3.1921298828125,-0.6485019021660089,-0.8818953552380203,0.35100123003832995
1783169579805077800,3.202077880859375,-0.3238964385569095,-1.2114002813264726,0.5969635842390358
1783169579815026700,3.212026611328125,0.08179448611140251,-1.6504925403371453,0.9589448387794196
1783169579824975600,3.2219755859375,0.2338379819691181,-1.8128306357160209,1.249365562583506
1783169579834954800,3.231954833984375,-0.10304068775773048,-1.9187743514388798,1.3401919348038733
1783169579844903700,3.241903564453125,-0.9814122527837753,-1.8578437896579503,1.2933389982141554
1783169579854852600,3.2518525390625,-2.3232687597990034,-1.4619991362214089,1.1822884608715771
1783169579864831700,3.261831787109375,-3.1840994074374436,-0.9202712631225586,0.7398927764013409
1783169579874780700,3.27178076171875,-2.999931173044443,-0.4172697187811136,0.12872903656996787
1783169579884728600,3.281728515625,-2.4220991363853215,0.13213877194821833,-0.46032669715397057
1783169579894677800,3.291677734375,-1.6640227607786655,0.6918064986243844,-0.9648455872558057
1783169579904656600,3.30165673828125,-0.8903332209765911,0.9512865791112184,-1.0637100853074342
1783169579914605600,3.31160546875,-0.5046107331037522,0.8698720322281122,-0.6588850567534565
1783169579924554500,3.321554443359375,-0.5343213962346315,0.7009285472348332,-0.23435893710330127
1783169579934533600,3.33153369140625,-0.527505871000886,0.4486754953920841,0.3190550629403442
1783169579944482800,3.34148291015625,-0.4744266072422266,0.24680706139653918,0.812650992489606
1783169579954430700,3.3514306640625,-0.5032055424809455,0.3406868298381567,0.9369093864515423
1783169579964380000,3.3613798828125,-0.4575502912431955,0.6369809757202863,0.6077627722814679
1783169579974358800,3.37135888671875,-0.4775543838739395,0.8735741016164421,0.10819273675866424
1783169579984307700,3.3813076171875,-0.7059767705351114,0.9813900409519671,-0.25830387631431223
1783169579994256600,3.391256591796875,-0.864338948020339,1.0704328907564282,-0.5785950569208711
1783169580004235800,3.40123583984375,-0.7801192805886268,1.254466392853856,-0.8697276553213595
1783169580014184700,3.411184814453125,-0.5079284793496132,1.4365890928938985,-1.0595988505963236
1783169580024133600,3.421133544921875,-0.23780513203442094,1.3994681535065174,-1.100422297763452
1783169580034081800,3.431081787109375,0.008209609940648078,1.2322054612070321,-1.0120767095081507
1783169580044061700,3.441061767578125,0.26437691261768337,1.1093418826043606,-0.8993298896417021
1783169580054009600,3.451009521484375,0.5428185909450054,1.0231266574412583,-0.8327003855668008
1783169580063958500,3.46095849609375,0.8854916261643171,0.9347235668450593,-0.702416301574558
1783169580073937700,3.470937744140625,1.1271341444045304,0.8465949092760682,-0.505937013271451
1783169580083886600,3.480886474609375,1.2876216434806584,0.7676546435520053,-0.34631745613627135
1783169580093835500,3.49083544921875,1.459881997936964,0.7020762559652328,-0.251416381822899
1783169580103784700,3.50078466796875,1.5126070414304733,0.6285258665859699,-0.21573840778544545
1783169580113763800,3.510763916015625,1.4154618414521216,0.46603871812522407,-0.2579953218217939
1783169580123711500,3.52071142578125,1.4520797997534274,0.3721867144733667,-0.3187870596539229
1783169580133660700,3.53066064453125,1.510296426400542,0.32564211318045855,-0.3484924620877951
1783169580143609900,3.54060986328125,1.4992413639009,0.23643530498594045,-0.2828197472810745
1783169580153588700,3.550588623046875,1.488821092173457,0.07509791108220815,-0.23285393936783075
1783169580163537700,3.56053759765625,1.4269114562273024,-0.036605975602567196,-0.17409582625515757
1783169580173486600,3.570486572265625,1.3088684296488762,-0.09867723185122013,-0.1184524110969156
1783169580183465700,3.5804658203125,1.1939110941261053,-0.17822364677488803,-0.08083521262519061
1783169580193414700,3.59041455078125,1.166912028041482,-0.1894555271461606,0.0007361322548240423
1783169580203362800,3.60036279296875,1.1597867062062024,-0.16723989594578742,0.07340550101585686
1783169580213311700,3.610311767578125,1.095221002793312,-0.0937678324997425,0.15763846632055936
1783169580223290600,3.62029052734375,0.9659855510711669,-0.026651275560259816,0.1959127404615283
1783169580233239600,3.630239501953125,0.9011281712353229,0.0011532616883516312,0.14611659002676605
1783169580243193900,3.64019384765625,0.951626770851016,0.07325754391252993,0.12466302924007176
1783169580253173000,3.650173095703125,0.9412895012319087,0.17290917375385761,0.19365838566347957
1783169580263122000,3.660121826171875,0.987516999399662,0.1745043339908123,0.32530148304924367
1783169580273071000,3.670071044921875,1.1064227802872657,0.11644435921013355,0.4767794539786875
1783169580283019000,3.68001904296875,1.1036708512306213,0.0184846279785037,0.6812066325463354
1783169580292998000,3.689997802734375,0.9933668944716453,-0.08582301097512245,0.8558639651417732
1783169580302947000,3.699947021484375,0.8326537699460983,-0.13925181882381438,0.8681893398381769
1783169580312896000,3.70989599609375,0.6336988853096962,-0.1940820179030299,0.7884457949072122
1783169580322875100,3.719875244140625,0.48548926852643487,-0.27022476186305283,0.709495373115316
1783169580332824000,3.729823974609375,0.252812731552124,-0.3686246380776167,0.637203678560257
1783169580342773000,3.73977294921875,-0.0314186360925436,-0.4130322273418307,0.5457714494012296
1783169580352721000,3.749720947265625,-0.23339257628917692,-0.40889936532080173,0.4160863542154431
1783169580362701000,3.759701171875,-0.4628355381697416,-0.3946197878167033,0.28641353398934005
1783169580372649000,3.76964892578125,-0.7394242821067571,-0.4436500684455037,0.1464186417132616
1783169580382598000,3.779597900390625,-0.9822305834293364,-0.5571209648028016,0.029885800502076742
1783169580392577000,3.789576904296875,-1.0623100823163985,-0.6755491913065313,0.019695684268698097
1783169580402526000,3.79952587890625,-0.9770312612205744,-0.8995397330000996,0.09628368777818977
1783169580412475000,3.809474853515625,-0.8735890069246292,-1.1359855593800543,0.16759119360148905
1783169580422423800,3.819423828125,-0.8021855664461851,-1.3585770479306578,0.2279362105794251
1783169580432403000,3.82940283203125,-1.030352517041564,-1.5852151815235613,0.23262020367719233
1783169580442352000,3.83935205078125,-1.4023358178973198,-1.7377558132484554,0.1777042260106653
1783169580452300000,3.849300048828125,-1.5927923387795686,-1.7178572268188,0.0043462125107645985
1783169580462249000,3.8592490234375,-1.6637012737393377,-1.518957579500973,-0.2413544950790703
1783169580472228000,3.86922802734375,-1.6163164222300053,-1.0768579553678632,-0.6093628278892487
1783169580482177000,3.879177001953125,-1.594078286936879,-0.5048790286511182,-1.090614385780692
1783169580492126000,3.8891259765625,-1.6507096902191638,-0.03145663001537323,-1.5306937561325729
1783169580502105000,3.89910498046875,-1.363349376899004,0.28135639673024415,-1.8662519909106194
1783169580512054000,3.909053955078125,-0.9476590362638234,0.4804518588811159,-2.0543983351543544
1783169580522002000,3.919001953125,-0.5795709892809391,0.5918102931290865,-2.106579773290455
1783169580531950800,3.928950927734375,-0.22763678924143313,0.6510580163896084,-2.0478291858971116
1783169580541930000,3.938929931640625,-0.06012625966072082,0.5996253507941961,-1.8789017752557993
1783169580551879000,3.94887890625,0.08991934037804603,0.5096989961534738,-1.6014149134352802
1783169580561827800,3.958827880859375,0.44147886188626284,0.489866168436408,-1.3376540868893265
1783169580571807000,3.968806884765625,0.8350988250106572,0.54850745023638,-1.1746243559844791
1783169580581756000,3.978755859375,1.101515134501457,0.6381088107064365,-1.0623870200101286
1783169580591704800,3.988704833984375,1.2354390363007783,0.6816811181902885,-0.9255995454732329
1783169580601652700,3.99865283203125,1.3129571602672339,0.6612853958934545,-0.7874043960954994
1783169580611633200,4.008633056640625,1.389307994019985,0.6592994827732443,-0.6916475086703896
1783169580621580800,4.018580810546875,1.421994458091259,0.6738833039209247,-0.6315573432363569
1783169580631530000,4.028530029296875,1.4040841228693723,0.6468646563529968,-0.609533435215801
1783169580641509000,4.038509033203125,1.4151537984162568,0.559807719668746,-0.5335189938105642
1783169580651458000,4.0484580078125,1.4475947632938622,0.4221358635127544,-0.3968632558945566
1783169580661407000,4.058406982421875,1.4989175387740135,0.25558278078734875,-0.283949061838258
1783169580671355100,4.068355224609375,1.4810136332929134,0.09963555548936127,-0.21903898370079694
1783169580681335000,4.0783349609375,1.4389356560200453,0.01416734930127859,-0.1734415453311987
1783169580691283000,4.088282958984375,1.3953402599215508,-0.036244156552851195,-0.15711531922928987
1783169580701231900,4.09823193359375,1.3769547084033489,-0.07222381695061922,-0.13208974517472089
1783169580711211000,4.1082109375,1.2584645225793123,-0.11191957526206969,-0.07161463554371147
1783169580721160000,4.118159912109375,1.1414607759207487,-0.14143880747407675,-0.03757145963385701
1783169580731108900,4.12810888671875,1.1449340049892662,-0.10126958643198013,-0.0354806613670662
1783169580741057800,4.138057861328125,1.0418448019146918,-0.09380816451013088,-0.03959456295929849
1783169580751037000,4.148036865234375,0.9290385069459676,-0.1470168998673558,-0.0011706146819517016
1783169580760985900,4.15798583984375,0.8544868315696715,-0.21260960824042557,0.034554851759038864
1783169580770933800,4.167933837890625,0.8451549396008252,-0.2740788069427013,0.010618936104699968
1783169580780883000,4.177883056640625,0.9050842153847217,-0.3616355098426342,-0.04425521171409637
1783169580790861800,4.18786181640625,0.9139899908959865,-0.4237885991558432,-0.03219641553200781
1783169580800811000,4.19781103515625,0.9617629649400711,-0.5071200855761766,-0.003171615773439407
1783169580810760000,4.207760009765625,0.9811579857617616,-0.6288531988441943,0.0016251169838011263
1783169580820739000,4.217739013671875,0.9509849658161401,-0.7208513913229108,0.019576076477020976
1783169580830688000,4.22768798828125,0.926587022140622,-0.7801043752804399,0.01856810501087457
1783169580840636000,4.237635986328125,0.93186876193583,-0.7943740159124135,-0.04721709372699261
1783169580850585000,4.247585205078125,0.9269944338977336,-0.8001841634958982,-0.12417729154974222
1783169580860564000,4.25756396484375,0.7739169188171625,-0.8318509291306138,-0.14261132185216993
1783169580870513000,4.267512939453125,0.6392302159518003,-0.87816610558182,-0.11508673405610025
1783169580880461800,4.2774619140625,0.6586743366122245,-0.9257678147122264,-0.026474128895066677
1783169580890441000,4.28744091796875,0.6166968971043825,-0.9923068640246987,0.12416830452568828
1783169580900390000,4.297389892578125,0.46678106092512606,-1.0214455724865197,0.22313078305907547
1783169580910338800,4.3073388671875,0.3976373820722103,-1.0394511847764254,0.282370761404559
1783169580920287000,4.317286865234375,0.32763328699767585,-1.056224040400982,0.3371654507789761
1783169580930267000,4.327266845703125,0.13876491208970546,-1.0647419856384397,0.4199438333611935
1783169580940214800,4.33721484375,-0.10772504618167876,-1.085636597368121,0.4728208525460213
1783169580950164000,4.3471640625,-0.30841070013344285,-1.0806377661675215,0.4519268984034657
1783169580960142800,4.357142822265625,-0.5144160878032445,-1.0095286324605346,0.3729071377024054
1783169580970092000,4.367092041015625,-0.764883717533946,-0.9205272837102413,0.3288346621440723
1783169580980041000,4.377041015625,-0.9211328483879566,-0.8800269310176372,0.3173307233657688
1783169580989989000,4.386989013671875,-0.9040396747678517,-0.8478478319466114,0.35585831468068063
1783169580999969000,4.396968994140625,-0.7181991232484579,-0.9577578209519386,0.5211002417422831
1783169581009917000,4.4069169921875,-0.43241701903045177,-1.2286088980197907,0.8953704844914376
1783169581019866000,4.4168662109375,-0.40193069535195824,-1.4343456978812812,1.250465925040841
1783169581029845000,4.426844970703125,-0.5593909555613994,-1.4846730325832962,1.42324665010944
1783169581039794000,4.4367939453125,-0.7072638877362012,-1.4115794470608234,1.4717399012520909
1783169581049742800,4.446742919921875,-1.247037704157829,-1.3368629365116358,1.4528312026426196
1783169581059692000,4.456692138671875,-2.127830358850956,-1.200478197556734,1.4115478828787802
1783169581069671000,4.4666708984375,-2.6052818668723106,-0.8824170410245656,1.1574862472441048
1783169581079619800,4.476619873046875,-2.4409318471491335,-0.40036329990476366,0.7017629522323608
1783169581089568000,4.486568115234375,-2.070255537238717,0.057146659328043456,0.2471339917959645
1783169581099517000,4.496516845703125,-1.6100427487879991,0.44866555851995943,-0.07994849291853606
1783169581109495800,4.506495849609375,-0.9775006322979927,0.6989300668939947,-0.22277780490294097
1783169581119444700,4.51644482421875,-0.39074645351469517,0.7699675966694951,-0.046110374594107266
1783169581129394200,4.526394287109375,-0.15356968251168726,0.6477241957917809,0.3941574310019612
1783169581139373000,4.536373046875,-0.12624620677828788,0.5044324539273977,0.8924615382421761
1783169581149322000,4.546322021484375,-0.11497194857001304,0.3708025666385889,1.332460171508044
1783169581159270100,4.556270263671875,-0.1463268717765808,0.24407179121375083,1.632955276211351
1783169581169219000,4.566218994140625,-0.15197919844985008,0.26476065123826265,1.6090201277419924
1783169581179198000,4.576197998046875,-0.13353344117701052,0.39654929457455873,1.3522349854275584
1783169581189147000,4.58614697265625,-0.3023082916051149,0.518359564732015,1.0841288231536745
1783169581199096000,4.596095947265625,-0.6064730247318745,0.6562935789555311,0.7814349662970751
1783169581209075000,4.606074951171875,-0.6947866834789515,0.8505611825585365,0.4183416953941807
1783169581219024000,4.61602392578125,-0.6807733556956053,0.9870157718792557,0.14669307474046944
1783169581228972800,4.625972900390625,-0.5980582476079463,1.0000731141120194,-0.020935089870542288
1783169581238921000,4.6359208984375,-0.3529986144006252,0.9879264569833874,-0.1152626386122778
1783169581248932900,4.645932861328125,-0.013971826729178427,0.9609408349022268,-0.05365370264574885
1783169581258880800,4.655880859375,0.23980185880959032,0.8441524845600128,0.13928798611573875
1783169581268829700,4.66582958984375,0.48851066217422484,0.6875912190169096,0.31120215748287733
1783169581278808800,4.675808837890625,0.6952361808121204,0.6383575247704982,0.3768185389924794
1783169581288757800,4.6857578125,0.843269856506586,0.6726710055217147,0.3624883272796869
1783169581298706700,4.695706787109375,1.0312503426641224,0.7657847580268978,0.321857370477356
1783169581308654800,4.70565478515625,1.1809405533939599,0.8664628083065151,0.24892127707153558
1783169581318634800,4.715634765625,1.3156027063399554,0.8668725581511855,0.18042882866896687
1783169581328582700,4.725582763671875,1.3605769895762205,0.7745248215824365,0.1833441681263968
1783169581338531800,4.73553173828125,1.3816180240392684,0.6634440352320671,0.19348664582576602
1783169581348510700,4.7455107421875,1.5265934812068938,0.5459259093105793,0.26607509483769537
1783169581358459600,4.755459716796875,1.680433797353506,0.5003533679202199,0.3624877062251791
1783169581368408600,4.76540869140625,1.7542688488930462,0.4617673244163394,0.4268228522852063
1783169581378357800,4.775357666015625,1.804801935300231,0.31633827826231714,0.5206611927378922
1783169581388337000,4.7853369140625,1.7781261098206043,0.14371581249535084,0.6367226170450448
1783169581398285800,4.795285888671875,1.7366595424443483,0.001394376967847347,0.7086473779838531
1783169581408234000,4.80523388671875,1.7114105348974464,-0.09399813412427901,0.7466871857818216
1783169581418183000,4.815182861328125,1.5989853482007979,-0.1028302598774433,0.7757210456296801
1783169581428161800,4.825161865234375,1.413316646116972,-0.09844926831424236,0.7870427231762558
1783169581438110700,4.83511083984375,1.222162790620327,-0.08923837237656115,0.7856660279955715
1783169581448060000,4.845059814453125,1.0784773732632398,-0.07129822653830051,0.762720767346397
1783169581458038800,4.855038818359375,0.8858803332209586,-0.03949760539084673,0.7133106205545365
1783169581467987700,4.86498779296875,0.6966700130075216,0.006695113724470138,0.6695231359500438
1783169581477935900,4.874935791015625,0.6485960101902485,0.04701163428276777,0.6089508130222558
1783169581487884800,4.884884765625,0.5965566108733416,0.08691372882127761,0.5717577582467347
1783169581497863700,4.89486376953125,0.5486731621921063,0.10719634613245725,0.5482569826066493
1783169581507812900,4.904812744140625,0.5569669432848692,0.09379647407233714,0.5990102876357734
1783169581517761800,4.91476171875,0.505838229072094,0.08137100000232457,0.6859463013540953
1783169581527740700,4.92474072265625,0.4437164116799831,0.07908405810892581,0.7378516259625554
1783169581537689600,4.934689697265625,0.3781815709739923,0.07767185322344303,0.7125695198636501
1783169581547638800,4.944638671875,0.13549275855123996,0.0611252075701952,0.6923180283430963
1783169581557586700,4.954586669921875,-0.21449030742049216,0.058717854167521,0.670599679140374
1783169581567566800,4.96456689453125,-0.7050806984782219,0.030703765821456907,0.6008003128577023
1783169581577515000,4.974514892578125,-1.1384347060978413,0.006809972275793552,0.4882162092722952
1783169581587464000,4.9844638671875,-1.2216127555221319,0.12691928373426198,0.284261324391514
1783169581597442800,4.99444287109375,-1.1964648702621459,0.15551526362150905,0.04285501692681573
1783169581607391700,5.004391845703125,-1.2063719317704438,0.007519289588928222,-0.04900039694719016
1783169581617341000,5.0143408203125,-0.8306921144843101,0.13147943125665187,0.03802672912068665
1783169581627289900,5.024289794921875,-0.5317220273911952,0.09357990871220827,0.024024872579425573
1783169581637268700,5.034268798828125,-0.640140901055932,-0.1492357449606061,0.07383337103910743
1783169581647217000,5.044216796875,-1.0481038623094558,-0.43143005381971594,0.12067673608288168
1783169581657165800,5.054165771484375,-1.4255477666586636,-0.6994952995613217,0.22250490624569355
1783169581667144700,5.064144775390625,-1.6687731701761483,-0.8307599190235138,0.2791741573203355
1783169581677093600,5.07409375,-1.7829291261881588,-0.7966805392891169,0.13094313242286443
1783169581687042800,5.084042724609375,-1.713968402686715,-0.7213540801480413,-0.1568270768724382
1783169581696991700,5.09399169921875,-1.6561451592713594,-0.7572942853182554,-0.45344077356513585
1783169581706970600,5.103970703125,-1.7563187671601772,-0.6107461720064282,-0.8033196850426495
1783169581716919800,5.113919921875,-1.8066005091547965,-0.3103124421015382,-1.2590087124586105
1783169581726867700,5.12386767578125,-1.4539970315515993,-0.03645926060825586,-1.6501859586060046
1783169581736817000,5.13381689453125,-0.8481272334098815,0.18526304389238357,-1.8540742079913615
1783169581746795800,5.143795654296875,-0.2593634683698416,0.3728483932524919,-1.8856743381306529
1783169581756745000,5.153744873046875,0.026063246539235113,0.5180667192652821,-1.7517270554557443
1783169581766694000,5.16369384765625,-0.1346200673699379,0.508775451567769,-1.5350922833524643
1783169581776672800,5.1736728515625,-0.45281332584917544,0.17524316965937614,-1.269093030229956
1783169581786621700,5.18362158203125,-0.6551771421462297,-0.2981900426313281,-1.0641461386371402
1783169581796571000,5.19357080078125,-0.7168050385415554,-0.526299125559628,-1.0786506109382956
1783169581806518800,5.203518798828125,-0.5473579879403114,-0.4473699657514691,-1.2181475636295973
1783169581816498700,5.213498779296875,-0.18147300395965574,-0.25466391237676145,-1.3764534808829425
1783169581826446800,5.22344677734375,0.18863690423965454,-0.09771481655985116,-1.4672779534071683
1783169581836395800,5.233395751953125,0.4910030635118484,-0.02937777791470289,-1.4947551583975554
1783169581846374700,5.243374755859375,0.747796389132738,0.08843465477824211,-1.484776200696826
1783169581856323800,5.25332373046875,0.9829097978651523,0.24502514641582965,-1.4465502226769924
1783169581866272800,5.263272705078125,1.1099164676219224,0.33671558811962604,-1.4237014081396162
1783169581876220700,5.273220703125,1.1300170063644648,0.347603477358818,-1.438355079653114
1783169581886200800,5.283200927734375,1.072661964982748,0.2594002932488918,-1.4300534075148403
1783169581896148700,5.293148681640625,0.9853776492834091,0.15338205098509788,-1.4018722920387983
1783169581906098000,5.303097900390625,1.075638350445032,0.13708119678646324,-1.3758422171168028
1783169581916076800,5.313076904296875,1.3129349484354256,0.30138650058507915,-1.3624562274515628
1783169581926026000,5.32302587890625,1.457311855188012,0.5200079164609313,-1.3607272117018698
1783169581935975000,5.332974853515625,1.4211118300378323,0.6386442327573895,-1.3791340982690452
1783169581945923800,5.342923828125,1.270675184854865,0.5906657992690801,-1.3254285193055868
1783169581955902700,5.35290283203125,1.4775199459582566,0.2056070360019803,-1.327105366476625
1783169581965852000,5.362851806640625,2.1209289088994265,-0.2530348498702049,-1.2746782830163836
1783169581975799800,5.3727998046875,2.036184925332665,-0.1541772930160165,-0.8020357096467167
1783169581985779700,5.38277978515625,1.5910288362383842,0.10836568217277526,-0.6903408099859952
1783169581995728000,5.392727783203125,1.4224778576940298,0.0639241906389594,-0.6143751030933111
1783169582005676800,5.4026767578125,1.5783271755754946,-0.14235709136277436,-0.35464871969521045
1783169582015625700,5.412625732421875,1.861900956094265,-0.1952168671518564,-0.19663871664851904
1783169582025604600,5.4226044921875,1.8749965845108032,-0.12111118197739124,-0.24087591778188944
1783169582035553800,5.4325537109375,1.6121283228904009,-0.1809320289507508,-0.3364069605618715
1783169582045501700,5.442501708984375,1.2890075448811054,-0.31214111883342266,-0.33114779792465265
1783169582055450600,5.45245068359375,1.0951976219177246,-0.3769797939687967,-0.1229074177443981
1783169582065429800,5.4624296875,1.0783452713161705,-0.3707081663534045,0.1434760123901069
1783169582075379000,5.47237890625,1.044304470026493,-0.41747663953006264,0.34685740823186934
1783169582085328000,5.482327880859375,0.8512515029102563,-0.5489771135747432,0.47903804656043647
1783169582095306800,5.492306640625,0.5552355894476175,-0.7124982812583446,0.48490587914790956
1783169582105256000,5.502255859375,0.20356442425847052,-0.7104334576830268,0.4606367129512131
1783169582115204900,5.512204833984375,0.04841010290384292,-0.6157973179161548,0.46420942033883184
1783169582125152800,5.52215283203125,0.22070903580486773,-0.5898191193118691,0.4239894554901868
1783169582135132700,5.532132568359375,0.34526012910306453,-0.5967313829183578,0.3438823014112189
1783169582145080800,5.542080810546875,0.15127368052899837,-0.6151543438374996,0.2973192146135494
1783169582155029800,5.55202978515625,-0.2155430313438177,-0.7017617831885814,0.3467677571870386
1783169582165009000,5.5620087890625,-0.5486947895020247,-0.8141802478834986,0.3950497401991859
1783169582174957800,5.571957763671875,-0.6306243001699448,-0.8391013386502861,0.29663484907858073
1783169582184906800,5.58190673828125,-0.3736953654706478,-0.8378148059710859,0.2701215206842869
1783169582194854700,5.591854736328125,0.04997779061198234,-1.0464984729394315,0.48592064568102356
1783169582204834800,5.601834716796875,0.11385960341393947,-1.256816170850396,0.8454268153447657
1783169582214782700,5.61178271484375,-0.46995384574234483,-1.3003300261452793,1.1445295158416031
1783169582224731600,5.621731689453125,-1.7545879978448151,-1.273847677411139,1.3758683744713662
1783169582234710800,5.631710693359375,-2.7383494441032408,-1.3179492694661021,1.5054729517668484
1783169582244670500,5.64167041015625,-2.8793109894543885,-0.9749489019885659,1.1682601547148077
1783169582254619400,5.651619384765625,-2.4744927559673786,-0.21805384512096643,0.48571522276941687
1783169582264568300,5.661568359375,-1.8355963020145891,0.5262307364985347,-0.2207844025960192
1783169582274547500,5.67154736328125,-1.1861936516165732,1.069071831536293,-0.7544641033936291
1783169582284496400,5.681496337890625,-0.5074433261811733,1.25108318015635,-0.9226427414942532
1783169582294444300,5.6914443359375,0.09746376440823078,1.0467442643940448,-0.6199025612778961
1783169582304424200,5.701424072265625,0.3625549627751112,0.8118801542475819,-0.05244812624827027
1783169582314372400,5.711372314453125,0.2877875988215208,0.6028329146638512,0.518451699994877
1783169582324321300,5.7213212890625,0.13724047900140285,0.4032525916054845,0.956356429721415
1783169582334270200,5.731270263671875,0.0817120685249567,0.26134324401021003,1.2180461490817367
1783169582344249300,5.741249267578125,0.057065118524432176,0.23165976114720105,1.2719000504747033
1783169582354198300,5.7511982421875,0.06467559352815151,0.3011225889518857,1.1661296454921364
1783169582364146200,5.761146240234375,0.10542378350198268,0.42103637783825393,0.9834345523916185
1783169582374126000,5.7711259765625,-0.012786416336894035,0.5757993617877364,0.7490753230273723
1783169582384074200,5.78107421875,-0.11926117019653319,0.7047805464878678,0.5377115501295775
1783169582394023200,5.791023193359375,-0.08704290815889835,0.7941641725540161,0.4057311836134642
1783169582403972400,5.800972412109375,-0.018003858724236488,0.8359972351551055,0.331407837100327
1783169582413951500,5.810951416015625,0.06660042411088943,0.8063289498612284,0.303213204555586
1783169582423900400,5.820900390625,0.19390695359706878,0.7674179121866822,0.2905381396386772
1783169582433849300,5.830849365234375,0.315368848708272,0.7385761408448219,0.2912133354865014
1783169582443797200,5.84079736328125,0.4949357267856598,0.693116412179172,0.3460094861656427
1783169582453777400,5.85077734375,0.6309142230272293,0.6363216350287199,0.48175475817322727
1783169582463725300,5.860725341796875,0.6717220342338085,0.583222789786756,0.52077963148579
1783169582473674200,5.87067431640625,0.8781149599164724,0.6568354307472706,0.4400429107990116
1783169582483653400,5.8806533203125,1.0605547630816698,0.7799310645401477,0.28621698850393296
1783169582493602300,5.890602294921875,0.9942980378419161,0.7634463782072067,0.15874050927832722
1783169582503551200,5.90055126953125,0.9360323113560676,0.5852022731661797,0.05780395419299602
1783169582513499100,5.9104990234375,1.1102180809170008,0.4353545337870717,0.12682539490573108
1783169582523479300,5.920479248046875,1.3300392279714346,0.38189270045161244,0.24214272284731267
1783169582533427200,5.93042724609375,1.4083821123242377,0.27813071268200873,0.3103282972577959
1783169582543376100,5.940376220703125,1.3352590084463356,0.10333616357296704,0.37010720478557046
1783169582553355300,5.950355224609375,1.2970359530359505,-0.03105915513038635,0.3633279929742217
1783169582563304200,5.96030419921875,1.3311392981678247,-0.056657414506375785,0.30208646554797886
1783169582573253400,5.97025341796875,1.2942588895380496,-0.08916209226995706,0.28973434897512196
1783169582583202300,5.980202392578125,1.2017395957946777,-0.1615872770115733,0.35278230476882305
1783169582593181400,5.990181396484375,1.091358482146263,-0.1774187601327896,0.38817886804901064
1783169582603130400,6.00013037109375,0.9794868376791477,-0.14072949016094208,0.39076468329112973
1783169582613078300,6.010078369140625,0.8493594055533409,-0.11246055027097462,0.3461611330633983
1783169582623058400,6.020058349609375,0.6761655696392059,-0.0966410498484969,0.278611847262457
1783169582633006300,6.03000634765625,0.5233575191497802,-0.08649579567015171,0.24098471191860735
1783169582642955300,6.039955322265625,0.3955208283096552,-0.09341010510325432,0.2153399099871516
1783169582652904200,6.049904296875,0.43395548064410683,-0.06402180579453706,0.1943926182221621
1783169582662883300,6.05988330078125,0.44149990467429157,-0.02372808158993721,0.21605967562906442
1783169582672832300,6.069832275390625,0.31701544687151906,-0.03792874863892794,0.2676774154677987
1783169582682780200,6.0797802734375,0.19435995806157588,-0.09023410541564225,0.34195049309842285
1783169582692760300,6.08976025390625,0.19947160198688507,-0.11482231096625327,0.3929819574818015
1783169582702708200,6.099708251953125,0.2851508205771446,-0.06352496218830346,0.4303852209419012
1783169582712657200,6.1096572265625,0.22124504237771034,-0.03309533713310957,0.45903329634256657
1783169582722606000,6.119606201171875,0.019499650239944457,-0.08780658600777387,0.5202560460031033
1783169582732585200,6.129585205078125,-0.2149415583193302,-0.162410283832252,0.5225025097556412
1783169582742534400,6.139534423828125,-0.3946118967711925,-0.17735884663909673,0.4518127705045044
1783169582752483300,6.1494833984375,-0.5528168378680944,-0.13477321210503576,0.33129283241853114
1783169582762431500,6.159431396484375,-0.5848883849114179,-0.1351373692423105,0.1775766541082412
1783169582772411400,6.169411376953125,-0.5027086988747119,-0.23534692522734402,0.15171704038232564
1783169582782359300,6.179359375,-0.4979705644369125,-0.4134574670165777,0.21709530228711663
1783169582792308200,6.18930810546875,-0.6683160251826048,-0.4777668575808406,0.2836778254151344
1783169582802287400,6.199287353515625,-1.0569570308506488,-0.44032501567602156,0.278411538917385
1783169582812236300,6.209236328125,-1.4581787011504173,-0.5354013004258275,0.21322832466065883
1783169582822185200,6.219185302734375,-1.6308476364076137,-0.6530126575887203,0.21029786069933323
1783169582832134100,6.229134033203125,-1.7816437625527382,-0.5750719242960214,0.1620558078387752
1783169582842113300,6.23911328125,-1.9225573771089315,-0.40138913582116365,-0.005706431480683386
1783169582852061200,6.249061279296875,-1.9236299747765062,-0.2944306900978088,-0.21773937234431504
1783169582862010400,6.25901025390625,-1.8259458456158637,-0.19672347232252357,-0.4529663244538009
1783169582871989200,6.2689892578125,-1.6865134095281362,-0.09303542657196522,-0.6656164108350873
1783169582881938200,6.278938232421875,-1.5576058745861052,0.0005289923101663589,-0.7989077138192952
1783169582891887000,6.28888720703125,-1.4449784433156252,0.06494681168496608,-0.864802693074569
1783169582901836300,6.298836181640625,-1.4176175581812858,0.09716711954921484,-0.9428975209504366
1783169582911815400,6.3088154296875,-1.2883195626169441,0.17221709983646868,-1.0418711053997278
1783169582921764400,6.318764404296875,-0.9955722955614328,0.28615356787890195,-1.1477062461815775
1783169582931712500,6.32871240234375,-0.6495651474833488,0.3741822722047567,-1.302995738223195
1783169582941692400,6.3386923828125,-0.460119264948368,0.38076340416073795,-1.4160742742620407
1783169582951640300,6.348640380859375,-0.2905798598885536,0.3144415047302842,-1.4686948344677686
1783169582961589200,6.35858935546875,-0.046968671923875806,0.2758136679112911,-1.4568326933689415
1783169582971538400,6.368538330078125,0.16840952424705027,0.2901020132437348,-1.4216769165746868
1783169582981517300,6.378517333984375,0.43672143822610376,0.28629706800282,-1.3931903884112835
1783169582991466200,6.38846630859375,0.7671767969071864,0.26006021846234795,-1.3817730684705078
1783169583001415200,6.398415283203125,1.061843049326539,0.24398645101785657,-1.3829860975220798
1783169583011394300,6.408394287109375,1.3304904788702725,0.18739830235540866,-1.3043372159600257
1783169583021342200,6.41834228515625,1.600374756732583,0.0986696330666542,-1.1305495788712054
1783169583031291100,6.428291015625,1.7987468730449676,0.0152387779250741,-0.941571679174155
1783169583041240300,6.438240234375,1.9186440030574798,-0.08696312092095614,-0.810213536209613
1783169583051219200,6.44821923828125,2.0334832651585337,-0.18405542166829109,-0.7451064924616366
1783169583061168000,6.458168212890625,2.11875857912302,-0.28343057265579696,-0.6760968883171677
1783169583071117300,6.468117431640625,1.9819740271955728,-0.4061369148701429,-0.650596974749118
1783169583081065200,6.478065185546875,1.8464333378493785,-0.45464229484200475,-0.6712153998859226
1783169583091045400,6.48804541015625,1.814850451105833,-0.40252398506999015,-0.6915875951766968
1783169583100993300,6.4979931640625,1.6823866849869489,-0.39453707796931264,-0.7291793669462203
1783169583110942500,6.5079423828125,1.4742542221605777,-0.4330126468360424,-0.7585019075423478
1783169583120921300,6.51792138671875,1.3104454697072505,-0.44874622254073615,-0.774958171498403
1783169583130870300,6.527870361328125,1.155503329798579,-0.4780380757376551,-0.7608770391758531
1783169583140819200,6.537819091796875,1.0174714081585408,-0.5296919828683138,-0.7595844420820475
1783169583150768400,6.547768310546875,0.9851263048708438,-0.5465452102527022,-0.801887460282445
1783169583160747300,6.557747314453125,1.00784900881052,-0.5321911062076687,-0.8307264551453292
1783169583170696200,6.5676962890625,0.9785212075173855,-0.5662570419386029,-0.8262962176129222
1783169583180644400,6.577644287109375,1.0274562110781669,-0.6494421056255698,-0.801872920300439
1783169583190623200,6.587623291015625,1.090571715682745,-0.7280714057043194,-0.7942152451541274
1783169583200572200,6.597572265625,1.1172510482937097,-0.7822098231270909,-0.8180117888703942
1783169583210521300,6.607521240234375,1.1588713449269532,-0.8196101639777421,-0.8328676318924874
1783169583220470300,6.61747021484375,1.1891583466410636,-0.8462032796099781,-0.841702972516045
1783169583230449200,6.62744921875,1.2182488320469855,-0.845200240047276,-0.8963445902206003
1783169583240398000,6.637398193359375,1.252870063573122,-0.818724613314867,-0.9093342009793967
1783169583250383400,6.64738330078125,1.3118261104106903,-0.7873746585443615,-0.8408326194223016
1783169583260363300,6.65736328125,1.3818085781753062,-0.7854758391857147,-0.7833086512144655
1783169583270311400,6.6673115234375,1.4744634809970856,-0.7966703101560473,-0.7382477126080542
1783169583280260400,6.67726025390625,1.5059329704940319,-0.8185454573556781,-0.6662805738322436
1783169583290209300,6.687209228515625,1.4492396078914402,-0.8650450504630803,-0.5269784861259162
1783169583300188400,6.6971884765625,1.4631845466136932,-0.854185802796483,-0.3660566872857511
1783169583310137300,6.707137451171875,1.4846055203050375,-0.8066223798498511,-0.23785927337445317
1783169583320086300,6.717086181640625,1.4307716387867926,-0.7898588765755296,-0.09818601426817476
1783169583330065200,6.727065185546875,1.3249421970933675,-0.7625280943185091,0.08611264157146215
1783169583340014300,6.737014404296875,1.0863023678004742,-0.7579615170553327,0.28606413602977987
1783169583349962200,6.746962158203125,0.7823720279514789,-0.8045107945233583,0.48779601109884674
1783169583359911200,6.7569111328125,0.5998463000684976,-0.8232599186569451,0.6152779702171683
1783169583369890300,6.766890380859375,0.37388475056290627,-0.7746475711792707,0.7445131296783686
1783169583379839200,6.776839111328125,-0.00035889644026756285,-0.8009700531765818,0.870454873617366
1783169583389788400,6.786788330078125,-0.33391280565857884,-0.8194795233353972,1.0198914749123156
1783169583399767300,6.796767333984375,-0.6626537616372108,-0.8127832405671477,1.1582777629479766
1783169583409716500,6.806716552734375,-0.8207868065416812,-0.7066472171425819,1.1720922071583568
1783169583419664400,6.816664306640625,-0.606214666056633,-0.6476002771511673,1.2839993613302707
1783169583429613300,6.82661328125,0.021358429849147795,-0.9458394196212291,1.6958106685750185
1783169583439592400,6.836592529296875,0.4833955111175775,-1.4698232539758085,2.2274378572896123
1783169583449541400,6.846541259765625,0.2986205430030823,-1.8842162482768297,2.624935830891132
1783169583459490300,6.856490234375,-1.2294675606757401,-1.9140043605580925,2.9134441452026367
1783169583469439200,6.866439208984375,-3.7491093719244,-2.1440455805927514,3.132135411444306
1783169583479418400,6.87641845703125,-4.542213221770525,-2.1665201549902555,2.9279730212926864
1783169583489367300,6.8863671875,-3.680913787576556,-1.3766396511048078,2.122482421951741
1783169583499315200,6.896315185546875,-3.3303806865066288,-0.34268560243993995,1.1719043564360587
1783169583509295000,6.906295166015625,-3.2198271389007567,0.6132336049079895,0.18635200817286968
1783169583519243300,6.9162431640625,-2.8495845442324876,1.2281173151105642,-0.5225687433922663
1783169583529192200,6.926192138671875,-2.4068588971555234,1.42494833946079,-0.7789918839938939
1783169583539141000,6.93614111328125,-1.9511159475952387,1.2904445919468999,-0.48361488948930054
1783169583549120300,6.946120361328125,-1.701937188631296,0.9813163911938667,0.28050946104470637
1783169583559069400,6.9560693359375,-1.6661691251575945,0.728982383069396,0.9507505725383758
1783169583569017000,6.96601708984375,-1.5311428150743245,0.5309682864144444,1.4223441483117638
1783169583578997200,6.975997314453125,-1.1795324401617049,0.46885640589445826,1.5634339962176977
1783169583588945400,6.9859453125,-0.8557172501474618,0.5169049820095301,1.3162969722144304
1783169583598894300,6.995894287109375,-0.5643477011859417,0.6544032351642847,0.8310408548567444
1783169583608843300,7.00584326171875,-0.19611410825252532,0.790064920541644,0.4126973693642765
1783169583618822400,7.015822509765625,0.20048808555305003,0.8435895899802446,0.2400343341249041
1783169583628771300,7.025771240234375,0.4978881468504667,0.8518260879278182,0.14026212837751953
1783169583638720300,7.03572021484375,0.8331535361617803,0.8076403247207403,0.09897153862267732
1783169583648699400,7.045699462890625,1.25154962862432,0.7182540683060884,0.06889227964142337
1783169583658648300,7.0556484375,1.4762842666834592,0.5727668622240424,0.10276758817108347
1783169583668596200,7.06559619140625,1.495121069100499,0.3330179026454687,0.22661783972354604
1783169583678545200,7.075545166015625,1.4798556954294442,0.14964929419755935,0.41957668054923414
1783169583688524300,7.085524169921875,1.588890070644021,0.08420096273124217,0.5798218222368509
1783169583698473200,7.09547314453125,1.7490198423236607,0.04921498954594135,0.675639865264669
1783169583708422100,7.105422119140625,1.7898007655233144,0.020347206979990005,0.8134592401325702
1783169583718401300,7.1154013671875,1.6103098752915859,-0.060142041751742356,0.9632844754189253
1783169583728350500,7.1253505859375,1.3962287331938743,-0.17096680751442908,1.0477147899266332
1783169583738298000,7.135298095703125,1.3479139073580502,-0.26368600774407386,1.103411177381128
1783169583748247300,7.145247314453125,1.2938251742959022,-0.26208558681011196,1.1652364229794592
1783169583758226400,7.155226318359375,1.1120949807047844,-0.25832301940619945,1.2312798707947135
1783169583768175400,7.16517529296875,0.8895026153713465,-0.31564532756209374,1.30004404881075
1783169583778124300,7.175124267578125,0.6546516569674015,-0.37845921887159345,1.292667528693378
1783169583788073200,7.1850732421875,0.527568999364972,-0.42926118534803387,1.2653652418784795
1783169583798052400,7.19505224609375,0.48132104293107986,-0.4901952542603016,1.2667983434215186
1783169583808001300,7.205001220703125,0.36782851926386356,-0.5277098691403865,1.2871864669337867
1783169583817949200,7.21494921875,0.21964111431241035,-0.5377081160634756,1.293639004074037
1783169583827929300,7.224929443359375,0.020767478218674657,-0.5358984362930059,1.2712278503015637
1783169583837877200,7.234877197265625,-0.26722002708911896,-0.5398100567787886,1.2270236746549605
1783169583847826200,7.244826171875,-0.5230880545586347,-0.5016869546115398,1.144538795126602
1783169583857775000,7.254775146484375,-0.641256168821454,-0.3764192374765873,0.9936061100549995
1783169583867754200,7.264754150390625,-0.7033370696812867,-0.24046412211060522,0.795515075706318
1783169583877703200,7.274703125,-0.8771113358318805,-0.10351356596648692,0.6005971915010363
1783169583887651300,7.2846513671875,-0.8952233311057091,0.018478490498661994,0.46583588902950285
1783169583897631200,7.29463134765625,-0.8480454003453254,0.14624737679958344,0.44361200145743784
1783169583907579100,7.3045791015625,-0.9938146382391452,0.18046411917805671,0.503093752669543
1783169583917528300,7.3145283203125,-1.2911445569097995,0.13134265313446522,0.5548717611039057
1783169583927477200,7.324477294921875,-1.6026900479376316,0.16404606834053992,0.5612366930259391
1783169583937456400,7.334456298828125,-1.9580664973855018,0.2790735464900732,0.49004258444923904
1783169583947405300,7.3444052734375,-2.156980465489626,0.3789069626390934,0.3669144000936299
1783169583957354200,7.354354248046875,-2.006574799966812,0.3944242652446031,0.22300540311373768
1783169583967333400,7.36433349609375,-1.635337933564186,0.37328386206030845,0.11674787220135331
1783169583977282300,7.3742822265625,-1.253901160186529,0.35174013877213,0.1302969434738159
1783169583987230200,7.384230224609375,-1.1537012488126754,0.3771908063709736,0.14545615335665643
1783169583997179400,7.394179443359375,-1.2196867558956146,0.3506301317036152,0.13035334983617067
1783169584007158300,7.404158203125,-1.1905758122235537,0.21571137364804743,0.23587056550895794
1783169584017107200,7.414107177734375,-1.093605968812108,0.1083896475702524,0.46374593101292844
1783169584027056000,7.42405615234375,-1.1956073766499757,0.07039455569684505,0.5758817793741822
1783169584037035300,7.43403515625,-1.3660440228104591,0.12439561047554015,0.402894060491398
1783169584046984200,7.443984130859375,-1.3907985248386858,0.2602911046087742,0.09059775109626353
1783169584056932000,7.45393212890625,-1.2306716757684946,0.4527221404343843,-0.0994517416213639
1783169584066881300,7.46388134765625,-1.0768418810158968,0.6304197175085544,-0.13494718043245374
1783169584076860200,7.473860107421875,-1.0730991873562334,0.7539303618431091,-0.08190240346528589
1783169584086809300,7.483809326171875,-1.0402999105602502,0.8619745569765568,-0.08140935925133526
1783169584096758300,7.49375830078125,-0.9235112679570913,0.9654162267506122,-0.18862583485636858
1783169584106737400,7.5037373046875,-0.787940767994523,1.1012824947893618,-0.31735896307956424
1783169584116686300,7.513686279296875,-0.5335562570810317,1.2095581605911254,-0.3609546879716217
1783169584126635300,7.52363525390625,-0.2696738499820232,1.228901158964634,-0.31495486107990145
1783169584136583400,7.53358349609375,-0.13774550591409204,1.201364332741499,-0.23442381903305648
1783169584146563300,7.543563232421875,-0.03463584457337856,1.132564352759719,-0.13965583304744214
1783169584156511200,7.55351123046875,0.06048340253531932,1.0683177982985972,-0.159363573080115
1783169584166460200,7.563460205078125,0.2600374221086502,1.0584691889792681,-0.2344165855746716
1783169584176409300,7.573409423828125,0.36620764006376266,1.0501508579671381,-0.20092954571023583
1783169584186388200,7.58338818359375,0.3976104940652847,0.9747662388980388,-0.07509403862468898
1783169584196337200,7.593337158203125,0.5679191299319267,0.9166530726253986,0.10881503337547183
1783169584206285300,7.603285400390625,0.7537772171080112,0.912340470123291,0.2750211292941123
1783169584216265200,7.61326513671875,0.7350327691495419,0.8644277953475713,0.34007352024540305
1783169584226213000,7.623213134765625,0.7032172426939011,0.7709054620414972,0.42705410375781355
1783169584236162300,7.633162353515625,0.7487497443348169,0.7180173369407653,0.49609147269204257
1783169584246138600,7.643138671875,0.8003197725743055,0.7133166119039058,0.5286297604642808
1783169584256117500,7.653117431640625,0.7917430828869342,0.6467009902238845,0.5564687845043838
1783169584266066400,7.66306640625,0.7903928373217582,0.5286994646996259,0.6519508735761046
1783169584276015600,7.673015625,0.8158610405772924,0.48004970782101153,0.7409608440242708
1783169584285994500,7.682994384765625,0.7898603378802538,0.46600481585562226,0.7423058288924396
1783169584295943400,7.692943359375,0.6822773305177688,0.3574725449442863,0.6980377942293882
1783169584305891600,7.7028916015625,0.47679508993923664,0.19755963088572023,0.6215129190839827
1783169584315840500,7.712840576171875,0.3476578378945589,0.042726796570420264,0.4903630120426416
1783169584325819400,7.7228193359375,0.30923896765112874,-0.11431026979088782,0.2990468055911362
1783169584335768600,7.7327685546875,0.41437808899283407,-0.1945078420996666,0.15984773986786602
1783169584345717500,7.742717529296875,0.5881003326952458,-0.15001169776916504,0.10085574493408203
1783169584355696400,7.7526962890625,0.6442144341051578,-0.07683949405252934,0.07262523735836147
1783169584365645600,7.7626455078125,0.6004951193660497,-0.09222820184230804,0.05391293810382485
1783169584375593500,7.772593505859375,0.612240502217412,-0.16253800186514852,-0.011005378139019011
1783169584385542700,7.782542724609375,0.7186293313592672,-0.1797457417756319,-0.07057590361312031
1783169584395521500,7.792521484375,0.9236030378937721,-0.18677111036777494,-0.12650953388959169
1783169584405470700,7.802470703125,1.2270131532609463,-0.16335165633559226,-0.10802592882439493
1783169584415419600,7.812419677734375,1.5100906746953724,-0.12637012541890144,-0.008201563631510362
1783169584425398500,7.8223984375,1.6128806025624274,-0.13431611598730087,0.10784808803945779
1783169584435347500,7.832347412109375,1.680536673206091,-0.15544249064624308,0.21241306275501845
1783169584445296600,7.842296630859375,1.789635345828533,-0.1965373021006584,0.38557197348624467
1783169584455244500,7.85224462890625,1.7908540739685297,-0.19005261625647543,0.6480471441358328
1783169584465224400,7.862224365234375,1.6609528518140315,-0.13968027336895464,0.9290874606542289
1783169584475172600,7.872172607421875,1.6347557497620582,-0.12744623021781443,1.0913861008055508
1783169584485121500,7.88212158203125,1.6409470056176185,-0.1509241364389658,1.116970770047605
1783169584495100400,7.892100341796875,1.4515513919651508,-0.23455168319642541,1.182223286680877
1783169584505049300,7.90204931640625,1.2948913422226904,-0.45416357141435143,1.2272346870571373
1783169584514998500,7.91199853515625,1.2358809348493813,-0.5605687671691179,1.1937611642614006
1783169584524947700,7.92194775390625,1.0534247650712727,-0.44941666914820666,1.122041059049219
1783169584534926600,7.931926513671875,0.7673124059855938,-0.4013233771085739,0.9824291747413575
1783169584544875500,7.94187548828125,0.6337678588926792,-0.43890112035274503,0.7960532011710106
1783169584554823700,7.95182373046875,0.6673638390243053,-0.32688100732564923,0.6982986371226608
1783169584564772600,7.961772705078125,0.6176590201348066,-0.11361585778594016,0.6569181405946612
1783169584574751500,7.97175146484375,0.5526859049648046,0.044401451784372326,0.7005525535292924
1783169584584700700,7.98170068359375,0.40719899114370345,0.03131576023995876,0.7301929279029369
1783169584594649600,7.991649658203125,0.1866775868654251,-0.11017594646513461,0.6869016293175518
1783169584604628500,8.00162841796875,-0.046617958790063856,-0.14194997186660765,0.5805433414444326
1783169584614577400,8.011577392578126,-0.2655874574512243,-0.06835398977994918,0.4541796457663178
1783169584624525600,8.021525634765625,-0.464783749628067,-0.025648820519447325,0.28646219543665646
1783169584634474500,8.031474609375,-0.6166869602322578,0.07978080820143223,0.10264072865471244
1783169584644453600,8.04145361328125,-0.7097545355081558,0.3328174116373062,-0.12061479502888396
1783169584654402600,8.051402587890625,-0.8859241723626852,0.5891998183697462,-0.34995373027939347
1783169584664351500,8.0613515625,-0.8831728278279304,0.6938789209842682,-0.4864227865168825
1783169584674330400,8.071330322265625,-0.48397944848537444,0.6591752718716859,-0.4395347420811653
1783169584684279600,8.081279541015626,0.12527590044140816,0.5059253228336572,-0.20260332414135335
1783169584694228700,8.091228759765626,0.2982394347310066,0.21933657840788362,-0.03836348679438233
1783169584704176400,8.10117626953125,-0.15923428414463997,-0.04911036012768745,0.004279284754395485
1783169584714156500,8.111156494140625,-0.9850018017083406,-0.2935749500513077,0.0907858940795064
1783169584724104700,8.121104736328125,-1.641952967789769,-0.3814771053880453,0.02756780588328838
1783169584734053600,8.1310537109375,-1.817170418485999,-0.14284253679215908,-0.33701617850139737
1783169584744032500,8.141032470703125,-1.7593167799323797,0.1724386336326599,-0.7737802868254482
1783169584753981700,8.150981689453126,-1.6361913355231283,0.508452795484662,-1.171294773170352
1783169584763930600,8.1609306640625,-1.3609668656766414,0.901931888833642,-1.5721588622041045
1783169584773878500,8.17087841796875,-1.0675263556599617,1.2061918990284204,-1.7988228608906267
1783169584783858400,8.1808583984375,-0.7922282360553741,1.3526865285873413,-1.6406496301062403
1783169584793806600,8.190806640625,-0.6727104607492685,1.3154735270023346,-1.1298650306731461
1783169584803755500,8.200755615234375,-0.712501203867793,1.2008183892965316,-0.7100979421183466
1783169584813734700,8.210734619140625,-0.7543710913479328,1.054802483165264,-0.3778344015041366
1783169584823683600,8.22068359375,-0.7146037291049957,0.9100245943963527,-0.014232815752923489
1783169584833632500,8.230632568359376,-0.7952543058782815,0.871549025529623,0.27240407866351307
1783169584843581400,8.24058154296875,-0.9298702815949916,0.955576969781518,0.4039583287220448
1783169584853560300,8.250560302734375,-0.9520862050563097,1.0676713170886039,0.3170812055841088
1783169584863509800,8.260509765625,-0.9562795650929212,1.1644523599296808,0.0942734074017033
1783169584873457400,8.27045751953125,-0.9868711027115583,1.2455015806317329,-0.09127002433463931
1783169584883437600,8.2804375,-0.9972294151186942,1.2970114031165838,-0.24196795080229638
1783169584893385700,8.2903857421875,-0.8663765913277864,1.347493051597476,-0.33920207117311657
1783169584903334700,8.300334716796876,-0.6314876390010118,1.31137895116508,-0.33839068172499537
1783169584913283600,8.31028369140625,-0.33692776956558224,1.2061989132910966,-0.26543584708608686
1783169584923262700,8.3202626953125,-0.05583937612175941,1.1045780292034149,-0.1822565555527806
1783169584933211600,8.330211669921875,0.18043664664924144,1.0051187070637941,-0.09437157054655253
1783169584943159600,8.34015966796875,0.4308335492312908,0.8653659529805183,0.03613499708995223
1783169584953108500,8.3501083984375,0.6916717663288116,0.7806383360266685,0.15863047303259373
1783169584963087600,8.360087646484375,0.895447202989459,0.7448258488893509,0.27851488969400523
1783169584973036500,8.37003662109375,0.9848691152393817,0.709459351953864,0.413514750161767
1783169584982985500,8.3799853515625,0.9750620069742202,0.6485778900116682,0.514861931874603
1783169584992964600,8.389964599609375,0.9767027599185705,0.5239227518171071,0.5262009989473968
1783169585002913500,8.39991357421875,1.0638216559231282,0.46576048570573325,0.5887322008579969
1783169585012862500,8.409862548828125,1.0072323382169008,0.4220540304481983,0.6359058938346803
1783169585022810400,8.419810302734374,0.9447259054213761,0.3523842818945646,0.6462064847052097
1783169585032790500,8.42979052734375,0.9084791185200214,0.3053893064856529,0.6762399500496685
1783169585042738400,8.439738525390625,0.8738432739466429,0.27920564843714235,0.696384912455827
1783169585052687600,8.4496875,0.819498520296812,0.23791560667157172,0.6640807257004082
1783169585062666800,8.459666748046875,0.7291840431213379,0.17372458178997038,0.6070742054954171
1783169585072615700,8.46961572265625,0.6927087081611156,0.12172083830833434,0.5563783297419548
1783169585082564600,8.479564697265625,0.7027046169966459,0.11648059956729412,0.5059640474088489
1783169585092512500,8.489512451171874,0.6120026018083096,0.07884557317793368,0.39143176889773457
1783169585102492700,8.49949267578125,0.5604758281886577,0.04297872550487518,0.24117636203318832
1783169585112440600,8.509440673828125,0.5710580124795437,0.030399814438819884,0.22671076043769717
1783169585122389500,8.519389404296875,0.44509588333964345,-0.08164192589819431,0.32292993161231276
1783169585132368600,8.52936865234375,0.29408114600777624,-0.22527590532898903,0.4513396000348031
1783169585142317600,8.539317626953125,0.20730068817734718,-0.25691899782717226,0.5378283449096605
1783169585152266500,8.5492666015625,0.10238953037261962,-0.22660218549668787,0.5955686227492988
1783169585162215400,8.55921533203125,-0.06585632774531841,-0.23244565082788465,0.6238800866067409
1783169585172194600,8.569194580078126,-0.21557634909152984,-0.2704337284386158,0.5934551377266645
1783169585182143500,8.5791435546875,-0.3793687349319458,-0.2848772643327713,0.5821567679904401
1783169585192091400,8.58909130859375,-0.5794412254214286,-0.21961831795871256,0.5891814059302211
1783169585202071600,8.599071533203125,-0.8435866673707961,-0.12823708833456038,0.6038998132430017
1783169585212019500,8.60901953125,-1.0588894602179526,-0.010115151301026344,0.6381804146379232
1783169585221968600,8.61896875,-1.1415174745440482,0.14557517662644384,0.6405183560661971
1783169585231917600,8.62891748046875,-1.1335533637970685,0.21863807474970817,0.5110016031846404
1783169585241896700,8.638896728515626,-1.0269938542634247,0.2084235547274351,0.2849497450470924
1783169585251850800,8.648850830078125,-0.920951062080264,0.16074994940459728,0.09510404953956604
1783169585261799000,8.658798828125,-0.7800888854503631,0.06622457653582095,-0.007593816129863261
1783169585271778800,8.66877880859375,-0.6140788235604763,-0.028696517652273178,-0.1057277348846197
1783169585281726700,8.678726806640626,-0.5676438201218843,-0.24607436320781706,-0.2104541837722063
1783169585291676000,8.688676025390626,-0.32106501452326774,-0.6933265477985143,-0.1763852158339694
1783169585301624800,8.698624755859376,0.02412204934358597,-0.9615110360056162,-0.07083674650639295
1783169585311603700,8.708603759765625,0.022677695754170415,-0.994630046275258,-0.0011937763618305325
1783169585321552600,8.718552734375,-0.2195464217662811,-0.9896358912497758,0.000020604396611452103
1783169585331501800,8.728501708984375,-0.552875290057063,-1.0030874934971332,0.01022679498195648
1783169585341449700,8.73844970703125,-0.8573597566574811,-0.9347674059867859,0.012913221054337919
1783169585351430000,8.748429931640626,-1.1173539241462944,-0.7397218037486076,-0.1116812729941681
1783169585361377800,8.758377685546876,-1.168385023203492,-0.45071489226520056,-0.43117607905864713
1783169585371327000,8.768326904296876,-1.0615209777653216,-0.210523741877079,-0.680423227083683
1783169585381305900,8.778305908203125,-0.8836796083062887,-0.10819324821531771,-0.8851460275970399
1783169585391254800,8.7882548828125,-0.5044125801831484,-0.21831424962282178,-0.9702801795251667
1783169585401204000,8.798203857421875,-0.17987316754758356,-0.4459557150393724,-0.8635944863285869
1783169585411152000,8.80815185546875,0.04702887767851353,-0.6027975510895252,-0.6723761142283677
1783169585421131800,8.8181318359375,0.4068102840870619,-0.5823118124216795,-0.4529887554813176
1783169585431080000,8.828079833984376,0.7625006217896938,-0.5237275215059518,-0.20522212833762168
1783169585441028900,8.83802880859375,0.8233546112030744,-0.5494149204701185,-0.028057196835428476
1783169585451007700,8.8480078125,0.5943050325542688,-0.5878063181847334,0.03141936674490571
1783169585460957000,8.85795703125,0.3029804917782545,-0.3858709564328193,-0.17273732431828975
1783169585470905900,8.86790576171875,0.18229367269277572,-0.15016659606993196,-0.49560273932702836
1783169585480854800,8.877854736328125,0.24254735812544823,-0.02555237440764904,-0.7199066578187048
1783169585490833700,8.887833740234376,0.42113633108139037,0.07989478996992111,-0.8722833311535417
1783169585500782800,8.897782958984376,0.7113684004455805,0.20719605875909328,-0.9668802348885684
1783169585510730800,8.907730712890626,0.9997031117558479,0.35545886703431606,-0.9480512504518032
1783169585520711000,8.9177109375,1.1403238808453082,0.33965222609341145,-0.8901312686637043
1783169585530658800,8.927658935546875,1.1508014357179404,0.08410743922889233,-0.6188590435743332
1783169585540608000,8.93760791015625,1.1422235769867897,-0.12937690601944923,-0.23621713219061494
1783169585550557000,8.947556884765625,1.1978320669621227,-0.23964403789937494,0.045808980494737625
1783169585560535800,8.957535888671876,1.268472706374526,-0.2323404368877411,0.1626828171633184
1783169585570485000,8.967485107421876,1.3331038762390612,-0.15461656121611594,0.11909575050175189
1783169585580433000,8.977432861328126,1.3859674514204263,-0.0017740239351987839,0.10180573913529514
1783169585590412800,8.987412841796875,1.3264414957404136,0.20471067168414592,-0.0534238394126296
1783169585600361000,8.99736083984375,1.2499766802191734,0.39938627156615253,-0.30775252848565576
1783169585610310000,9.007309814453125,1.2277373758822678,0.5091302563548088,-0.44583106574639675
1783169585620258800,9.0172587890625,1.2127841369003056,0.4904156190127134,-0.41526948487460613
1783169585630237700,9.02723779296875,1.0112667082995175,0.37124095805585383,-0.2158339771144092
1783169585640187000,9.037186767578126,0.886927796447277,0.22139409545958041,-0.028520576563477514
1783169585650135800,9.0471357421875,0.9373129988163709,0.13311901515722274,0.09737900873422622
1783169585660083700,9.057083740234376,1.0968336986869573,0.10262100104093551,0.2244448613323271
1783169585670063600,9.067063720703125,1.2099866151362657,0.09431786759793757,0.33024493080079553
1783169585680011800,9.07701171875,1.2182020702958107,-0.02041150438785553,0.3978006098099053
1783169585689960700,9.086960693359375,1.1930185292005537,-0.13481237507164479,0.4588134430468082
1783169585699939800,9.09693994140625,1.2191279529690742,-0.1381657771527767,0.4114093023151159
1783169585709889000,9.106888916015626,1.1194114411979914,-0.1560784504622221,0.37763285105004907
1783169585719838000,9.116837890625,0.9141863902509212,-0.18075871821045875,0.45226592109948394
1783169585729787000,9.126786865234376,0.8358429213762283,-0.1069090536236763,0.4443712223269045
1783169585739765800,9.136765869140625,0.7514753699064254,-0.11567746649086474,0.5024310509771108
1783169585749714000,9.1467138671875,0.7126537640810012,-0.353217225587368,0.6294596403047442
1783169585759662800,9.156662841796875,0.845118114721775,-0.6431815839260816,0.6108567927740514
1783169585769642000,9.16664208984375,0.7737637740820645,-0.96239892475605,0.7322286715142429
1783169585779591000,9.1765908203125,0.5315612838715315,-1.1721312239944934,0.7833971332155167
1783169585789539800,9.186539794921876,0.45948739678561684,-0.9546212764918803,0.7323942373394966
1783169585799488800,9.19648876953125,0.5112760362118483,-0.7214660160899162,0.6275612593375146
1783169585809468000,9.206468017578125,0.3525543777644634,-0.6798211695373058,0.5462241616047918
1783169585819416800,9.216416748046875,0.22341069597899912,-0.9566028056979179,0.5341897326789796
1783169585829364700,9.22636474609375,0.2908890719681978,-1.4564900174111126,0.7131038459360599
1783169585839344600,9.2363447265625,0.4973825354158878,-1.9496037894666194,1.147614622375369
1783169585849292800,9.246292724609376,0.4927238959550857,-2.157747942730784,1.518064430053532
1783169585859241700,9.25624169921875,0.26436288409233094,-2.1209330005526543,1.7419633479408918
1783169585869191000,9.26619091796875,-0.2758054846048355,-1.943641666191816,1.73193777461946
1783169585879170000,9.276170166015625,-1.1575351278871298,-1.551427478212118,1.4627847336411475
1783169585889119000,9.286118896484375,-2.090807911401987,-1.08423959005177,1.0439848096180706
1783169585899068000,9.29606787109375,-2.6979040364682674,-0.5350456188559531,0.6714006933249532
1783169585909046800,9.306046875,-2.727989378130436,-0.0673205550789833,0.3818077986471355
1783169585918995000,9.315994873046876,-2.221709250509739,0.04788169511556625,0.12808949655741453
1783169585928943900,9.32594384765625,-1.4796394223302602,0.01372340492606163,-0.07781403817310929
1783169585938892800,9.335892822265626,-1.3017916231304407,0.46686055590212344,-0.030462942802906033
1783169585948872000,9.345871826171875,-1.288702424454689,1.1578326495289801,0.15562018530070781
1783169585958820900,9.35582080078125,-1.1779127300053833,1.4602315420269965,0.3421240230344236
1783169585968769800,9.365769775390625,-1.0365116241931915,1.4330343230217695,0.5261266916021704
1783169585978748700,9.375748779296876,-0.8407955753475427,1.2322417015641927,0.7791719167359172
1783169585988697900,9.38569775390625,-0.6089589963287114,0.9336801952719688,1.0416551245614887
1783169585998645800,9.395645751953126,-0.4331593618303537,0.6021382103979587,1.2983262851074338
1783169586008594700,9.4055947265625,-0.40011692392826076,0.4289642482280731,1.3938321934461593
1783169586018573800,9.41557373046875,-0.5673270092576742,0.4654582878887653,1.2840173353783786
1783169586028522800,9.425522705078125,-0.7050918043941259,0.7441016262680291,1.074349479678273
1783169586038472000,9.435471923828125,-0.728033119520545,1.1016934136778116,0.8581528067313134
1783169586048420900,9.4454208984375,-0.6374860026329755,1.2523995234519243,0.7128957561433314
1783169586058400000,9.45539990234375,-0.5278215128213167,1.2875175985842942,0.6426876629292965
1783169586068349000,9.465348876953126,-0.3713537707805633,1.2686544926822185,0.5982249459443614
1783169586078296800,9.475296875,-0.16011048245728016,1.187289045637846,0.6036899698846042
1783169586088276700,9.48527685546875,0.10113631544113158,1.0997598152667283,0.590919445236586
1783169586098225000,9.495224853515625,0.3270247997105121,1.0582318730920552,0.5380021305739879
1783169586108173800,9.505173828125,0.46275019797384737,1.0184551584988832,0.5529303447125479
1783169586118122800,9.515122802734375,0.5732224970370531,0.9241881443053483,0.6702778267748654
1783169586128102000,9.525101806640626,0.7748965775042772,0.7992045048087835,0.750104519944638
1783169586138050800,9.53505078125,0.9630191024810075,0.6906985373824834,0.7850608286440371
1783169586147998700,9.544998779296876,1.0641080716490745,0.6461568003445863,0.8032130097977817
1783169586157979000,9.554978759765625,1.0969991183817387,0.6408470034986734,0.8498264385432004
1783169586167926800,9.5649267578125,1.1605506763160227,0.6178747087121009,0.8514123925603926
1783169586177875700,9.574875732421875,1.1023895792484282,0.6181903505325317,0.8238532083749771
1783169586187824600,9.58482470703125,1.0167056844830513,0.5610176799803972,0.7281976624324917
1783169586197803800,9.5948037109375,1.0695049622565507,0.41559214095771313,0.573551728991419
1783169586207753000,9.6047529296875,1.1911316925406454,0.2971709287166595,0.43245019064769147
1783169586217702000,9.614701904296876,1.2985948729157446,0.23338731559216974,0.3603162439376116
1783169586227681000,9.624680908203125,1.3346592889875173,0.1203594868272543,0.3023886633649468
1783169586237630000,9.6346298828125,1.2967635658353567,0.007373159116506576,0.26526213448699565
1783169586247577900,9.644577880859375,1.1478151133835315,-0.07178571779429913,0.2339694993942976
1783169586257562400,9.654562255859375,0.9556967967689036,-0.131199445271492,0.24031901455149052
1783169586267541500,9.66454150390625,0.9259095612704753,-0.1367979959309101,0.28656054124459623
1783169586277490400,9.674490478515626,0.9696896662861109,-0.09235445857048034,0.29658567617461085
1783169586287439400,9.684439453125,0.9341156640797853,-0.050754620203375816,0.2673250218335539
1783169586297418200,9.694418212890625,0.896484144821763,-0.05688859291374683,0.24138057936839757
1783169586307367400,9.704367431640625,0.7153320433795451,-0.1909562870979309,0.29000220613107086
1783169586317315300,9.7143154296875,0.4334451930344104,-0.34231823043227194,0.41275209522619843
1783169586327264300,9.72426416015625,0.25066987430453297,-0.42411739271879195,0.5568773653052747
1783169586337243400,9.734243408203126,0.10237667089104652,-0.42759646700620646,0.6315769247196614
1783169586347192600,9.744192626953126,-0.03561141160726547,-0.38942192691266536,0.6817934925235808
1783169586357141500,9.7541416015625,-0.18265666078627107,-0.34354631092250343,0.7193538462415338
1783169586367120400,9.764120361328125,-0.3673796064525842,-0.3033165918648243,0.6890444865651428
1783169586377069600,9.774069580078125,-0.610921820834279,-0.29274609801173207,0.5908124411981552
1783169586387018500,9.7840185546875,-0.7983890967726707,-0.29723931777775287,0.43265038939490913
1783169586396966400,9.79396630859375,-0.9020645753026008,-0.26340660628080365,0.2760862012423575
1783169586406946300,9.8039462890625,-0.9776824186056852,-0.2578776137262583,0.11852043483182788
1783169586416894500,9.81389453125,-0.9969307244330644,-0.2753559872716665,0.004105535622686148
1783169586426843400,9.823843505859376,-0.8615624690443277,-0.2723544673681259,-0.06394114177376031
1783169586436822500,9.833822509765625,-0.6768360162466764,-0.2644102303653955,-0.06998648635260761
1783169586446771500,9.843771484375,-0.6392676253527403,-0.2958358807206154,-0.0641246816471219
1783169586456720400,9.853720458984375,-0.6732973207265138,-0.41450551476478575,0.010956132169812918
1783169586466668300,9.863668212890625,-0.5877683242619037,-0.6403121659696102,0.2792233302243054
1783169586476648400,9.8736484375,-0.44448096631169315,-0.8932932398259639,0.6853589299201965
1783169586486596400,9.883596435546876,-0.502777672457695,-0.9687608610033989,0.9068094317421317
1783169586496545300,9.893545166015626,-0.5055810394406318,-0.9204688315212726,0.8681973770141601
1783169586506494500,9.903494384765626,-0.354136678519845,-0.9202057966709136,0.6236426245890557
1783169586516473300,9.913473388671875,-0.47142976351380345,-0.8734007908761501,0.3817247965388
1783169586526422500,9.923422607421875,-1.0002654218137264,-0.8070411897838116,0.23223946073129773
1783169586536371500,9.933371337890625,-1.4241542664736508,-0.8065238879114389,0.10568952176608144
1783169586546350600,9.9433505859375,-1.2104220839440822,-0.7740852611213922,-0.17871669098883866
1783169586556299500,9.953299560546874,-0.5931324816435575,-0.5140355640530586,-0.5355390283960849
1783169586566247400,9.963247314453126,0.0847398919135332,-0.05204875166714191,-0.8969977934323251
1783169586576196400,9.9731962890625,0.6669961747556924,0.47758653257787226,-1.1656729877658187
1783169586586175500,9.983175537109375,1.1516098294913768,0.8299392502903937,-1.2388279480867088
1783169586596124400,9.99312451171875,1.3187725685477256,0.8622475286990403,-1.140806988187134
1783169586606073300,10.0030732421875,1.155966271135211,0.8035071704387664,-1.0083607577249407
1783169586616052500,10.013052490234376,0.6647562868744135,0.768591339880228,-0.8552209179978817
1783169586626001400,10.02300146484375,0.19506313789486884,0.6320879429817199,-0.7777736673105508
1783169586635949300,10.03294921875,0.035134441745281214,0.4687783722221851,-0.7434465233601629
1783169586645898200,10.042898193359376,-0.07426350608468055,0.3746206636220217,-0.723653881523013
1783169586655877400,10.05287744140625,-0.21625030283033847,0.20225275713801383,-0.7760656212836503
1783169586665826300,10.062826416015625,-0.23941081366539,0.07270633977055549,-0.9887335355825722
1783169586675775500,10.072775390625,-0.027492987081408498,0.05587210934758186,-1.2699645523674785
1783169586685754400,10.08275439453125,0.5220131188035011,-0.32228257361948487,-1.3308914608865976
1783169586695703600,10.09270361328125,0.9208025935202836,-0.4273334321558475,-1.2143711138308046
1783169586705652500,10.102652587890624,1.1893442246019839,0.14483283382654188,-1.1623648861311375
1783169586715600400,10.112600341796876,1.4921020135402678,0.49116146894395346,-1.1265629203878342
1783169586725580500,10.12258056640625,1.7785493036687372,0.6304208865523337,-0.9922639016658067
1783169586735528400,10.132528564453125,1.9107997192978858,0.5971779576420784,-0.8423594636633992
1783169586745477400,10.142477294921875,1.9070126019746063,0.443731609249115,-0.6886495689634233
1783169586755456500,10.15245654296875,1.9269050509244203,0.2958300355017185,-0.5602432615417987
1783169586765405400,10.162405517578126,1.9659651416808366,0.2027548614412546,-0.4878508100260049
1783169586775354400,10.172354248046876,1.9256237789422272,0.16310907975137232,-0.4678718518365174
1783169586785302500,10.182302490234376,1.8459891012132166,0.1633183385878801,-0.42972924125120043
1783169586795282400,10.192282470703125,1.6464537863403559,0.07353285372257232,-0.4219856048544869
1783169586805230300,10.202230224609375,1.3698925149321555,-0.06090016664266586,-0.40862135209701955
1783169586815179300,10.21217919921875,1.0921598616570234,-0.07568857045173645,-0.3163507724177092
1783169586825158400,10.222158447265626,0.8242261333405971,-0.05432487990558147,-0.1481461961582303
1783169586835107300,10.232107421875,0.8272592174261808,-0.11764964334666728,-0.04870890318732708
1783169586845056300,10.24205615234375,1.1135270593345166,-0.2967185087740421,-0.0010943711079657078
1783169586855005400,10.25200537109375,1.2421247976750134,-0.5115665435910225,-0.04070321832094341
1783169586864984600,10.261984619140625,1.138414247831702,-0.6854349177658557,-0.1411428932674229
1783169586874933500,10.27193359375,0.9973463194966316,-0.7966770321577787,-0.14682809929698704
1783169586884881400,10.28188134765625,0.9611427872151136,-0.8602455412268638,-0.11892784658893941
1783169586894830600,10.29183056640625,1.0098100797504186,-0.8825193323552608,-0.12203341138884424
1783169586904809500,10.3018095703125,0.9906967984795569,-0.9478133500427007,-0.13981748988255857
1783169586914758400,10.31175830078125,0.9729378544270991,-0.9996259548664093,-0.18006021455228327
1783169586924707300,10.321707275390626,0.8933774109780788,-1.006731987479329,-0.2285040005300194
1783169586934686500,10.3316865234375,0.7637468224585056,-1.0004928008288145,-0.2594913325332105
1783169586944635400,10.341635498046875,0.5502314975500107,-0.9609709377795457,-0.19834354780502617
1783169586954583300,10.351583251953125,0.3139379391223192,-0.9713128835737704,-0.12803323632553218
1783169586964532500,10.361532470703125,0.11279226644337177,-1.0420791951924562,-0.11964618745874613
1783169586974511400,10.371511474609376,-0.06901800664663314,-1.0752981587052344,-0.13857172760516404
1783169586984460300,10.381460205078126,-0.19649989269971846,-1.0338356829822062,-0.15834237680621444
1783169586994409200,10.3914091796875,-0.19084522793889044,-0.9234697669029235,-0.22820523677915333
1783169587004388400,10.401388427734375,-0.12359949166178702,-0.8330068211674689,-0.27850436829999087
1783169587014337300,10.411337158203125,-0.19157295769155025,-0.8130728711634874,-0.2640339443989098
1783169587024286500,10.421286376953125,-0.4069879787415266,-0.7704565492302179,-0.173604535606876
1783169587034234600,10.431234619140625,-0.5635685335069894,-0.7189163316071033,-0.10567366660982369
1783169587044214500,10.441214599609374,-0.702708124127984,-0.7416565712034702,-0.08629691209718585
1783169587054162400,10.451162353515626,-0.6218278302520514,-0.8927011191517115,0.04852861471697688
1783169587064111400,10.461111328125,-0.18853227482140064,-1.07219200938344,0.3679080142408609
1783169587074090500,10.471090576171875,-0.16781974166035651,-1.1576304049551487,0.5759115169253199
1783169587084039400,10.481039306640625,-0.9647580551028251,-1.085575222569704,0.6539210776705294
1783169587093988400,10.49098828125,-2.276282552218437,-1.1305939294695853,0.8149399802096188
1783169587103937300,10.500937255859375,-3.157264592003822,-1.263939154598117,0.9277241364117711
1783169587113916400,10.51091650390625,-3.162022600185871,-0.9141746998131275,0.6232828513659536
1783169587123864300,10.5208642578125,-2.6140970414906737,-0.14157704690098763,-0.014411752516403793
1783169587133813500,10.5308134765625,-2.038566852033138,0.5782698435544967,-0.5926327884931117
1783169587143792400,10.54079248046875,-1.4512345811009406,1.0452671775788067,-0.9402228949137031
1783169587153741300,10.5507412109375,-0.7985182761102915,1.2715414462953805,-0.9473709400374442
1783169587163690200,10.560690185546875,-0.5047814134955406,1.2507447419822215,-0.578450826144591
1783169587173639400,10.570639404296875,-0.6432020421922207,1.100211650687456,-0.0756599288791418
1783169587183618300,10.580618408203126,-0.8991963263899088,0.8579863641232252,0.5061805397037417
1783169587193567500,10.5905673828125,-1.0402285988897084,0.57919631074965,0.9878997881721705
1783169587203515600,10.600515625,-1.0530559317588806,0.4048556428879499,1.242584231880307
1783169587213495600,10.61049560546875,-1.0865455289065837,0.36552258040904995,1.2588245880633593
1783169587223443500,10.620443359375,-1.1139286258727312,0.39469372983574863,1.0149954464990645
1783169587233392400,10.630392333984375,-1.0445809488803148,0.5309440287560224,0.5379808685902506
1783169587243341600,10.640341552734375,-0.8270230705827474,0.6446633469164371,0.11013612591139972
1783169587253343200,10.65034326171875,-0.5983557692497968,0.7221615971386433,-0.18011143328286705
1783169587263292200,10.660292236328125,-0.3758125037550926,0.8321142562419176,-0.3502508500624448
1783169587273241000,10.670240966796875,-0.0751239223062992,0.8490881873965263,-0.4185450724791735
1783169587283189000,10.68018896484375,0.304960267418623,0.7767547725915909,-0.3145725837640464
1783169587293168000,10.690168212890624,0.5342500845640897,0.7243599839657545,-0.08330218726061284
1783169587303117300,10.700117431640624,0.7250579031020402,0.7254857731252908,0.11826624087505042
1783169587313066200,10.710066162109374,0.8804220678150654,0.7166086391866207,0.28727563071139156
1783169587323045400,10.72004541015625,0.8696808935701846,0.704321404543519,0.36066308461390434
1783169587332994300,10.729994384765625,0.8207669327974318,0.6616115591078996,0.33547968964911995
1783169587342943200,10.739943115234375,0.8013830178916453,0.5965338145196437,0.2600411484356969
1783169587352891100,10.74989111328125,0.788460992476344,0.6332201618820429,0.16387326905690133
1783169587362871300,10.759871337890624,0.8259896358817815,0.7288549572974443,0.0955662602238357
1783169587372819200,10.769819091796874,0.8322808449804783,0.7648036380350589,0.1250540743842721
1783169587382768000,10.77976806640625,0.8238941249072551,0.7005927394092083,0.19715382656380534
1783169587392747300,10.789747314453125,0.8483774087786674,0.624430121704936,0.24065657594278453
1783169587402696200,10.7996962890625,0.9264993438571691,0.5199065019130706,0.3526629527054727
1783169587412645000,10.80964501953125,0.9741589206546545,0.39809155558049675,0.4691632798865437
1783169587422594000,10.819593994140625,0.9842758255213498,0.36242929056882855,0.5281717875637114
1783169587432573200,10.8295732421875,1.065315693873167,0.34397301190197466,0.5192399277631193
1783169587442522000,10.839522216796874,1.172820375302434,0.4164338524788618,0.5008678933136165
1783169587452470000,10.849469970703124,1.0981634859859943,0.4489899681687355,0.4691805232822895
1783169587462449200,10.85944921875,1.060668160328269,0.34841830087304115,0.5384703326076269
1783169587472398000,10.869398193359375,1.0571610289901494,0.28366379688978194,0.6319852132596075
1783169587482347300,10.87934716796875,1.0102391188174487,0.25840017629563805,0.6394313645470887
1783169587492296200,10.889296142578125,0.964579191404581,0.20677695656418799,0.5220644105993211
1783169587502275300,10.899275390625,0.7742904283046722,0.09189677793085575,0.38128158281594515
1783169587512224300,10.909224365234374,0.5993237374991178,-0.06723696844875812,0.28670908286981284
1783169587522172200,10.919172119140624,0.629603724950552,-0.06196984170079231,0.25256942431554197
1783169587532152000,10.929152099609375,0.7249392451584339,0.025373510709404943,0.2877053273655474
1783169587542100200,10.939100341796875,0.7462526668220758,-0.022926117557287216,0.34023645572215316
1783169587552049200,10.949049072265625,0.6993687505722046,-0.14277297868728636,0.4057128442391753
1783169587561998000,10.958998046875,0.49359892522394655,-0.2749292862921953,0.4968019590489566
1783169587571977200,10.968977294921874,0.3062356941819191,-0.3719301093637943,0.5389755056507886
1783169587581926100,10.978926025390624,0.19756722967028617,-0.3406207788646221,0.5701582506282254
1783169587591875000,10.988875,0.03407996425628662,-0.3639174832999706,0.5364146787194535
1783169587601854200,10.998854248046875,-0.07882160778045653,-0.4662199199110269,0.36016514502912755
1783169587611803100,11.00880322265625,-0.16994097159802912,-0.40263504422903057,0.12281984905879943
1783169587621751000,11.0187509765625,-0.3324637758940458,-0.28099194733202454,-0.039852556308358905
1783169587631700200,11.0287001953125,-0.5334393527030945,-0.2156914999037981,0.0034433819195255635
1783169587641679000,11.03867919921875,-0.663155281418562,-0.21832477101683614,0.02588277540579438
1783169587651628300,11.048628173828124,-0.691223438039422,-0.20130524715483186,-0.0751015643440187
1783169587661577200,11.0585771484375,-0.7248451371341943,-0.1769225010484457,-0.2586359212802723
1783169587671525000,11.068525146484374,-0.7200444588541984,-0.2594254276901483,-0.37645007100626826
1783169587681505300,11.07850537109375,-0.6409411115229129,-0.4121265106737613,-0.3392470062933862
1783169587691453200,11.088453125,-0.502621020591259,-0.5365501782000065,-0.2779644162043929
1783169587701402000,11.098402099609375,-0.410698523697257,-0.509862662282586,-0.30129297708272934
1783169587711381200,11.10838134765625,-0.5143973831027746,-0.49156069739460945,-0.43053153407741335
1783169587721330200,11.118330078125,-0.7006558677732944,-0.5303033927649259,-0.49793563925400375
1783169587731279000,11.128279052734374,-1.080672252959013,-0.56662616751194,-0.4735033549174666
1783169587741228000,11.13822802734375,-1.6773194647252558,-0.4906944359540939,-0.5899271097309887
1783169587751207200,11.148207275390625,-1.9367834708601235,-0.2354717206507921,-0.9663944241330027
1783169587761156000,11.158156005859375,-1.6392483850061892,0.12685644763112067,-1.394875272758305
1783169587771104000,11.16810400390625,-1.248930970558524,0.4608996016710996,-1.7572934574112296
1783169587781084200,11.178084228515624,-1.0111755228847266,0.6462520774126053,-1.9321154790490864
1783169587791032000,11.188031982421874,-0.9625000470429659,0.7325117262393236,-1.8843904357999561
1783169587800981000,11.19798095703125,-1.062096731826663,0.7871154230862856,-1.6247840985849498
1783169587810930200,11.20793017578125,-1.0395715962857008,0.7424854232430458,-1.3336707163415848
1783169587820909300,11.217909423828125,-0.7101847436189651,0.6275450388550758,-1.1474532212685793
1783169587830858200,11.227858154296875,-0.4593167163938284,0.5556359869420529,-1.058270305406302
1783169587840806100,11.23780615234375,-0.5184738387614488,0.4377309075295925,-1.0437653947137295
1783169587850786300,11.247786376953124,-0.7043488770723343,0.27997955541908737,-1.0117992808062584
1783169587860734200,11.257734130859374,-0.6926116775274276,0.2018921071320772,-0.9522103428926318
1783169587870683100,11.26768310546875,-0.49102878247499465,0.29979835461080073,-0.9131091164082288
1783169587880632000,11.277632080078124,-0.2485819621145725,0.41297699002325533,-0.953536403864622
1783169587890611200,11.287611083984375,0.03540565990209579,0.452967055106163,-0.982608184570074
1783169587900560100,11.29756005859375,0.311849442410469,0.4203092326074838,-0.9495967263281345
1783169587910509000,11.307509033203125,0.5234259082108735,0.3714993167310953,-0.8357790623597801
1783169587920488200,11.31748828125,0.7651227869868278,0.2944441341012716,-0.7614457789745182
1783169587930437000,11.32743701171875,0.9929629898458718,0.18348960447907448,-0.6781420573439448
1783169587940385000,11.337385009765624,1.1802701067864894,0.12408113769888877,-0.5374208966199309
1783169587950334000,11.347333984375,1.441972247236967,0.2279214514017105,-0.3730776719637215
1783169587960313000,11.35731298828125,1.7072236046016216,0.3719388771921396,-0.24595007924102244
1783169587970262000,11.367261962890625,1.9001871398687362,0.39840778192281723,-0.17271916760709136
1783169587980211200,11.377211181640625,1.921146341267228,0.3454430844545364,-0.09554412145726382
1783169587990190300,11.3871904296875,1.8333236809074878,0.2966834374606609,-0.018420330570638178
1783169588000139300,11.39713916015625,1.7857172956019638,0.23898528172969816,-0.02650317232646048
1783169588010087200,11.407087158203124,1.883214377757907,0.26034838775396346,-0.07548895622640847
1783169588020036000,11.4170361328125,1.9714035333424806,0.3005219927102327,-0.09047335753161459
1783169588030015200,11.42701513671875,1.9099837267398834,0.2898316718697548,-0.05690335209146142
1783169588039964200,11.436964111328125,1.7898346677929162,0.20146657519638536,-0.028724757366068658
1783169588049913000,11.4469130859375,1.7368810762405396,0.16376666687726973,0.021596403323486446
1783169588059892200,11.456892333984374,1.6855425186693667,0.16508768634796142,0.03658544427119195
1783169588069841200,11.466841064453124,1.7069968101084232,0.15670681149363516,0.02752729120980948
1783169588079790000,11.4767900390625,1.6894558927208185,0.182781748470664,0.06232972452174872
1783169588089738200,11.48673828125,1.6289771663606165,0.17432839290201663,0.09405424822568893
1783169588099718100,11.49671826171875,1.6127929242789745,0.1555120487511158,0.12145444245710968
1783169588109666000,11.506666015625,1.5510662436842917,0.10867138712108135,0.15931370605640113
1783169588119615000,11.516614990234375,1.3970388805329799,0.06054010115861892,0.18612316785305738
1783169588129564200,11.526564208984375,1.2481482957482337,0.043830373898148534,0.27244857539236544
1783169588139543000,11.53654296875,1.1134393810510634,0.06583586947917938,0.3814452489450574
1783169588149492200,11.5464921875,0.9885755685418843,0.040572248885035515,0.46490514751803125
1783169588159440400,11.5564404296875,0.8081307385861873,-0.051204117536544795,0.49973461496736854
1783169588169420300,11.566420166015625,0.5405465543597936,-0.20761048477888105,0.4990669083062559
1783169588179368200,11.5763681640625,0.2513666243970394,-0.4218184681266546,0.41558841463066637
1783169588189317000,11.586317138671875,-0.017956512451171875,-0.6705541594982147,0.2886148068932816
1783169588199266300,11.596266357421875,-0.20686521936953067,-0.8966729453921317,0.15238690246790645
1783169588209245200,11.6062451171875,-0.3107698304802179,-0.9568751928985119,0.013249138477817177
1783169588219194000,11.616194091796874,-0.4652192184358835,-0.9984165790766477,-0.12191438811905682
1783169588229143000,11.62614306640625,-0.7080699434220791,-1.0590326680809259,-0.25919329943470654
1783169588239122200,11.6361220703125,-0.8070335909992455,-1.2186439688444137,-0.21534038491118698
1783169588249071000,11.646071044921875,-0.5846247655391693,-1.452311854943633,0.036741073224321005
1783169588259044900,11.656044921875,-0.8563479492664337,-1.5604443128824232,0.2747604325313121
1783169588268993800,11.665993896484375,-1.9437457110881804,-1.5743606100320815,0.34971422243509437
1783169588278973000,11.675972900390626,-2.9310318243414164,-1.6698653493270277,0.4810467560343444
1783169588288921900,11.685921875,-3.4349200883895157,-1.6933295192837714,0.45536509269122033
1783169588298870800,11.695870849609374,-3.5228894637435673,-1.3936822635814547,0.158146415842697
1783169588308850000,11.705849853515625,-3.335316973865032,-0.961824631999433,-0.2697392433684319
1783169588318798800,11.715798828125,-2.986157499235868,-0.357786433199048,-0.8337249063089489
1783169588328746800,11.725746826171875,-2.4877549731224775,0.11415975540429353,-1.355605630904436
1783169588338695700,11.73569580078125,-1.9851631786257027,0.2881780594438314,-1.5822159997075795
1783169588348674800,11.7456748046875,-1.394509654316306,0.522362078371644,-1.3926450294882058
1783169588358623700,11.755623779296876,-0.9412988535821437,0.6503165503725409,-0.9100668261028826
1783169588368572700,11.76557275390625,-0.7045335859894752,0.5122103944525123,-0.35823417696654797
1783169588378551800,11.7755517578125,-0.6545879440814256,0.3277101516261697,0.06472498562783002
1783169588388500700,11.785500732421875,-0.718583154129982,0.11989362288117408,0.36399222903661427
1783169588398450000,11.795449951171875,-0.8055284471333026,0.01668225473165512,0.480438049551472
1783169588408397600,11.8053974609375,-0.9548521626383065,0.04751666119545698,0.2809801838289946
1783169588418378000,11.8153779296875,-1.0897463707745074,0.12740385238081217,-0.19016564817689358
1783169588428326000,11.825325927734376,-0.8259709311813116,0.4663792021259665,-0.483787652240321
1783169588438274800,11.83527490234375,-0.37876550834178924,0.8936246637374162,-0.45726862475760277
1783169588448254000,11.84525390625,1.6880881114989519,1.082677163040638,0.3760047383915633
1783169588458203000,11.855202880859375,0.30430560290217396,0.5100169760614633,1.309311935632676
1783169588468151800,11.86515185546875,-1.2240274154484272,0.2133820539176464,1.285612057223916
1783169588478099700,11.875099609375,-1.2897229996740818,0.2957441107839346,1.1233149514425544
1783169588488080000,11.885079833984374,-0.23413491908907888,0.4969646022647619,0.6269280029352754
1783169588498027800,11.89502783203125,0.2592062319815159,1.08211368393898,0.08504019003435968
1783169588507976700,11.904976806640626,0.19846388624906539,1.2998854972481726,-0.1328290922999382
1783169588517925600,11.914925537109376,0.2623041979968548,1.176188390430808,-0.06869074745364487
1783169588527904800,11.92490478515625,0.6003823066413402,1.016450832939148,-0.03760799225196242
