time,seconds_elapsed,z,y,x
1783169576748098600,0.1450986328125,0.06093069165945053,0.6182299852371216,-0.05375931039452553
1783169576758046700,0.155046630859375,0.0342777743935585,0.46415969729423523,0.21423432230949402
1783169576767995600,0.16499560546875,0.00026431307196617126,0.2296728789806366,0.40924713015556335
1783169576777974500,0.174974609375,-0.018837209790945053,-0.011015103198587894,0.4984118938446045
1783169576787923500,0.18492333984375,-0.003517182543873787,-0.1773204356431961,0.4869658946990967
1783169576797872600,0.19487255859375,0.04389054328203201,-0.2589823007583618,0.3899248242378235
1783169576807821800,0.20482177734375,0.0951773002743721,-0.3218417763710022,0.23279504477977753
1783169576817800700,0.21480078125,0.10688295215368271,-0.3791026771068573,0.05312621593475342
1783169576827749600,0.22474951171875,0.057644568383693695,-0.3639828562736511,-0.12057526409626007
1783169576837697800,0.23469775390625,-0.08047521859407425,-0.2606958746910095,-0.29148733615875244
1783169576847677700,0.244677734375,-0.2563396692276001,-0.060976095497608185,-0.4316885769367218
1783169576857625600,0.25462548828125,-0.39802250266075134,0.21277263760566711,-0.49899548292160034
1783169576867574800,0.26457470703125,-0.49501481652259827,0.4938582181930542,-0.4821450114250183
1783169576877523700,0.274523681640625,-0.5417277216911316,0.6208031177520752,-0.38998180627822876
1783169576887502600,0.284502685546875,-0.5629597306251526,0.5809701085090637,-0.2235821634531021
1783169576897451500,0.294451416015625,-0.6098438501358032,0.42052528262138367,-0.014970638789236546
1783169576907399700,0.304399658203125,-0.6812323927879333,0.14250725507736206,0.19993704557418823
1783169576917379600,0.314379638671875,-0.712874710559845,-0.17986997961997986,0.3664219081401825
1783169576927327700,0.32432763671875,-0.6442869901657104,-0.508281946182251,0.4313809871673584
1783169576937276700,0.334276611328125,-0.40578389167785645,-0.825002133846283,0.37362420558929443
1783169576947225600,0.3442255859375,-0.024164089933037758,-0.9790252447128296,0.21925446391105652
1783169576957204500,0.35420458984375,0.34437185525894165,-1.0030666589736938,0.0033637084998190403
1783169576967153700,0.364153564453125,0.5679575204849243,-1.020202875137329,-0.23307031393051147
1783169576977102800,0.374102783203125,0.6472685933113098,-1.0653858184814453,-0.4646635949611664
1783169576987081700,0.384081787109375,0.5869995355606079,-1.2317993640899658,-0.679732084274292
1783169576997030700,0.39403076171875,0.39709246158599854,-1.4638653993606567,-0.8697973489761353
1783169577006978800,0.403978759765625,0.12491761893033981,-1.424843192100525,-0.9629858136177063
1783169577016927700,0.413927734375,-0.15526744723320007,-1.0694310665130615,-0.9362338185310364
1783169577026906600,0.42390673828125,-0.39406105875968933,-0.6365158557891846,-0.8000783324241638
1783169577036855800,0.433855712890625,-0.5592297911643982,-0.3249771296977997,-0.6160224676132202
1783169577046804700,0.4438046875,-0.6079373955726624,-0.14745083451271057,-0.4300408661365509
1783169577056752600,0.453752685546875,-0.6383559703826904,-0.03363186493515968,-0.27452772855758667
1783169577066732500,0.463732666015625,-0.8259879946708679,0.14220795035362244,-0.09882674366235733
1783169577076680700,0.4736806640625,-0.9420210719108582,0.33055707812309265,0.10419268161058426
1783169577086629600,0.483629638671875,-0.9560443758964539,0.4604129195213318,0.27217209339141846
1783169577096608500,0.4936083984375,-0.9372893571853638,0.49319905042648315,0.3247024118900299
1783169577106557700,0.5035576171875,-0.8624921441078186,0.36275291442871094,0.25586459040641785
1783169577116506600,0.513506591796875,-0.7281364798545837,0.10543881356716156,0.10704874992370605
1783169577126455600,0.52345556640625,-0.5895344614982605,-0.12739650905132294,-0.0899580642580986
1783169577136434400,0.533434326171875,-0.4676527976989746,-0.24306344985961914,-0.28707563877105713
1783169577146384000,0.5433837890625,-0.35273709893226624,-0.14932551980018616,-0.4301050007343292
1783169577156331800,0.553331787109375,-0.21145133674144745,0.1398245245218277,-0.4760008454322815
1783169577166311700,0.563311767578125,-0.07326972484588623,0.5659664869308472,-0.4366225302219391
1783169577176259800,0.573259765625,0.02192656882107258,1.0006483793258667,-0.3600257635116577
1783169577186208800,0.583208740234375,0.05278465896844864,1.27471125125885,-0.2854725122451782
1783169577196157700,0.59315771484375,0.024484308436512947,1.3518009185791016,-0.24924980103969574
1783169577206136600,0.603136474609375,-0.013075405731797218,1.1745620965957642,-0.25185155868530273
1783169577216085800,0.613085693359375,-0.03119368851184845,0.46951279044151306,-0.30920642614364624
1783169577226033700,0.62303369140625,-0.04391271993517876,-0.3641687333583832,-0.35884588956832886
1783169577236013600,0.633013671875,-0.020382625982165337,-0.5537567734718323,-0.30014023184776306
1783169577245993700,0.64299365234375,0.06203462928533554,-0.1985350102186203,-0.1646493375301361
1783169577255943000,0.65294287109375,0.1589137762784958,0.28736618161201477,-0.03938969597220421
1783169577265892000,0.66289208984375,0.2055911272764206,0.6947487592697144,0.06176115572452545
1783169577275870700,0.67287060546875,0.18623793125152588,0.8772527575492859,0.13854621350765228
1783169577285820000,0.68281982421875,0.14847566187381744,0.7888698577880859,0.18052953481674194
1783169577295769000,0.69276904296875,0.1702190488576889,0.47733274102211,0.19224344193935394
1783169577305717000,0.702717041015625,0.24409855902194977,0.08590053021907806,0.16335773468017578
1783169577315697000,0.71269677734375,0.326523095369339,-0.2779775559902191,0.09019163995981216
1783169577325645000,0.72264501953125,0.3830316364765167,-0.5532876253128052,-0.00694707315415144
1783169577335594000,0.732593994140625,0.44086405634880066,-0.6444798111915588,-0.10777755081653595
1783169577345572900,0.74257275390625,0.5243539810180664,-0.4649040997028351,-0.15965253114700317
1783169577355521800,0.752521728515625,0.6307473182678223,-0.08625078201293945,-0.1384844034910202
1783169577365471000,0.762470947265625,0.7143630385398865,0.3649674654006958,-0.03387606143951416
1783169577375419000,0.7724189453125,0.7303041815757751,0.7397037744522095,0.12929075956344604
1783169577385398800,0.782398681640625,0.688098132610321,0.9708430171012878,0.3305458426475525
1783169577395347000,0.792346923828125,0.6468049883842468,1.0838592052459717,0.5420061349868774
1783169577405295900,0.8022958984375,0.6220555305480957,1.0818252563476562,0.7202916741371155
1783169577415274800,0.812274658203125,0.594157338142395,0.9376228451728821,0.8215373158454895
1783169577425224000,0.822223876953125,0.5592510104179382,0.6708476543426514,0.8407949209213257
1783169577435172900,0.8321728515625,0.5090197920799255,0.3687865734100342,0.7783302068710327
1783169577445122000,0.8421220703125,0.48223504424095154,0.16973263025283813,0.6324752569198608
1783169577455101000,0.852100830078125,0.5059847831726074,0.12186523526906967,0.43397438526153564
1783169577465049900,0.8620498046875,0.5917478799819946,0.11984871327877045,0.22724172472953796
1783169577474998000,0.871998046875,0.6236158013343811,0.13485348224639893,0.058180272579193115
1783169577484978000,0.88197802734375,0.5702940225601196,0.16825918853282928,-0.04935542121529579
1783169577494926000,0.891926025390625,0.5400122404098511,0.16692841053009033,-0.11318313330411911
1783169577504875000,0.901875,0.48534390330314636,0.18717743456363678,-0.13947555422782898
1783169577514824000,0.911823974609375,0.4057561457157135,0.2690320909023285,-0.17654994130134583
1783169577524802800,0.921802734375,0.38285335898399353,0.3784513473510742,-0.22894640266895294
1783169577534752000,0.931751953125,0.4062952995300293,0.48587286472320557,-0.2852061986923218
1783169577544701000,0.941700927734375,0.447549432516098,0.5221308469772339,-0.33395642042160034
1783169577554679800,0.9516796875,0.5008110404014587,0.4447769224643707,-0.3720252513885498
1783169577564628000,0.9616279296875,0.5748873949050903,0.30238842964172363,-0.3906097710132599
1783169577574577000,0.971576904296875,0.6457335948944092,0.15559737384319305,-0.3779887855052948
1783169577584525800,0.98152587890625,0.706257164478302,0.028920477256178856,-0.3455308675765991
1783169577594505000,0.9915048828125,0.7582979798316956,-0.09247919172048569,-0.28712964057922363
1783169577604454000,1.001453857421875,0.7870845198631287,-0.2028297781944275,-0.2161344736814499
1783169577614403000,1.011403076171875,0.7987140417098999,-0.29723164439201355,-0.14208528399467468
1783169577624351000,1.02135107421875,0.8066059947013855,-0.34754478931427,-0.08069747686386108
1783169577634331000,1.031330810546875,0.8169416785240173,-0.15412688255310059,-0.09073813259601593
1783169577644279000,1.041279052734375,0.8912268280982971,0.04348766803741455,-0.04120401293039322
1783169577654228000,1.05122802734375,0.969472348690033,0.24664264917373657,-0.009668190963566303
1783169577664207000,1.06120703125,1.010791540145874,0.3654972314834595,-0.0006712693721055984
1783169577674156000,1.071156005859375,1.0089095830917358,0.35674208402633667,-0.01085386611521244
1783169577684105000,1.08110498046875,0.9723742604255676,0.2600124180316925,-0.029803477227687836
1783169577694054000,1.091053955078125,0.9125857353210449,0.1494813859462738,-0.052249666303396225
1783169577704033000,1.101032958984375,0.8583836555480957,0.06821928918361664,-0.08386939764022827
1783169577713982000,1.11098193359375,0.831680178642273,-0.0006724279373884201,-0.10440263897180557
1783169577723929900,1.120929931640625,0.8688095211982727,-0.023028874769806862,-0.14209352433681488
1783169577733909000,1.130908935546875,0.9122430086135864,0.07268540561199188,-0.19655117392539978
1783169577743858000,1.14085791015625,0.9295768141746521,0.2117108851671219,-0.23232115805149078
1783169577753806800,1.150806884765625,0.9152524471282959,0.3327435851097107,-0.2235598862171173
1783169577763755800,1.160755859375,0.8813480734825134,0.4651104509830475,-0.17000283300876617
1783169577773735000,1.17073486328125,0.8561633825302124,0.5689836144447327,-0.09047523885965347
1783169577783684000,1.18068408203125,0.8266967535018921,0.5852914452552795,0.0007882635109126568
1783169577793631700,1.1906318359375,0.7708907723426819,0.4946850836277008,0.08015285432338715
1783169577803612000,1.20061181640625,0.7154719233512878,0.3613416850566864,0.15454581379890442
1783169577813560000,1.21056005859375,0.6730160713195801,0.2644478976726532,0.22978729009628296
1783169577823509000,1.220509033203125,0.6535629034042358,0.22124230861663818,0.31601348519325256
1783169577833458000,1.2304580078125,0.6467459797859192,0.19660699367523193,0.3854290246963501
1783169577843437000,1.24043701171875,0.6426359415054321,0.170839324593544,0.43721073865890503
1783169577853386000,1.250385986328125,0.6366829872131348,0.15305526554584503,0.464479923248291
1783169577863335000,1.2603349609375,0.61735999584198,0.13891127705574036,0.4605666995048523
1783169577873282800,1.27028271484375,0.5828704833984375,0.15101507306098938,0.4267136752605438
1783169577883263000,1.280262939453125,0.5433381199836731,0.21817682683467865,0.35972508788108826
1783169577893211000,1.2902109375,0.5243199467658997,0.33647629618644714,0.2737358808517456
1783169577903159800,1.300159912109375,0.5439584851264954,0.49187713861465454,0.19384855031967163
1783169577913139000,1.310138916015625,0.5808011889457703,0.5869985818862915,0.11321548372507095
1783169577923088000,1.320087890625,0.6119382381439209,0.5456783175468445,0.018191538751125336
1783169577933036800,1.330036865234375,0.6256585717201233,0.3863432705402374,-0.09323884546756744
1783169577942984700,1.339984619140625,0.6080501675605774,0.20218542218208313,-0.2192060649394989
1783169577952965000,1.349965087890625,0.5448852777481079,0.0630275309085846,-0.3444675803184509
1783169577962912800,1.359912841796875,0.4396370053291321,0.010015636682510376,-0.46143239736557007
1783169577972862000,1.369862060546875,0.3353377878665924,0.05269652232527733,-0.5458325147628784
1783169577982841000,1.379841064453125,0.2476264238357544,0.12595535814762115,-0.5862682461738586
1783169577992790000,1.3897900390625,0.18763792514801025,0.16592808067798615,-0.594088077545166
1783169578002739000,1.399739013671875,0.17040112614631653,0.227523073554039,-0.5559241771697998
1783169578012688000,1.40968798828125,0.21395473182201385,0.34974750876426697,-0.45688173174858093
1783169578022667000,1.4196669921875,0.2988022267818451,0.43714672327041626,-0.30022749304771423
1783169578032616000,1.429615966796875,0.4169437885284424,0.4252021610736847,-0.10032451897859573
1783169578042563800,1.439563720703125,0.5441760420799255,0.33614152669906616,0.11091715097427368
1783169578052544000,1.4495439453125,0.6487799286842346,0.16036492586135864,0.300039678812027
1783169578062492000,1.459491943359375,0.717496931552887,-0.05614820122718811,0.4342736303806305
1783169578072440800,1.46944091796875,0.7431562542915344,-0.22964222729206085,0.5182340741157532
1783169578082389800,1.4793896484375,0.7201237082481384,-0.3394986093044281,0.5481589436531067
1783169578092369000,1.489368896484375,0.6638553738594055,-0.4027681350708008,0.531089186668396
1783169578102317800,1.49931787109375,0.5908634662628174,-0.38815855979919434,0.4782598316669464
1783169578112265700,1.509265625,0.5124333500862122,-0.30305564403533936,0.39903318881988525
1783169578122215000,1.51921484375,0.4417036771774292,-0.127430722117424,0.3002675473690033
1783169578132193800,1.52919384765625,0.3957117199897766,0.10552555322647095,0.20409734547138214
1783169578142143000,1.53914306640625,0.3718318045139313,0.3131268322467804,0.11931388080120087
1783169578152092000,1.549091796875,0.3716176748275757,0.45158299803733826,0.049486324191093445
1783169578162071000,1.559071044921875,0.388301283121109,0.5006071925163269,-0.0034966738894581795
1783169578172020000,1.56902001953125,0.40631863474845886,0.4782593250274658,-0.0372767448425293
1783169578181969000,1.578968994140625,0.40961316227912903,0.4338225722312927,-0.05370241776108742
1783169578191917000,1.5889169921875,0.3969479501247406,0.3786652982234955,-0.05463745817542076
1783169578201897000,1.59889697265625,0.38169315457344055,0.3067382872104645,-0.04720359295606613
1783169578211844900,1.608844970703125,0.36821913719177246,0.24817803502082825,-0.05189182609319687
1783169578221793800,1.618793701171875,0.3548417091369629,0.20447850227355957,-0.0696716383099556
1783169578231773000,1.62877294921875,0.3472743332386017,0.19091609120368958,-0.10674656927585602
1783169578241747200,1.638747314453125,0.3529340326786041,0.2025463730096817,-0.16199946403503418
1783169578251696000,1.648696044921875,0.36644986271858215,0.2369576096534729,-0.22071363031864166
1783169578261644000,1.65864404296875,0.3906853199005127,0.2528644800186157,-0.28014859557151794
1783169578271624200,1.668624267578125,0.4385862648487091,0.25873515009880066,-0.32040998339653015
1783169578281572000,1.678572021484375,0.49341174960136414,0.26801201701164246,-0.3220615088939667
1783169578291521300,1.688521240234375,0.5251885056495667,0.26814010739326477,-0.28556180000305176
1783169578301500400,1.69850048828125,0.5323606729507446,0.24273915588855743,-0.22566911578178406
1783169578311449300,1.708449462890625,0.5169020891189575,0.19333352148532867,-0.14814423024654388
1783169578321398300,1.718398193359375,0.4782390594482422,0.14736035466194153,-0.07406079024076462
1783169578331347200,1.72834716796875,0.4313599467277527,0.09599543362855911,-0.007202126085758209
1783169578341326300,1.738326416015625,0.3864041864871979,0.073618583381176,0.03367827832698822
1783169578351275300,1.748275146484375,0.3573496341705322,0.09618780761957169,0.05950428172945976
1783169578361223200,1.75822314453125,0.3451350927352905,0.15715190768241882,0.07086995244026184
1783169578371172000,1.768172119140625,0.34163329005241394,0.2107917070388794,0.059874027967453
1783169578381151200,1.778151123046875,0.35092848539352417,0.23614099621772766,0.02083740197122097
1783169578391100200,1.78810009765625,0.37661975622177124,0.25790488719940186,-0.021926574409008026
1783169578401049000,1.798049072265625,0.41949278116226196,0.2969023287296295,-0.0465022549033165
1783169578411028200,1.8080283203125,0.4580886662006378,0.3500009775161743,-0.040896832942962646
1783169578420977200,1.81797705078125,0.483794629573822,0.42435920238494873,-0.007420784793794155
1783169578430925000,1.827925048828125,0.5080254077911377,0.5059102177619934,0.06255270540714264
1783169578440874000,1.8378740234375,0.5373345613479614,0.5469963550567627,0.1505703628063202
1783169578450853000,1.84785302734375,0.5737890005111694,0.5438655614852905,0.24473947286605835
1783169578460802300,1.85780224609375,0.6100238561630249,0.5058904886245728,0.3427217900753021
1783169578470751200,1.867751220703125,0.638784646987915,0.4426495134830475,0.4274430572986603
1783169578480730400,1.87773046875,0.6399603486061096,0.3636747896671295,0.4838053584098816
1783169578490679300,1.88767919921875,0.6186598539352417,0.3158891499042511,0.5041394233703613
1783169578500628200,1.897628173828125,0.5867195129394531,0.2989044189453125,0.4809524118900299
1783169578510576000,1.907576171875,0.5641250014305115,0.31778383255004883,0.4204810559749603
1783169578520556300,1.917556396484375,0.5601357221603394,0.3915734887123108,0.33490824699401855
1783169578530504200,1.927504150390625,0.5766904950141907,0.4733484983444214,0.25437983870506287
1783169578540453000,1.937453125,0.6241078972816467,0.6020651459693909,0.18242445588111877
1783169578550432300,1.947432373046875,0.6965051293373108,0.8248646855354309,0.12067026644945145
1783169578560381200,1.957381103515625,0.7829883098602295,0.9995383024215698,0.06452425569295883
1783169578570330000,1.967330078125,0.8530145287513733,0.9735866189002991,-0.014342326670885086
1783169578580278300,1.9772783203125,0.8658185005187988,0.7006202340126038,-0.13251619040966034
1783169578590258200,1.987258056640625,0.8288607597351074,0.3039344251155853,-0.2719811499118805
1783169578600206000,1.9972060546875,0.7576954364776611,-0.04764792323112488,-0.36870646476745605
1783169578610155000,2.007155029296875,0.6747302412986755,-0.26147207617759705,-0.3963354229927063
1783169578620134100,2.017134033203125,0.600242555141449,-0.29417750239372253,-0.36986303329467773
1783169578630083000,2.0270830078125,0.5470101833343506,-0.1464809626340866,-0.2987363934516907
1783169578640032300,2.0370322265625,0.5162923336029053,0.14033040404319763,-0.21013662219047546
1783169578649981200,2.046981201171875,0.5280666947364807,0.5255273580551147,-0.09777120500802994
1783169578659960300,2.056960205078125,0.570287823677063,0.8950253129005432,0.01461000181734562
1783169578669909200,2.0669091796875,0.6179741024971008,1.0787714719772339,0.10445573180913925
1783169578679857200,2.076857177734375,0.646684467792511,1.1076830625534058,0.16360697150230408
1783169578689806300,2.086806396484375,0.6586524844169617,1.0379654169082642,0.1894952952861786
1783169578699785200,2.09678515625,0.6562933325767517,0.8617839217185974,0.1719774454832077
1783169578709734100,2.106734130859375,0.6397247910499573,0.5987741351127625,0.1067848652601242
1783169578719683000,2.11668310546875,0.6207302808761597,0.29325583577156067,0.004107356071472168
1783169578729662200,2.126662109375,0.6159152388572693,-0.002430936088785529,-0.12012618035078049
1783169578739611100,2.136611083984375,0.6313520073890686,-0.21850161254405975,-0.25254857540130615
1783169578749559000,2.14655908203125,0.6894494295120239,-0.2968451678752899,-0.36501652002334595
1783169578759508200,2.15650830078125,0.7834179997444153,-0.20848822593688965,-0.4460766315460205
1783169578769487000,2.166487060546875,0.9032136797904968,-0.041811082512140274,-0.4906744360923767
1783169578779436000,2.17643603515625,1.0001249313354492,0.12172552943229675,-0.5160984396934509
1783169578789385200,2.18638525390625,1.0477802753448486,0.22216744720935822,-0.5312063097953796
1783169578799364000,2.196364013671875,1.0580549240112305,0.23889806866645813,-0.5258859395980835
1783169578809313300,2.206313232421875,1.0340564250946045,0.20098212361335754,-0.5018746256828308
1783169578819262200,2.21626220703125,0.9919230341911316,0.11174322664737701,-0.4567570686340332
1783169578829210400,2.22621044921875,0.9490991234779358,0.042173732072114944,-0.3920430541038513
1783169578839190300,2.236190185546875,0.921886146068573,0.02259044535458088,-0.30800703167915344
1783169578849138200,2.24613818359375,0.9152093529701233,0.05732126161456108,-0.2103361040353775
1783169578859087000,2.256087158203125,0.9243136644363403,0.10473743826150894,-0.11673511564731598
1783169578869066200,2.266066162109375,0.9422218203544617,0.13234136998653412,-0.04058868810534477
1783169578879015200,2.27601513671875,0.9692915678024292,0.15792441368103027,0.02522193267941475
1783169578888964000,2.285964111328125,0.9820560812950134,0.1902834177017212,0.08533214032649994
1783169578898913000,2.2959130859375,0.9747780561447144,0.21555227041244507,0.13924945890903473
1783169578908892200,2.30589208984375,0.9509509801864624,0.20721419155597687,0.1931651532649994
1783169578918840000,2.315840087890625,0.9199462532997131,0.1471017301082611,0.243111252784729
1783169578928789200,2.325789306640625,0.8825131058692932,0.0674886628985405,0.28847208619117737
1783169578938738200,2.33573828125,0.8347898125648499,-0.0029586111195385456,0.329562246799469
1783169578948717000,2.345717041015625,0.7867242693901062,-0.002519722329452634,0.376515656709671
1783169578958666000,2.355666015625,0.7475916743278503,0.061524324119091034,0.4151105284690857
1783169578968615200,2.365615234375,0.7299368381500244,0.17711962759494781,0.4422377645969391
1783169578978594300,2.37559423828125,0.7366881370544434,0.3304777145385742,0.46038156747817993
1783169578988543200,2.385543212890625,0.7560580968856812,0.4598703384399414,0.4585690200328827
1783169578998491400,2.395491455078125,0.7812672257423401,0.53668612241745,0.4477923512458801
1783169579008440300,2.4054404296875,0.795988917350769,0.5950871109962463,0.4262910485267639
1783169579018419200,2.415419189453125,0.7967017889022827,0.6194853782653809,0.3908347487449646
1783169579028368100,2.4253681640625,0.7837992906570435,0.6024144887924194,0.3423875868320465
1783169579038317300,2.4353173828125,0.751408576965332,0.5546426177024841,0.2856140434741974
1783169579048296200,2.445296142578125,0.6955277323722839,0.48599937558174133,0.21213077008724213
1783169579058245000,2.4552451171875,0.6262367963790894,0.4140021800994873,0.12703077495098114
1783169579068194000,2.465194091796875,0.555431067943573,0.38643553853034973,0.028459731489419937
1783169579078142200,2.47514208984375,0.4906245172023773,0.36966532468795776,-0.06360151618719101
1783169579088122000,2.4851220703125,0.446262389421463,0.3247247636318207,-0.15349705517292023
1783169579098070300,2.4950703125,0.412757933139801,0.27464374899864197,-0.23162153363227844
1783169579108019200,2.505019287109375,0.3786609470844269,0.226150780916214,-0.27290239930152893
1783169579117998000,2.514998046875,0.3454945683479309,0.22016994655132294,-0.2774375081062317
1783169579127947000,2.524947021484375,0.3135923147201538,0.23957453668117523,-0.2513771653175354
1783169579137896200,2.534896240234375,0.2944081127643585,0.2868315875530243,-0.1927848905324936
1783169579147844400,2.54484423828125,0.2832827568054199,0.39443421363830566,-0.09019114077091217
1783169579157824300,2.55482421875,0.2620682120323181,0.4774263799190521,0.032860808074474335
1783169579167772400,2.5647724609375,0.2105778455734253,0.38774630427360535,0.10710867494344711
1783169579177721300,2.574721435546875,0.1515459418296814,0.16765521466732025,0.10540797561407089
1783169579187700200,2.5847001953125,0.09137554466724396,-0.05364495888352394,0.037211351096630096
1783169579197649200,2.594649169921875,0.03031088225543499,-0.2036409080028534,-0.08943529427051544
1783169579207598300,2.604598388671875,-0.02438431978225708,-0.25502660870552063,-0.24359315633773804
1783169579217547300,2.61454736328125,-0.06132521480321884,-0.21519246697425842,-0.4145432114601135
1783169579227526100,2.624526123046875,-0.0554039403796196,-0.09409984946250916,-0.5553269386291504
1783169579237475000,2.63447509765625,0.0031517930328845978,0.08010566234588623,-0.6232379078865051
1783169579247460600,2.644460693359375,0.07697967439889908,0.2471095770597458,-0.5948835015296936
1783169579257409800,2.654409912109375,0.135090172290802,0.3499918282032013,-0.47124215960502625
1783169579267389000,2.664388916015625,0.16475191712379456,0.4062468409538269,-0.2899048626422882
1783169579277337900,2.674337890625,0.17165744304656982,0.34220263361930847,-0.09714128077030182
1783169579287286800,2.684286865234375,0.1518523097038269,0.14411243796348572,0.07222244888544083
1783169579297265700,2.694265625,0.10652059316635132,-0.10841318219900131,0.19974324107170105
1783169579307214800,2.70421484375,0.05195536091923714,-0.3661525547504425,0.25815248489379883
1783169579317162800,2.714162841796875,0.007313024252653122,-0.5940073728561401,0.2309282124042511
1783169579327111700,2.724111572265625,-0.026312844827771187,-0.7336049675941467,0.13328607380390167
1783169579337090800,2.7340908203125,-0.06469427049160004,-0.7438464760780334,-0.016956932842731476
1783169579347039700,2.744039794921875,-0.11014217883348465,-0.6128538250923157,-0.17827045917510986
1783169579356988700,2.75398876953125,-0.1640140265226364,-0.3888837993144989,-0.3146117925643921
1783169579366967600,2.763967529296875,-0.22180356085300446,-0.1396108865737915,-0.4078989028930664
1783169579376916700,2.773916748046875,-0.28263139724731445,0.05610247328877449,-0.45753297209739685
1783169579386865700,2.78386572265625,-0.33699584007263184,0.1526804119348526,-0.47390902042388916
1783169579396813600,2.7938134765625,-0.38031837344169617,0.13256870210170746,-0.4549899697303772
1783169579406793500,2.80379345703125,-0.4119463562965393,0.04052959382534027,-0.41360121965408325
1783169579416741600,2.81374169921875,-0.43243691325187683,-0.03434765338897705,-0.3470984399318695
1783169579426690800,2.82369091796875,-0.45133790373802185,-0.09428262710571289,-0.28362226486206055
1783169579436669700,2.833669677734375,-0.4574185907840729,-0.13009712100028992,-0.2122647911310196
1783169579446619000,2.843618896484375,-0.44209688901901245,-0.13854598999023438,-0.1542006880044937
1783169579456567800,2.85356787109375,-0.4200070798397064,-0.1171049177646637,-0.11330441385507584
1783169579466515700,2.863515625,-0.3996956944465637,-0.08985172212123871,-0.07904071360826492
1783169579476495600,2.87349560546875,-0.37890440225601196,-0.07719393074512482,-0.06281505525112152
1783169579486443800,2.88344384765625,-0.3611448407173157,-0.08953208476305008,-0.06406434625387192
1783169579496392700,2.893392822265625,-0.34516432881355286,-0.11290371417999268,-0.07786458730697632
1783169579506341600,2.903341552734375,-0.3260444104671478,-0.1413489431142807,-0.11274773627519608
1783169579516320800,2.91332080078125,-0.2994215488433838,-0.15631234645843506,-0.14949925243854523
1783169579526269700,2.923269775390625,-0.2682631015777588,-0.13194096088409424,-0.17956048250198364
1783169579536218600,2.933218505859375,-0.24243225157260895,-0.09732691943645477,-0.20662395656108856
1783169579546197800,2.94319775390625,-0.21889923512935638,-0.05853372439742088,-0.219035342335701
1783169579556146700,2.953146728515625,-0.20947930216789246,-0.019380973652005196,-0.2143830507993698
1783169579566094600,2.963094482421875,-0.21238985657691956,0.0016385586932301521,-0.19226735830307007
1783169579576043500,2.97304345703125,-0.2257489114999771,0.012059647589921951,-0.14743876457214355
1783169579586022700,2.983022705078125,-0.25403088331222534,-0.00015041278675198555,-0.08656395971775055
1783169579595971600,2.9929716796875,-0.29103225469589233,-0.050845175981521606,-0.03875958174467087
1783169579605920800,3.002920654296875,-0.32509756088256836,-0.10937586426734924,-0.006517755798995495
1783169579615900000,3.01289990234375,-0.33840757608413696,-0.1558702290058136,0.016525939106941223
1783169579625848800,3.022848876953125,-0.3403322398662567,-0.17106303572654724,0.03041379153728485
1783169579635796700,3.032796630859375,-0.33036407828330994,-0.11989957094192505,0.03536129742860794
1783169579645745700,3.04274560546875,-0.31818491220474243,-0.02730865217745304,0.037549883127212524
1783169579655724800,3.052724853515625,-0.31719496846199036,0.06714239716529846,0.029123026877641678
1783169579665673700,3.062673828125,-0.3283855617046356,0.13718245923519135,0.009960519149899483
1783169579675622700,3.07262255859375,-0.35082805156707764,0.1947971135377884,-0.014320768415927887
1783169579685601800,3.082601806640625,-0.36501020193099976,0.24685685336589813,-0.02793191932141781
1783169579695550700,3.09255078125,-0.35744860768318176,0.28476381301879883,-0.022525936365127563
1783169579705499600,3.102499755859375,-0.3320803940296173,0.33166661858558655,0.0014824606478214264
1783169579715447600,3.112447509765625,-0.29976117610931396,0.3439497649669647,0.03764672577381134
1783169579725427700,3.122427734375,-0.27252769470214844,0.331043541431427,0.06751035153865814
1783169579735375600,3.132375732421875,-0.2490476816892624,0.30695053935050964,0.09400755167007446
1783169579745324500,3.142324462890625,-0.2326175719499588,0.2995744049549103,0.119127556681633
1783169579755303700,3.1523037109375,-0.22197991609573364,0.33877885341644287,0.15162059664726257
1783169579765252600,3.162252685546875,-0.20397749543190002,0.4258405268192291,0.19671723246574402
1783169579775201800,3.172201904296875,-0.17309734225273132,0.519882321357727,0.24322721362113953
1783169579785149700,3.182149658203125,-0.13676968216896057,0.6245536208152771,0.29284295439720154
1783169579795129900,3.1921298828125,-0.08444644510746002,0.7585111856460571,0.35638999938964844
1783169579805077800,3.202077880859375,-0.015825845301151276,0.8537482023239136,0.4304109811782837
1783169579815026700,3.212026611328125,0.024429049342870712,0.8409746289253235,0.4596966505050659
1783169579824975600,3.2219755859375,0.03463375195860863,0.6068071126937866,0.41283485293388367
1783169579834954800,3.231954833984375,-0.016599100083112717,0.10659336298704147,0.26226806640625
1783169579844903700,3.241903564453125,-0.1595464050769806,-0.5640526413917542,0.006107674911618233
1783169579854852600,3.2518525390625,-0.3231714367866516,-1.016499400138855,-0.2609359622001648
1783169579864831700,3.261831787109375,-0.4250410795211792,-0.9915565252304077,-0.4159567058086395
1783169579874780700,3.27178076171875,-0.4471428692340851,-0.5569336414337158,-0.3990580439567566
1783169579884728600,3.281728515625,-0.3869701027870178,0.09704125672578812,-0.22268542647361755
1783169579894677800,3.291677734375,-0.28617948293685913,0.747022807598114,0.025354504585266113
1783169579904656600,3.30165673828125,-0.19210465252399445,1.1295722723007202,0.2401147484779358
1783169579914605600,3.31160546875,-0.1266690492630005,1.1062458753585815,0.36515384912490845
1783169579924554500,3.321554443359375,-0.10149338841438293,0.8085108399391174,0.41954493522644043
1783169579934533600,3.33153369140625,-0.11259481310844421,0.43055012822151184,0.41777804493904114
1783169579944482800,3.34148291015625,-0.13618163764476776,0.07392599433660507,0.3902284502983093
1783169579954430700,3.3514306640625,-0.13205184042453766,-0.13171488046646118,0.3398219347000122
1783169579964380000,3.3613798828125,-0.10107022523880005,-0.1856851726770401,0.26167309284210205
1783169579974358800,3.37135888671875,-0.06279715895652771,-0.15059176087379456,0.15436601638793945
1783169579984307700,3.3813076171875,-0.0295792818069458,-0.05115172266960144,0.03540367633104324
1783169579994256600,3.391256591796875,-0.019698506221175194,0.11038365960121155,-0.053308431059122086
1783169580004235800,3.40123583984375,-0.03015141375362873,0.2901081442832947,-0.10792560130357742
1783169580014184700,3.411184814453125,-0.04449879378080368,0.428247332572937,-0.11744192242622375
1783169580024133600,3.421133544921875,-0.056375693529844284,0.47652482986450195,-0.1076473519206047
1783169580034081800,3.431081787109375,-0.06788051128387451,0.44139784574508667,-0.08378826081752777
1783169580044061700,3.441061767578125,-0.06946855038404465,0.34102970361709595,-0.04238675534725189
1783169580054009600,3.451009521484375,-0.06829177588224411,0.2316817045211792,0.005618388298898935
1783169580063958500,3.46095849609375,-0.06680386513471603,0.1341271847486496,0.056988902390003204
1783169580073937700,3.470937744140625,-0.0568663626909256,0.06188741698861122,0.11150652915239334
1783169580083886600,3.480886474609375,-0.032891519367694855,0.013548912480473518,0.1601736694574356
1783169580093835500,3.49083544921875,0.023678038269281387,-0.04332643747329712,0.19530227780342102
1783169580103784700,3.50078466796875,0.09692961722612381,-0.10949186980724335,0.21741265058517456
1783169580113763800,3.510763916015625,0.17114238440990448,-0.13555781543254852,0.22737981379032135
1783169580123711500,3.52071142578125,0.20635710656642914,-0.1404266059398651,0.23477673530578613
1783169580133660700,3.53066064453125,0.19993820786476135,-0.15936137735843658,0.24173907935619354
1783169580143609900,3.54060986328125,0.15798676013946533,-0.2020166963338852,0.23954783380031586
1783169580153588700,3.550588623046875,0.08748084306716919,-0.2551015317440033,0.2325865775346756
1783169580163537700,3.56053759765625,0.00755537673830986,-0.31442078948020935,0.2170821875333786
1783169580173486600,3.570486572265625,-0.06683516502380371,-0.3476061224937439,0.21099767088890076
1783169580183465700,3.5804658203125,-0.1307547688484192,-0.3364884853363037,0.2192889004945755
1783169580193414700,3.59041455078125,-0.1928807944059372,-0.29030656814575195,0.2356029450893402
1783169580203362800,3.60036279296875,-0.2557583153247833,-0.24863821268081665,0.2484561651945114
1783169580213311700,3.610311767578125,-0.2952090799808502,-0.22519013285636902,0.24837039411067963
1783169580223290600,3.62029052734375,-0.31227728724479675,-0.18380407989025116,0.24699461460113525
1783169580233239600,3.630239501953125,-0.32029566168785095,-0.1288745254278183,0.252760648727417
1783169580243193900,3.64019384765625,-0.34410804510116577,-0.11484765261411667,0.2633427381515503
1783169580253173000,3.650173095703125,-0.38151437044143677,-0.13610970973968506,0.27884507179260254
1783169580263122000,3.660121826171875,-0.41470056772232056,-0.1587178111076355,0.29036375880241394
1783169580273071000,3.670071044921875,-0.4507230520248413,-0.1942300945520401,0.28890663385391235
1783169580283019000,3.68001904296875,-0.47778236865997314,-0.226945698261261,0.26492273807525635
1783169580292998000,3.689997802734375,-0.47897130250930786,-0.2506447434425354,0.22349342703819275
1783169580302947000,3.699947021484375,-0.464763343334198,-0.27793416380882263,0.18287701904773712
1783169580312896000,3.70989599609375,-0.43898096680641174,-0.2759561538696289,0.13413913547992706
1783169580322875100,3.719875244140625,-0.42241159081459045,-0.29535433650016785,0.08652714639902115
1783169580332824000,3.729823974609375,-0.41809993982315063,-0.3105056583881378,0.046757880598306656
1783169580342773000,3.73977294921875,-0.4348070025444031,-0.2834106683731079,0.01844341866672039
1783169580352721000,3.749720947265625,-0.4620029032230377,-0.25414660573005676,-0.007424277253448963
1783169580362701000,3.759701171875,-0.4798239767551422,-0.24283084273338318,-0.03221164643764496
1783169580372649000,3.76964892578125,-0.4654994010925293,-0.24953490495681763,-0.046234093606472015
1783169580382598000,3.779597900390625,-0.4161060154438019,-0.22486871480941772,-0.03811704367399216
1783169580392577000,3.789576904296875,-0.33266136050224304,-0.14222174882888794,-0.006081577390432358
1783169580402526000,3.79952587890625,-0.23118291795253754,-0.0655599981546402,0.03772822022438049
1783169580412475000,3.809474853515625,-0.13758203387260437,-0.061091918498277664,0.06639512628316879
1783169580422423800,3.819423828125,-0.07572400569915771,-0.2347089797258377,0.04779800772666931
1783169580432403000,3.82940283203125,-0.07300376147031784,-0.5274202227592468,-0.01987183280289173
1783169580442352000,3.83935205078125,-0.13525861501693726,-0.7968775629997253,-0.11581194400787354
1783169580452300000,3.849300048828125,-0.24498271942138672,-0.9752786159515381,-0.2086818814277649
1783169580462249000,3.8592490234375,-0.37372979521751404,-1.0472770929336548,-0.27797731757164
1783169580472228000,3.86922802734375,-0.478893905878067,-1.0278568267822266,-0.33194464445114136
1783169580482177000,3.879177001953125,-0.537280797958374,-0.9067383408546448,-0.37600716948509216
1783169580492126000,3.8891259765625,-0.5292134284973145,-0.6619834899902344,-0.37277093529701233
1783169580502105000,3.89910498046875,-0.47149232029914856,-0.34556370973587036,-0.328075647354126
1783169580512054000,3.909053955078125,-0.3766891062259674,-0.04913949966430664,-0.24868226051330566
1783169580522002000,3.919001953125,-0.2604876458644867,0.14345018565654755,-0.13294821977615356
1783169580531950800,3.928950927734375,-0.14570142328739166,0.15777532756328583,-0.01061085145920515
1783169580541930000,3.938929931640625,-0.05674625188112259,0.0345495380461216,0.13118889927864075
1783169580551879000,3.94887890625,-0.019947800785303116,-0.10680875927209854,0.2858249843120575
1783169580561827800,3.958827880859375,-0.03415736183524132,-0.22212018072605133,0.4389772415161133
1783169580571807000,3.968806884765625,-0.09030704945325851,-0.30239006876945496,0.551611602306366
1783169580581756000,3.978755859375,-0.17468130588531494,-0.35852017998695374,0.6038106083869934
1783169580591704800,3.988704833984375,-0.2708655297756195,-0.3899901807308197,0.5695866346359253
1783169580601652700,3.99865283203125,-0.3592739701271057,-0.3905542492866516,0.46125590801239014
1783169580611633200,4.008633056640625,-0.4272846281528473,-0.3573831021785736,0.30241045355796814
1783169580621580800,4.018580810546875,-0.4679793417453766,-0.3072437644004822,0.12142866849899292
1783169580631530000,4.028530029296875,-0.48041480779647827,-0.25320035219192505,-0.05900115519762039
1783169580641509000,4.038509033203125,-0.488538533449173,-0.21082627773284912,-0.2135009914636612
1783169580651458000,4.0484580078125,-0.5041220188140869,-0.1901518851518631,-0.33727219700813293
1783169580661407000,4.058406982421875,-0.5301163196563721,-0.18237146735191345,-0.42586570978164673
1783169580671355100,4.068355224609375,-0.576100766658783,-0.17560651898384094,-0.4774132966995239
1783169580681335000,4.0783349609375,-0.6321589946746826,-0.16619303822517395,-0.4951677620410919
1783169580691283000,4.088282958984375,-0.6931332945823669,-0.15806686878204346,-0.47548750042915344
1783169580701231900,4.09823193359375,-0.7431299090385437,-0.1750362664461136,-0.43058982491493225
1783169580711211000,4.1082109375,-0.7751858234405518,-0.17430442571640015,-0.36832746863365173
1783169580721160000,4.118159912109375,-0.781060516834259,-0.1417057365179062,-0.28615108132362366
1783169580731108900,4.12810888671875,-0.7499666810035706,-0.12036645412445068,-0.20441801846027374
1783169580741057800,4.138057861328125,-0.692843496799469,-0.10912658274173737,-0.13321201503276825
1783169580751037000,4.148036865234375,-0.6172630190849304,-0.1116439551115036,-0.07472065836191177
1783169580760985900,4.15798583984375,-0.52516770362854,-0.1132277399301529,-0.01711355522274971
1783169580770933800,4.167933837890625,-0.4304146468639374,-0.11427552253007889,0.048461414873600006
1783169580780883000,4.177883056640625,-0.3543824851512909,-0.13498292863368988,0.10738518089056015
1783169580790861800,4.18786181640625,-0.30835986137390137,-0.17537571489810944,0.16344544291496277
1783169580800811000,4.19781103515625,-0.29333430528640747,-0.2288338840007782,0.21453365683555603
1783169580810760000,4.207760009765625,-0.2985081374645233,-0.26774707436561584,0.24424873292446136
1783169580820739000,4.217739013671875,-0.32037293910980225,-0.2614322006702423,0.26226210594177246
1783169580830688000,4.22768798828125,-0.3337151110172272,-0.20216861367225647,0.2649782598018646
1783169580840636000,4.237635986328125,-0.3469774127006531,-0.12152410298585892,0.2403741031885147
1783169580850585000,4.247585205078125,-0.3488350212574005,-0.05119571089744568,0.18561246991157532
1783169580860564000,4.25756396484375,-0.3419917821884155,0.0066396258771419525,0.12169288098812103
1783169580870513000,4.267512939453125,-0.3317863345146179,0.06323470920324326,0.07084032893180847
1783169580880461800,4.2774619140625,-0.330173522233963,0.10022760927677155,0.036087676882743835
1783169580890441000,4.28744091796875,-0.3245311975479126,0.09709301590919495,0.01218230277299881
1783169580900390000,4.297389892578125,-0.30143654346466064,0.0782700628042221,0.007037607487291098
1783169580910338800,4.3073388671875,-0.2606426179409027,0.05536410212516785,0.014872506260871887
1783169580920287000,4.317286865234375,-0.21669673919677734,0.01177108846604824,0.027785109356045723
1783169580930267000,4.327266845703125,-0.1587892472743988,-0.03352094441652298,0.04038247838616371
1783169580940214800,4.33721484375,-0.09114574640989304,-0.04338715970516205,0.05988320708274841
1783169580950164000,4.3471640625,-0.024606384336948395,-0.02482660487294197,0.09876500815153122
1783169580960142800,4.357142822265625,0.026180628687143326,-0.00814935751259327,0.15180213749408722
1783169580970092000,4.367092041015625,0.05475238710641861,0.02545853517949581,0.21876169741153717
1783169580980041000,4.377041015625,0.06658827513456345,0.10600956529378891,0.2933941185474396
1783169580989989000,4.386989013671875,0.0767974704504013,0.25975772738456726,0.3654555380344391
1783169580999969000,4.396968994140625,0.08952285349369049,0.42412641644477844,0.42892560362815857
1783169581009917000,4.4069169921875,0.10626567155122757,0.5058492422103882,0.443974107503891
1783169581019866000,4.4168662109375,0.12596428394317627,0.4688853919506073,0.4001573622226715
1783169581029845000,4.426844970703125,0.135278582572937,0.32864800095558167,0.3044978380203247
1783169581039794000,4.4367939453125,0.11947457492351532,0.04160238802433014,0.1251126229763031
1783169581049742800,4.446742919921875,0.06710633635520935,-0.3377932608127594,-0.11284992843866348
1783169581059692000,4.456692138671875,0.0006167925894260406,-0.5906921029090881,-0.3390745520591736
1783169581069671000,4.4666708984375,-0.04909253492951393,-0.5767764449119568,-0.4771239459514618
1783169581079619800,4.476619873046875,-0.06832721829414368,-0.3464801013469696,-0.5072435140609741
1783169581089568000,4.486568115234375,-0.06116281449794769,0.019887153059244156,-0.4266030788421631
1783169581099517000,4.496516845703125,-0.021265201270580292,0.432308554649353,-0.2510469853878021
1783169581109495800,4.506495849609375,0.03767041862010956,0.7427006959915161,-0.026031220331788063
1783169581119444700,4.51644482421875,0.09169290959835052,0.8243563771247864,0.18637104332447052
1783169581129394200,4.526394287109375,0.12326113134622574,0.6745454668998718,0.3573482632637024
1783169581139373000,4.536373046875,0.1418159008026123,0.39408665895462036,0.4882785975933075
1783169581149322000,4.546322021484375,0.16781842708587646,0.08276944607496262,0.5756008625030518
1783169581159270100,4.556270263671875,0.21304771304130554,-0.18529848754405975,0.6181310415267944
1783169581169219000,4.566218994140625,0.27448853850364685,-0.3629459738731384,0.6139203310012817
1783169581179198000,4.576197998046875,0.3304103910923004,-0.46991103887557983,0.5432165861129761
1783169581189147000,4.58614697265625,0.37045779824256897,-0.5143857002258301,0.4217081665992737
1783169581199096000,4.596095947265625,0.38597843050956726,-0.46914175152778625,0.2764545679092407
1783169581209075000,4.606074951171875,0.370740681886673,-0.3697601556777954,0.14264075458049774
1783169581219024000,4.61602392578125,0.3399074077606201,-0.2351461499929428,0.04161001741886139
1783169581228972800,4.625972900390625,0.2905956208705902,-0.08495321869850159,-0.002490389160811901
1783169581238921000,4.6359208984375,0.22932451963424683,0.022343674674630165,-0.010570686310529709
1783169581248932900,4.645932861328125,0.16106554865837097,0.04792528226971626,-0.0023006880655884743
1783169581258880800,4.655880859375,0.10439668595790863,0.026876989752054214,0.008598565123975277
1783169581268829700,4.66582958984375,0.06815887987613678,-0.014007855206727982,0.010112063959240913
1783169581278808800,4.675808837890625,0.051958609372377396,-0.037305451929569244,0.017885297536849976
1783169581288757800,4.6857578125,0.05844079330563545,-0.013897892087697983,0.03240052983164787
1783169581298706700,4.695706787109375,0.07882222533226013,0.02444816567003727,0.04946873337030411
1783169581308654800,4.70565478515625,0.11956515163183212,0.06326126307249069,0.04488242045044899
1783169581318634800,4.715634765625,0.17934298515319824,0.06414835900068283,0.029670709744095802
1783169581328582700,4.725582763671875,0.24171125888824463,0.027366915717720985,0.011743701994419098
1783169581338531800,4.73553173828125,0.2901003658771515,0.000195216853171587,0.0102523323148489
1783169581348510700,4.7455107421875,0.3087138831615448,-0.010640373453497887,0.017207946628332138
1783169581358459600,4.755459716796875,0.3032014071941376,-0.029342954978346825,0.028509870171546936
1783169581368408600,4.76540869140625,0.28238341212272644,-0.05075453966856003,0.0473644956946373
1783169581378357800,4.775357666015625,0.24545042216777802,-0.09224499017000198,0.07215240597724915
1783169581388337000,4.7853369140625,0.2042616605758667,-0.13203607499599457,0.09638236463069916
1783169581398285800,4.795285888671875,0.1551380753517151,-0.16324485838413239,0.11462714523077011
1783169581408234000,4.80523388671875,0.09108712524175644,-0.2023731768131256,0.11413702368736267
1783169581418183000,4.815182861328125,0.02461809106171131,-0.24485193192958832,0.0907219797372818
1783169581428161800,4.825161865234375,-0.04117927700281143,-0.2750743627548218,0.03599340096116066
1783169581438110700,4.83511083984375,-0.08824771642684937,-0.2708207666873932,-0.034822978079319
1783169581448060000,4.845059814453125,-0.10671965032815933,-0.24789156019687653,-0.1186969205737114
1783169581458038800,4.855038818359375,-0.0924656093120575,-0.21289417147636414,-0.17921379208564758
1783169581467987700,4.86498779296875,-0.05889557674527168,-0.1435277760028839,-0.21655678749084473
1783169581477935900,4.874935791015625,-0.01357097178697586,-0.05160477012395859,-0.22383227944374084
1783169581487884800,4.884884765625,0.023126455023884773,0.05365033820271492,-0.1954708993434906
1783169581497863700,4.89486376953125,0.02545112930238247,0.1573927104473114,-0.13585737347602844
1783169581507812900,4.904812744140625,-0.00823204405605793,0.2283666431903839,-0.05985724925994873
1783169581517761800,4.91476171875,-0.06732119619846344,0.239676833152771,0.019108673557639122
1783169581527740700,4.92474072265625,-0.12078065425157547,0.19467218220233917,0.07772655040025711
1783169581537689600,4.934689697265625,-0.16928799450397491,0.07773517072200775,0.10844212025403976
1783169581547638800,4.944638671875,-0.20472243428230286,-0.10026777535676956,0.09146986901760101
1783169581557586700,4.954586669921875,-0.23636984825134277,-0.3153848648071289,0.034868914633989334
1783169581567566800,4.96456689453125,-0.27094295620918274,-0.4805365204811096,-0.044991008937358856
1783169581577515000,4.974514892578125,-0.30459651350975037,-0.5360085368156433,-0.11043739318847656
1783169581587464000,4.9844638671875,-0.30594080686569214,-0.5121747255325317,-0.1456308662891388
1783169581597442800,4.99444287109375,-0.26624399423599243,-0.4626721441745758,-0.1802562177181244
1783169581607391700,5.004391845703125,-0.22770145535469055,-0.3553507328033447,-0.18955759704113007
1783169581617341000,5.0143408203125,-0.18889573216438293,-0.25822657346725464,-0.18243949115276337
1783169581627289900,5.024289794921875,-0.15580977499485016,-0.2799346446990967,-0.185960590839386
1783169581637268700,5.034268798828125,-0.1544923186302185,-0.4588910937309265,-0.23525330424308777
1783169581647217000,5.044216796875,-0.2143595963716507,-0.7068789601325989,-0.33169931173324585
1783169581657165800,5.054165771484375,-0.3338199257850647,-0.9471869468688965,-0.4621950089931488
1783169581667144700,5.064144775390625,-0.4756282866001129,-1.099776268005371,-0.5909101963043213
1783169581677093600,5.07409375,-0.6027177572250366,-1.1206178665161133,-0.6981911063194275
1783169581687042800,5.084042724609375,-0.6843855381011963,-0.988908588886261,-0.7893590331077576
1783169581696991700,5.09399169921875,-0.715029776096344,-0.8190345764160156,-0.8671422600746155
1783169581706970600,5.103970703125,-0.6872777938842773,-0.6145452260971069,-0.8996735215187073
1783169581716919800,5.113919921875,-0.6008867025375366,-0.32262128591537476,-0.8600560426712036
1783169581726867700,5.12386767578125,-0.47121620178222656,0.0613144226372242,-0.7421579360961914
1783169581736817000,5.13381689453125,-0.3438212275505066,0.45969855785369873,-0.5628430247306824
1783169581746795800,5.143795654296875,-0.2500793933868408,0.7616692185401917,-0.36336567997932434
1783169581756745000,5.153744873046875,-0.20435823500156403,0.8504302501678467,-0.16932536661624908
1783169581766694000,5.16369384765625,-0.17841726541519165,0.7384945154190063,0.008474794216454029
1783169581776672800,5.1736728515625,-0.15280404686927795,0.47689297795295715,0.1788947433233261
1783169581786621700,5.18362158203125,-0.14195498824119568,0.1459735631942749,0.3388231098651886
1783169581796571000,5.19357080078125,-0.17083804309368134,-0.15572556853294373,0.47209247946739197
1783169581806518800,5.203518798828125,-0.24295881390571594,-0.37652263045310974,0.5908476114273071
1783169581816498700,5.213498779296875,-0.34369367361068726,-0.4921434819698334,0.677387535572052
1783169581826446800,5.22344677734375,-0.44989076256752014,-0.5145971775054932,0.7221177220344543
1783169581836395800,5.233395751953125,-0.540878415107727,-0.4700339734554291,0.737896203994751
1783169581846374700,5.243374755859375,-0.6196438670158386,-0.3705673813819885,0.7082756161689758
1783169581856323800,5.25332373046875,-0.6842210292816162,-0.23821602761745453,0.6354717016220093
1783169581866272800,5.263272705078125,-0.7308224439620972,-0.11670408397912979,0.5430870652198792
1783169581876220700,5.273220703125,-0.7638128399848938,-0.04709544777870178,0.4368889629840851
1783169581886200800,5.283200927734375,-0.7864050269126892,-0.026916824281215668,0.34876593947410583
1783169581896148700,5.293148681640625,-0.8185773491859436,-0.018356624990701675,0.2921988070011139
1783169581906098000,5.303097900390625,-0.8715161085128784,0.043963029980659485,0.23666101694107056
1783169581916076800,5.313076904296875,-0.9324952960014343,0.14221876859664917,0.16912218928337097
1783169581926026000,5.32302587890625,-0.9788157939910889,0.21527576446533203,0.06811952590942383
1783169581935975000,5.332974853515625,-0.9852398633956909,0.24639293551445007,-0.08748923987150192
1783169581945923800,5.342923828125,-0.9008505344390869,0.2774128019809723,-0.19212868809700012
1783169581955902700,5.35290283203125,-0.776218056678772,0.410959392786026,-0.17835669219493866
1783169581965852000,5.362851806640625,-0.7569564580917358,0.5142656564712524,-0.17921946942806244
1783169581975799800,5.3727998046875,-0.7804831266403198,0.4283358156681061,-0.16569434106349945
1783169581985779700,5.38277978515625,-0.7987381219863892,0.23468704521656036,-0.11784420162439346
1783169581995728000,5.392727783203125,-0.800390899181366,0.08229591697454453,-0.03635146841406822
1783169582005676800,5.4026767578125,-0.773746907711029,0.009393220767378807,0.08155469596385956
1783169582015625700,5.412625732421875,-0.7221516370773315,-0.031172316521406174,0.2018246352672577
1783169582025604600,5.4226044921875,-0.6410753130912781,-0.07875733822584152,0.28026652336120605
1783169582035553800,5.4325537109375,-0.5314619541168213,-0.11534411460161209,0.29473066329956055
1783169582045501700,5.442501708984375,-0.42865198850631714,-0.12766700983047485,0.2548251450061798
1783169582055450600,5.45245068359375,-0.34112879633903503,-0.13080209493637085,0.19119024276733398
1783169582065429800,5.4624296875,-0.26520368456840515,-0.1614651083946228,0.14519087970256805
1783169582075379000,5.47237890625,-0.18709105253219604,-0.22587846219539642,0.09162964671850204
1783169582085328000,5.482327880859375,-0.11710482090711594,-0.3028673529624939,0.05082404986023903
1783169582095306800,5.492306640625,-0.08950168639421463,-0.3870544135570526,0.010370366275310516
1783169582105256000,5.502255859375,-0.07226251065731049,-0.42844071984291077,-0.02723080664873123
1783169582115204900,5.512204833984375,-0.02654988318681717,-0.334014356136322,-0.029276911169290543
1783169582125152800,5.52215283203125,0.045273348689079285,-0.16392050683498383,0.009333481080830097
1783169582135132700,5.532132568359375,0.11189685016870499,-0.03637132793664932,0.059586796909570694
1783169582145080800,5.542080810546875,0.1459319293498993,0.028936445713043213,0.10183239728212357
1783169582155029800,5.55202978515625,0.144792377948761,0.08607056736946106,0.12095814943313599
1783169582165009000,5.5620087890625,0.11683543026447296,0.20047509670257568,0.13978052139282227
1783169582174957800,5.571957763671875,0.0758962482213974,0.44233566522598267,0.16840791702270508
1783169582184906800,5.58190673828125,0.03318146616220474,0.7608648538589478,0.20369522273540497
1783169582194854700,5.591854736328125,-0.022099368274211884,0.9321460723876953,0.20753362774848938
1783169582204834800,5.601834716796875,-0.08693144470453262,0.7442150712013245,0.15296658873558044
1783169582214782700,5.61178271484375,-0.1580711454153061,0.1815253496170044,-0.0011593354865908623
1783169582224731600,5.621731689453125,-0.1993846893310547,-0.42007818818092346,-0.1905156672000885
1783169582234710800,5.631710693359375,-0.19876444339752197,-0.760710597038269,-0.3355191648006439
1783169582244670500,5.64167041015625,-0.15885069966316223,-0.7258959412574768,-0.3788251280784607
1783169582254619400,5.651619384765625,-0.09853489696979523,-0.3920050263404846,-0.32421571016311646
1783169582264568300,5.661568359375,-0.05033582076430321,0.07687193155288696,-0.20001675188541412
1783169582274547500,5.67154736328125,-0.0176689550280571,0.5390592813491821,-0.0261477530002594
1783169582284496400,5.681496337890625,-0.005942368879914284,0.8891015648841858,0.18858999013900757
1783169582294444300,5.6914443359375,-0.02920721285045147,1.029698371887207,0.38469985127449036
1783169582304424200,5.701424072265625,-0.07093863189220428,0.9077163934707642,0.5395310521125793
1783169582314372400,5.711372314453125,-0.10746787488460541,0.5848379135131836,0.636843740940094
1783169582324321300,5.7213212890625,-0.1237386018037796,0.21793188154697418,0.6626557111740112
1783169582334270200,5.731270263671875,-0.11505989730358124,-0.09407129138708115,0.6042203903198242
1783169582344249300,5.741249267578125,-0.07859449833631516,-0.27734631299972534,0.46515488624572754
1783169582354198300,5.7511982421875,-0.02074638195335865,-0.31516557931900024,0.27399930357933044
1783169582364146200,5.761146240234375,0.04921479895710945,-0.26718077063560486,0.04846471920609474
1783169582374126000,5.7711259765625,0.11843408644199371,-0.15402916073799133,-0.17438353598117828
1783169582384074200,5.78107421875,0.17235663533210754,-0.010255152359604836,-0.35844218730926514
1783169582394023200,5.791023193359375,0.21546068787574768,0.09860502183437347,-0.4810890257358551
1783169582403972400,5.800972412109375,0.24963273108005524,0.14718706905841827,-0.5459070801734924
1783169582413951500,5.810951416015625,0.2665693759918213,0.11144053190946579,-0.5528259873390198
1783169582423900400,5.820900390625,0.26483431458473206,0.022336676716804504,-0.5214047431945801
1783169582433849300,5.830849365234375,0.25691089034080505,-0.05364517122507095,-0.45995524525642395
1783169582443797200,5.84079736328125,0.2328265905380249,-0.10410302132368088,-0.3950659930706024
1783169582453777400,5.85077734375,0.1992180347442627,-0.11796397715806961,-0.3193856179714203
1783169582463725300,5.860725341796875,0.17754556238651276,-0.06897056847810745,-0.2265818566083908
1783169582473674200,5.87067431640625,0.18826372921466827,0.008938610553741455,-0.14005495607852936
1783169582483653400,5.8806533203125,0.23349601030349731,0.029598698019981384,-0.07813555747270584
1783169582493602300,5.890602294921875,0.2899262607097626,-0.0058817993849515915,-0.04045475646853447
1783169582503551200,5.90055126953125,0.31752920150756836,-0.03518744930624962,-0.005132160149514675
1783169582513499100,5.9104990234375,0.3088984191417694,-0.056393664330244064,0.027562934905290604
1783169582523479300,5.920479248046875,0.2835560441017151,-0.09192529320716858,0.0521998405456543
1783169582533427200,5.93042724609375,0.25479018688201904,-0.14797525107860565,0.052131131291389465
1783169582543376100,5.940376220703125,0.22689056396484375,-0.17424771189689636,0.04022854566574097
1783169582553355300,5.950355224609375,0.20014414191246033,-0.1754770278930664,0.026086095720529556
1783169582563304200,5.96030419921875,0.17099516093730927,-0.1797259896993637,0.02229653298854828
1783169582573253400,5.97025341796875,0.143107071518898,-0.17389686405658722,0.024622805416584015
1783169582583202300,5.980202392578125,0.11234652251005173,-0.1381552666425705,0.02587725967168808
1783169582593181400,5.990181396484375,0.06612949818372726,-0.08251490443944931,0.030281860381364822
1783169582603130400,6.00013037109375,0.015555126592516899,-0.011490345001220703,0.027323570102453232
1783169582613078300,6.010078369140625,-0.0314754992723465,0.05195813626050949,0.030940141528844833
1783169582623058400,6.020058349609375,-0.07487727701663971,0.09261015057563782,0.04713820666074753
1783169582633006300,6.03000634765625,-0.1195472776889801,0.10796886682510376,0.07544015347957611
1783169582642955300,6.039955322265625,-0.1602793186903,0.12430587410926819,0.12476357072591782
1783169582652904200,6.049904296875,-0.19767703115940094,0.10316170006990433,0.1889718472957611
1783169582662883300,6.05988330078125,-0.23183530569076538,0.04380668327212334,0.2440422624349594
1783169582672832300,6.069832275390625,-0.2584906220436096,-0.02236461453139782,0.2973150908946991
1783169582682780200,6.0797802734375,-0.2733519971370697,-0.053709469735622406,0.346465528011322
1783169582692760300,6.08976025390625,-0.2762276828289032,-0.04739910736680031,0.39250198006629944
1783169582702708200,6.099708251953125,-0.27129584550857544,-0.05532488226890564,0.4164492189884186
1783169582712657200,6.1096572265625,-0.2634933292865753,-0.10610123723745346,0.4004971385002136
1783169582722606000,6.119606201171875,-0.24527333676815033,-0.1950443536043167,0.35488685965538025
1783169582732585200,6.129585205078125,-0.23131063580513,-0.28393426537513733,0.28300175070762634
1783169582742534400,6.139534423828125,-0.22580751776695251,-0.3293628394603729,0.19954510033130646
1783169582752483300,6.1494833984375,-0.2145780324935913,-0.28570377826690674,0.12031207233667374
1783169582762431500,6.159431396484375,-0.1979222446680069,-0.18463663756847382,0.07687612622976303
1783169582772411400,6.169411376953125,-0.17580682039260864,-0.08910505473613739,0.05093134939670563
1783169582782359300,6.179359375,-0.16951486468315125,-0.09460626542568207,0.009885990060865879
1783169582792308200,6.18930810546875,-0.18500247597694397,-0.23535886406898499,-0.07196813076734543
1783169582802287400,6.199287353515625,-0.20975901186466217,-0.4183644950389862,-0.18123355507850647
1783169582812236300,6.209236328125,-0.2502606511116028,-0.5490381121635437,-0.297191321849823
1783169582822185200,6.219185302734375,-0.32092520594596863,-0.6212542057037354,-0.40676814317703247
1783169582832134100,6.229134033203125,-0.39290034770965576,-0.6383261680603027,-0.5037857890129089
1783169582842113300,6.23911328125,-0.4372842311859131,-0.5688117742538452,-0.5811828374862671
1783169582852061200,6.249061279296875,-0.44788920879364014,-0.43675974011421204,-0.6344553828239441
1783169582862010400,6.25901025390625,-0.4373546838760376,-0.26515182852745056,-0.6607527732849121
1783169582871989200,6.2689892578125,-0.4170853793621063,-0.10226384550333023,-0.6652377843856812
1783169582881938200,6.278938232421875,-0.3984702527523041,0.019391866400837898,-0.6537189483642578
1783169582891887000,6.28888720703125,-0.37851253151893616,0.07467029988765717,-0.6283124089241028
1783169582901836300,6.298836181640625,-0.35264843702316284,0.09696348011493683,-0.5705616474151611
1783169582911815400,6.3088154296875,-0.31681349873542786,0.11659683287143707,-0.4639854431152344
1783169582921764400,6.318764404296875,-0.2625478506088257,0.12274030596017838,-0.3136770725250244
1783169582931712500,6.32871240234375,-0.2030608355998993,0.07622526586055756,-0.1441415548324585
1783169582941692400,6.3386923828125,-0.1423707902431488,-0.008116341196000576,0.04139920324087143
1783169582951640300,6.348640380859375,-0.10538507252931595,-0.09909632056951523,0.22457115352153778
1783169582961589200,6.35858935546875,-0.10857735574245453,-0.1763145625591278,0.38333213329315186
1783169582971538400,6.368538330078125,-0.14969389140605927,-0.2158137559890747,0.5038092732429504
1783169582981517300,6.378517333984375,-0.20306691527366638,-0.22346505522727966,0.5801407694816589
1783169582991466200,6.38846630859375,-0.25468456745147705,-0.22847020626068115,0.6102533936500549
1783169583001415200,6.398415283203125,-0.296086847782135,-0.24809831380844116,0.6006749868392944
1783169583011394300,6.408394287109375,-0.3322773575782776,-0.25872087478637695,0.5468147397041321
1783169583021342200,6.41834228515625,-0.36723482608795166,-0.26369205117225647,0.4613034129142761
1783169583031291100,6.428291015625,-0.39501187205314636,-0.26495543122291565,0.34765779972076416
1783169583041240300,6.438240234375,-0.4260426461696625,-0.2559998631477356,0.2118910700082779
1783169583051219200,6.44821923828125,-0.45543330907821655,-0.24829135835170746,0.06965883076190948
1783169583061168000,6.458168212890625,-0.48922401666641235,-0.2470281422138214,-0.07408574223518372
1783169583071117300,6.468117431640625,-0.5363582968711853,-0.2294214516878128,-0.19851846992969513
1783169583081065200,6.478065185546875,-0.5871618986129761,-0.16711357235908508,-0.2789938449859619
1783169583091045400,6.48804541015625,-0.6261692047119141,-0.11046600341796875,-0.3218939006328583
1783169583100993300,6.4979931640625,-0.6382296085357666,-0.08300819993019104,-0.33023563027381897
1783169583110942500,6.5079423828125,-0.636043131351471,-0.08347798138856888,-0.2966233491897583
1783169583120921300,6.51792138671875,-0.6210707426071167,-0.12091746181249619,-0.24194729328155518
1783169583130870300,6.527870361328125,-0.5985984802246094,-0.16126327216625214,-0.16935163736343384
1783169583140819200,6.537819091796875,-0.5732638239860535,-0.16998912394046783,-0.08240050077438354
1783169583150768400,6.547768310546875,-0.5534480214118958,-0.15990613400936127,-0.0051856087520718575
1783169583160747300,6.557747314453125,-0.5402371883392334,-0.13809457421302795,0.05028963461518288
1783169583170696200,6.5676962890625,-0.5161928534507751,-0.1063944473862648,0.09092814475297928
1783169583180644400,6.577644287109375,-0.48615214228630066,-0.08487796783447266,0.11181291937828064
1783169583190623200,6.587623291015625,-0.45310336351394653,-0.08783221244812012,0.11941544711589813
1783169583200572200,6.597572265625,-0.41686683893203735,-0.09654580056667328,0.11222515255212784
1783169583210521300,6.607521240234375,-0.3804164230823517,-0.10219836235046387,0.10617738217115402
1783169583220470300,6.61747021484375,-0.35218045115470886,-0.09223874658346176,0.10383214056491852
1783169583230449200,6.62744921875,-0.33792081475257874,-0.09246378391981125,0.1127830222249031
1783169583240398000,6.637398193359375,-0.34115320444107056,-0.08627796173095703,0.12440705299377441
1783169583250383400,6.64738330078125,-0.3479229807853699,-0.08480443060398102,0.149260476231575
1783169583260363300,6.65736328125,-0.3465505838394165,-0.08330059796571732,0.18071480095386505
1783169583270311400,6.6673115234375,-0.34386369585990906,-0.10745999217033386,0.21527758240699768
1783169583280260400,6.67726025390625,-0.35061657428741455,-0.13537074625492096,0.24514400959014893
1783169583290209300,6.687209228515625,-0.36229079961776733,-0.14096444845199585,0.27846336364746094
1783169583300188400,6.6971884765625,-0.3691900074481964,-0.1341075301170349,0.3164976239204407
1783169583310137300,6.707137451171875,-0.35643213987350464,-0.1322409212589264,0.35970741510391235
1783169583320086300,6.717086181640625,-0.32790639996528625,-0.12398063391447067,0.3931553363800049
1783169583330065200,6.727065185546875,-0.29264000058174133,-0.12865182757377625,0.4034798741340637
1783169583340014300,6.737014404296875,-0.2512209713459015,-0.1234460324048996,0.4017319679260254
1783169583349962200,6.746962158203125,-0.20711767673492432,-0.06454996019601822,0.3958730101585388
1783169583359911200,6.7569111328125,-0.1729855090379715,0.0041463556699454784,0.38467520475387573
1783169583369890300,6.766890380859375,-0.13683363795280457,0.04057147726416588,0.3629523515701294
1783169583379839200,6.776839111328125,-0.08815903961658478,0.044403620064258575,0.34119102358818054
1783169583389788400,6.786788330078125,-0.022688157856464386,0.028636641800403595,0.33873558044433594
1783169583399767300,6.796767333984375,0.05384340137243271,0.06340640038251877,0.3814662992954254
1783169583409716500,6.806716552734375,0.14690116047859192,0.26614779233932495,0.4922226369380951
1783169583419664400,6.816664306640625,0.25452500581741333,0.6781514286994934,0.6533818244934082
1783169583429613300,6.82661328125,0.37834787368774414,1.088120937347412,0.8035559058189392
1783169583439592400,6.836592529296875,0.495265930891037,1.1733249425888062,0.8510625958442688
1783169583449541400,6.846541259765625,0.5419420599937439,0.5673502683639526,0.6769200563430786
1783169583459490300,6.856490234375,0.516057014465332,-0.5621692538261414,0.2668910622596741
1783169583469439200,6.866439208984375,0.47077980637550354,-1.4290531873703003,-0.13667933642864227
1783169583479418400,6.87641845703125,0.42492786049842834,-1.651924967765808,-0.3785846531391144
1783169583489367300,6.8863671875,0.36754897236824036,-1.4658414125442505,-0.4967304468154907
1783169583499315200,6.896315185546875,0.327508807182312,-1.0418270826339722,-0.5201373100280762
1783169583509295000,6.906295166015625,0.3281343877315521,-0.44767776131629944,-0.4601996839046478
1783169583519243300,6.9162431640625,0.36927375197410583,0.19686707854270935,-0.3381461203098297
1783169583529192200,6.926192138671875,0.4378395080566406,0.6907398700714111,-0.17603950202465057
1783169583539141000,6.93614111328125,0.48483043909072876,0.8882519602775574,-0.036443162709474564
1783169583549120300,6.946120361328125,0.511261522769928,0.7988688349723816,0.05463001877069473
1783169583559069400,6.9560693359375,0.5227980613708496,0.5504440665245056,0.10701978206634521
1783169583569017000,6.96601708984375,0.5468389391899109,0.27178338170051575,0.13518750667572021
1783169583578997200,6.975997314453125,0.6165233254432678,0.029438601806759834,0.1554149091243744
1783169583588945400,6.9859453125,0.7198026180267334,-0.12386813014745712,0.16906599700450897
1783169583598894300,6.995894287109375,0.8209337592124939,-0.13913576304912567,0.18618738651275635
1783169583608843300,7.00584326171875,0.8791789412498474,-0.05639214813709259,0.19956178963184357
1783169583618822400,7.015822509765625,0.8817654848098755,0.05328114330768585,0.20983822643756866
1783169583628771300,7.025771240234375,0.8550294637680054,0.18217921257019043,0.21500448882579803
1783169583638720300,7.03572021484375,0.8225566744804382,0.30564337968826294,0.21614402532577515
1783169583648699400,7.045699462890625,0.7956869602203369,0.36527660489082336,0.1888090819120407
1783169583658648300,7.0556484375,0.7762200832366943,0.3533993661403656,0.14301222562789917
1783169583668596200,7.06559619140625,0.7471157312393188,0.3224872350692749,0.09594324231147766
1783169583678545200,7.075545166015625,0.7128061056137085,0.3235170841217041,0.07633849233388901
1783169583688524300,7.085524169921875,0.6816530227661133,0.38250210881233215,0.07949487119913101
1783169583698473200,7.09547314453125,0.6507622599601746,0.4529506266117096,0.08364146202802658
1783169583708422100,7.105422119140625,0.6290737390518188,0.4820011854171753,0.0715150311589241
1783169583718401300,7.1154013671875,0.6271041631698608,0.47225695848464966,0.05381808057427406
1783169583728350500,7.1253505859375,0.6397954821586609,0.4929473400115967,0.050689663738012314
1783169583738298000,7.135298095703125,0.6530046463012695,0.5357617139816284,0.05689171701669693
1783169583748247300,7.145247314453125,0.6529354453086853,0.5699796080589294,0.06059883534908295
1783169583758226400,7.155226318359375,0.6465438008308411,0.5758972764015198,0.0626767948269844
1783169583768175400,7.16517529296875,0.6403660774230957,0.5655229687690735,0.076576367020607
1783169583778124300,7.175124267578125,0.6325871348381042,0.5690528154373169,0.10722142457962036
1783169583788073200,7.1850732421875,0.6091260313987732,0.5862669348716736,0.16810473799705505
1783169583798052400,7.19505224609375,0.5657247304916382,0.6022049188613892,0.23688095808029175
1783169583808001300,7.205001220703125,0.5153989791870117,0.6022410988807678,0.3141094148159027
1783169583817949200,7.21494921875,0.46266940236091614,0.5766996741294861,0.39075136184692383
1783169583827929300,7.224929443359375,0.42448553442955017,0.4994181990623474,0.4524139165878296
1783169583837877200,7.234877197265625,0.4046487808227539,0.4069354832172394,0.49461865425109863
1783169583847826200,7.244826171875,0.4073425531387329,0.3393383324146271,0.5254112482070923
1783169583857775000,7.254775146484375,0.4222105145454407,0.3228124678134918,0.5399228930473328
1783169583867754200,7.264754150390625,0.4434787929058075,0.32871297001838684,0.5564613938331604
1783169583877703200,7.274703125,0.45305338501930237,0.39481016993522644,0.5847845077514648
1783169583887651300,7.2846513671875,0.4402606189250946,0.46642258763313293,0.6258541941642761
1783169583897631200,7.29463134765625,0.41849610209465027,0.4666295349597931,0.6689878702163696
1783169583907579100,7.3045791015625,0.40151551365852356,0.3800877332687378,0.7046734690666199
1783169583917528300,7.3145283203125,0.399761825799942,0.22643114626407623,0.730360209941864
1783169583927477200,7.324477294921875,0.41032499074935913,0.03368086740374565,0.7567609548568726
1783169583937456400,7.334456298828125,0.4455793797969818,-0.09373994171619415,0.7963962554931641
1783169583947405300,7.3444052734375,0.5017033815383911,-0.08469957113265991,0.8521891832351685
1783169583957354200,7.354354248046875,0.5542598962783813,0.03060350939631462,0.9103430509567261
1783169583967333400,7.36433349609375,0.5658739805221558,0.1350947618484497,0.9159486889839172
1783169583977282300,7.3742822265625,0.5146772265434265,0.10417138785123825,0.8328725695610046
1783169583987230200,7.384230224609375,0.4061411917209625,-0.020044837146997452,0.6423508524894714
1783169583997179400,7.394179443359375,0.2451688051223755,-0.1265629231929779,0.3878236711025238
1783169584007158300,7.404158203125,0.06089696288108826,-0.161188542842865,0.11349623650312424
1783169584017107200,7.414107177734375,-0.098147913813591,-0.15769046545028687,-0.17399442195892334
1783169584027056000,7.42405615234375,-0.1783633828163147,-0.10185835510492325,-0.4453372359275818
1783169584037035300,7.43403515625,-0.1811448186635971,0.03089960664510727,-0.6712825894355774
1783169584046984200,7.443984130859375,-0.14374099671840668,0.23290595412254333,-0.8258335590362549
1783169584056932000,7.45393212890625,-0.10952335596084595,0.4432116746902466,-0.9182075262069702
1783169584066881300,7.46388134765625,-0.0935308113694191,0.5755441784858704,-0.964773952960968
1783169584076860200,7.473860107421875,-0.06702141463756561,0.6302257180213928,-0.9574095606803894
1783169584086809300,7.483809326171875,-0.023463550955057144,0.6105055212974548,-0.9076129794120789
1783169584096758300,7.49375830078125,0.03951577469706535,0.5325472950935364,-0.8200376629829407
1783169584106737400,7.5037373046875,0.1242719441652298,0.43733957409858704,-0.7019384503364563
1783169584116686300,7.513686279296875,0.2237454652786255,0.3334605395793915,-0.564475417137146
1783169584126635300,7.52363525390625,0.3366968035697937,0.20930451154708862,-0.4146457314491272
1783169584136583400,7.53358349609375,0.458466500043869,0.09217021614313126,-0.24459698796272278
1783169584146563300,7.543563232421875,0.5890418291091919,-0.0029989052563905716,-0.05474688485264778
1783169584156511200,7.55351123046875,0.7112444639205933,-0.04385600984096527,0.15477260947227478
1783169584166460200,7.563460205078125,0.7979047894477844,-0.06165710836648941,0.35627350211143494
1783169584176409300,7.573409423828125,0.8241357207298279,-0.07738402485847473,0.5316994190216064
1783169584186388200,7.58338818359375,0.7909266352653503,-0.0700741857290268,0.68011474609375
1783169584196337200,7.593337158203125,0.7066829800605774,-0.0424589142203331,0.7732765674591064
1783169584206285300,7.603285400390625,0.6034548878669739,-0.024540366604924202,0.7772026062011719
1783169584216265200,7.61326513671875,0.49080777168273926,0.011776050552725792,0.7109251022338867
1783169584226213000,7.623213134765625,0.3903128504753113,0.05358102172613144,0.6051120758056641
1783169584236162300,7.633162353515625,0.31728363037109375,0.10038714855909348,0.48520222306251526
1783169584246138600,7.643138671875,0.26752567291259766,0.14017237722873688,0.36027786135673523
1783169584256117500,7.653117431640625,0.24224086105823517,0.18659892678260803,0.25308918952941895
1783169584266066400,7.66306640625,0.23824851214885712,0.2287096381187439,0.16943371295928955
1783169584276015600,7.673015625,0.2557789385318756,0.23771753907203674,0.1153620034456253
1783169584285994500,7.682994384765625,0.29983481764793396,0.18412914872169495,0.09984003752470016
1783169584295943400,7.692943359375,0.35983073711395264,0.07865852862596512,0.12091804295778275
1783169584305891600,7.7028916015625,0.4327384829521179,-0.04450281709432602,0.19199462234973907
1783169584315840500,7.712840576171875,0.49752077460289,-0.1309586614370346,0.31212449073791504
1783169584325819400,7.7228193359375,0.5283844470977783,-0.12012092769145966,0.4554622173309326
1783169584335768600,7.7327685546875,0.5126557350158691,-0.03745296970009804,0.5905888080596924
1783169584345717500,7.742717529296875,0.4634993374347687,0.03437647968530655,0.6820939183235168
1783169584355696400,7.7526962890625,0.41637033224105835,0.06183901056647301,0.7118567228317261
1783169584365645600,7.7626455078125,0.4054226279258728,0.05139276385307312,0.6831606030464172
1783169584375593500,7.772593505859375,0.41755861043930054,0.03092617727816105,0.6188519597053528
1783169584385542700,7.782542724609375,0.4362145960330963,0.04778212308883667,0.5368039608001709
1783169584395521500,7.792521484375,0.443449467420578,0.1428786665201187,0.4463014304637909
1783169584405470700,7.802470703125,0.433254599571228,0.28429678082466125,0.3533403277397156
1783169584415419600,7.812419677734375,0.412068247795105,0.40647023916244507,0.2567664086818695
1783169584425398500,7.8223984375,0.3920231759548187,0.5044149160385132,0.17143365740776062
1783169584435347500,7.832347412109375,0.36687949299812317,0.595767080783844,0.10731504112482071
1783169584445296600,7.842296630859375,0.32810601592063904,0.6685062646865845,0.06092597544193268
1783169584455244500,7.85224462890625,0.29232653975486755,0.7232528924942017,0.028317995369434357
1783169584465224400,7.862224365234375,0.2933419942855835,0.7731403112411499,0.02681756764650345
1783169584475172600,7.872172607421875,0.35062772035598755,0.7998915910720825,0.03433631360530853
1783169584485121500,7.88212158203125,0.44651269912719727,0.7402812242507935,0.041993964463472366
1783169584495100400,7.892100341796875,0.5677875876426697,0.6420709490776062,0.0546170249581337
1783169584505049300,7.90204931640625,0.6651015877723694,0.5482230186462402,0.0734889805316925
1783169584514998500,7.91199853515625,0.7024203538894653,0.4543638229370117,0.09059727191925049
1783169584524947700,7.92194775390625,0.7075828909873962,0.386496365070343,0.13056331872940063
1783169584534926600,7.931926513671875,0.7047746181488037,0.4049070477485657,0.22217395901679993
1783169584544875500,7.94187548828125,0.677093505859375,0.5107234716415405,0.35259029269218445
1783169584554823700,7.95182373046875,0.6070379614830017,0.6307844519615173,0.49966922402381897
1783169584564772600,7.961772705078125,0.5104213953018188,0.7356306910514832,0.6255012154579163
1783169584574751500,7.97175146484375,0.4380689263343811,0.7859469652175903,0.6945348978042603
1783169584584700700,7.98170068359375,0.40068426728248596,0.7818081378936768,0.7139413952827454
1783169584594649600,7.991649658203125,0.38512498140335083,0.7444213628768921,0.686758816242218
1783169584604628500,8.00162841796875,0.37319669127464294,0.7104764580726624,0.6226011514663696
1783169584614577400,8.011577392578126,0.3680517077445984,0.7094442248344421,0.5408871173858643
1783169584624525600,8.021525634765625,0.36061936616897583,0.745320200920105,0.46559929847717285
1783169584634474500,8.031474609375,0.3397420346736908,0.7973800897598267,0.409047931432724
1783169584644453600,8.04145361328125,0.31094396114349365,0.8474373817443848,0.37681037187576294
1783169584654402600,8.051402587890625,0.2880372703075409,0.9744049310684204,0.3950599431991577
1783169584664351500,8.0613515625,0.28037190437316895,1.2171874046325684,0.4842265844345093
1783169584674330400,8.071330322265625,0.2959038019180298,1.4585462808609009,0.6347410082817078
1783169584684279600,8.081279541015626,0.3617406189441681,1.475576639175415,0.7662675976753235
1783169584694228700,8.091228759765626,0.4407109022140503,1.1536850929260254,0.7946825623512268
1783169584704176400,8.10117626953125,0.49385663866996765,0.537966251373291,0.6946632862091064
1783169584714156500,8.111156494140625,0.5073989033699036,-0.10855845361948013,0.5108543634414673
1783169584724104700,8.121104736328125,0.49183329939842224,-0.5054565668106079,0.31230854988098145
1783169584734053600,8.1310537109375,0.45730292797088623,-0.5961438417434692,0.14970043301582336
1783169584744032500,8.141032470703125,0.40438592433929443,-0.39876821637153625,0.034464649856090546
1783169584753981700,8.150981689453126,0.3549109995365143,0.022987153381109238,-0.017744071781635284
1783169584763930600,8.1609306640625,0.3050997853279114,0.5224550366401672,-0.00019650347530841827
1783169584773878500,8.17087841796875,0.24033042788505554,0.9423999190330505,0.05799918994307518
1783169584783858400,8.1808583984375,0.16351422667503357,1.1454230546951294,0.11384115368127823
1783169584793806600,8.190806640625,0.1199798583984375,1.1118459701538086,0.13898120820522308
1783169584803755500,8.200755615234375,0.11251340806484222,0.911953330039978,0.12624117732048035
1783169584813734700,8.210734619140625,0.12581391632556915,0.625067412853241,0.09154345840215683
1783169584823683600,8.22068359375,0.12542535364627838,0.31655776500701904,0.01765059307217598
1783169584833632500,8.230632568359376,0.10027219355106354,0.06332515925168991,-0.101162388920784
1783169584843581400,8.24058154296875,0.0715569257736206,-0.06014511361718178,-0.24704425036907196
1783169584853560300,8.250560302734375,0.04460422694683075,-0.05802606791257858,-0.40020954608917236
1783169584863509800,8.260509765625,0.028678519651293755,0.022197933867573738,-0.5474022030830383
1783169584873457400,8.27045751953125,0.027607209980487823,0.11679213494062424,-0.6588333249092102
1783169584883437600,8.2804375,0.05045793205499649,0.19726328551769257,-0.705172598361969
1783169584893385700,8.2903857421875,0.08591248840093613,0.26925307512283325,-0.6738170385360718
1783169584903334700,8.300334716796876,0.11619742959737778,0.3123967945575714,-0.5813105702400208
1783169584913283600,8.31028369140625,0.1254325658082962,0.30758151412010193,-0.45018458366394043
1783169584923262700,8.3202626953125,0.11629153788089752,0.25846216082572937,-0.3156763017177582
1783169584933211600,8.330211669921875,0.0951787456870079,0.193157359957695,-0.1962902992963791
1783169584943159600,8.34015966796875,0.0743834525346756,0.12135347723960876,-0.10151905566453934
1783169584953108500,8.3501083984375,0.06243113428354263,0.030034618452191353,-0.044182635843753815
1783169584963087600,8.360087646484375,0.05544992536306381,-0.06133391335606575,-0.031985092908144
1783169584973036500,8.37003662109375,0.06411615014076233,-0.1390990912914276,-0.06284940987825394
1783169584982985500,8.3799853515625,0.09518937766551971,-0.17289939522743225,-0.11400367319583893
1783169584992964600,8.389964599609375,0.12731952965259552,-0.15151506662368774,-0.16775156557559967
1783169585002913500,8.39991357421875,0.15349999070167542,-0.12919804453849792,-0.22594988346099854
1783169585012862500,8.409862548828125,0.1758735328912735,-0.10734686255455017,-0.2796047329902649
1783169585022810400,8.419810302734374,0.18857014179229736,-0.10276542603969574,-0.31147798895835876
1783169585032790500,8.42979052734375,0.18920007348060608,-0.1127736046910286,-0.32384592294692993
1783169585042738400,8.439738525390625,0.17124398052692413,-0.13754072785377502,-0.3239639103412628
1783169585052687600,8.4496875,0.14313296973705292,-0.19165343046188354,-0.30648472905158997
1783169585062666800,8.459666748046875,0.10560449212789536,-0.23383364081382751,-0.2777276337146759
1783169585072615700,8.46961572265625,0.07114369422197342,-0.2537707984447479,-0.2363213300704956
1783169585082564600,8.479564697265625,0.05107171833515167,-0.24493098258972168,-0.1994144469499588
1783169585092512500,8.489512451171874,0.040884505957365036,-0.17971527576446533,-0.1622321605682373
1783169585102492700,8.49949267578125,0.01690540462732315,-0.10259679704904556,-0.14004962146282196
1783169585112440600,8.509440673828125,-0.027699463069438934,-0.07885915040969849,-0.1428411602973938
1783169585122389500,8.519389404296875,-0.08137334138154984,-0.08635035902261734,-0.17352503538131714
1783169585132368600,8.52936865234375,-0.14060300588607788,-0.10415944457054138,-0.2193572223186493
1783169585142317600,8.539317626953125,-0.2055244743824005,-0.1119353398680687,-0.2759791910648346
1783169585152266500,8.5492666015625,-0.2572110593318939,-0.11306874454021454,-0.3340783715248108
1783169585162215400,8.55921533203125,-0.27391520142555237,-0.09399066120386124,-0.3707951009273529
1783169585172194600,8.569194580078126,-0.2706296741962433,-0.10064872354269028,-0.3943350911140442
1783169585182143500,8.5791435546875,-0.26504501700401306,-0.1282965987920761,-0.40667083859443665
1783169585192091400,8.58909130859375,-0.2804301679134369,-0.1885071098804474,-0.41923192143440247
1783169585202071600,8.599071533203125,-0.3234996199607849,-0.24401670694351196,-0.4297596514225006
1783169585212019500,8.60901953125,-0.3719390630722046,-0.2663346230983734,-0.4174927771091461
1783169585221968600,8.61896875,-0.3785727322101593,-0.23465923964977264,-0.3801667094230652
1783169585231917600,8.62891748046875,-0.3350014388561249,-0.1753700077533722,-0.3054225742816925
1783169585241896700,8.638896728515626,-0.26337411999702454,-0.13553470373153687,-0.21825836598873138
1783169585251850800,8.648850830078125,-0.18596316874027252,-0.12363097816705704,-0.13106654584407806
1783169585261799000,8.658798828125,-0.11507808417081833,-0.1680580973625183,-0.04861615598201752
1783169585271778800,8.66877880859375,-0.044562630355358124,-0.24288274347782135,0.019416848197579384
1783169585281726700,8.678726806640626,0.0022141970694065094,-0.25129035115242004,0.10975819081068039
1783169585291676000,8.688676025390626,-0.0108846640214324,-0.19934621453285217,0.2104276418685913
1783169585301624800,8.698624755859376,-0.11376018077135086,-0.191978320479393,0.2837812304496765
1783169585311603700,8.708603759765625,-0.274213045835495,-0.27220380306243896,0.28962478041648865
1783169585321552600,8.718552734375,-0.4745471775531769,-0.4189671576023102,0.2336142659187317
1783169585331501800,8.728501708984375,-0.6936158537864685,-0.5642825961112976,0.12374475598335266
1783169585341449700,8.73844970703125,-0.9004207253456116,-0.6333487629890442,-0.019858218729496002
1783169585351430000,8.748429931640626,-1.0513834953308105,-0.5349703431129456,-0.1666366159915924
1783169585361377800,8.758377685546876,-1.1338403224945068,-0.30277755856513977,-0.2940121293067932
1783169585371327000,8.768326904296876,-1.1270692348480225,-0.02787969261407852,-0.3698976933956146
1783169585381305900,8.778305908203125,-1.0339653491973877,0.21915778517723083,-0.3704524338245392
1783169585391254800,8.7882548828125,-0.8867591023445129,0.3353396952152252,-0.30386030673980713
1783169585401204000,8.798203857421875,-0.7372058033943176,0.29540321230888367,-0.19826120138168335
1783169585411152000,8.80815185546875,-0.6411734819412231,0.17490124702453613,-0.07324753701686859
1783169585421131800,8.8181318359375,-0.6011232137680054,0.00017951522022485733,0.05686652660369873
1783169585431080000,8.828079833984376,-0.6084522604942322,-0.22374001145362854,0.1431521773338318
1783169585441028900,8.83802880859375,-0.645001232624054,-0.4526515007019043,0.14816078543663025
1783169585451007700,8.8480078125,-0.6677944660186768,-0.6178137063980103,0.073381707072258
1783169585460957000,8.85795703125,-0.6532506346702576,-0.6305025815963745,-0.037712324410676956
1783169585470905900,8.86790576171875,-0.6060261726379395,-0.4719978868961334,-0.1379336714744568
1783169585480854800,8.877854736328125,-0.5306398272514343,-0.17981316149234772,-0.19538630545139313
1783169585490833700,8.887833740234376,-0.43352800607681274,0.1674312800168991,-0.16963011026382446
1783169585500782800,8.897782958984376,-0.334249883890152,0.4748133420944214,-0.08038625866174698
1783169585510730800,8.907730712890626,-0.2467186599969864,0.6607854962348938,0.03897973895072937
1783169585520711000,8.9177109375,-0.1934967190027237,0.6819946765899658,0.1684487909078598
1783169585530658800,8.927658935546875,-0.2040618658065796,0.540371835231781,0.28921785950660706
1783169585540608000,8.93760791015625,-0.27750226855278015,0.288400262594223,0.40038031339645386
1783169585550557000,8.947556884765625,-0.3774299919605255,-0.030636925250291824,0.5054590702056885
1783169585560535800,8.957535888671876,-0.4772801697254181,-0.33239784836769104,0.5985825657844543
1783169585570485000,8.967485107421876,-0.5713933706283569,-0.5388001203536987,0.663731575012207
1783169585580433000,8.977432861328126,-0.633629560470581,-0.612225353717804,0.6668685078620911
1783169585590412800,8.987412841796875,-0.6412863731384277,-0.5400548577308655,0.6157599091529846
1783169585600361000,8.99736083984375,-0.5942602753639221,-0.3246552050113678,0.5146306157112122
1783169585610310000,9.007309814453125,-0.5136317610740662,-0.04834343492984772,0.38330164551734924
1783169585620258800,9.0172587890625,-0.4389415383338928,0.19065344333648682,0.22955630719661713
1783169585630237700,9.02723779296875,-0.3872344195842743,0.36427953839302063,0.07787036895751953
1783169585640187000,9.037186767578126,-0.3532945513725281,0.4272899329662323,-0.023614980280399323
1783169585650135800,9.0471357421875,-0.3407287001609802,0.3758790194988251,-0.06623107194900513
1783169585660083700,9.057083740234376,-0.34757572412490845,0.21616418659687042,-0.0684521496295929
1783169585670063600,9.067063720703125,-0.3431357741355896,-0.015307968482375145,-0.03691502660512924
1783169585680011800,9.07701171875,-0.32407018542289734,-0.2516685724258423,0.005966663360595703
1783169585689960700,9.086960693359375,-0.2664214074611664,-0.3944149911403656,0.03869836404919624
1783169585699939800,9.09693994140625,-0.19152532517910004,-0.44133511185646057,0.02772267907857895
1783169585709889000,9.106888916015626,-0.1219041720032692,-0.40857768058776855,-0.012963765300810337
1783169585719838000,9.116837890625,-0.05717630684375763,-0.30033618211746216,-0.07407611608505249
1783169585729787000,9.126786865234376,-0.009672783315181732,-0.1534060537815094,-0.16832619905471802
1783169585739765800,9.136765869140625,0.0850268304347992,0.029458830133080482,-0.29182496666908264
1783169585749714000,9.1467138671875,0.19964635372161865,0.19433432817459106,-0.41846439242362976
1783169585759662800,9.156662841796875,0.29013311862945557,0.19944946467876434,-0.5502698421478271
1783169585769642000,9.16664208984375,0.33043742179870605,0.01651127077639103,-0.6751010417938232
1783169585779591000,9.1765908203125,0.2985234260559082,-0.17005541920661926,-0.7323339581489563
1783169585789539800,9.186539794921876,0.23469305038452148,-0.2702750563621521,-0.7087821364402771
1783169585799488800,9.19648876953125,0.1908997744321823,-0.3336332440376282,-0.6131663918495178
1783169585809468000,9.206468017578125,0.20144107937812805,-0.36123600602149963,-0.48474469780921936
1783169585819416800,9.216416748046875,0.24125002324581146,-0.3712705373764038,-0.3576200306415558
1783169585829364700,9.22636474609375,0.24071089923381805,-0.3942416310310364,-0.2788141369819641
1783169585839344600,9.2363447265625,0.174407497048378,-0.5280202031135559,-0.28601130843162537
1783169585849292800,9.246292724609376,0.06864182651042938,-0.7495240569114685,-0.36962181329727173
1783169585859241700,9.25624169921875,-0.009153634309768677,-1.0434092283248901,-0.49867913126945496
1783169585869191000,9.26619091796875,-0.025270916521549225,-1.3487299680709839,-0.6643497943878174
1783169585879170000,9.276170166015625,0.017049640417099,-1.594387412071228,-0.8319861888885498
1783169585889119000,9.286118896484375,0.09081824123859406,-1.6715410947799683,-0.9513781666755676
1783169585899068000,9.29606787109375,0.18527470529079437,-1.4976860284805298,-0.975850522518158
1783169585909046800,9.306046875,0.3058587312698364,-1.0780599117279053,-0.8849664330482483
1783169585918995000,9.315994873046876,0.4297974407672882,-0.5525843501091003,-0.7016932964324951
1783169585928943900,9.32594384765625,0.47468623518943787,-0.17780549824237823,-0.5163471698760986
1783169585938892800,9.335892822265626,0.41742509603500366,0.0058197216130793095,-0.3545529544353485
1783169585948872000,9.345871826171875,0.30812573432922363,0.06964392215013504,-0.21111536026000977
1783169585958820900,9.35582080078125,0.1870853304862976,0.07342454791069031,-0.07599030435085297
1783169585968769800,9.365769775390625,0.08956398069858551,0.07688301801681519,0.060142893344163895
1783169585978748700,9.375748779296876,0.02335725910961628,0.11503013968467712,0.1872590333223343
1783169585988697900,9.38569775390625,-0.0018459130078554153,0.18896500766277313,0.28717121481895447
1783169585998645800,9.395645751953126,0.025156144052743912,0.2765057682991028,0.34988999366760254
1783169586008594700,9.4055947265625,0.09409496933221817,0.300082266330719,0.3893653154373169
1783169586018573800,9.41557373046875,0.18466642498970032,0.27792689204216003,0.4182206690311432
1783169586028522800,9.425522705078125,0.26911383867263794,0.22952108085155487,0.4529187083244324
1783169586038472000,9.435471923828125,0.35198503732681274,0.1846335083246231,0.5149458646774292
1783169586048420900,9.4454208984375,0.4210071265697479,0.15748491883277893,0.5800073742866516
1783169586058400000,9.45539990234375,0.4627836048603058,0.1438673734664917,0.6186532974243164
1783169586068349000,9.465348876953126,0.4746984541416168,0.1599767506122589,0.6144033074378967
1783169586078296800,9.475296875,0.4575868546962738,0.203250452876091,0.569404661655426
1783169586088276700,9.48527685546875,0.41836637258529663,0.2624882757663727,0.4796748459339142
1783169586098225000,9.495224853515625,0.3642887473106384,0.3052610456943512,0.3664902150630951
1783169586108173800,9.505173828125,0.31077539920806885,0.32171472907066345,0.23847231268882751
1783169586118122800,9.515122802734375,0.2785429060459137,0.3390985131263733,0.11568327248096466
1783169586128102000,9.525101806640626,0.27819469571113586,0.35207417607307434,0.018963266164064407
1783169586138050800,9.53505078125,0.30157485604286194,0.3660983741283417,-0.056214310228824615
1783169586147998700,9.544998779296876,0.3374723494052887,0.3767104744911194,-0.10553786903619766
1783169586157979000,9.554978759765625,0.3812049329280853,0.40098702907562256,-0.12994174659252167
1783169586167926800,9.5649267578125,0.4188286066055298,0.39696455001831055,-0.16024917364120483
1783169586177875700,9.574875732421875,0.43936529755592346,0.3608723282814026,-0.1985049545764923
1783169586187824600,9.58482470703125,0.4246377646923065,0.32617995142936707,-0.23162800073623657
1783169586197803800,9.5948037109375,0.3608039319515228,0.3172037899494171,-0.2561351954936981
1783169586207753000,9.6047529296875,0.2547905743122101,0.3256971538066864,-0.2812514007091522
1783169586217702000,9.614701904296876,0.12761050462722778,0.32858482003211975,-0.2973792552947998
1783169586227681000,9.624680908203125,-0.007647398859262466,0.3109891414642334,-0.30926644802093506
1783169586237630000,9.6346298828125,-0.12311194092035294,0.24855534732341766,-0.31397464871406555
1783169586247577900,9.644577880859375,-0.2105572372674942,0.17746500670909882,-0.3008246123790741
1783169586257562400,9.654562255859375,-0.2582312822341919,0.16401338577270508,-0.2582249641418457
1783169586267541500,9.66454150390625,-0.2820383906364441,0.2200821340084076,-0.19346851110458374
1783169586277490400,9.674490478515626,-0.28706881403923035,0.31105437874794006,-0.130462646484375
1783169586287439400,9.684439453125,-0.28214403986930847,0.4099099040031433,-0.08308331668376923
1783169586297418200,9.694418212890625,-0.28063908219337463,0.4466548562049866,-0.05210542678833008
1783169586307367400,9.704367431640625,-0.29622575640678406,0.404802143573761,-0.050065260380506516
1783169586317315300,9.7143154296875,-0.32616233825683594,0.32670387625694275,-0.05513325333595276
1783169586327264300,9.72426416015625,-0.35959044098854065,0.2357633411884308,-0.05495504289865494
1783169586337243400,9.734243408203126,-0.395088791847229,0.15813779830932617,-0.04888836294412613
1783169586347192600,9.744192626953126,-0.4264371693134308,0.09816592931747437,-0.031202424317598343
1783169586357141500,9.7541416015625,-0.4444081783294678,0.05242880806326866,0.000940599013119936
1783169586367120400,9.764120361328125,-0.4425034523010254,0.02203357219696045,0.03874749317765236
1783169586377069600,9.774069580078125,-0.40591880679130554,0.04196041077375412,0.08510886877775192
1783169586387018500,9.7840185546875,-0.34985771775245667,0.07375539839267731,0.14954233169555664
1783169586396966400,9.79396630859375,-0.29364505410194397,0.08498701453208923,0.22445864975452423
1783169586406946300,9.8039462890625,-0.26180458068847656,0.06542962789535522,0.2962479591369629
1783169586416894500,9.81389453125,-0.25946179032325745,0.026204723864793777,0.3745635449886322
1783169586426843400,9.823843505859376,-0.29088693857192993,-0.04005725681781769,0.4486103951931
1783169586436822500,9.833822509765625,-0.34170323610305786,-0.1363726109266281,0.49298185110092163
1783169586446771500,9.843771484375,-0.39064300060272217,-0.2245173305273056,0.506023108959198
1783169586456720400,9.853720458984375,-0.4268236756324768,-0.23304210603237152,0.5148376822471619
1783169586466668300,9.863668212890625,-0.45194509625434875,-0.21797232329845428,0.5465141534805298
1783169586476648400,9.8736484375,-0.4534905254840851,-0.24713580310344696,0.57505202293396
1783169586486596400,9.883596435546876,-0.4179093837738037,-0.3071059286594391,0.6073388457298279
1783169586496545300,9.893545166015626,-0.34569695591926575,-0.3632623851299286,0.615023672580719
1783169586506494500,9.903494384765626,-0.2879096567630768,-0.4770970940589905,0.5058825612068176
1783169586516473300,9.913473388671875,-0.2799476087093353,-0.6991540789604187,0.24174842238426208
1783169586526422500,9.923422607421875,-0.3204333186149597,-0.9534121155738831,-0.12902429699897766
1783169586536371500,9.933371337890625,-0.3772526681423187,-1.112741231918335,-0.4964502453804016
1783169586546350600,9.9433505859375,-0.44207361340522766,-1.1404104232788086,-0.7705730199813843
1783169586556299500,9.953299560546874,-0.5048248767852783,-1.0602601766586304,-0.9284036755561829
1783169586566247400,9.963247314453126,-0.5546740293502808,-0.9039466381072998,-0.9649341106414795
1783169586576196400,9.9731962890625,-0.5823850035667419,-0.6845343708992004,-0.8846267461776733
1783169586586175500,9.983175537109375,-0.583337664604187,-0.4482667148113251,-0.7139626145362854
1783169586596124400,9.99312451171875,-0.5634384751319885,-0.28334489464759827,-0.5080587267875671
1783169586606073300,10.0030732421875,-0.5425568222999573,-0.27686837315559387,-0.3267659544944763
1783169586616052500,10.013052490234376,-0.5000080466270447,-0.38436365127563477,-0.1993456929922104
1783169586626001400,10.02300146484375,-0.4355694055557251,-0.51739102602005,-0.12069802731275558
1783169586635949300,10.03294921875,-0.3637077212333679,-0.6769223809242249,-0.10953618586063385
1783169586645898200,10.042898193359376,-0.26671352982521057,-0.8457127213478088,-0.1457165628671646
1783169586655877400,10.05287744140625,-0.1515965312719345,-1.0077687501907349,-0.20436950027942657
1783169586665826300,10.062826416015625,-0.033379074186086655,-1.097214937210083,-0.26556453108787537
1783169586675775500,10.072775390625,0.11825200170278549,-1.026092290878296,-0.30655431747436523
1783169586685754400,10.08275439453125,0.23722733557224274,-0.9009771943092346,-0.3339395523071289
1783169586695703600,10.09270361328125,0.2666616439819336,-0.7787849307060242,-0.3574523627758026
1783169586705652500,10.102652587890624,0.23186014592647552,-0.6436959505081177,-0.36122459173202515
1783169586715600400,10.112600341796876,0.1529727727174759,-0.4950963258743286,-0.3458285927772522
1783169586725580500,10.12258056640625,0.04402509331703186,-0.32770416140556335,-0.3172960579395294
1783169586735528400,10.132528564453125,-0.08293658494949341,-0.15575477480888367,-0.2904045283794403
1783169586745477400,10.142477294921875,-0.21356402337551117,0.008831994608044624,-0.2606562077999115
1783169586755456500,10.15245654296875,-0.33524519205093384,0.1573370397090912,-0.23044957220554352
1783169586765405400,10.162405517578126,-0.4243793785572052,0.2759298086166382,-0.18716365098953247
1783169586775354400,10.172354248046876,-0.4731897711753845,0.35487496852874756,-0.1388712227344513
1783169586785302500,10.182302490234376,-0.46545904874801636,0.38576576113700867,-0.06719429045915604
1783169586795282400,10.192282470703125,-0.4016878008842468,0.3604617416858673,0.027719439938664436
1783169586805230300,10.202230224609375,-0.3108721375465393,0.26209789514541626,0.14847461879253387
1783169586815179300,10.21217919921875,-0.22847232222557068,0.11574439704418182,0.2553107738494873
1783169586825158400,10.222158447265626,-0.14781592786312103,-0.005127059295773506,0.34304121136665344
1783169586835107300,10.232107421875,-0.061490897089242935,-0.04733070358633995,0.4270751476287842
1783169586845056300,10.24205615234375,0.013959549367427826,-0.06903491169214249,0.47990140318870544
1783169586855005400,10.25200537109375,0.056922197341918945,-0.12620127201080322,0.48748528957366943
1783169586864984600,10.261984619140625,0.04311078041791916,-0.21016433835029602,0.45020291209220886
1783169586874933500,10.27193359375,-0.022921768948435783,-0.2781553864479065,0.38186460733413696
1783169586884881400,10.28188134765625,-0.11579239368438721,-0.3066992163658142,0.2935713529586792
1783169586894830600,10.29183056640625,-0.21561619639396667,-0.2890040874481201,0.19313770532608032
1783169586904809500,10.3018095703125,-0.29750674962997437,-0.22328801453113556,0.09760618954896927
1783169586914758400,10.31175830078125,-0.36177653074264526,-0.13355731964111328,0.016033835709095
1783169586924707300,10.321707275390626,-0.40592777729034424,-0.04812999069690704,-0.05932062864303589
1783169586934686500,10.3316865234375,-0.4384385943412781,0.012679293751716614,-0.14658044278621674
1783169586944635400,10.341635498046875,-0.44135889410972595,0.04384417086839676,-0.22711166739463806
1783169586954583300,10.351583251953125,-0.40668243169784546,0.057055845856666565,-0.29652294516563416
1783169586964532500,10.361532470703125,-0.3551318943500519,0.06403704732656479,-0.35459673404693604
1783169586974511400,10.371511474609376,-0.3036996126174927,0.0851239562034607,-0.38996538519859314
1783169586984460300,10.381460205078126,-0.25215017795562744,0.1385316699743271,-0.3847433030605316
1783169586994409200,10.3914091796875,-0.20850816369056702,0.2053985744714737,-0.3407103419303894
1783169587004388400,10.401388427734375,-0.19754348695278168,0.23647813498973846,-0.28954702615737915
1783169587014337300,10.411337158203125,-0.21424709260463715,0.20996344089508057,-0.25774648785591125
1783169587024286500,10.421286376953125,-0.23687712848186493,0.16878902912139893,-0.2346939593553543
1783169587034234600,10.431234619140625,-0.24691511690616608,0.19119153916835785,-0.22151823341846466
1783169587044214500,10.441214599609374,-0.2402692288160324,0.3863304853439331,-0.1890755146741867
1783169587054162400,10.451162353515626,-0.2121579647064209,0.7076185345649719,-0.10929760336875916
1783169587064111400,10.461111328125,-0.15518856048583984,0.9047451615333557,-0.024013224989175797
1783169587074090500,10.471090576171875,-0.09081730246543884,0.7382099628448486,-0.007327721454203129
1783169587084039400,10.481039306640625,-0.04692539572715759,0.23596474528312683,-0.0867539569735527
1783169587093988400,10.49098828125,-0.012573814950883389,-0.3086645007133484,-0.2153979390859604
1783169587103937300,10.500937255859375,0.001918381080031395,-0.6054642200469971,-0.32277819514274597
1783169587113916400,10.51091650390625,0.0067762527614831924,-0.5648630261421204,-0.3859736919403076
1783169587123864300,10.5208642578125,0.005278037860989571,-0.27229809761047363,-0.403003990650177
1783169587133813500,10.5308134765625,0.004132343456149101,0.16383633017539978,-0.36032018065452576
1783169587143792400,10.54079248046875,0.007524924352765083,0.5982556939125061,-0.2529982030391693
1783169587153741300,10.5507412109375,0.01838795654475689,0.8677499890327454,-0.1081525981426239
1783169587163690200,10.560690185546875,0.03535463660955429,0.8750022053718567,0.02232460305094719
1783169587173639400,10.570639404296875,0.05928020924329758,0.6664438843727112,0.13475261628627777
1783169587183618300,10.580618408203126,0.10454242676496506,0.36515361070632935,0.21864591538906097
1783169587193567500,10.5905673828125,0.16170717775821686,0.06102674826979637,0.26824408769607544
1783169587203515600,10.600515625,0.22878673672676086,-0.19335661828517914,0.2791280150413513
1783169587213495600,10.61049560546875,0.3086773157119751,-0.35776928067207336,0.25468578934669495
1783169587223443500,10.620443359375,0.38843801617622375,-0.38121894001960754,0.20672963559627533
1783169587233392400,10.630392333984375,0.4583638310432434,-0.2596866488456726,0.17087389528751373
1783169587243341600,10.640341552734375,0.4974541962146759,-0.08212187886238098,0.15339529514312744
1783169587253343200,10.65034326171875,0.501586377620697,0.07538092881441116,0.151071697473526
1783169587263292200,10.660292236328125,0.47240379452705383,0.21218058466911316,0.16036316752433777
1783169587273241000,10.670240966796875,0.40823066234588623,0.307049036026001,0.17548325657844543
1783169587283189000,10.68018896484375,0.3171727955341339,0.3107829689979553,0.1888205111026764
1783169587293168000,10.690168212890624,0.22453898191452026,0.23392359912395477,0.2097867727279663
1783169587303117300,10.700117431640624,0.14345833659172058,0.12106630206108093,0.2240377813577652
1783169587313066200,10.710066162109374,0.09105665981769562,-0.01295834593474865,0.21124689280986786
1783169587323045400,10.72004541015625,0.0853399932384491,-0.12260806560516357,0.17591677606105804
1783169587332994300,10.729994384765625,0.10868525505065918,-0.1587764471769333,0.13617415726184845
1783169587342943200,10.739943115234375,0.14881443977355957,-0.09797006845474243,0.09970246255397797
1783169587352891100,10.74989111328125,0.17903894186019897,0.02222691848874092,0.08423774689435959
1783169587362871300,10.759871337890624,0.19966241717338562,0.15431495010852814,0.07842899858951569
1783169587372819200,10.769819091796874,0.21758468449115753,0.2414456009864807,0.060319237411022186
1783169587382768000,10.77976806640625,0.2291441559791565,0.26077505946159363,0.03783450275659561
1783169587392747300,10.789747314453125,0.2339801788330078,0.22788314521312714,0.018966272473335266
1783169587402696200,10.7996962890625,0.22014206647872925,0.14348918199539185,0.006078813225030899
1783169587412645000,10.80964501953125,0.2009340226650238,0.037124671041965485,0.012320996262133121
1783169587422594000,10.819593994140625,0.18224385380744934,-0.039436399936676025,0.04502838850021362
1783169587432573200,10.8295732421875,0.16533303260803223,-0.08093190938234329,0.08081754297018051
1783169587442522000,10.839522216796874,0.15296970307826996,-0.1256651133298874,0.09764087200164795
1783169587452470000,10.849469970703124,0.147006094455719,-0.18042875826358795,0.10946610569953918
1783169587462449200,10.85944921875,0.13780948519706726,-0.2492852807044983,0.1412472426891327
1783169587472398000,10.869398193359375,0.12391815334558487,-0.2886790335178375,0.15843181312084198
1783169587482347300,10.87934716796875,0.11313450336456299,-0.2891446352005005,0.14028555154800415
1783169587492296200,10.889296142578125,0.12885673344135284,-0.2924906313419342,0.08815976977348328
1783169587502275300,10.899275390625,0.17230233550071716,-0.31455034017562866,0.04936482012271881
1783169587512224300,10.909224365234374,0.20124690234661102,-0.30273470282554626,0.036141425371170044
1783169587522172200,10.919172119140624,0.18336021900177002,-0.24026793241500854,0.03322388976812363
1783169587532152000,10.929152099609375,0.13493941724300385,-0.1545250564813614,0.03739413619041443
1783169587542100200,10.939100341796875,0.08313457667827606,-0.09479526430368423,0.03489213064312935
1783169587552049200,10.949049072265625,0.040849968791007996,-0.10620850324630737,0.027294132858514786
1783169587561998000,10.958998046875,0.0036295466125011444,-0.15389646589756012,0.014637691900134087
1783169587571977200,10.968977294921874,-0.04804403334856033,-0.203181192278862,0.009145720861852169
1783169587581926100,10.978926025390624,-0.11624385416507721,-0.2227221429347992,0.0026534670032560825
1783169587591875000,10.988875,-0.17113347351551056,-0.18993276357650757,-0.006619393825531006
1783169587601854200,10.998854248046875,-0.20168106257915497,-0.15375091135501862,-0.017496779561042786
1783169587611803100,11.00880322265625,-0.20100994408130646,-0.16818150877952576,-0.012297756969928741
1783169587621751000,11.0187509765625,-0.1809219866991043,-0.24360942840576172,0.009950291365385056
1783169587631700200,11.0287001953125,-0.14110666513442993,-0.31962430477142334,0.04639192298054695
1783169587641679000,11.03867919921875,-0.09049990773200989,-0.36475181579589844,0.0837678611278534
1783169587651628300,11.048628173828124,-0.025079362094402313,-0.3759448230266571,0.11492950469255447
1783169587661577200,11.0585771484375,0.04726623743772507,-0.35015222430229187,0.13773658871650696
1783169587671525000,11.068525146484374,0.0932379886507988,-0.2699892222881317,0.16619354486465454
1783169587681505300,11.07850537109375,0.09447307139635086,-0.14368997514247894,0.18480686843395233
1783169587691453200,11.088453125,0.0463835746049881,-0.018876664340496063,0.16608937084674835
1783169587701402000,11.098402099609375,-0.033478379249572754,0.029188062995672226,0.10042575746774673
1783169587711381200,11.10838134765625,-0.13477250933647156,-0.01205710880458355,-0.008377154357731342
1783169587721330200,11.118330078125,-0.25368452072143555,-0.16067151725292206,-0.16935643553733826
1783169587731279000,11.128279052734374,-0.35215890407562256,-0.37508609890937805,-0.37373167276382446
1783169587741228000,11.13822802734375,-0.38859307765960693,-0.49077150225639343,-0.571913480758667
1783169587751207200,11.148207275390625,-0.36658257246017456,-0.38395369052886963,-0.6975366473197937
1783169587761156000,11.158156005859375,-0.30877333879470825,-0.13381922245025635,-0.723136842250824
1783169587771104000,11.16810400390625,-0.2417876422405243,0.13319090008735657,-0.6540893316268921
1783169587781084200,11.178084228515624,-0.20115646719932556,0.3165398836135864,-0.5106459856033325
1783169587791032000,11.188031982421874,-0.20261028409004211,0.33070841431617737,-0.3156610429286957
1783169587800981000,11.19798095703125,-0.23783396184444427,0.23596374690532684,-0.09196829795837402
1783169587810930200,11.20793017578125,-0.2968147397041321,0.14743627607822418,0.12941575050354004
1783169587820909300,11.217909423828125,-0.36126717925071716,0.057869333773851395,0.2946501076221466
1783169587830858200,11.227858154296875,-0.4086642563343048,-0.10143137723207474,0.36964258551597595
1783169587840806100,11.23780615234375,-0.42563602328300476,-0.2971962094306946,0.34989479184150696
1783169587850786300,11.247786376953124,-0.416504830121994,-0.434654176235199,0.27087345719337463
1783169587860734200,11.257734130859374,-0.40000656247138977,-0.4456080198287964,0.1696154773235321
1783169587870683100,11.26768310546875,-0.3781878352165222,-0.35440006852149963,0.05833076685667038
1783169587880632000,11.277632080078124,-0.3446148931980133,-0.19488640129566193,-0.041942041367292404
1783169587890611200,11.287611083984375,-0.30776259303092957,-0.04452139511704445,-0.116339311003685
1783169587900560100,11.29756005859375,-0.28028035163879395,0.03517657145857811,-0.17397817969322205
1783169587910509000,11.307509033203125,-0.26809558272361755,0.04564385861158371,-0.20621494948863983
1783169587920488200,11.31748828125,-0.274267315864563,0.0063384221866726875,-0.21253302693367004
1783169587930437000,11.32743701171875,-0.30507954955101013,-0.04480439051985741,-0.19146503508090973
1783169587940385000,11.337385009765624,-0.3481088876724243,-0.08561596274375916,-0.13609452545642853
1783169587950334000,11.347333984375,-0.39182814955711365,-0.11511313170194626,-0.06543659418821335
1783169587960313000,11.35731298828125,-0.40794700384140015,-0.14146609604358673,-0.0023322030901908875
1783169587970262000,11.367261962890625,-0.3943963348865509,-0.18459013104438782,0.030218549072742462
1783169587980211200,11.377211181640625,-0.3504396975040436,-0.24644654989242554,0.03530806675553322
1783169587990190300,11.3871904296875,-0.27269884943962097,-0.27040860056877136,0.025549180805683136
1783169588000139300,11.39713916015625,-0.1775307059288025,-0.24526619911193848,0.01673028990626335
1783169588010087200,11.407087158203124,-0.09279265254735947,-0.20766396820545197,0.02371016889810562
1783169588020036000,11.4170361328125,-0.031027881428599358,-0.20467577874660492,0.02431352809071541
1783169588030015200,11.42701513671875,0.014264499768614769,-0.22258207201957703,0.023950275033712387
1783169588039964200,11.436964111328125,0.030539358034729958,-0.243096724152565,0.021071191877126694
1783169588049913000,11.4469130859375,0.02242816798388958,-0.2423560917377472,0.00577905448153615
1783169588059892200,11.456892333984374,0.008311770856380463,-0.20426185429096222,-0.010399636812508106
1783169588069841200,11.466841064453124,-0.004770476371049881,-0.15575343370437622,-0.030691057443618774
1783169588079790000,11.4767900390625,-0.014333928003907204,-0.10614804923534393,-0.062075696885585785
1783169588089738200,11.48673828125,-0.02489415928721428,-0.04854787886142731,-0.09202586859464645
1783169588099718100,11.49671826171875,-0.02964087203145027,-0.019484015181660652,-0.11798374354839325
1783169588109666000,11.506666015625,-0.03811558336019516,-0.010617286898195744,-0.1365012377500534
1783169588119615000,11.516614990234375,-0.05146350711584091,0.005151704419404268,-0.16302426159381866
1783169588129564200,11.526564208984375,-0.06798122823238373,0.028869550675153732,-0.18603476881980896
1783169588139543000,11.53654296875,-0.05796428024768829,0.07351239025592804,-0.21264053881168365
1783169588149492200,11.5464921875,-0.03243335336446762,0.10597792267799377,-0.2600117623806
1783169588159440400,11.5564404296875,0.017714032903313637,0.10010556131601334,-0.331208735704422
1783169588169420300,11.566420166015625,0.08553249388933182,0.051062386482954025,-0.4085834324359894
1783169588179368200,11.5763681640625,0.15597647428512573,-0.020905127748847008,-0.4831337630748749
1783169588189317000,11.586317138671875,0.1979239135980606,-0.07347220182418823,-0.5218630433082581
1783169588199266300,11.596266357421875,0.20363080501556396,-0.08439852297306061,-0.5207080245018005
1783169588209245200,11.6062451171875,0.18317879736423492,-0.06191425025463104,-0.49284014105796814
1783169588219194000,11.616194091796874,0.15351200103759766,-0.000040358398109674454,-0.45974791049957275
1783169588229143000,11.62614306640625,0.11886056512594223,0.16640321910381317,-0.40282124280929565
1783169588239122200,11.6361220703125,0.08178231865167618,0.42930349707603455,-0.30836063623428345
1783169588249071000,11.646071044921875,0.05189419537782669,0.49738189578056335,-0.243600532412529
1783169588259044900,11.656044921875,0.016934672370553017,0.2257145643234253,-0.28220269083976746
1783169588268993800,11.665993896484375,-0.015352162532508373,-0.20259256660938263,-0.4006398618221283
1783169588278973000,11.675972900390626,-0.03206773102283478,-0.5703210830688477,-0.5296536087989807
1783169588288921900,11.685921875,-0.04674414545297623,-0.7339345216751099,-0.6185903549194336
1783169588298870800,11.695870849609374,-0.04872116446495056,-0.6823446154594421,-0.6390125751495361
1783169588308850000,11.705849853515625,-0.044225484132766724,-0.446172833442688,-0.6064237356185913
1783169588318798800,11.715798828125,-0.023815099149942398,-0.0742107555270195,-0.5337032675743103
1783169588328746800,11.725746826171875,0.01733686588704586,0.32337814569473267,-0.42215433716773987
1783169588338695700,11.73569580078125,0.02091793529689312,0.6500071883201599,-0.2671583890914917
1783169588348674800,11.7456748046875,-0.024014919996261597,0.8172739744186401,-0.07712560892105103
1783169588358623700,11.755623779296876,-0.07806182652711868,0.7885013222694397,0.13187263906002045
1783169588368572700,11.76557275390625,-0.09908721596002579,0.5794370770454407,0.31768885254859924
1783169588378551800,11.7755517578125,-0.07396727800369263,0.2985275387763977,0.46331319212913513
1783169588388500700,11.785500732421875,-0.003565547987818718,0.08861399441957474,0.5449230670928955
1783169588398450000,11.795449951171875,0.09843017905950546,0.06323622912168503,0.5389402508735657
1783169588408397600,11.8053974609375,0.23769539594650269,0.23503461480140686,0.47445234656333923
1783169588418378000,11.8153779296875,0.37330159544944763,0.5401614904403687,0.40117985010147095
1783169588428326000,11.825325927734376,0.5005847215652466,0.8129541277885437,0.35112279653549194
1783169588438274800,11.83527490234375,0.486255943775177,1.1042958498001099,0.6634623408317566
1783169588448254000,11.84525390625,0.359637051820755,0.5321771502494812,0.8166369795799255
1783169588458203000,11.855202880859375,0.21097803115844727,-0.36604297161102295,0.7696142196655273
1783169588468151800,11.86515185546875,0.11584486067295074,-0.9779220223426819,0.6611984968185425
1783169588478099700,11.875099609375,0.09428242594003677,-0.9292956590652466,0.6138512492179871
1783169588488080000,11.885079833984374,0.09280197322368622,-0.6055798530578613,0.5545511245727539
1783169588498027800,11.89502783203125,0.1333160251379013,-0.2528369128704071,0.4580393135547638
1783169588507976700,11.904976806640626,0.19956055283546448,0.03533816337585449,0.34279394149780273
1783169588517925600,11.914925537109376,0.2812405824661255,0.29938945174217224,0.2483673244714737
1783169588527904800,11.92490478515625,0.27144840359687805,0.4832330346107483,0.1905282586812973
