time,seconds_elapsed,z,y,x
1783151947559489800,0.21448974609375,-9.5367431640625e-7,-0.000007294118404388428,-0.00005469471216201782
1783151947569176600,0.224176513671875,-0.0000019073486328125,-0.000021733343601226807,-0.00016292929649353027
1783151947578850600,0.2338505859375,-0.00000286102294921875,-0.00003473460674285889,-0.00026038289070129395
1783151947588555000,0.243554931640625,-0.007987022399902344,0.01002144068479538,-0.012222342193126678
1783151947598290200,0.253290283203125,-0.017099380493164062,-0.0015303269028663635,-0.0023163259029388428
1783151947608025300,0.263025390625,-0.008671760559082031,0.002989843487739563,-0.010386765003204346
1783151947617730000,0.27272998046875,-0.011966705322265625,0.0026910528540611267,-0.004975184798240662
1783151947627434500,0.2824345703125,-0.017221450805664062,0.009015761315822601,-0.004359833896160126
1783151947646874000,0.3018740234375,-0.019936561584472656,-0.002789333462715149,0.0064575448632240295
1783151947656609300,0.311609375,-0.0073604583740234375,0.004093438386917114,-0.0029128044843673706
1783151947666314000,0.32131396484375,-0.009058952331542969,0.014943696558475494,-0.011631041765213013
1783151947676018400,0.331018310546875,-0.008457183837890625,0.01169256865978241,-0.004259362816810608
1783151947685753600,0.340753662109375,-0.01914501190185547,-0.000273190438747406,0.013916172087192535
1783151947695458300,0.350458251953125,-0.01125335693359375,-0.01604486256837845,-0.002605050802230835
1783151947705162800,0.360162841796875,-0.006114006042480469,-0.0060131847858428955,-0.002282164990901947
1783151947714867500,0.369867431640625,-0.030724525451660156,-0.0011371448636054993,0.0026667192578315735
1783151947724572000,0.379572021484375,-0.0018987655639648438,0.008210532367229462,-0.0060411617159843445
1783151947734307000,0.38930712890625,-0.0017995834350585938,-0.0010890588164329529,-0.014306485652923584
1783151947744011800,0.39901171875,0.009711265563964844,-0.007683001458644867,0.002965681254863739
1783151947753716200,0.40871630859375,-0.0021495819091796875,0.001836918294429779,-0.005964033305644989
1783151947763421000,0.4184208984375,-0.0020580291748046875,-0.0005000978708267212,-0.0032936930656433105
1783151947773155800,0.42815576171875,0.004909515380859375,0.001855216920375824,0.001379057765007019
1783151947782860500,0.437860595703125,-0.002178192138671875,-0.005133487284183502,0.008024342358112335
1783151947792565200,0.447565185546875,-0.004408836364746094,-0.009578734636306763,0.009637713432312012
1783151947802269700,0.457269775390625,-0.013482093811035156,-0.004638098180294037,0.0019393786787986755
1783151947811974400,0.466974365234375,-0.013021469116210938,-0.00450047105550766,-0.0007659196853637695
1783151947821709300,0.476709228515625,-0.01951885223388672,0.00035818666219711304,-0.000783964991569519
1783151947831414000,0.4864140625,-0.007311820983886719,0.007280692458152771,0.0038919374346733093
1783151947841118700,0.49611865234375,0.004508018493652344,0.0025040581822395325,0.0015187710523605347
1783151947850823200,0.5058232421875,-0.0049190521240234375,0.0025200098752975464,0.00618879497051239
1783151947860527900,0.51552783203125,-0.0070819854736328125,-0.004422888159751892,0.0061350613832473755
1783151947870262800,0.5252626953125,-0.0022373199462890625,-0.004204228520393372,0.008400946855545044
1783151947879967500,0.534967529296875,-0.006814002990722656,-0.0038808435201644897,-0.005593933165073395
1783151947889672200,0.544672119140625,-0.004309654235839844,-0.005957052111625671,-0.00764571875333786
1783151947899376600,0.554376708984375,-0.008843421936035156,0.003608100116252899,-0.00033361464738845825
1783151947909111800,0.56411181640625,-0.00395965576171875,0.008334457874298096,-0.00014077872037887573
1783151947918816300,0.573816162109375,-0.017841339111328125,0.008276194334030151,0.000046566128730773926
1783151947928521000,0.58352099609375,-0.017403602600097656,0.0011558085680007935,-0.0044858381152153015
1783151947938256100,0.593256103515625,-0.026342391967773438,0.012841738760471344,-0.023002207279205322
1783151947947960600,0.602960693359375,-0.011702537536621094,0.01971249282360077,-0.02005688101053238
1783151947957695700,0.61269580078125,-0.016101837158203125,0.007666990160942078,-0.0008313655853271484
1783151947967400400,0.622400390625,0.0006237030029296875,0.000620625913143158,-0.0008582025766372681
1783151947977105000,0.63210498046875,-0.0110931396484375,-0.006371840834617615,0.006145775318145752
1783151947986809600,0.6418095703125,0.000850677490234375,-0.010947510600090027,0.008315719664096832
1783151947996544500,0.65154443359375,-0.008536338806152344,0.0009722337126731873,0.003406919538974762
1783151948006249200,0.661249267578125,-0.0060176849365234375,0.019690118730068207,-0.008481957018375397
1783151948015954000,0.670953857421875,-0.010593414306640625,0.005203716456890106,-0.01305246353149414
1783151948025658400,0.680658447265625,-0.008036613464355469,-0.004242554306983948,-0.015189222991466522
1783151948035363000,0.690363037109375,-0.010231971740722656,-0.008824653923511505,-0.014941170811653137
1783151948045098000,0.700097900390625,-0.000652313232421875,0.005466431379318237,-0.0006172657012939453
1783151948054802700,0.709802734375,-0.0006399154663085938,0.0029926598072052,0.008813329041004181
1783151948064507400,0.71950732421875,-0.007670402526855469,-0.011180497705936432,0.008608289062976837
1783151948074211800,0.7292119140625,-0.007534027099609375,-0.013355694711208344,0.006057605147361755
1783151948083947000,0.738947021484375,-0.009756088256835938,-0.0013897344470024109,-0.008200250566005707
1783151948093651500,0.7486513671875,-0.009588241577148438,0.008030228316783905,-0.010399073362350464
1783151948103356200,0.758356201171875,-0.00002002716064453125,0.01027107983827591,-0.012564428150653839
1783151948113060900,0.768060791015625,-0.011784553527832031,0.0029696375131607056,0.011185422539710999
1783151948122765300,0.777765380859375,-0.011590003967285156,-0.008979767560958862,0.008672423660755157
1783151948132500500,0.78750048828125,-0.01609325408935547,-0.004140079021453857,0.010882750153541565
1783151948142205000,0.797204833984375,0.0006351470947265625,0.010068655014038086,-0.0011062920093536377
1783151948151909600,0.80690966796875,-0.013479232788085938,0.0052399709820747375,-0.0011320114135742188
1783151948161614000,0.816614013671875,-0.00620269775390625,0.012240268290042877,-0.0011572986841201782
1783151948171349200,0.826349365234375,-0.0013885498046875,0.0026063695549964905,-0.015301518142223358
1783151948181054000,0.836053955078125,-0.008433341979980469,0.009593717753887177,-0.010379940271377563
1783151948190758400,0.84575830078125,-0.012989044189453125,0.007071107625961304,-0.014903523027896881
1783151948200463000,0.855463134765625,-0.008075714111328125,0.002277366816997528,-0.005276478826999664
1783151948210167600,0.86516748046875,-0.007940292358398438,-0.0024357661604881287,-0.005174413323402405
1783151948219902700,0.87490283203125,-0.01250457763671875,0.002352572977542877,0.006630346179008484
1783151948229638000,0.884637939453125,-0.00995635986328125,0.009344086050987244,0.0041191428899765015
1783151948239342600,0.894342529296875,-0.007434844970703125,0.009224571287631989,0.004005640745162964
1783151948249047000,0.904047119140625,-0.01671886444091797,0.009107053279876709,0.00624973326921463
1783151948258782200,0.9137822265625,-0.016439437866210938,0.0019395053386688232,-0.0009073689579963684
1783151948268486700,0.923486572265625,-0.016165733337402344,-0.012175105512142181,0.006129324436187744
1783151948278191400,0.93319140625,-0.013540267944335938,-0.011935964226722717,0.0012709200382232666
1783151948287896000,0.94289599609375,-0.006264686584472656,-0.0046919360756874084,0.003505200147628784
1783151948297600500,0.9526005859375,-0.006160736083984375,-0.004577524960041046,0.005757637321949005
1783151948307335700,0.962335693359375,0.00334930419921875,0.00017450004816055298,-0.006088368594646454
1783151948317040000,0.9720400390625,0.0009508132934570312,-0.009315751492977142,0.0033767595887184143
1783151948326744800,0.981744873046875,-0.0037784576416015625,-0.0021879225969314575,0.003276333212852478
1783151948336449500,0.991449462890625,-0.0060710906982421875,0.00018293410539627075,0.005591548979282379
1783151948346184400,1.001184326171875,-0.01773548126220703,0.0001008063554763794,-0.008665837347507477
1783151948355889200,1.01088916015625,-0.010374069213867188,-0.0070318058133125305,0.0009005144238471985
1783151948365593600,1.020593505859375,-0.017267227172851562,0.002530112862586975,0.005610331892967224
1783151948375298300,1.03029833984375,-0.007571220397949219,0.007235564291477203,0.0031162872910499573
1783151948385002800,1.040002685546875,0.0043182373046875,0.016501471400260925,0.005434170365333557
1783151948394738000,1.049738037109375,-0.021635055541992188,-0.00021284818649291992,0.005414716899394989
1783151948404442600,1.059442626953125,-0.016564369201660156,-0.004927709698677063,-0.0017867758870124817
1783151948414147000,1.06914697265625,0.00018596649169921875,-0.00017188489437103271,-0.008852548897266388
1783151948423851800,1.078851806640625,-0.01629161834716797,-0.004887431859970093,-0.00869019329547882
1783151948433587000,1.0885869140625,-0.011309623718261719,-0.00013165175914764404,0.012581676244735718
1783151948443291400,1.09829150390625,-0.0064239501953125,-0.007202863693237305,0.010086476802825928
1783151948452996000,1.10799609375,-0.006317138671875,-0.00005201995372772217,-0.0018310248851776123
1783151948462700500,1.117700439453125,-0.0062122344970703125,0.006994649767875671,0.0005693137645721436
1783151948472405200,1.1274052734375,-0.013159751892089844,-0.009561330080032349,-0.0017810612916946411
1783151948482140400,1.137140380859375,-0.010585784912109375,-0.00942334532737732,0.009967155754566193
1783151948491844900,1.146844970703125,-0.0033588409423828125,-0.004633702337741852,0.014467611908912659
1783151948501549600,1.156549560546875,-0.01977825164794922,-0.002237774431705475,0.00012208521366119385
1783151948511284700,1.16628466796875,-0.0029735565185546875,0.007200263440608978,-0.006917193531990051
1783151948520989200,1.1759892578125,0.0064830780029296875,-0.004704557359218597,-0.009202443063259125
1783151948530724400,1.185724365234375,-0.0100860595703125,-0.002306118607521057,0.00031306594610214233
1783151948540428800,1.1954287109375,-0.0028657913208007812,0.007133819162845612,-0.006730139255523682
1783151948550133500,1.205133544921875,-0.0028200149536132812,0.014045022428035736,-0.002021774649620056
1783151948559838200,1.214838134765625,-0.00746917724609375,-0.00032957643270492554,-0.001973956823348999
1783151948569573000,1.224572998046875,-0.0002918243408203125,0.004424341022968292,0.005139514803886414
1783151948579277800,1.23427783203125,-0.000286102294921875,0.009083904325962067,0.0003558695316314697
1783151948588982300,1.243982177734375,-0.007334709167480469,0.006569810211658478,0.002661503851413727
1783151948598687000,1.25368701171875,0.0021953582763671875,0.004140116274356842,-0.009190499782562256
1783151948608391400,1.263391357421875,-0.004909515380859375,0.004049807786941528,-0.011437848210334778
1783151948618126600,1.273126708984375,-0.007167816162109375,-0.0006934776902198792,-0.0018245503306388855
1783151948627831300,1.282831298828125,-0.0023527145385742188,0.0016524866223335266,0.007583849132061005
1783151948637535700,1.29253564453125,0.0023975372314453125,0.0016604512929916382,0.0003462061285972595
1783151948647240400,1.302240478515625,-0.014117240905761719,-0.0030431225895881653,-0.0020594000816345215
1783151948656975600,1.3119755859375,-0.011527061462402344,-0.0052974894642829895,0.00023011863231658936
1783151948666680000,1.32168017578125,-0.006622314453125,-0.005115494132041931,-0.004514940083026886
1783151948676384800,1.331384765625,-0.008867263793945312,0.004356272518634796,-0.013848386704921722
1783151948686089200,1.341089111328125,-0.011075019836425781,0.00190667062997818,0.0028714537620544434
1783151948695794000,1.3507939453125,0.007924079895019531,0.004209995269775391,-0.0019333288073539734
1783151948705529000,1.360529052734375,0.005450248718261719,-0.007644347846508026,0.00040894001722335815
1783151948715233500,1.370233642578125,-0.011115074157714844,0.0018702596426010132,-0.0019401535391807556
1783151948724938200,1.379938232421875,-0.008573532104492188,-0.009888224303722382,0.00046200305223464966
1783151948734642700,1.389642578125,-0.0013790130615234375,-0.0003369152545928955,0.00040947645902633667
1783151948744377900,1.3993779296875,0.0009984970092773438,0.0020030364394187927,0.0027133896946907043
1783151948754082600,1.40908251953125,-0.0060710906982421875,0.006661154329776764,-0.004430145025253296
1783151948763787000,1.418787109375,0.008131980895996094,0.00411563366651535,0.0026509687304496765
1783151948773491700,1.42849169921875,0.0009441375732421875,0.0016700401902198792,-0.0138540118932724
1783151948783196200,1.438196044921875,-0.008480072021484375,0.008616209030151367,0.0075766295194625854
1783151948792931300,1.447931396484375,-0.0059833526611328125,-0.003255292773246765,-0.006713122129440308
1783151948802666500,1.45766650390625,-0.0011882781982421875,-0.00791880488395691,-0.001949794590473175
1783151948812371000,1.467370849609375,0.0011854171752929688,-0.003169216215610504,0.00039358437061309814
1783151948822075600,1.47707568359375,-0.005886077880859375,-0.007776595652103424,0.0003422051668167114
1783151948831810800,1.486810791015625,-0.008144378662109375,0.0017387568950653076,-0.011471271514892578
1783151948841515300,1.496515380859375,-0.005654335021972656,0.006457380950450897,0.00038255006074905396
1783151948851220000,1.506219970703125,-0.005560874938964844,0.003972753882408142,0.00033135712146759033
1783151948860924400,1.51592431640625,-0.0007724761962890625,-0.003181867301464081,0.00028102099895477295
1783151948870629000,1.525629150390625,-0.007811546325683594,-0.000736236572265625,0.00023082643747329712
1783151948880364300,1.5353642578125,-0.010038375854492188,-0.003043361008167267,-0.004570610821247101
1783151948890068700,1.54506884765625,-0.002819061279296875,-0.00765354186296463,0.0001578405499458313
1783151948899773400,1.5547734375,-0.012179374694824219,-0.0003815889358520508,-0.0069403275847435
1783151948909478000,1.564477783203125,-0.016686439514160156,0.006727375090122223,0.009650059044361115
1783151948919213000,1.574213134765625,0.004778861999511719,-0.00041484832763671875,0.0048062801361083984
1783151948928917800,1.583917724609375,-0.002368927001953125,0.008979268372058868,-0.014149956405162811
1783151948938622200,1.593622314453125,-0.004670143127441406,-0.0029551908373832703,0.0025748983025550842
1783151948958031400,1.61303125,-0.0044002532958984375,0.001750662922859192,-0.007101528346538544
1783151948967766500,1.6227666015625,0.0027256011962890625,0.004112794995307922,0.002380378544330597
1783151948977471200,1.63247119140625,-0.011441230773925781,-0.010096259415149689,-0.004812262952327728
1783151948987175700,1.64217578125,0.0005130767822265625,0.006583817303180695,-0.004777565598487854
1783151948996880400,1.65188037109375,-0.015970230102539062,-0.0006143227219581604,-0.011750936508178711
1783151949006615600,1.661615478515625,-0.010992050170898438,-0.0005101189017295837,-0.011600039899349213
1783151949016320000,1.671320068359375,-0.010807991027832031,-0.002821125090122223,0.002726614475250244
1783151949026024700,1.681024658203125,0.0034923553466796875,0.0019734948873519897,0.0003395751118659973
1783151949035729200,1.690729248046875,-0.001277923583984375,0.0019193068146705627,0.0026448071002960205
1783151949045433900,1.700433837890625,0.0034551620483398438,-0.01225319504737854,-0.004437267780303955
1783151949055168800,1.710168701171875,-0.006011009216308594,0.002048872411251068,0.0026438385248184204
1783151949064873500,1.71987353515625,0.0034971237182617188,-0.007356889545917511,-0.0021564364433288574
1783151949074578200,1.729578125,0.0010833740234375,-0.00014528632164001465,-0.004506699740886688
1783151949084313000,1.73931298828125,-0.01775074005126953,0.0022491365671157837,0.004931263625621796
1783151949094048300,1.74904833984375,-0.008048057556152344,-0.004861816763877869,0.00009272247552871704
1783151949103753000,1.7587529296875,0.0014934539794921875,-0.0071584805846214294,0.00010598450899124146
1783151949113457400,1.76845751953125,-0.0008878707885742188,0.004702344536781311,0.00712721049785614
1783151949123162000,1.778162109375,-0.0032148361206054688,-0.007160834968090057,0.009304314851760864
1783151949132866600,1.787866455078125,0.0038890838623046875,0.004700034856796265,0.006708383560180664
1783151949142601700,1.797601806640625,-0.010295867919921875,0.002243936061859131,0.004196621477603912
1783151949152306400,1.807306396484375,-0.0007162094116210938,0.006896644830703735,-0.005267016589641571
1783151949162011000,1.817010986328125,-0.005400657653808594,0.004404008388519287,-0.0028237253427505493
1783151949171715600,1.826715576171875,-0.005311012268066406,-0.00040278583765029907,-0.0051025524735450745
1783151949191155200,1.8461552734375,-0.0007162094116210938,-0.0005481168627738953,-0.0004819110035896301
1783151949200860000,1.85585986328125,0.00400543212890625,-0.0029734596610069275,0.00888911634683609
1783151949210564400,1.865564453125,0.0015811920166015625,-0.0005894973874092102,-0.010175496339797974
1783151949220269000,1.87526904296875,-0.007854461669921875,0.0041104331612586975,0.004012458026409149
1783151949230004200,1.885004150390625,0.0063953399658203125,-0.0006908401846885681,-0.0007516667246818542
1783151949239708700,1.894708740234375,-0.005476951599121094,0.006309010088443756,0.00157175213098526
1783151949249413400,1.904413330078125,-0.01480865478515625,-0.0008277595043182373,0.008553549647331238
1783151949259117800,1.914117919921875,-0.014562606811523438,-0.007888056337833405,0.006026178598403931
1783151949268853000,1.92385302734375,0.0021543502807617188,-0.005422934889793396,-0.0058820173144340515
1783151949278557400,1.933557373046875,0.002117156982421875,0.004053957760334015,-0.010540194809436798
1783151949288262100,1.94326220703125,0.0020818710327148438,-0.0006888285279273987,0.0013541728258132935
1783151949297966800,1.952966796875,0.0020475387573242188,0.008766643702983856,-0.003424607217311859
1783151949307671300,1.96267138671875,0.0020132064819335938,-0.0031067878007888794,-0.0010566338896751404
1783151949317406500,1.972406494140625,-0.00037479400634765625,0.004105366766452789,0.0012724250555038452
1783151949327111000,1.98211083984375,0.0019884109497070312,-0.0029932931065559387,-0.0010350272059440613
1783151949336815600,1.991815673828125,-0.00040149688720703125,-0.0006090030074119568,0.003648817539215088
1783151949346520300,2.001520263671875,-0.005091667175292969,-0.0076140835881233215,0.003542505204677582
1783151949356255200,2.011255126953125,-0.002651214599609375,0.004254959523677826,-0.0012137889862060547
1783151949365990400,2.020990478515625,0.0020875930786132812,0.00416199117898941,0.0010616779327392578
1783151949375695000,2.030695068359375,-0.012066841125488281,0.00882451981306076,-0.0037115365266799927
1783151949385399600,2.040399658203125,0.011662483215332031,-0.007746286690235138,-0.0012798607349395752
1783151949395104300,2.050104248046875,-0.0049915313720703125,0.011177130043506622,-0.010652221739292145
1783151949404839400,2.05983935546875,-0.0025529861450195312,0.006273083388805389,-0.010460533201694489
1783151949414544000,2.0695439453125,-0.009577751159667969,-0.0032187923789024353,-0.003278203308582306
1783151949424248600,2.07924853515625,0.009410858154296875,0.001467488706111908,-0.012676171958446503
1783151949433953000,2.088953125,-0.0025091171264648438,0.0014217421412467957,0.004024125635623932
1783151949443657700,2.09865771484375,-0.004822731018066406,0.010784558951854706,-0.005436636507511139
1783151949453393000,2.108392822265625,-0.0047435760498046875,0.010641112923622131,0.003960616886615753
1783151949463097300,2.118097412109375,-0.009375572204589844,-0.0012628734111785889,0.013256922364234924
1783151949472802000,2.127802001953125,-0.0021533966064453125,-0.0012631267309188843,-0.0034837424755096436
1783151949482506500,2.137506591796875,0.009647369384765625,-0.012969404458999634,-0.0034115687012672424
1783151949492241700,2.14724169921875,-0.004633903503417969,0.0013445988297462463,0.001311756670475006
1783151949501946000,2.156946044921875,-0.0022020339965820312,0.0060129910707473755,-0.0034670010209083557
1783151949511650800,2.16665087890625,-0.006876945495605469,-0.012881666421890259,-0.0010983124375343323
1783151949521355500,2.17635546875,0.0002899169921875,-0.0032229870557785034,0.003586597740650177
1783151949531060000,2.18606005859375,-0.004412651062011719,-0.007887661457061768,0.012890517711639404
1783151949540795100,2.195795166015625,0.002712249755859375,0.001630239188671112,0.0008672252297401428
1783151949550499600,2.20549951171875,0.0026674270629882812,-0.005412854254245758,-0.003903433680534363
1783151949560204300,2.215204345703125,-0.0020732879638671875,0.004063867032527924,-0.006164960563182831
1783151949569909000,2.224908935546875,0.0073680877685546875,-0.0007365643978118896,-0.0014106109738349915
1783151949579644000,2.234643798828125,0.0025339126586914062,-0.010095112025737762,0.00092296302318573
1783151949589348600,2.2443486328125,0.007203102111816406,0.006584919989109039,-0.006190016865730286
1783151949599053000,2.254052978515625,0.004726409912109375,0.006453871726989746,0.0009204521775245667
1783151949608757800,2.2637578125,-0.011828422546386719,0.008665710687637329,0.0008603110909461975
1783151949618462500,2.27346240234375,-0.013985633850097656,0.013326339423656464,-0.006192021071910858
1783151949628197400,2.283197265625,-0.004328727722167969,-0.003276042640209198,-0.010786764323711395
1783151949637902000,2.292902099609375,-0.006611824035644531,0.006237544119358063,-0.0035996809601783752
1783151949647606500,2.3026064453125,0.005260467529296875,0.013106919825077057,-0.0036405175924301147
1783151949657341700,2.312341796875,-0.008947372436523438,0.008155010640621185,-0.01303189992904663
1783151949667076900,2.322076904296875,-0.004085540771484375,-0.0012947693467140198,-0.010503940284252167
1783151949676781600,2.331781494140625,0.005391120910644531,-0.008290499448776245,-0.007957682013511658
1783151949686486000,2.341486083984375,0.005301475524902344,0.01299770176410675,-0.012522347271442413
1783151949696190700,2.351190673828125,0.0005016326904296875,-0.005999051034450531,-0.0052906423807144165
1783151949705895200,2.360895263671875,0.0028476715087890625,-0.003580354154109955,-0.005246579647064209
1783151949715630300,2.37063037109375,0.009867668151855469,-0.0011863335967063904,-0.005144983530044556
1783151949725334800,2.380334716796875,-0.0020608901977539062,-0.001187153160572052,-0.0004083216190338135
1783151949735039500,2.39003955078125,0.0026693344116210938,-0.0011886581778526306,0.0019093826413154602
1783151949744744200,2.399744140625,0.00026988983154296875,-0.001133359968662262,-0.00046334415674209595
1783151949754479000,2.40947900390625,0.0096893310546875,0.0036332309246063232,0.008966341614723206
1783151949764183800,2.419183837890625,0.000102996826171875,-0.010567821562290192,0.00871606171131134
1783151949773888300,2.42888818359375,-0.004596710205078125,0.003706231713294983,-0.007989957928657532
1783151949783593000,2.438593017578125,0.00017642974853515625,-0.00338716059923172,-0.012612313032150269
1783151949793297700,2.448297607421875,0.0048847198486328125,0.006070815026760101,-0.0006244853138923645
1783151949803032600,2.458032470703125,0.004802703857421875,0.0058906227350234985,-0.01000773161649704
1783151949812737300,2.4677373046875,0.00001049041748046875,-0.0012959539890289307,0.004233472049236298
1783151949822441700,2.477441650390625,-0.00704193115234375,0.008169636130332947,-0.005289696156978607
1783151949832146400,2.487146484375,0.0024824142456054688,0.0009607672691345215,0.006516486406326294
1783151949841881600,2.496881591796875,-0.0093231201171875,0.010330505669116974,-0.003059186041355133
1783151949851586000,2.5065859375,-0.002101898193359375,0.0030856281518936157,0.0016577169299125671
1783151949861290800,2.516290771484375,-0.00206756591796875,0.01477641612291336,-0.005466818809509277
1783151949870995200,2.5259951171875,-0.0020341873168945312,-0.006663158535957336,-0.005419820547103882
1783151949880700000,2.535699951171875,-0.0019989013671875,0.0028911903500556946,-0.002973996102809906
1783151949890435000,2.54543505859375,-0.004321098327636719,-0.006529204547405243,-0.00530938059091568
1783151949900139500,2.555139404296875,0.005158424377441406,0.01007639616727829,-0.002925679087638855
1783151949909844200,2.56484423828125,0.002716064453125,-0.0018763467669487,-0.0005660131573677063
1783151949919548700,2.574548583984375,0.0003147125244140625,-0.006505295634269714,0.0017543211579322815
1783151949929283800,2.584283935546875,-0.0020322799682617188,0.00298888236284256,0.006392233073711395
1783151949939019000,2.59401904296875,-0.0019989013671875,0.0005620047450065613,-0.012589864432811737
1783151949948723500,2.603723388671875,0.0050868988037109375,-0.006520070135593414,-0.0029588043689727783
1783151949958428200,2.61342822265625,0.0026464462280273438,0.010027214884757996,-0.0028953775763511658
1783151949968132900,2.6231328125,0.012010574340820312,0.009895585477352142,-0.0005355328321456909
1783151949977867800,2.63286767578125,0.0024013519287109375,0.007354289293289185,-0.0005722343921661377
1783151949987572500,2.642572509765625,0.0000057220458984375,-0.011547021567821503,-0.010015986859798431
1783151949997277000,2.65227685546875,0.0047168731689453125,-0.009020157158374786,-0.007479242980480194
1783151950006981600,2.661981689453125,-0.004771232604980469,-0.00425218790769577,-0.0073993876576423645
1783151950016716800,2.671716796875,0.002361297607421875,-0.0017886161804199219,-0.007262594997882843
1783151950026421200,2.681421142578125,-0.0023736953735351562,-0.0017226189374923706,-0.00007534027099609375
1783151950036126000,2.6911259765625,0.0000057220458984375,0.007691912353038788,-0.00011819601058959961
1783151950045830400,2.700830322265625,0.0023603439331054688,0.002788543701171875,-0.002457819879055023
1783151950055535000,2.71053515625,-0.002376556396484375,-0.0043463334441185,-0.00010595470666885376
1783151950065270300,2.720270263671875,-0.009404182434082031,-0.004295952618122101,-0.007141448557376862
1783151950074974700,2.729974609375,-0.009248733520507812,0.012229271233081818,0.00234057754278183
1783151950084679400,2.739679443359375,-0.004383087158203125,-0.002058275043964386,-0.00009825080633163452
1783151950094383900,2.7493837890625,-0.006667137145996094,-0.004458442330360413,-0.007193520665168762
1783151950104119000,2.759119140625,0.005208015441894531,0.002776920795440674,-0.0024221688508987427
1783151950113823700,2.76882373046875,-0.0042858123779296875,-0.008996687829494476,-0.009419791400432587
1783151950123528200,2.778528076171875,0.0004825592041015625,0.002952948212623596,0.0025148242712020874
1783151950133233000,2.78823291015625,0.0004749298095703125,-0.008823588490486145,-0.00933539867401123
1783151950142937300,2.797937255859375,0.0028219223022460938,0.0077613964676856995,0.000183887779712677
1783151950152664800,2.807664794921875,0.005129814147949219,-0.0017971247434616089,-0.0022198185324668884
1783151950162369300,2.817369384765625,-0.0020074844360351562,-0.0017316937446594238,0.00012876838445663452
1783151950172074000,2.827073974609375,0.005078315734863281,0.002987280488014221,-0.006911367177963257
1783151950181778400,2.8367783203125,-0.0020580291748046875,0.002916201949119568,-0.009137772023677826
1783151950191513600,2.846513671875,0.0026731491088867188,-0.006504610180854797,-0.0066149309277534485
1783151950201218300,2.85621826171875,-0.006778717041015625,-0.0016643181443214417,0.0029179230332374573
1783151950210922800,2.8659228515625,-0.004309654235839844,-0.003956802189350128,-0.001886226236820221
1783151950220627500,2.87562744140625,-0.00894927978515625,0.00321313738822937,-0.0042409747838974
1783151950230362600,2.885362548828125,-0.008799552917480469,0.0008401796221733093,0.0028959661722183228
1783151950240097500,2.89509765625,-0.0039424896240234375,0.000804118812084198,0.005159154534339905
1783151950249802200,2.90480224609375,0.0031757354736328125,0.007878303527832031,0.0026733502745628357
1783151950259506700,2.914506591796875,0.007834434509277344,0.007783181965351105,0.0025839954614639282
1783151950269211400,2.92421142578125,0.005347251892089844,-0.006472036242485046,-0.004555977880954742
1783151950278946600,2.933946533203125,0.0029010772705078125,-0.00644318014383316,0.007297620177268982
1783151950288651000,2.943651123046875,0.007564544677734375,0.003108195960521698,-0.004632316529750824
1783151950298355700,2.953355712890625,-0.011392593383789062,0.0030925795435905457,-0.0022592172026634216
1783151950317764900,2.972764892578125,0.0006694793701171875,-0.0014749914407730103,-0.0020979270339012146
1783151950327500000,2.9825,-0.006394386291503906,0.000883936882019043,0.0002477988600730896
1783151950337204500,2.99220458984375,0.005475044250488281,-0.001507095992565155,-0.004498220980167389
1783151950346909200,3.0019091796875,-0.0063800811767578125,-0.010911770164966583,0.0049993544816970825
1783151950356613600,3.011613525390625,0.005489349365234375,-0.006040491163730621,0.004930831491947174
1783151950366348800,3.021348876953125,0.0030412673950195312,0.003445930778980255,-0.0046034082770347595
1783151950376053500,3.031053466796875,-0.0017061233520507812,-0.0036998987197875977,0.0001838281750679016
1783151950385758000,3.040758056640625,0.003017425537109375,-0.0013038218021392822,-0.011627547442913055
1783151950395462700,3.050462646484375,0.007678031921386719,-0.0013033822178840637,0.002640657126903534
1783151950405167000,3.0601669921875,-0.004212379455566406,-0.0011887028813362122,-0.002099961042404175
1783151950414902300,3.06990234375,0.000553131103515625,-0.003487594425678253,-0.006863206624984741
1783151950424607000,3.07960693359375,-0.006506919860839844,0.0037312954664230347,-0.006793618202209473
1783151950434311400,3.0893115234375,-0.004042625427246094,-0.005701817572116852,-0.009081587195396423
1783151950444016000,3.09901611328125,0.000720977783203125,0.003836497664451599,0.0027891770005226135
1783151950453720600,3.108720458984375,-0.013411521911621094,-0.003315843641757965,0.002697892487049103
1783151950463455700,3.118455810546875,0.017406463623046875,0.006198525428771973,0.004963688552379608
1783151950473160400,3.128160400390625,-0.0016994476318359375,0.0014192909002304077,0.004836849868297577
1783151950482865000,3.137864990234375,-0.0016717910766601562,0.006028272211551666,0.004770345985889435
1783151950492569600,3.147569580078125,0.005408287048339844,0.0012525767087936401,-0.002421066164970398
1783151950502304800,3.1573046875,0.000606536865234375,-0.0010877102613449097,-0.002425655722618103
1783151950512039700,3.167039794921875,0.0005970001220703125,0.0060338228940963745,-0.0023148655891418457
1783151950521744400,3.176744384765625,0.0076541900634765625,-0.0035101473331451416,-0.009314969182014465
1783151950531448800,3.18644873046875,-0.006592750549316406,0.0082898810505867,-0.009144917130470276
1783151950541153500,3.196153564453125,-0.004126548767089844,0.001135796308517456,-0.016045495867729187
1783151950550888700,3.205888671875,-0.0017023086547851562,-0.003557540476322174,-0.001704491674900055
1783151950560593200,3.21559326171875,0.0030221939086914062,-0.005802758038043976,0.002990521490573883
1783151950570297900,3.2252978515625,-0.0040798187255859375,0.0013822466135025024,0.0005990862846374512
1783151950580002300,3.235002197265625,-0.006366729736328125,0.0013946890830993652,-0.0017518028616905212
1783151950589737500,3.244737548828125,0.0007905960083007812,-0.0010063201189041138,-0.008818954229354858
1783151950599442200,3.254442138671875,0.005488395690917969,-0.0033665448427200317,0.005461350083351135
1783151950609146600,3.264146728515625,0.0030422210693359375,-0.0009767189621925354,-0.0039666444063186646
1783151950618851300,3.273851318359375,-0.004059791564941406,0.0014314502477645874,0.0055213868618011475
1783151950628555800,3.2835556640625,-0.003993034362792969,0.001386299729347229,0.01243666559457779
1783151950638291000,3.293291015625,0.005481719970703125,0.0013418346643447876,-0.0018756687641143799
1783151950647995600,3.30299560546875,0.0006780624389648438,0.005952119827270508,-0.011238105595111847
1783151950657700000,3.3127001953125,-0.0040283203125,0.010584801435470581,-0.006324596703052521
1783151950667404800,3.32240478515625,0.0078029632568359375,-0.008371740579605103,0.0032034218311309814
1783151950677140000,3.332139892578125,0.005316734313964844,0.001152828335762024,-0.013368435204029083
1783151950686844400,3.341844482421875,0.0005168914794921875,-0.008239410817623138,-0.013189055025577545
1783151950696549000,3.351549072265625,-0.0018310546875,-0.0033695027232170105,0.003519788384437561
1783151950706253600,3.361253662109375,0.0005397796630859375,-0.005617856979370117,0.00341632217168808
1783151950715958300,3.370958251953125,0.009953498840332031,-0.0007916390895843506,-0.008448928594589233
1783151950725693400,3.380693359375,0.009786605834960938,-0.005496904253959656,-0.0059966593980789185
1783151950735398000,3.39039794921875,-0.0021409988403320312,-0.007782280445098877,0.0011105909943580627
1783151950745102600,3.4001025390625,-0.0021047592163085938,-0.009972095489501953,0.005817599594593048
1783151950754807000,3.40980712890625,0.004982948303222656,-0.00036190450191497803,-0.003673054277896881
1783151950764542200,3.419542236328125,0.007256507873535156,-0.00031957030296325684,-0.0035976842045783997
1783151950774246700,3.42924658203125,-0.0022716522216796875,-0.00027805566787719727,0.0011727884411811829
1783151950783951400,3.438951416015625,0.0001068115234375,0.013881973922252655,0.005819849669933319
1783151950793656000,3.448656005859375,0.0048160552978515625,-0.0004905983805656433,0.0033819451928138733
1783151950803391000,3.458390869140625,0.0047359466552734375,0.004207625985145569,0.0033397376537323
1783151950813126100,3.468126220703125,-0.014174461364746094,0.001760438084602356,0.010291233658790588
1783151950822830800,3.477830810546875,-0.0068721771240234375,0.0017091035842895508,-0.00874001532793045
1783151950832535300,3.487535400390625,-0.004403114318847656,-0.005393475294113159,0.0007693469524383545
1783151950842240000,3.497239990234375,-0.004329681396484375,0.001784004271030426,-0.006339691579341888
1783151950851975200,3.50697509765625,0.000438690185546875,0.004087910056114197,-0.0015227794647216797
1783151950861679600,3.5166796875,0.009855270385742188,0.0017002597451210022,-0.013246797025203705
1783151950871384300,3.52638427734375,0.00026798248291015625,0.0017074048519134521,-0.008358724415302277
1783151950881088800,3.5360888671875,-0.0067901611328125,-0.005394443869590759,-0.001268148422241211
1783151950890793500,3.54579345703125,0.0074405670166015625,0.004024505615234375,-0.0036325082182884216
1783151950900528600,3.555528564453125,-0.004446983337402344,0.003936775028705597,0.0011378899216651917
1783151950910233000,3.565233154296875,-0.0043735504150390625,0.0014941692352294922,-0.0012815818190574646
1783151950919937800,3.574937744140625,0.0003948211669921875,0.0038043782114982605,0.005761399865150452
1783151950929642200,3.584642333984375,0.00038814544677734375,-0.0056299492716789246,-0.0014472231268882751
1783151950939377400,3.59437744140625,0.0027379989624023438,-0.007856227457523346,-0.0108160600066185
1783151950949082000,3.60408203125,-0.004361152648925781,0.0016612261533737183,-0.00596918910741806
1783151950958786600,3.61378662109375,-0.0042877197265625,0.0181446373462677,-0.0011591911315917969
1783151950968491300,3.6234912109375,-0.0089263916015625,0.0014034956693649292,-0.0058221593499183655
1783151950978195700,3.63319580078125,-0.004067420959472656,-0.0009968876838684082,-0.0057699233293533325
1783151950987931000,3.642930908203125,0.005408287048339844,-0.0009439811110496521,0.003689110279083252
1783151950997635300,3.65263525390625,-0.013512611389160156,-0.0032463595271110535,-0.0011299625039100647
1783151951007340000,3.662340087890625,-0.015628814697265625,0.010904967784881592,0.00355616956949234
1783151951017044700,3.672044677734375,-0.0059604644775390625,-0.0010041072964668274,0.003452099859714508
1783151951026779600,3.681779541015625,0.0035467147827148438,-0.0033074840903282166,-0.0037017837166786194
1783151951036484400,3.691484375,-0.0035648345947265625,-0.005556873977184296,0.003367215394973755
1783151951046188800,3.701188720703125,0.005901336669921875,-0.010196954011917114,-0.0061415135860443115
1783151951055893500,3.7108935546875,0.005803108215332031,0.0017152130603790283,-0.006025046110153198
1783151951065598200,3.72059814453125,-0.0013456344604492188,-0.005329295992851257,0.0010826736688613892
1783151951075333000,3.7303330078125,0.012781143188476562,0.011255733668804169,0.0010196864604949951
1783151951085068300,3.740068359375,0.007870674133300781,-0.007768124341964722,-0.0037393420934677124
1783151951094773000,3.74977294921875,0.0077381134033203125,-0.007659949362277985,0.0009745806455612183
1783151951104477400,3.7594775390625,0.005253791809082031,-0.005197867751121521,-0.0013832524418830872
1783151951114212600,3.769212646484375,0.0028104782104492188,0.004333578050136566,-0.003746539354324341
1783151951123917300,3.778917236328125,-0.001934051513671875,-0.00047134608030319214,0.0009675025939941406
1783151951133621800,3.788621826171875,-0.011324882507324219,-0.005181178450584412,0.0009654909372329712
1783151951143326500,3.798326416015625,0.0029821395874023438,0.001928679645061493,-0.015550076961517334
1783151951153031000,3.808031005859375,0.000576019287109375,-0.0004884675145149231,0.0011601373553276062
1783151951162766000,3.81776611328125,0.007634162902832031,-0.0028070583939552307,-0.003521144390106201
1783151951172470800,3.827470703125,0.007508277893066406,0.0066914185881614685,0.005979694426059723
1783151951182175200,3.83717529296875,-0.004380226135253906,-0.00521291047334671,-0.005848437547683716
1783151951191880000,3.8468798828125,0.00039005279541015625,-0.002757161855697632,0.006047584116458893
1783151951201614800,3.85661474609375,-0.0043125152587890625,0.00438486784696579,0.003566443920135498
1783151951211319600,3.866319580078125,-0.00188446044921875,0.0066388919949531555,0.005897052586078644
1783151951221024000,3.87602392578125,0.0028429031372070312,-0.0076195597648620605,0.001121707260608673
1783151951230728700,3.885728759765625,0.0027942657470703125,-0.012289337813854218,0.00584806501865387
1783151951240433400,3.895433349609375,0.0145111083984375,0.009115681052207947,-0.006037473678588867
1783151951250168300,3.905168212890625,0.0025053024291992188,0.001940615475177765,-0.005961492657661438
1783151951259873000,3.914873046875,-0.004589080810546875,-0.009884536266326904,-0.005886003375053406
1783151951269577500,3.924577392578125,0.00960540771484375,0.001956939697265625,-0.0034560710191726685
1783151951279282200,3.9342822265625,-0.01174163818359375,-0.014579184353351593,0.003629066050052643
1783151951289017300,3.944017333984375,-0.00447845458984375,0.002109326422214508,0.008315138518810272
1783151951298721800,3.9537216796875,0.000293731689453125,0.002159819006919861,-0.0036108270287513733
1783151951308426500,3.963426513671875,0.0026464462280273438,0.004565872251987457,0.008247211575508118
1783151951318131000,3.973130859375,-0.013873100280761719,0.004461884498596191,0.003373093903064728
1783151951327835600,3.982835693359375,-0.011284828186035156,0.004415698349475861,-0.0037001892924308777
1783151951337570800,3.99257080078125,0.000667572021484375,-0.00034033507108688354,-0.0036040693521499634
1783151951347275300,4.002275146484375,-0.00875091552734375,0.001992441713809967,-0.001168958842754364
1783151951356980000,4.01197998046875,-0.01565837860107422,0.008983448147773743,-0.0035154372453689575
1783151951366684400,4.021684326171875,-0.0012769699096679688,0.0018104910850524902,0.008341006934642792
1783151951376419600,4.031419677734375,0.010507583618164062,0.006463035941123962,0.0035250335931777954
1783151951386154800,4.04115478515625,-0.0014314651489257812,-0.0007411837577819824,0.0035014301538467407
1783151951395859500,4.050859375,0.0009336471557617188,-0.0007006600499153137,0.001122407615184784
1783151951405564000,4.06056396484375,-0.010845184326171875,-0.00777038186788559,0.003494441509246826
1783151951415268600,4.0702685546875,-0.003597259521484375,0.004151508212089539,-0.0012997686862945557
1783151951425003500,4.08000341796875,0.01058197021484375,0.006466984748840332,-0.005999147891998291
1783151951434708200,4.089708251953125,0.0033397674560546875,-0.005376137793064117,0.0035436823964118958
1783151951444412700,4.09941259765625,-0.00141143798828125,0.006505146622657776,-0.00588814914226532
1783151951454117400,4.109117431640625,-0.0013885498046875,-0.00775107741355896,0.003593228757381439
1783151951463852500,4.1188525390625,0.0033311843872070312,0.008866988122463226,0.0011529996991157532
1783151951473557000,4.128556884765625,-0.008487701416015625,-0.0006597265601158142,-0.008298590779304504
1783151951483261700,4.13826171875,-0.0012788772583007812,-0.0006766244769096375,0.0012811720371246338
1783151951492966100,4.147966064453125,0.0034379959106445312,0.011069566011428833,-0.010528258979320526
1783151951502670800,4.1576708984375,0.0033817291259765625,0.006217546761035919,0.0014450699090957642
1783151951512406000,4.167406005859375,0.008036613464355469,0.0013738349080085754,-0.0009002685546875
1783151951522110500,4.1771103515625,-0.006217002868652344,0.006033748388290405,0.003860488533973694
1783151951531815200,4.186815185546875,0.0032930374145507812,0.003491416573524475,-0.010347627103328705
1783151951541519600,4.19651953125,0.000881195068359375,0.0057603344321250916,-0.0031326264142990112
1783151951551254800,4.2062548828125,-0.0038309097290039062,0.010332047939300537,-0.0007643550634384155
1783151951560959500,4.21595947265625,-0.01319122314453125,-0.003987960517406464,0.003935225307941437
1783151951570664000,4.225663818359375,0.015267372131347656,-0.011002898216247559,-0.010214537382125854
1783151951580368600,4.23536865234375,-0.006157875061035156,0.008024968206882477,-0.0029428377747535706
1783151951590073000,4.245072998046875,-0.010766983032226562,-0.0038434192538261414,-0.007629759609699249
1783151951599808300,4.254808349609375,-0.0058765411376953125,-0.008446797728538513,-0.00047513097524642944
1783151951609513000,4.264512939453125,-0.0057773590087890625,0.008182764053344727,-0.00043286383152008057
1783151951619217400,4.274217529296875,-0.0009708404541015625,-0.008442826569080353,-0.002790220081806183
1783151951628922000,4.283922119140625,-0.0056667327880859375,0.008129201829433441,-0.00042757391929626465
1783151951638657300,4.2936572265625,-0.003215789794921875,-0.006080813705921173,-0.0003866851329803467
1783151951648361700,4.30336181640625,-0.007871627807617188,0.008152902126312256,-0.00028917938470840454
1783151951658097000,4.313096923828125,0.0016689300537109375,0.008104346692562103,0.0021051019430160522
1783151951667801300,4.32280126953125,-0.0006990432739257812,-0.0037653595209121704,0.00681576132774353
1783151951677506000,4.332506103515625,-0.0006895065307617188,-0.010840058326721191,-0.007498323917388916
1783151951687241200,4.3422412109375,-0.0030336380004882812,0.0010747238993644714,0.004425302147865295
1783151951696945700,4.351945556640625,-0.0006265640258789062,0.005797088146209717,-0.00032551586627960205
1783151951706650400,4.361650390625,0.008793830871582031,0.0010746940970420837,-0.0002850666642189026
1783151951716354800,4.371354736328125,0.0039348602294921875,-0.0013282150030136108,-0.00030418485403060913
1783151951726090000,4.381090087890625,-0.0008268356323242188,-0.008386865258216858,0.004446737468242645
1783151951735794700,4.390794677734375,-0.000812530517578125,-0.0011661052703857422,-0.002645142376422882
1783151951745499100,4.4004990234375,0.0015420913696289062,-0.01052701473236084,-0.0002835392951965332
1783151951755203800,4.410203857421875,-0.0031805038452148438,0.008434750139713287,-0.004999086260795593
1783151951764908300,4.419908203125,0.001567840576171875,-0.0011415183544158936,-0.009652428328990936
1783151951774643500,4.4296435546875,-0.0055103302001953125,-0.005789928138256073,0.006958723068237305
1783151951784348200,4.43934814453125,0.011056900024414062,0.0037432536482810974,0.004462480545043945
1783151951794052600,4.449052490234375,-0.003246307373046875,0.0013540387153625488,-0.002688564360141754
1783151951803757300,4.45875732421875,-0.0008363723754882812,-0.010461337864398956,-0.00026801973581314087
1783151951813461800,4.468461669921875,0.0109405517578125,-0.0009659454226493835,-0.00022851675748825073
1783151951823197000,4.478197021484375,0.00133514404296875,0.0037321671843528748,0.0045218393206596375
1783151951832901600,4.487901611328125,-0.012805938720703125,0.015462346374988556,0.004421912133693695
1783151951842606000,4.497606201171875,0.00152587890625,0.010521404445171356,0.006624013185501099
1783151951852310800,4.507310791015625,0.008568763732910156,0.0009671151638031006,0.004192255437374115
1783151951862046000,4.5170458984375,0.008426666259765625,-0.0060728490352630615,-0.005250275135040283
1783151951871750400,4.52675048828125,0.008287429809570312,0.0011093392968177795,0.004279382526874542
1783151951881455000,4.536455078125,-0.0012569427490234375,0.0011778995394706726,0.001886017620563507
1783151951891159600,4.54615966796875,0.003459930419921875,0.008181773126125336,0.0018889307975769043
1783151951900864300,4.5558642578125,-0.003650665283203125,0.0009079575538635254,0.0041878968477249146
1783151951910599400,4.565599365234375,-0.0012340545654296875,0.0055762603878974915,0.0017961561679840088
1783151951920303900,4.575303955078125,0.0034837722778320312,-0.006252013146877289,0.006512656807899475
1783151951930008600,4.585008544921875,-0.0012693405151367188,-0.008475348353385925,-0.0029686614871025085
1783151951939713000,4.594713134765625,0.0010919570922851562,0.0010451152920722961,-0.0029437467455863953
1783151951949448200,4.6044482421875,-0.0012664794921875,-0.008351139724254608,-0.0005786269903182983
1783151951959183400,4.614183349609375,-0.0012464523315429688,-0.001131594181060791,0.0017065629363059998
1783151951968887800,4.6238876953125,-0.005936622619628906,0.008323244750499725,-0.0007014498114585876
1783151951978592500,4.633592529296875,0.015333175659179688,-0.008247219026088715,-0.01247713714838028
1783151951988297000,4.643296875,-0.0037393569946289062,-0.005783364176750183,-0.005225948989391327
1783151951998032100,4.6530322265625,0.005730628967285156,-0.003318019211292267,0.004245005548000336
1783151952007736800,4.66273681640625,-0.010840415954589844,-0.0032920166850090027,-0.005257420241832733
1783151952017441300,4.672441162109375,-0.013016700744628906,-0.0009093284606933594,0.006568461656570435
1783151952027146000,4.68214599609375,-0.0033779144287109375,-0.0032777637243270874,-0.0006333738565444946
1783151952036881200,4.691881103515625,0.0060863494873046875,-0.0008384659886360168,-0.0029881522059440613
1783151952046585600,4.701585693359375,0.0036287307739257812,-0.0032087862491607666,-0.012385725975036621
1783151952056290300,4.711290283203125,-0.008194923400878906,0.008636370301246643,-0.007491759955883026
1783151952065994800,4.720994873046875,-0.0009899139404296875,-0.00324220210313797,-0.007332555949687958
1783151952075699500,4.730699462890625,0.0037240982055664062,-0.0008617714047431946,0.00699993222951889
1783151952085434600,4.7404345703125,0.0060176849365234375,0.00847335159778595,0.002263210713863373
1783151952095139000,4.75013916015625,-0.0011348724365234375,-0.005800671875476837,0.006971240043640137
1783151952104843800,4.75984375,-0.0011167526245117188,0.0013195127248764038,0.006830483675003052
1783151952114548200,4.76954833984375,0.00124359130859375,-0.0033842995762825012,0.00203888863325119
1783151952124283400,4.779283447265625,0.0035800933837890625,0.0037681832909584045,-0.002600833773612976
1783151952133988000,4.788988037109375,0.0035219192504882812,-0.0009764432907104492,-0.0071792080998420715
1783151952143692500,4.798692626953125,0.0034637451171875,-0.0032862797379493713,-0.004670202732086182
1783151952153397200,4.808397216796875,0.005761146545410156,0.00380629301071167,0.0024358704686164856
1783151952163101700,4.818101806640625,-0.003742218017578125,0.001357845962047577,-0.0022660940885543823
1783151952172836900,4.8278369140625,-0.001323699951171875,-0.003404870629310608,-0.0021938756108283997
1783151952182541600,4.83754150390625,-0.008367538452148438,-0.0009635388851165771,-0.0021229684352874756
1783151952192246000,4.84724609375,-0.010582923889160156,0.003792800009250641,-0.006764642894268036
1783151952201950700,4.85695068359375,-0.0033388137817382812,0.008454859256744385,0.0027902573347091675
1783151952211685600,4.866685546875,0.008480072021484375,0.001232445240020752,-0.011340312659740448
1783151952221390300,4.876390380859375,-0.0034236907958984375,0.010647870600223541,0.0077143460512161255
1783151952231125500,4.88612548828125,0.0013294219970703125,0.001033201813697815,0.0052652135491371155
1783151952240830000,4.895829833984375,0.008373260498046875,-0.0037247315049171448,0.007509291172027588
1783151952250534700,4.90553466796875,-0.0035305023193359375,-0.00838836282491684,0.00264885276556015
1783151952260269800,4.915269775390625,0.0035800933837890625,-0.001224420964717865,0.009705573320388794
1783151952269974300,4.924974365234375,0.003520965576171875,0.0011805593967437744,-0.004541054368019104
1783151952279679000,4.934678955078125,-0.0035905838012695312,0.00348798930644989,0.004917867481708527
1783151952289383400,4.944383544921875,-0.0035305023193359375,0.008096948266029358,0.002515234053134918
1783151952299118600,4.95411865234375,0.005936622619628906,-0.006170891225337982,0.0025077611207962036
1783151952308823300,4.9638232421875,0.001125335693359375,-0.0014009475708007812,0.004797793924808502
1783151952318527700,4.97352783203125,-0.0012350082397460938,-0.0061025917530059814,0.004693262279033661
1783151952328232400,4.983232421875,0.005837440490722656,-0.017749808728694916,-0.007173724472522736
1783151952337937000,4.99293701171875,-0.001312255859375,0.0037612244486808777,0.009396187961101532
1783151952347672000,5.002672119140625,0.0034055709838867188,0.006025560200214386,0.00220692902803421
1783151952357376800,5.012376708984375,0.008059501647949219,0.0034833699464797974,-0.0024919062852859497
1783151952367081200,5.022081298828125,0.0032138824462890625,-0.0013146847486495972,0.0022803694009780884
1783151952376786000,5.031785888671875,0.0008039474487304688,0.008086435496807098,-0.0024785995483398438
1783151952386520800,5.041520751953125,0.0031452178955078125,0.0032265782356262207,0.0022344738245010376
1783151952396225500,5.0512255859375,0.0007381439208984375,0.005557388067245483,0.0069429874420166016
1783151952405930200,5.06093017578125,0.010149955749511719,-0.0015741735696792603,-0.002545498311519623
1783151952415634700,5.070634765625,-0.0017833709716796875,-0.006273642182350159,0.0021694526076316833
1783151952425339400,5.08033935546875,0.010010719299316406,0.0009686574339866638,0.002109415829181671
1783151952435074300,5.09007421875,-0.008985519409179688,0.003336474299430847,-0.009654104709625244
1783151952444779000,5.099779052734375,0.009995460510253906,0.005665451288223267,0.002304650843143463
1783151952454483700,5.109483642578125,0.007472991943359375,0.0032442063093185425,-0.00011403113603591919
1783151952464188200,5.119188232421875,0.0002803802490234375,-0.0015505775809288025,0.006931103765964508
1783151952473923300,5.12892333984375,-0.004420280456542969,0.010209381580352783,0.006850726902484894
1783151952483627800,5.138627685546875,0.0027055740356445312,-0.004109293222427368,0.01382368803024292
1783151952493332500,5.14833251953125,-0.0114593505859375,0.0006987676024436951,0.001749865710735321
1783151952503037200,5.158037109375,0.002849578857421875,-0.011104986071586609,0.0016961321234703064
1783151952512772000,5.167772216796875,0.00044536590576171875,-0.006180241703987122,-0.00782010704278946
1783151952522507300,5.17750732421875,-0.001903533935546875,0.003301173448562622,-0.005358017981052399
1783151952532212000,5.1872119140625,-0.00658416748046875,0.007913246750831604,0.0017595067620277405
1783151952541916400,5.19691650390625,0.012340545654296875,0.0076945871114730835,0.013528726994991302
1783151952551621000,5.20662109375,-0.0019712448120117188,0.0004274696111679077,0.008526928722858429
1783151952561356000,5.21635595703125,-0.004294395446777344,-0.004319742321968079,-0.008055642247200012
1783151952571060700,5.226060791015625,0.012237548828125,-0.0042756348848342896,-0.005532011389732361
1783151952580765400,5.235765380859375,-0.0020704269409179688,0.0028909072279930115,-0.0007672905921936035
1783151952590470000,5.245469970703125,0.005017280578613281,0.007624775171279907,-0.003119073808193207
1783151952600174600,5.255174560546875,0.004935264587402344,0.0005312412977218628,0.0040200501680374146
1783151952609909500,5.264909423828125,0.000141143798828125,-0.00421769917011261,0.0063432082533836365
1783151952619614200,5.2746142578125,-0.0022020339965820312,0.005246810615062714,-0.005491673946380615
1783151952629319000,5.28431884765625,-0.006876945495605469,0.005130767822265625,0.013449810445308685
1783151952639023400,5.2940234375,-0.009119033813476562,-0.013813957571983337,0.006148979067802429
1783151952648758500,5.303758544921875,0.002796173095703125,0.005217500030994415,0.006081640720367432
1783151952658463000,5.313462890625,0.0027494430541992188,-0.004321567714214325,0.0013039112091064453
1783151952668167700,5.323167724609375,0.007415771484375,0.005202151834964752,0.0013165250420570374
1783151952677872400,5.332872314453125,0.00022411346435546875,-0.00203772634267807,0.003625720739364624
1783151952687576800,5.342576904296875,-0.0044765472412109375,0.00731726735830307,-0.0011110752820968628
1783151952697312000,5.35231201171875,-0.004403114318847656,-0.006937578320503235,0.010646313428878784
1783151952707016400,5.362016357421875,-0.011397361755371094,0.009551890194416046,0.008162520825862885
1783151952716721200,5.37172119140625,-0.006497383117675781,-0.007095813751220703,0.0009348019957542419
1783151952726425900,5.38142578125,0.0030183792114257812,0.004756659269332886,-0.008453555405139923
1783151952736160800,5.391160888671875,0.0029668807983398438,-0.009471222758293152,0.0010711848735809326
1783151952745865500,5.400865478515625,-0.0017786026000976562,-0.009284496307373047,0.005740173161029816
1783151952755570000,5.41056982421875,0.007658958435058594,0.007359027862548828,0.0032642334699630737
1783151952765274600,5.420274658203125,-0.00423431396484375,0.00009749829769134521,-0.00392218679189682
1783151952774979300,5.429979248046875,-0.0018091201782226562,0.007117971777915955,0.005527794361114502
1783151952784714200,5.43971435546875,0.005272865295410156,-0.000024497509002685547,-0.011063210666179657
1783151952794419000,5.4494189453125,-0.011289596557617188,-0.004706613719463348,0.0008601173758506775
1783151952804154000,5.459154052734375,0.010085105895996094,0.004765257239341736,0.0008809193968772888
1783151952813858600,5.468858642578125,-0.006558418273925781,-0.00011233985424041748,-0.0015133395791053772
1783151952823593700,5.47859375,-0.011160850524902344,0.0022734999656677246,-0.0015120729804039001
1783151952833298200,5.488298095703125,-0.003907203674316406,-0.0024476200342178345,-0.001451842486858368
1783151952843003000,5.4980029296875,-0.0038433074951171875,0.002217814326286316,0.00331878662109375
1783151952852707600,5.50770751953125,-0.003780364990234375,-0.00020415335893630981,0.0008838921785354614
1783151952862412000,5.517412109375,-0.006073951721191406,0.004481352865695953,-0.006206817924976349
1783151952872147200,5.527147216796875,-0.005972862243652344,0.004492573440074921,0.0032242685556411743
1783151952881851600,5.5368515625,0.0011777877807617188,0.002034105360507965,0.0007895901799201965
1783151952891556400,5.546556396484375,-0.00118255615234375,-0.0003266260027885437,0.0054632797837257385
1783151952901261000,5.556260986328125,0.005888938903808594,0.009115494787693024,0.0029919669032096863
1783151952910996000,5.565995849609375,0.0010805130004882812,-0.007467374205589294,-0.006431251764297485
1783151952920700700,5.57570068359375,0.008129119873046875,-0.007314041256904602,-0.0017082542181015015
1783151952930405000,5.585405029296875,0.0032825469970703125,-0.004822567105293274,0.0006513595581054688
1783151952940109800,5.59510986328125,0.0032291412353515625,-0.00699654221534729,0.002971649169921875
1783151952949814500,5.604814453125,0.007886886596679688,-0.004510357975959778,0.0028975531458854675
1783151952959549400,5.614549560546875,0.0006875991821289062,0.0026025399565696716,0.005181014537811279
1783151952969254100,5.624254150390625,0.0053882598876953125,-0.013887569308280945,0.00041828304529190063
1783151952978958600,5.63395849609375,-0.008820533752441406,0.009841613471508026,0.002802051603794098
1783151952988663300,5.643663330078125,0.007802009582519531,-0.006754852831363678,-0.004261039197444916
1783151952998398500,5.6533984375,-0.008802413940429688,-0.004273310303688049,-0.006510578095912933
1783151953008103000,5.66310302734375,-0.006300926208496094,-0.0018749833106994629,-0.013493739068508148
1783151953017807600,5.6728076171875,-0.00855255126953125,0.0051947832107543945,-0.0015299022197723389
1783151953027512000,5.682511962890625,0.008063316345214844,-0.009097777307033539,-0.003925010561943054
1783151953037216800,5.692216796875,0.00086212158203125,0.0004898384213447571,0.0008129328489303589
1783151953046952000,5.701951904296875,0.010270118713378906,-0.0018450617790222168,0.0031304508447647095
1783151953056656400,5.711656494140625,0.0006761550903320312,0.000569567084312439,0.010106503963470459
1783151953066361000,5.721361083984375,0.005374908447265625,0.0028871819376945496,-0.004190713167190552
1783151953076065500,5.7310654296875,-0.004122734069824219,-0.0019009411334991455,0.005321286618709564
1783151953085800700,5.74080078125,0.0006427764892578125,0.007509864866733551,-0.004140749573707581
1783151953095535900,5.750535888671875,-0.0040645599365234375,0.005072973668575287,0.005311429500579834
1783151953105240300,5.760240234375,0.0030565261840820312,-0.016169719398021698,-0.004149876534938812
1783151953114945000,5.769945068359375,0.00064849853515625,-0.006506010890007019,-0.004105277359485626
1783151953124649700,5.779649658203125,0.002994537353515625,0.0006820037961006165,0.0006952583789825439
1783151953134384600,5.789384521484375,0.005301475524902344,0.0030553117394447327,-0.001637578010559082
1783151953144089300,5.79908935546875,-0.00183868408203125,0.005330793559551239,-0.0015752539038658142
1783151953153793800,5.808793701171875,-0.004164695739746094,-0.0018544569611549377,-0.003913573920726776
1783151953163498500,5.81849853515625,0.002956390380859375,0.0005603283643722534,0.0008241757750511169
1783151953173233700,5.828233642578125,-0.006499290466308594,-0.0017764493823051453,0.0032012835144996643
1783151953182938000,5.837938232421875,-0.001678466796875,-0.004075072705745697,-0.0038684606552124023
1783151953192642800,5.847642822265625,0.005400657653808594,0.002915710210800171,0.015046663582324982
1783151953202347300,5.85734716796875,0.0029544830322265625,-0.006569288671016693,-0.006341084837913513
1783151953212052000,5.867052001953125,-0.006503105163574219,0.007615812122821808,0.005447514355182648
1783151953221787100,5.876787109375,-0.001682281494140625,0.005234800279140472,-0.0017350241541862488
1783151953231491600,5.88649169921875,-0.00165557861328125,-0.0019488558173179626,0.01474492996931076
1783151953241196300,5.8961962890625,-0.011051177978515625,-0.004301376640796661,0.0051264092326164246
1783151953250900700,5.905900634765625,0.010320663452148438,0.0005105882883071899,0.005075313150882721
1783151953260636000,5.915635986328125,-0.003970146179199219,0.002886049449443817,-0.002100333571434021
1783151953270340600,5.925340576171875,-0.0039033889770507812,0.01227463036775589,-0.00672738254070282
1783151953280045000,5.935045166015625,0.0032148361206054688,-0.011428087949752808,-0.0018845126032829285
1783151953289749800,5.944749755859375,0.0031604766845703125,-0.0066129788756370544,-0.0018769800662994385
1783151953299454200,5.9544541015625,0.000751495361328125,-0.001834958791732788,0.007552549242973328
1783151953309189400,5.964189453125,0.0007390975952148438,-0.0041894614696502686,0.012158222496509552
1783151953318894000,5.97389404296875,0.005438804626464844,0.007672742009162903,-0.009181380271911621
1783151953328598500,5.9835986328125,0.0029916763305664062,0.007516264915466309,0.005066290497779846
1783151953338303200,5.99330322265625,0.002941131591796875,0.00031029433012008667,0.0002458840608596802
1783151953348038400,6.003038330078125,0.0028924942016601562,-0.01142941415309906,0.004928551614284515
1783151953357742800,6.012742919921875,0.00048828125,-0.006499342620372772,-0.004585273563861847
1783151953367447600,6.022447509765625,0.0004787445068359375,-0.001666441559791565,-0.0022480711340904236
1783151953377182500,6.032182373046875,0.00047016143798828125,-0.0063630566000938416,-0.0022359341382980347
1783151953386887200,6.04188720703125,0.0028200149536132812,-0.0014742538332939148,0.0025470852851867676
1783151953396622300,6.051622314453125,0.009840965270996094,0.005645692348480225,-0.006868027150630951
1783151953406326800,6.061326904296875,-0.004443168640136719,-0.006241209805011749,-0.0020810365676879883
1783151953416031500,6.071031494140625,0.0050373077392578125,0.003241315484046936,-0.004410929977893829
1783151953425736000,6.08073583984375,0.007308006286621094,-0.010961219668388367,0.002690814435482025
1783151953435471000,6.09047119140625,0.00482940673828125,-0.008451521396636963,-0.004430778324604034
1783151953445175800,6.10017578125,-0.004658699035644531,0.005779251456260681,0.005085907876491547
1783151953454880300,6.10988037109375,0.0024700164794921875,0.007995031774044037,0.009672977030277252
1783151953464585000,6.1195849609375,-0.0046234130859375,0.00549248605966568,0.007205411791801453
1783151953474289400,6.129289306640625,0.0001506805419921875,0.0030741170048713684,0.004763968288898468
1783151953484024600,6.139024658203125,0.0072154998779296875,-0.01577947288751602,0.0023049190640449524
1783151953493729300,6.148729248046875,0.00002765655517578125,-0.0014265701174736023,-0.00011307746171951294
1783151953503433700,6.158433837890625,0.0023832321166992188,0.0009243041276931763,-0.00007684528827667236
1783151953513138400,6.168138427734375,-0.0023527145385742188,0.0009370744228363037,0.002256259322166443
1783151953522843000,6.1778427734375,0.000026702880859375,0.0031903833150863647,0.004609391093254089
1783151953532578000,6.187578125,-0.004670143127441406,-0.008653588593006134,0.0045656487345695496
1783151953542282800,6.19728271484375,0.009527206420898438,-0.003784775733947754,0.004465676844120026
1783151953551987200,6.2069873046875,0.0046558380126953125,-0.0013952851295471191,0.0020116716623306274
1783151953561692000,6.21669189453125,-0.000133514404296875,-0.008395947515964508,-0.002757139503955841
1783151953571427000,6.226427001953125,-0.007184028625488281,0.01053021103143692,-0.002735137939453125
1783151953581131500,6.236131591796875,0.004698753356933594,0.0009182989597320557,0.0019972845911979675
1783151953590836200,6.245836181640625,-0.00009059906005859375,0.005643971264362335,-0.007469065487384796
1783151953600540700,6.255540771484375,0.009332656860351562,0.00316629558801651,-0.00031773000955581665
1783151953610275800,6.26527587890625,0.002109527587890625,-0.0016258731484413147,-0.000278666615486145
1783151953619980500,6.27498046875,-0.0073337554931640625,-0.003925599157810211,-0.0026542916893959045
1783151953629685000,6.28468505859375,-0.009568214416503906,0.005534730851650238,-0.012043111026287079
1783151953639389700,6.2943896484375,-0.007053375244140625,0.007754579186439514,0.00466686487197876
1783151953649094100,6.30409423828125,0.002471923828125,-0.008863165974617004,-0.004784375429153442
1783151953658829300,6.313829345703125,0.00714111328125,0.005375072360038757,0.002266615629196167
1783151953668564500,6.323564453125,-0.011809349060058594,0.007597498595714569,0.002204202115535736
1783151953678269000,6.33326904296875,0.0072174072265625,0.005044803023338318,-0.009621292352676392
1783151953687973600,6.3429736328125,-0.011733055114746094,0.00727352499961853,-0.002375170588493347
1783151953697708800,6.352708740234375,0.007292747497558594,0.004840567708015442,0.007062584161758423
1783151953707413200,6.362413330078125,-0.011659622192382812,-0.002278342843055725,-0.0025025010108947754
1783151953717118000,6.372117919921875,0.009720802307128906,-0.006965368986129761,-0.004767142236232758
1783151953726822400,6.381822509765625,0.002490997314453125,-0.011646755039691925,-0.00942365825176239
1783151953736527000,6.391527099609375,0.0118560791015625,0.00022409111261367798,0.007243350148200989
1783151953746262300,6.40126220703125,-0.002445220947265625,0.004960730671882629,0.0048013776540756226
1783151953755966700,6.410966796875,-0.007115364074707031,-0.006856575608253479,-0.009363509714603424
1783151953765671400,6.42067138671875,-0.002285003662109375,0.00028120726346969604,-0.0021210014820098877
1783151953775376000,6.4303759765625,0.0048065185546875,0.0003621727228164673,-0.004450224339962006
1783151953785111000,6.440111083984375,-0.004681587219238281,0.000384405255317688,-0.009111419320106506
1783151953794815700,6.449815673828125,-0.011672019958496094,0.009757213294506073,0.0004236772656440735
1783151953804520200,6.459520263671875,0.0026407241821289062,0.0071521177887916565,-0.00424475222826004
1783151953814225000,6.469224853515625,0.00495147705078125,-0.000048488378524780273,0.005209915339946747
1783151953823929300,6.478929443359375,-0.0021839141845703125,-0.004845157265663147,-0.0043092891573905945
1783151953833664500,6.48866455078125,0.007260322570800781,-0.007076136767864227,0.0075014010071754456
1783151953843369200,6.498369140625,-0.014047622680664062,0.004776716232299805,-0.0044116973876953125
1783151953853073700,6.50807373046875,-0.006747245788574219,0.009364910423755646,-0.0020220354199409485
1783151953862778400,6.5177783203125,0.009839057922363281,0.0021288245916366577,-0.006709985435009003
1783151953872482800,6.52748291015625,0.007319450378417969,-0.0026466548442840576,0.005199700593948364
1783151953882218000,6.537218017578125,-0.00927734375,-0.01433638483285904,0.0003763064742088318
1783151953891922400,6.54692236328125,-0.0020551681518554688,-0.007002159953117371,0.002701863646507263
1783151953901627100,6.556627197265625,0.005031585693359375,0.00013735145330429077,0.005047567188739777
1783151953911331800,6.566331787109375,-0.0044612884521484375,-0.004605643451213837,0.0002281591296195984
1783151953921066800,6.576066650390625,-0.004387855529785156,-0.002202562987804413,0.004911802709102631
1783151953930771500,6.585771484375,0.0003814697265625,0.002573728561401367,0.004806064069271088
1783151953940476000,6.595475830078125,0.01213836669921875,-0.004565566778182983,-0.011713914573192596
1783151953950211000,6.605211181640625,-0.0021677017211914062,0.0001932382583618164,0.0002792850136756897
1783151953959915800,6.614915771484375,-0.0044879913330078125,-0.002251759171485901,-0.002046726644039154
1783151953969651000,6.62465087890625,-0.0020570755004882812,-0.0022429227828979492,0.00037754327058792114
1783151953979355400,6.63435546875,0.000316619873046875,-0.004589840769767761,-0.013772524893283844
1783151953989060000,6.64406005859375,-0.004384040832519531,0.00022763758897781372,-0.0017458125948905945
1783151953998764500,6.6537646484375,-0.0019559860229492188,0.002550952136516571,0.007681526243686676
1783151954008499700,6.663499755859375,-0.0019245147705078125,0.009474195539951324,-0.001893952488899231
1783151954018204400,6.673204345703125,0.009870529174804688,-0.01188361644744873,-0.0018869489431381226
1783151954027908900,6.682908935546875,-0.006768226623535156,0.0024050623178482056,0.0005905851721763611
1783151954037613600,6.692613525390625,0.005107879638671875,-0.004731431603431702,-0.006436333060264587
1783151954047348500,6.702348388671875,-0.0020294189453125,-0.004681967198848724,-0.003938212990760803
1783151954057053200,6.71205322265625,-0.0019969940185546875,0.00007887929677963257,-0.0015564411878585815
1783151954066758000,6.7217578125,0.0003757476806640625,0.007158547639846802,-0.006307497620582581
1783151954076462300,6.73146240234375,0.007435798645019531,-0.0024546384811401367,0.0008251667022705078
1783151954086167000,6.7411669921875,0.007312774658203125,-0.0023848488926887512,0.0008457601070404053
1783151954095902000,6.75090185546875,-0.006928443908691406,-0.000018090009689331055,0.0055775269865989685
1783151954105606700,6.760606689453125,-0.006814002990722656,0.0023093223571777344,0.0030482709407806396
1783151954115311000,6.77031103515625,0.0027065277099609375,0.004597939550876617,-0.004079200327396393
1783151954125015800,6.780015869140625,0.00266265869140625,-0.007213324308395386,0.0007195323705673218
1783151954134751000,6.7897509765625,0.009685516357421875,-0.0024253949522972107,-0.001613706350326538
1783151954144455400,6.799455322265625,-0.014018058776855469,-0.014176376163959503,-0.003893844783306122
1783151954154160000,6.80916015625,0.0003337860107421875,-0.006901592016220093,0.00555429607629776
1783151954163864600,6.818864501953125,0.005038261413574219,-0.0021187588572502136,-0.001629948616027832
1783151954173569300,6.8285693359375,-0.004451751708984375,0.0026568397879600525,0.007910415530204773
1783151954183304400,6.838304443359375,-0.0020227432250976562,-0.004482537508010864,-0.001669563353061676
1783151954193009000,6.8480087890625,-0.0067005157470703125,-0.011431053280830383,0.0006894022226333618
1783151954202713600,6.857713623046875,0.002819061279296875,-0.004217028617858887,-0.003984145820140839
1783151954212418000,6.86741796875,0.005127906799316406,0.0005353614687919617,-0.006238408386707306
1783151954222122800,6.877122802734375,-0.0043659210205078125,0.0028535500168800354,-0.0015186294913291931
1783151954231858000,6.88685791015625,-0.011361122131347656,-0.0019340962171554565,0.0031934455037117004
1783151954241593000,6.896593017578125,-0.004105567932128906,-0.004286952316761017,0.005471974611282349
1783151954251297500,6.906297607421875,-0.00403594970703125,-0.0018309280276298523,0.007770821452140808
1783151954261002200,6.916002197265625,0.003082275390625,0.00757879763841629,0.002905339002609253
1783151954270737200,6.925737060546875,0.005385398864746094,-0.011391811072826385,0.002832278609275818
1783151954280441900,6.93544189453125,-0.0064678192138671875,-0.013528779149055481,-0.0019508972764015198
1783151954290146600,6.945146484375,-0.004004478454589844,-0.006207317113876343,-0.001942947506904602
1783151954299851000,6.95485107421875,-0.0015821456909179688,-0.006074987351894379,0.005131974816322327
1783151954309555700,6.9645556640625,0.007851600646972656,-0.010655567049980164,0.0003097802400588989
1783151954319290600,6.97429052734375,-0.0016880035400390625,0.0012561455368995667,0.00022445619106292725
1783151954328995300,6.983995361328125,0.007746696472167969,-0.0011490881443023682,0.007263258099555969
1783151954338699800,6.99369970703125,-0.008858680725097656,-0.003514237701892853,0.004761934280395508
1783151954348404500,7.003404541015625,0.017171859741210938,0.005996018648147583,-0.002409107983112335
1783151954358139600,7.0131396484375,-0.008997917175292969,0.005868099629878998,0.0023171156644821167
1783151954367844000,7.022843994140625,-0.00649261474609375,-0.0036818012595176697,-0.002397872507572174
1783151954377548800,7.032548828125,0.000667572021484375,-0.001236557960510254,-0.000026084482669830322
1783151954387253200,7.042253173828125,-0.0063953399658203125,-0.0012445449829101562,-0.004687704145908356
1783151954396988400,7.051988525390625,0.0007619857788085938,0.0011032149195671082,-0.002293519675731659
1783151954406693000,7.061693115234375,-0.0015926361083984375,0.0010555386543273926,-0.0022791698575019836
1783151954416397600,7.0713974609375,-0.008632659912109375,0.015185333788394928,-0.009258255362510681
1783151954426102300,7.081102294921875,0.0056304931640625,-0.008566595613956451,-0.009127825498580933
1783151954435806700,7.090806640625,0.000823974609375,0.00566679984331131,-0.0019481554627418518
1783151954445542000,7.1005419921875,-0.0038852691650390625,-0.0014657899737358093,-0.008933335542678833
1783151954455246600,7.11024658203125,-0.0038204193115234375,0.005597151815891266,0.0077248141169548035
1783151954464951000,7.119950927734375,0.0032939910888671875,-0.004005007445812225,-0.0017924010753631592
1783151954474655700,7.12965576171875,0.0008831024169921875,0.0054552555084228516,-0.0017274916172027588
1783151954484360200,7.139360107421875,0.0032243728637695312,-0.004087775945663452,0.005403444170951843
1783151954494095400,7.149095458984375,0.003170013427734375,-0.0017516836524009705,0.005290128290653229
1783151954503800000,7.158800048828125,-0.0015783309936523438,-0.001694314181804657,-0.0018301159143447876
1783151954513504500,7.16850439453125,-0.0015506744384765625,-0.001636497676372528,0.005301155149936676
1783151954523239700,7.17823974609375,0.0008153915405273438,0.0007177963852882385,0.0005358532071113586
1783151954532974800,7.187974853515625,0.0008029937744140625,-0.003976605832576752,0.0005613788962364197
1783151954542679300,7.19767919921875,-0.0015506744384765625,-0.006222851574420929,-0.0018275603652000427
1783151954552384000,7.207384033203125,0.007882118225097656,-0.0014513283967971802,0.0028897374868392944
1783151954562088400,7.21708837890625,-0.0016565322875976562,-0.008451767265796661,0.007588706910610199
1783151954571793200,7.226793212890625,0.0030670166015625,-0.0036430954933166504,0.0004294663667678833
1783151954581528300,7.2365283203125,0.003017425537109375,-0.003554113209247589,0.005225077271461487
1783151954591232800,7.246232666015625,0.0053234100341796875,0.010652512311935425,0.0028173252940177917
1783151954600937500,7.2559375,0.007590293884277344,-0.00595536082983017,0.002745114266872406
1783151954610642000,7.265641845703125,0.012159347534179688,0.0058781057596206665,0.005031190812587738
1783151954620377000,7.275377197265625,-0.002147674560546875,-0.0012587085366249084,0.004923388361930847
1783151954630081800,7.285081787109375,0.004940986633300781,0.0035018548369407654,-0.0021907389163970947
1783151954639786200,7.2947861328125,0.0048580169677734375,0.0033574178814888,0.000235825777053833
1783151954649491000,7.304490966796875,0.0024204254150390625,0.007968559861183167,0.004919424653053284
1783151954659195400,7.3141953125,-0.014095306396484375,0.007807157933712006,-0.011662043631076813
1783151954668930600,7.3239306640625,-0.006793975830078125,0.0005955472588539124,-0.002083823084831238
1783151954678635300,7.33363525390625,0.00037097930908203125,0.0005570277571678162,-0.004355445504188538
1783151954688339700,7.343339599609375,0.00978851318359375,0.009985126554965973,0.0075143128633499146
1783151954698044400,7.35304443359375,-0.0044918060302734375,-0.0018009766936302185,0.005008809268474579
1783151954707779600,7.362779541015625,0.0049915313720703125,-0.008736446499824524,0.00018928200006484985
1783151954717484000,7.372484130859375,-0.006855964660644531,-0.0039223358035087585,-0.0045355260372161865
1783151954727188700,7.382188720703125,0.005021095275878906,-0.0038848593831062317,0.004922620952129364
1783151954736893200,7.39189306640625,-0.0021152496337890625,0.000863395631313324,0.007171027362346649
1783151954746598000,7.401597900390625,-0.0020809173583984375,-0.0015352889895439148,-0.009447969496250153
1783151954756333000,7.4113330078125,0.00029468536376953125,0.0008756667375564575,0.002447672188282013
1783151954766037500,7.42103759765625,0.007355690002441406,0.0008317753672599792,-0.0023284032940864563
1783151954775742200,7.4307421875,-0.00217437744140625,-0.0015096142888069153,-0.0046541690826416016
1783151954785446700,7.44044677734375,-0.004492759704589844,0.01266363263130188,-0.002201557159423828
1783151954795181800,7.450181884765625,0.000278472900390625,0.0030730292201042175,0.011930398643016815
1783151954804917000,7.4599169921875,0.0002727508544921875,0.0006367266178131104,-0.0024116039276123047
1783151954814621400,7.469621337890625,-0.0091400146484375,0.0029532238841056824,0.000018641352653503418
1783151954824326100,7.479326171875,-0.004277229309082031,-0.004249177873134613,-0.007058337330818176
1783151954834030600,7.489030517578125,-0.00891876220703125,0.012209787964820862,-0.004549957811832428
1783151954843765800,7.498765869140625,0.010059356689453125,-0.00214231014251709,0.00019832700490951538
1783151954853470500,7.508470458984375,0.00518035888671875,0.007272608578205109,0.00022936612367630005
1783151954863175000,7.5181748046875,0.0050945281982421875,-0.0022275373339653015,0.004971295595169067
1783151954872879600,7.527879638671875,0.00029754638671875,0.004847399890422821,0.0025088638067245483
1783151954882614800,7.53761474609375,0.0026483535766601562,-0.006968632340431213,0.002443090081214905
1783151954892319200,7.5473193359375,-0.009159088134765625,0.0025841891765594482,0.004733510315418243
1783151954902024000,7.55702392578125,0.005112648010253906,-0.006837815046310425,-0.004777751863002777
1783151954911728400,7.566728271484375,0.0026712417602539062,-0.016175255179405212,-0.004722684621810913
1783151954921433000,7.57643310546875,0.0026254653930664062,-0.006512157618999481,0.0023842528462409973
1783151954931168300,7.586168212890625,-0.0044708251953125,-0.0017366036772727966,0.000023953616619110107
1783151954940872700,7.595872802734375,-0.0020399093627929688,-0.0016794800758361816,0.004769995808601379
1783151954960281900,7.61528173828125,0.0026063919067382812,0.0008091256022453308,-0.007141299545764923
1783151954970017000,7.62501708984375,-0.00684356689453125,0.003179609775543213,0.007132075726985931
1783151954979721700,7.6347216796875,0.00032138824462890625,-0.0016708597540855408,-0.00007846951484680176
1783151954989426200,7.64442626953125,0.0073833465576171875,-0.004027307033538818,-0.009450621902942657
1783151954999131000,7.654130859375,0.0025491714477539062,-0.003989480435848236,0.004861138761043549
1783151955008835300,7.66383544921875,-0.0021905899047851562,0.0007016435265541077,-0.009362965822219849
1783151955018570500,7.673570556640625,0.004897117614746094,0.00537196546792984,-0.002178765833377838
1783151955028275200,7.683275146484375,0.007170677185058594,-0.013576783239841461,0.009596489369869232
1783151955037979600,7.692979736328125,-0.016475677490234375,0.000796884298324585,-0.002350836992263794
1783151955047684400,7.702684326171875,0.0026140213012695312,0.007806405425071716,-0.0023355334997177124
1783151955057419300,7.712419189453125,0.0025691986083984375,0.007646910846233368,-0.004661254584789276
1783151955067124000,7.7221240234375,-0.004525184631347656,-0.008911564946174622,0.0025028809905052185
1783151955076828700,7.73182861328125,-0.004450798034667969,0.010023273527622223,-0.006970517337322235
1783151955086533000,7.741533203125,0.0003204345703125,0.0004765912890434265,0.004944205284118652
1783151955096268300,7.751268310546875,-0.0020265579223632812,0.0051506683230400085,-0.002229258418083191
1783151955106003500,7.76100341796875,0.0074138641357421875,0.002681136131286621,0.0024939775466918945
1783151955115708000,7.7707080078125,-0.006829261779785156,0.00966065376996994,-0.004566028714179993
1783151955125412600,7.78041259765625,0.007404327392578125,-0.0022349953651428223,0.004952222108840942
1783151955135117000,7.790116943359375,0.004924774169921875,0.002542532980442047,-0.006918393075466156
1783151955144852200,7.799852294921875,-0.0022096633911132812,-0.0021815747022628784,0.0025793910026550293
1783151955154557000,7.809556884765625,0.00959014892578125,0.0025382936000823975,-0.0022002533078193665
1783151955164261400,7.819261474609375,-0.004688262939453125,-0.0068829357624053955,-0.0021292343735694885
1783151955173966000,7.828966064453125,-0.004609107971191406,0.007364161312580109,0.0002969875931739807
1783151955183670500,7.83867041015625,-0.0021753311157226562,-0.00449390709400177,-0.002028629183769226
1783151955193405700,7.84840576171875,-0.009203910827636719,-0.004333086311817169,-0.004300370812416077
1783151955203110400,7.8581103515625,-0.011406898498535156,-0.001991942524909973,0.0005027353763580322
1783151955212814800,7.86781494140625,0.0029020309448242188,-0.004343748092651367,-0.0018263086676597595
1783151955222519600,7.87751953125,-0.008910179138183594,-0.008996345102787018,0.0029498785734176636
1783151955232254500,7.88725439453125,-0.0016946792602539062,0.002888418734073639,-0.0017762333154678345
1783151955241959200,7.896959228515625,-0.008733749389648438,-0.004140481352806091,-0.0018272250890731812
1783151955251664000,7.906663818359375,-0.001522064208984375,0.002967037260532379,-0.006517738103866577
1783151955261368300,7.916368408203125,-0.0062084197998046875,-0.008874520659446716,-0.001678362488746643
1783151955271073000,7.926072998046875,-0.00846099853515625,0.0006525963544845581,0.0030953586101531982
1783151955280808000,7.935807861328125,-0.0059642791748046875,-0.004099071025848389,-0.003973186016082764
1783151955290512600,7.9455126953125,0.0035429000854492188,-0.0016461759805679321,-0.001590825617313385
1783151955300217300,7.95521728515625,0.0034837722778320312,0.0007644370198249817,0.00783531367778778
1783151955309921800,7.964921875,0.0034265518188476562,0.003135576844215393,-0.004023745656013489
1783151955319657000,7.974656982421875,-0.010750770568847656,0.0030546337366104126,0.010122887790203094
1783151955329361400,7.984361328125,0.012955665588378906,0.005330830812454224,-0.006471388041973114
1783151955339066000,7.994066162109375,-0.010787010192871094,-0.0018544197082519531,-0.008684203028678894
1783151955348770800,8.003770751953125,-0.0011844635009765625,0.0005035921931266785,-0.0014530196785926819
1783151955358475300,8.013475341796875,0.00353240966796875,0.0005240738391876221,0.005672648549079895
1783151955368210400,8.02321044921875,-0.005932807922363281,0.0005435943603515625,-0.0037383511662483215
1783151955377945600,8.032945556640625,-0.01290130615234375,-0.0018498525023460388,-0.005997300148010254
1783151955387650000,8.042650146484375,0.001434326171875,-0.0017901510000228882,0.001189105212688446
1783151955397354800,8.052354736328125,-0.010352134704589844,-0.0017321482300758362,0.0012043118476867676
1783151955407090000,8.06208984375,0.003939628601074219,0.005392789840698242,-0.003536798059940338
1783151955416794400,8.07179443359375,0.00151824951171875,-0.004148498177528381,0.003608599305152893
1783151955426499000,8.0814990234375,-0.0032033920288085938,0.005371622741222382,0.0011688768863677979
1783151955436203500,8.09120361328125,-0.007862091064453125,0.007593497633934021,-0.0012301802635192871
1783151955445908200,8.100908203125,-0.0053730010986328125,0.0028561800718307495,0.0011810511350631714
1783151955455643100,8.11064306640625,0.011191368103027344,-0.011281676590442657,-0.0012189745903015137
1783151955465347800,8.120347900390625,-0.0007581710815429688,0.0006994381546974182,0.0011906996369361877
1783151955475052500,8.130052490234375,-0.0054569244384765625,-0.0016397535800933838,0.0011469796299934387
1783151955484757000,8.139757080078125,-0.0030107498168945312,0.007824257016181946,0.010511115193367004
1783151955494492200,8.1494921875,-0.0006055831909179688,-0.0017995759844779968,-0.001452907919883728
1783151955504196600,8.159196533203126,0.004099845886230469,0.007609628140926361,0.007969558238983154
1783151955513901300,8.1689013671875,0.0016756057739257812,0.0027578026056289673,-0.0062481313943862915
1783151955523606000,8.17860595703125,-0.005404472351074219,-0.006723858416080475,-0.0014139339327812195
1783151955533310500,8.188310546875,-0.00060272216796875,0.005122415721416473,0.008067473769187927
1783151955543045600,8.198045654296875,0.0017480850219726562,-0.00911085307598114,0.0009003579616546631
1783151955552750000,8.20775,-0.0029783248901367188,0.0027191415429115295,0.0008601024746894836
1783151955562454800,8.217454833984375,-0.005283355712890625,-0.011415809392929077,0.0032351240515708923
1783151955581894400,8.236894287109376,0.004260063171386719,0.009956292808055878,-0.0037986189126968384
1783151955591599000,8.24659912109375,0.0018320083618164062,0.005065359175205231,0.007947608828544617
1783151955601303600,8.256303466796876,0.0018024444580078125,-0.002057299017906189,0.0007823780179023743
1783151955620713000,8.275712890625,0.00189971923828125,-0.002221934497356415,0.0007037073373794556
1783151955630447900,8.28544775390625,-0.00047206878662109375,-0.0021559447050094604,-0.0016292780637741089
1783151955640152600,8.295152587890625,0.011300086975097656,-0.004446841776371002,0.003143623471260071
1783151955649857000,8.30485693359375,-0.010075569152832031,-0.0020456165075302124,0.005422376096248627
1783151955659561700,8.314561767578125,-0.00048542022705078125,0.004968829452991486,-0.004040777683258057
1783151955669297000,8.324296875,-0.005188941955566406,0.00719732791185379,-0.006293997168540955
1783151955679031800,8.33403173828125,-0.007457733154296875,-0.0000034123659133911133,0.012660965323448181
1783151955688736500,8.343736572265625,-0.0073337554931640625,-0.0023869499564170837,-0.008687712252140045
1783151955698441200,8.353441162109375,-0.004856109619140625,-0.0023757517337799072,-0.003797173500061035
1783151955708145700,8.363145751953125,-0.0047760009765625,-0.000009037554264068604,0.003293655812740326
1783151955717880800,8.372880859375,0.0000152587890625,-0.0023363307118415833,0.0008591115474700928
1783151955727585300,8.382585205078126,-0.0023393630981445312,0.011850692331790924,-0.001476570963859558
1783151955737290000,8.3922900390625,-0.002300262451171875,0.009268887341022491,-0.0014176219701766968
1783151955746994700,8.40199462890625,-0.00461578369140625,-0.012028038501739502,-0.0036443322896957397
1783151955756729600,8.4117294921875,0.000171661376953125,-0.00014967471361160278,-0.0012091249227523804
1783151955766434300,8.421434326171875,0.004864692687988281,0.00687563419342041,-0.0012128502130508423
1783151955776138800,8.431138671875,-0.0022687911987304688,-0.00026219338178634644,0.0011385083198547363
1783151955785843500,8.440843505859375,0.00012493133544921875,-0.007281757891178131,-0.0012600496411323547
1783151955795548200,8.450548095703125,0.00012302398681640625,0.011682681739330292,-0.0012622475624084473
1783151955805283000,8.460282958984376,-0.009302139282226562,-0.004958689212799072,0.012854054570198059
1783151955814987800,8.46998779296875,-0.016199111938476562,-0.014312438666820526,0.0009106472134590149
1783151955824692200,8.479692138671876,-0.0018091201782226562,0.002429187297821045,-0.0014252141118049622
1783151955834397000,8.48939697265625,0.00527191162109375,0.000004410743713378906,0.012693196535110474
1783151955844132000,8.499132080078125,-0.004223823547363281,0.00003259629011154175,0.003049887716770172
1783151955853836500,8.50883642578125,0.00055694580078125,-0.0070486366748809814,-0.006433308124542236
1783151955863541200,8.518541259765625,-0.00180816650390625,-0.011614397168159485,-0.0016535595059394836
1783151955873245700,8.52824560546875,-0.006489753723144531,-0.009036257863044739,-0.011058367788791656
1783151955882950400,8.537950439453125,-0.0016698837280273438,0.0052042677998542786,0.003280170261859894
1783151955892685600,8.547685546875,0.007765769958496094,-0.0019206181168556213,-0.0038512349128723145
1783151955902390000,8.55739013671875,-0.00412750244140625,0.002794213593006134,-0.0014120116829872131
1783151955912094700,8.5670947265625,0.002994537353515625,-0.0019348859786987305,-0.0036948397755622864
1783151955921799200,8.576799072265626,0.007656097412109375,0.00042447447776794434,0.005808882415294647
1783151955931534300,8.586534423828125,0.0051727294921875,0.0003887265920639038,-0.006016992032527924
1783151955941239000,8.596239013671875,0.0027294158935546875,-0.004415206611156464,0.0035254359245300293
1783151955950974000,8.605973876953126,-0.004367828369140625,0.002696804702281952,0.0011454224586486816
1783151955960678700,8.6156787109375,0.007468223571777344,0.002680733799934387,0.003457479178905487
1783151955970383400,8.62538330078125,0.0002918243408203125,-0.006742879748344421,0.0033752992749214172
1783151955980118300,8.6351181640625,0.004982948303222656,0.005161970853805542,-0.008469104766845703
1783151955989823000,8.644822998046875,0.0048999786376953125,0.0003941059112548828,0.01046241819858551
1783151955999527400,8.65452734375,0.0024614334106445312,0.00041641294956207275,-0.003896743059158325
1783151956009232100,8.664232177734375,-0.009341239929199219,-0.004216298460960388,0.0032553374767303467
1783151956018967300,8.67396728515625,-0.0021190643310546875,-0.00417540967464447,-0.0015342757105827332
1783151956028671700,8.683671630859376,-0.006794929504394531,-0.0017787069082260132,-0.010882169008255005
1783151956038376400,8.69337646484375,0.009793281555175781,0.0005773529410362244,0.008164845407009125
1783151956048081000,8.703080810546876,0.009629249572753906,0.0028366819024086,0.005708090960979462
1783151956057785600,8.71278564453125,-0.004650115966796875,0.007514677941799164,0.003232695162296295
1783151956067520800,8.722520751953125,-0.0022172927856445312,0.005020052194595337,-0.003838837146759033
1783151956077225200,8.73222509765625,0.0025167465209960938,0.01201736181974411,-0.0037405192852020264
1783151956086930000,8.741929931640625,-0.0022211074829101562,0.002438843250274658,0.012815393507480621
1783151956096634400,8.75163427734375,0.004866600036621094,0.002369605004787445,0.003169439733028412
1783151956106369500,8.76136962890625,0.0047855377197265625,0.018833987414836884,0.005447685718536377
1783151956116074200,8.77107421875,0.00000858306884765625,-0.0003398209810256958,0.0006216093897819519
1783151956125778700,8.78077880859375,0.007061004638671875,0.004347957670688629,0.0006462708115577698
1783151956135483400,8.7904833984375,-0.0024652481079101562,-0.00046450644731521606,-0.01350826770067215
1783151956145187800,8.800187744140626,-0.009490966796875,-0.005253523588180542,-0.0037706270813941956
1783151956154923000,8.809923095703125,-0.004622459411621094,-0.0028389468789100647,-0.0060881152749061584
1783151956164627700,8.819627685546875,0.0001659393310546875,0.004245482385158539,0.005812563002109528
1783151956174332200,8.829332275390625,0.009570121765136719,-0.0006234347820281982,-0.0013163983821868896
1783151956184036900,8.839036865234375,0.007054328918457031,0.004069067537784576,-0.0013183355331420898
1783151956193772000,8.84877197265625,-0.007182121276855469,-0.0030945390462875366,0.008160896599292755
1783151956203476500,8.8584765625,-0.0023508071899414062,-0.0007158517837524414,-0.003704287111759186
1783151956213181200,8.86818115234375,0.0000457763671875,-0.0006750449538230896,0.00114421546459198
1783151956222885600,8.8778857421875,0.004741668701171875,0.008715420961380005,0.003515183925628662
1783151956232620800,8.887620849609375,-0.01415252685546875,-0.0008656159043312073,0.012898169457912445
1783151956242356000,8.89735595703125,-0.0021533966064453125,0.0014765411615371704,0.00566486269235611
1783151956252060400,8.907060302734376,-0.009184837341308594,-0.0032306015491485596,-0.006217621266841888
1783151956261765000,8.91676513671875,-0.001964569091796875,0.0039185211062431335,0.0032699331641197205
1783151956271469600,8.926469482421876,-0.008999824523925781,0.001469627022743225,-0.0015211999416351318
1783151956281204700,8.936204833984375,-0.006495475769042969,-0.0009392425417900085,-0.010928288102149963
1783151956290909400,8.945909423828125,-0.004031181335449219,0.0014609768986701965,-0.003703601658344269
1783151956300614000,8.95561376953125,-0.00867462158203125,-0.005601614713668823,0.003444567322731018
1783151956310318600,8.965318603515625,0.007945060729980469,0.001587018370628357,0.0151267871260643
1783151956320023000,8.97502294921875,-0.0039520263671875,-0.0008244290947914124,-0.006320521235466003
1783151956329758200,8.98475830078125,-0.0038862228393554688,-0.0007810220122337341,-0.0038847923278808594
1783151956339463000,8.994462890625,-0.0014667510986328125,-0.0007965937256813049,-0.0015039071440696716
1783151956349167400,9.00416748046875,0.0056095123291015625,-0.0007551461458206177,0.0032086893916130066
1783151956358872000,9.0138720703125,-0.010958671569824219,0.006339110434055328,0.007841385900974274
1783151956368607200,9.023607177734375,0.0010023117065429688,0.006261713802814484,0.0029753372073173523
1783151956378311700,9.033311767578125,0.0009860992431640625,0.0014891177415847778,-0.001750648021697998
1783151956388016400,9.043016357421875,0.005665779113769531,0.0014357119798660278,-0.008739233016967773
1783151956397720800,9.052720947265625,0.003215789794921875,0.003738895058631897,0.0032042711973190308
1783151956407425500,9.062425537109375,0.000820159912109375,0.0012348294258117676,0.005482010543346405
1783151956417160700,9.07216064453125,-0.00390625,-0.0035258308053016663,-0.0017010942101478577
1783151956426865200,9.081865234375,0.0032100677490234375,0.003571450710296631,-0.004094019532203674
1783151956436569900,9.09156982421875,-0.006252288818359375,-0.010578416287899017,-0.004106365144252777
1783151956446274300,9.1012744140625,-0.0037937164306640625,-0.0057350024580955505,0.0005785822868347168
1783151956456009500,9.111009521484375,-0.0037317276000976562,0.008450411260128021,0.0005449876189231873
1783151956465714200,9.120714111328125,-0.0013151168823242188,-0.010534629225730896,-0.00418505072593689
1783151956475418600,9.130418701171875,-0.001293182373046875,-0.0009223818778991699,-0.0017991513013839722
1783151956485123300,9.140123291015625,-0.008339881896972656,-0.01505480706691742,0.005273394286632538
1783151956494827800,9.149827880859375,-0.0058460235595703125,-0.0007125735282897949,-0.0019068345427513123
1783151956504563000,9.15956298828125,-0.00103759765625,-0.005383141338825226,-0.004240386188030243
1783151956514267600,9.169267578125,0.00133514404296875,-0.005264557898044586,0.0005021393299102783
1783151956524002600,9.17900244140625,0.0036535263061523438,0.008971355855464935,0.002824842929840088
1783151956533707300,9.188707275390625,0.0012521743774414062,-0.007666662335395813,-0.0042400062084198
1783151956543442400,9.1984423828125,-0.008192062377929688,0.0041952431201934814,-0.006548993289470673
1783151956553147000,9.20814697265625,-0.0009889602661132812,-0.007724933326244354,-0.008819423615932465
1783151956572556000,9.22755615234375,0.0037393569946289062,0.006596103310585022,-0.008734047412872314
1783151956582260700,9.2372607421875,-0.0010204315185546875,-0.0077040791511535645,-0.0015020370483398438
1783151956591996000,9.246995849609375,0.003692626953125,-0.000552251935005188,0.0032688453793525696
1783151956601700400,9.256700439453125,0.005988121032714844,0.011248625814914703,-0.010869830846786499
1783151956611405000,9.266405029296875,0.0011930465698242188,0.006377905607223511,0.0011098533868789673
1783151956621109500,9.276109619140625,-0.0035371780395507812,0.003959774971008301,0.0011256933212280273
1783151956630844700,9.2858447265625,0.01769256591796875,0.0038658082485198975,-0.00361478328704834
1783151956640549400,9.29554931640625,-0.003772735595703125,0.0014745444059371948,-0.003520198166370392
1783151956650249200,9.305249267578125,0.0033426284790039062,-0.007928259670734406,0.008276745676994324
1783151956659953700,9.31495361328125,-0.017885208129882812,-0.003129012882709503,-0.006060309708118439
1783151956669658400,9.324658447265625,0.00124359130859375,-0.0030472949147224426,-0.005984537303447723
1783151956679393500,9.3343935546875,0.0129852294921875,0.0063826218247413635,0.0011426806449890137
1783151956689098000,9.344097900390626,-0.008418083190917969,0.003850206732749939,0.005868695676326752
1783151956698802700,9.353802734375,-0.003566741943359375,-0.005607910454273224,0.012798435986042023
1783151956718242300,9.3732421875,-0.0010156631469726562,0.006088122725486755,0.00788416713476181
1783151956727947000,9.382947021484375,0.0013570785522460938,0.0036173686385154724,0.0030756965279579163
1783151956737651500,9.3926513671875,-0.008088111877441406,-0.010533265769481659,0.012407690286636353
1783151956747356200,9.402356201171875,-0.005599021911621094,-0.0033348947763442993,-0.0019421949982643127
1783151956757060600,9.412060546875,-0.007861137390136719,0.003816664218902588,-0.00898648053407669
1783151956766795800,9.421795654296876,0.0016918182373046875,0.010834112763404846,0.005201682448387146
1783151956776500500,9.43150048828125,0.0016622543334960938,0.0012157484889030457,-0.004316024482250214
1783151956786205000,9.441204833984376,-0.00778961181640625,0.0011662021279335022,-0.0019272714853286743
1783151956795909600,9.45090966796875,-0.007660865783691406,0.0011174827814102173,0.0027923807501792908
1783151956805644800,9.460644775390625,0.004230499267578125,0.008121579885482788,-0.001930437982082367
1783151956815379700,9.470379638671876,0.004158973693847656,0.00560113787651062,-0.011330023407936096
1783151956825084400,9.48008447265625,0.0017480850219726562,-0.00398746132850647,-0.0016976967453956604
1783151956834788900,9.489788818359376,0.0017185211181640625,0.0008192658424377441,-0.011101759970188141
1783151956844493600,9.49949365234375,-0.007732391357421875,-0.0015219300985336304,-0.0014739111065864563
1783151956854228700,9.509228759765625,-0.0028924942016601562,-0.008577346801757812,0.0009407997131347656
1783151956863933200,9.51893310546875,-0.005200386047363281,0.0009441226720809937,-0.0013955682516098022
1783151956873638000,9.528637939453125,-0.002758026123046875,-0.0014559030532836914,0.0057291388511657715
1783151956883342300,9.53834228515625,-0.0027132034301757812,-0.006171628832817078,0.0008976981043815613
1783151956893077500,9.548077392578126,0.0020427703857421875,0.0033260732889175415,0.005512639880180359
1783151956902782200,9.5577822265625,-0.0027036666870117188,-0.0015268027782440186,-0.0016708970069885254
1783151956912486700,9.567486572265626,0.0020532608032226562,-0.01559099555015564,0.005398832261562347
1783151956922191400,9.57719140625,-0.00033664703369140625,-0.005951926112174988,-0.004064619541168213
1783151956931895800,9.586895751953126,0.004364013671875,0.003541499376296997,0.007742084562778473
1783151956941631000,9.596630859375,0.0019502639770507812,0.010505899786949158,-0.0017753168940544128
1783151956951335700,9.606335693359375,0.004258155822753906,-0.0014619901776313782,0.0006449893116950989
1783151956961040100,9.6160400390625,0.008898735046386719,-0.0014087557792663574,0.002965390682220459
1783151956970744800,9.625744873046875,0.00875091552734375,-0.015476323664188385,0.007662385702133179
1783151956980480000,9.63547998046875,-0.0031576156616210938,-0.0010702162981033325,0.0005020126700401306
1783151956990184400,9.645184326171876,0.001605987548828125,-0.008131667971611023,0.002882331609725952
1783151957009593600,9.664593505859376,-0.007792472839355469,0.003767058253288269,-0.006592266261577606
1783151957019298300,9.67429833984375,-0.012359619140625,0.00131998211145401,-0.0018105432391166687
1783151957029033500,9.684033447265625,-0.0003910064697265625,0.0012693032622337341,-0.004145696759223938
1783151957038738000,9.693738037109375,0.0019702911376953125,-0.008186839520931244,-0.00176180899143219
1783151957048442600,9.703442626953125,0.0019369125366210938,-0.008136428892612457,0.0006575882434844971
1783151957058147000,9.71314697265625,0.0019044876098632812,-0.005688712000846863,0.0006809607148170471
1783151957067882200,9.72288232421875,-0.005194664001464844,0.00855497270822525,-0.004052102565765381
1783151957077587000,9.7325869140625,0.011365890502929688,-0.0010807514190673828,0.0006866008043289185
1783151957087291400,9.74229150390625,-0.0005865097045898438,-0.005744576454162598,0.0030645206570625305
1783151957097026600,9.752026611328125,0.00177764892578125,0.015510216355323792,-0.004064641892910004
1783151957106731000,9.76173095703125,-0.017083168029785156,0.005801014602184296,-0.00407814234495163
1783151957116466200,9.771466064453126,0.0020322799682617188,-0.0036738216876983643,-0.004035480320453644
1783151957126171000,9.7811708984375,0.009050369262695312,0.0011283829808235168,-0.001652747392654419
1783151957135875300,9.790875244140626,-0.0075740814208984375,-0.005928665399551392,-0.0015908628702163696
1783151957145580000,9.800580078125,-0.0027370452880859375,-0.0058584436774253845,-0.0015888959169387817
1783151957155315200,9.810315185546875,-0.0026912689208984375,-0.012841582298278809,-0.0015279725193977356
1783151957165019600,9.82001953125,-0.005001068115234375,-0.0031908825039863586,0.007954634726047516
1783151957174724400,9.829724365234375,0.0092010498046875,-0.003166988492012024,0.003145664930343628
1783151957184428800,9.8394287109375,0.001995086669921875,-0.010195590555667877,0.0007136613130569458
1783151957203868700,9.85886865234375,-0.00745391845703125,-0.000528194010257721,0.0030354559421539307
1783151957213573000,9.868572998046876,-0.00261688232421875,-0.007542625069618225,0.0006634965538978577
1783151957223277800,9.87827783203125,-0.000217437744140625,0.011428259313106537,0.0006272047758102417
1783151957232982300,9.887982177734376,-0.00021266937255859375,-0.0004961565136909485,0.0006504058837890625
1783151957242717400,9.897717529296875,0.004487037658691406,0.004252471029758453,0.0006149336695671082
1783151957252422100,9.907422119140625,-0.00028514862060546875,-0.0005590915679931641,0.0076479241251945496
1783151957262126600,9.917126708984375,-0.004990577697753906,-0.0052897632122039795,0.0005436986684799194
1783151957271831300,9.926831298828125,0.004500389099121094,0.0018943771719932556,-0.004186317324638367
1783151957281535700,9.93653564453125,0.004426002502441406,0.008943773806095123,-0.0017415136098861694
1783151957291271000,9.94627099609375,0.009062767028808594,-0.0006410703063011169,0.0006178990006446838
1783151957300975600,9.9559755859375,-0.007564544677734375,-0.0053696781396865845,0.0005823671817779541
1783151957310680000,9.96568017578125,-0.005084037780761719,0.006454735994338989,0.0029038116335868835
1783151957320384800,9.975384765625,0.0044097900390625,0.0016796216368675232,-0.006518058478832245
1783151957330119700,9.98511962890625,-0.009783744812011719,0.0016229525208473206,-0.011145457625389099
1783151957339824400,9.994824462890625,-0.0025539398193359375,-0.005499795079231262,-0.0038582608103752136
1783151957349529000,10.004529052734375,0.006896018981933594,-0.00308101624250412,-0.0014189258217811584
1783151957359233500,10.014233642578125,0.0020856857299804688,-0.007696494460105896,-0.003702320158481598
1783151957368938200,10.023938232421875,-0.009726524353027344,-0.012193314731121063,-0.006020866334438324
1783151957378673200,10.033673095703126,-0.0024976730346679688,0.004514485597610474,0.001106269657611847
1783151957388408300,10.043408203125,-0.0001010894775390625,0.004468910396099091,0.005717739462852478
1783151957398113000,10.053113037109375,-0.0024547576904296875,-0.00028740614652633667,-0.00616629421710968
1783151957407817500,10.0628173828125,-0.011821746826171875,-0.0049637481570243835,0.0033183693885803223
1783151957417552600,10.072552734375,-0.006928443908691406,-0.009548462927341461,0.010290533304214478
1783151957427257300,10.08225732421875,0.0026102066040039062,0.00004734843969345093,-0.00636543333530426
1783151957436961800,10.0919619140625,-0.0021457672119140625,-0.0046359822154045105,0.0007122009992599487
1783151957446666500,10.10166650390625,-0.0021104812622070312,-0.006869852542877197,-0.011144429445266724
1783151957456371000,10.111370849609376,-0.004431724548339844,0.0026231706142425537,-0.003915451467037201
1783151957466106000,10.121106201171875,0.0027093887329101562,0.00025200098752975464,-0.0038741379976272583
1783151957475810800,10.130810791015625,-0.009115219116210938,-0.006832882761955261,0.0032179802656173706
1783151957485515300,10.140515380859375,-0.004252433776855469,0.002602778375148773,-0.003912307322025299
1783151957495220000,10.150219970703125,-0.0041828155517578125,0.00011766701936721802,0.0032393336296081543
1783151957504955000,10.159954833984376,-0.0064697265625,-0.00226796418428421,0.005515731871128082
1783151957514659600,10.16965966796875,0.007756233215332031,-0.002316191792488098,-0.011075660586357117
1783151957524364300,10.1793642578125,0.0005750656127929688,0.011813044548034668,0.0032624751329421997
1783151957534068700,10.18906884765625,0.009972572326660156,-0.0025316327810287476,-0.0038685575127601624
1783151957543773400,10.1987734375,0.007450103759765625,-0.00016231834888458252,0.005579173564910889
1783151957553508400,10.20850830078125,-0.0044384002685546875,-0.00724039226770401,-0.008657656610012054
1783151957563213000,10.218213134765625,-0.004364013671875,0.009369060397148132,-0.0014858096837997437
1783151957572917800,10.227917724609375,-0.0019369125366210938,-0.0025791823863983154,0.012633614242076874
1783151957582622200,10.237622314453125,0.007502555847167969,-0.0002097785472869873,0.0053470805287361145
1783151957592357400,10.247357421875,0.0026798248291015625,-0.002590663731098175,-0.004174478352069855
1783151957602061800,10.257061767578126,-0.0067882537841796875,-0.004932470619678497,0.0005676299333572388
1783151957611766500,10.2667666015625,-0.004319190979003906,-0.00010999292135238647,-0.0065184831619262695
1783151957631175700,10.28617578125,-0.00908660888671875,-0.004913724958896637,-0.00886419415473938
1783151957640910800,10.295910888671875,-0.011277198791503906,-0.0025055035948753357,-0.00402899831533432
1783151957650615300,10.305615234375,0.0030298233032226562,0.002275824546813965,0.007777787744998932
1783151957660320000,10.315320068359375,0.005320549011230469,-0.00719849020242691,-0.004025012254714966
1783151957670055200,10.32505517578125,0.0052318572998046875,0.004656314849853516,0.005484320223331451
1783151957679790300,10.334790283203125,0.019263267517089844,-0.0001613721251487732,-0.001698821783065796
1783151957689494800,10.344494873046875,0.000125885009765625,-0.00018656998872756958,-0.011159554123878479
1783151957699199500,10.354199462890625,0.00247955322265625,0.004557505249977112,0.0007647126913070679
1783151957708904000,10.363904052734375,-0.006984710693359375,-0.009666241705417633,0.0031419992446899414
1783151957718608600,10.373608642578125,-0.004512786865234375,-0.0001259148120880127,0.003123961389064789
1783151957728343600,10.383343505859376,0.0026292800903320312,0.004615843296051025,0.007759355008602142
1783151957738048300,10.39304833984375,-0.004482269287109375,-0.0025567784905433655,0.002894073724746704
1783151957747753000,10.4027529296875,-0.004408836364746094,0.004466913640499115,-0.0018901154398918152
1783151957757457400,10.41245751953125,-0.03962516784667969,-0.009697884321212769,-0.004164978861808777
1783151957767192600,10.422192626953125,0.029244422912597656,0.05333087593317032,-0.01653323322534561
1783151957776897000,10.43189697265625,0.08287715911865234,0.026646308600902557,0.016552038490772247
1783151957786601700,10.441601806640625,-0.1255502700805664,-0.0908423587679863,-0.011239148676395416
1783151957796306400,10.451306396484375,0.08830547332763672,0.0114736407995224,0.04022953659296036
1783151957806011000,10.461010986328125,-0.02373981475830078,-0.04716227203607559,-0.0024188756942749023
1783151957815746000,10.47074609375,-0.035124778747558594,0.026472829282283783,-0.014221511781215668
1783151957825450500,10.480450439453126,0.03134441375732422,0.030713744461536407,-0.014008358120918274
1783151957835155200,10.4901552734375,0.0002422332763671875,0.02075045555830002,-0.016155138611793518
1783151957844860000,10.49985986328125,0.0049343109130859375,-0.01721205562353134,-0.008844010531902313
1783151957854594800,10.5095947265625,-0.0045566558837890625,-0.024005264043807983,-0.001726008951663971
1783151957864299500,10.519299560546875,-0.025650978088378906,-0.009514547884464264,0.0007488057017326355
1783151957874004000,10.52900390625,0.01947307586669922,-0.02120620757341385,0.014775663614273071
1783151957883708700,10.538708740234375,-0.0020236968994140625,-0.00682029128074646,0.005097724497318268
1783151957893413400,10.548413330078125,-0.0019931793212890625,-0.00920579582452774,0.002576500177383423
1783151957903148300,10.558148193359376,0.014513969421386719,-0.0020289346575737,-0.006955064833164215
1783151957912853000,10.56785302734375,-0.013966560363769531,0.007384099066257477,-0.01622762531042099
1783151957922557400,10.577557373046876,0.009792327880859375,0.007174298167228699,-0.006499342620372772
1783151957932262100,10.58726220703125,-0.0021352767944335938,0.0187465101480484,-0.008711710572242737
1783151957941997300,10.596997314453125,0.0026111602783203125,0.0042868852615356445,0.0031154975295066833
1783151957951732200,10.606732177734376,0.0002117156982421875,-0.00046630948781967163,0.017157472670078278
1783151957961437000,10.61643701171875,0.009614944458007812,0.011220335960388184,0.009837374091148376
1783151957971141600,10.6261416015625,0.00004673004150390625,0.01807185262441635,-0.0020557567477226257
1783151957980846000,10.63584619140625,0.004742622375488281,0.00837671011686325,-0.009098149836063385
1783151958000285700,10.65528564453125,-0.0001125335693359375,0.01726977527141571,-0.0019285976886749268
1783151958009990400,10.664990478515625,0.00458526611328125,0.009944401681423187,0.007445119321346283
1783151958019695000,10.674695068359375,-0.0001888275146484375,-0.006666690111160278,-0.009235113859176636
1783151958029430000,10.684429931640626,-0.000186920166015625,-0.008926354348659515,0.00501473993062973
1783151958039134700,10.694134765625,0.006869316101074219,-0.006407320499420166,-0.006798684597015381
1783151958048839200,10.703839111328126,0.0020589828491210938,-0.010967373847961426,0.0004003942012786865
1783151958058543900,10.7135439453125,0.009076118469238281,-0.006058618426322937,0.014431692659854889
1783151958068248600,10.72324853515625,0.011280059814453125,-0.005986921489238739,0.0023477599024772644
1783151958077983500,10.7329833984375,0.006381034851074219,-0.01526668667793274,-0.014190234243869781
1783151958087688200,10.742688232421875,-0.005488395690917969,-0.0008641630411148071,0.0048523396253585815
1783151958097392600,10.752392578125,-0.0006866455078125,-0.017411410808563232,0.00003618746995925903
1783151958107097300,10.762097412109375,-0.005387306213378906,-0.010140150785446167,-0.002285778522491455
1783151958116832500,10.77183251953125,0.0041103363037109375,-0.01706623286008835,0.007208891212940216
1783151958126537000,10.781536865234376,0.011110305786132812,-0.009741879999637604,0.007177732884883881
1783151958136241700,10.79124169921875,-0.0008373260498046875,-0.00491100549697876,0.0024363696575164795
1783151958145946000,10.800946044921876,-0.000823974609375,-0.00020240247249603271,0.0024287328124046326
1783151958155650800,10.81065087890625,-0.000812530517578125,-0.0026975274085998535,-0.004689082503318787
1783151958165386000,10.820385986328125,-0.014920234680175781,0.008967697620391846,-0.006991945207118988
1783151958175090400,10.83009033203125,0.013566017150878906,0.013444304466247559,-0.004544943571090698
1783151958184795100,10.839795166015625,0.013339042663574219,0.02254199981689453,0.0026172474026679993
1783151958194499600,10.84949951171875,0.0013532638549804688,0.008018501102924347,-0.004444137215614319
1783151958204234800,10.85923486328125,0.00366973876953125,0.0172213613986969,0.004956915974617004
1783151958213939500,10.868939453125,0.0036077499389648438,0.002844691276550293,-0.006970450282096863
1783151958223644000,10.878643798828126,0.008259773254394531,0.000527895987033844,-0.009234532713890076
1783151958233348600,10.8883486328125,-0.0012845993041992188,0.005301125347614288,-0.00205240398645401
1783151958243083800,10.898083740234375,0.010499000549316406,-0.004224412143230438,0.00025735795497894287
1783151958252818700,10.907818603515626,0.0032567977905273438,-0.004124350845813751,0.009635567665100098
1783151958262523400,10.9175234375,0.007914543151855469,-0.008665688335895538,0.004754021763801575
1783151958272227800,10.927227783203126,-0.0063343048095703125,-0.006093539297580719,0.009404852986335754
1783151958281932500,10.9369326171875,-0.006228446960449219,-0.010660208761692047,0.004527829587459564
1783151958291667700,10.946667724609375,-0.013176918029785156,-0.017520688474178314,0.006783440709114075
1783151958301372200,10.9563720703125,-0.008260726928710938,-0.012546554207801819,0.009046092629432678
1783151958311076900,10.966076904296875,-0.0034112930297851562,-0.024130240082740784,0.00893034040927887
1783151958320781300,10.97578125,-0.0009984970092773438,-0.01670525223016739,-0.0005912855267524719
1783151958330486000,10.985486083984375,-0.005694389343261719,-0.007033303380012512,-0.002961002290248871
1783151958349925600,11.004925537109376,-0.0032320022583007812,-0.000171661376953125,-0.0006550401449203491
1783151958359630300,11.01463037109375,0.0038728713989257812,0.009152963757514954,-0.002965487539768219
1783151958369334800,11.024334716796876,-0.0055999755859375,0.0018055140972137451,-0.005223102867603302
1783151958379070000,11.034070068359375,-0.0007963180541992188,0.022861815989017487,0.0018900558352470398
1783151958388774700,11.043774658203125,0.010981559753417969,0.006034739315509796,-0.0075149089097976685
1783151958398479000,11.05347900390625,-0.005677223205566406,0.022323034703731537,0.0043492987751960754
1783151958408183800,11.063183837890625,-0.007939338684082031,0.010101430118083954,-0.005155548453330994
1783151958417888300,11.07288818359375,0.003955841064453125,0.009961940348148346,0.013665422797203064
1783151958427623400,11.08262353515625,0.006245613098144531,0.012179866433143616,-0.014824718236923218
1783151958437328100,11.092328125,-0.005621910095214844,0.014418192207813263,-0.007590435445308685
1783151958447032600,11.102032470703126,0.0015401840209960938,0.016619913280010223,0.004275031387805939
1783151958456737300,11.1117373046875,0.006211280822753906,-0.00010313093662261963,0.001823529601097107
1783151958476177000,11.131177001953125,-0.005755424499511719,-0.02789347618818283,0.008943542838096619
1783151958485881600,11.140881591796875,-0.008014678955078125,-0.013223052024841309,0.011125639081001282
1783151958495586000,11.1505859375,0.0015420913696289062,-0.020042985677719116,0.008561983704566956
1783151958505290800,11.160290771484375,-0.010264396667480469,-0.005676455795764923,-0.003424122929573059
1783151958515026000,11.17002587890625,-0.00067138671875,-0.005611218512058258,0.003676101565361023
1783151958524760800,11.1797607421875,-0.0053730010986328125,-0.0031906738877296448,0.0011783093214035034
1783151958534465500,11.189465576171875,0.004123687744140625,-0.01027495414018631,0.0035480335354804993
1783151958544170000,11.199169921875,0.0017137527465820312,-0.024308957159519196,-0.003602758049964905
1783151958553874700,11.208874755859375,0.008736610412597656,-0.0192941352725029,0.012967213988304138
1783151958563609900,11.21860986328125,-0.0055294036865234375,-0.004939667880535126,0.0010220259428024292
1783151958573314300,11.228314208984376,-0.003082275390625,0.013829097151756287,0.0010400116443634033
1783151958583019000,11.23801904296875,0.02049541473388672,0.0275743305683136,-0.013062193989753723
1783151958592723500,11.247723388671876,-0.001018524169921875,0.02237476408481598,-0.005801931023597717
1783151958602458600,11.257458740234375,-0.00335693359375,0.02674221247434616,-0.0010334625840187073
1783151958612163300,11.267163330078125,0.006106376647949219,0.021556518971920013,-0.008034005761146545
1783151958621867800,11.27686767578125,0.00600433349609375,0.011760853230953217,-0.0008136630058288574
1783151958631572500,11.286572509765625,-0.0035028457641601562,0.009295456111431122,-0.005521051585674286
1783151958641307600,11.2963076171875,0.010674476623535156,0.0021173804998397827,0.006309844553470612
1783151958651012000,11.30601220703125,0.003429412841796875,0.004451654851436615,-0.019702591001987457
1783151958660716800,11.315716796875,0.0010318756103515625,-0.0096992626786232,-0.0123453289270401
1783151958670421200,11.325421142578126,-0.0013399124145507812,-0.007110588252544403,-0.0027563199400901794
1783151958680126000,11.3351259765625,-0.003673553466796875,-0.004607506096363068,0.0019764751195907593
1783151958689861000,11.344861083984375,-0.0036115646362304688,-0.004444822669029236,0.006630979478359222
1783151958699565600,11.354565673828125,-0.0035505294799804688,-0.013750381767749786,0.011251874268054962
1783151958709270300,11.364270263671875,-0.012898445129394531,-0.008781634271144867,-0.000664152204990387
1783151958718974700,11.373974609375,-0.012681961059570312,-0.020326770842075348,0.004091985523700714
1783151958728710000,11.3837099609375,-0.000705718994140625,-0.012834295630455017,0.006354853510856628
1783151958738414600,11.39341455078125,-0.005405426025390625,-0.017303623259067535,-0.0031977519392967224
1783151958748119000,11.403119140625,-0.005316734313964844,-0.007735908031463623,-0.005394801497459412
1783151958757823700,11.41282373046875,-0.012281417846679688,0.0017154812812805176,-0.007626935839653015
1783151958767528200,11.422528076171876,0.004382133483886719,-0.005465567111968994,-0.005110457539558411
1783151958777263400,11.432263427734375,-0.0050983428955078125,-0.003046751022338867,0.009112685918807983
1783151958786968000,11.441968017578125,-0.0026578903198242188,0.0016287043690681458,0.004355430603027344
1783151958796672500,11.451672607421875,0.00209808349609375,0.010980777442455292,-0.01686915010213852
1783151958806377200,11.461377197265625,0.0020627975463867188,0.010769873857498169,-0.009487234055995941
1783151958816112000,11.471112060546876,-0.007393836975097656,0.01768714189529419,-0.009295344352722168
1783151958825847300,11.480847412109375,0.0021543502807617188,0.01276823878288269,-0.011462360620498657
1783151958835552000,11.490552001953125,0.018579483032226562,0.019693851470947266,0.00046763569116592407
1783151958845256400,11.50025634765625,0.0018100738525390625,0.007630974054336548,-0.00661681592464447
1783151958854961200,11.509961181640625,-0.009998321533203125,0.009889066219329834,0.005231745541095734
1783151958864696300,11.5196962890625,-0.005120277404785156,0.0003453940153121948,0.007475621998310089
1783151958874400800,11.52940087890625,0.011440277099609375,-0.0019871965050697327,0.0026150718331336975
1783151958884105500,11.53910546875,-0.0005140304565429688,-0.008977316319942474,0.00959903746843338
1783151958893810000,11.548809814453126,-0.007571220397949219,-0.0040456801652908325,0.000007368624210357666
1783151958903545000,11.558545166015625,-0.012142181396484375,-0.015771836042404175,0.006994888186454773
1783151958913249800,11.568249755859375,-0.007243156433105469,-0.010769397020339966,0.00449872761964798
1783151958922954200,11.577954345703125,-0.004767417907714844,-0.02004130929708481,-0.0003122091293334961
1783151958932659000,11.587658935546875,-0.007042884826660156,-0.019678421318531036,0.01620224118232727
1783151958942363400,11.59736328125,0.0024967193603515625,-0.00760052353143692,0.004144147038459778
1783151958952098600,11.6070986328125,-0.011664390563964844,-0.007444895803928375,-0.005357362329959869
1783151958961803300,11.61680322265625,0.004990577697753906,-0.004951260983943939,0.006529770791530609
1783151958971507700,11.6265078125,0.011973381042480469,-0.00024336576461791992,0.0017438679933547974
1783151958981212400,11.63621240234375,0.0047054290771484375,0.009025707840919495,-0.002962954342365265
1783151958990947300,11.645947265625,-0.0000705718994140625,0.0064915940165519714,-0.0005831792950630188
1783151959000652000,11.655652099609375,0.004627227783203125,0.0157783180475235,0.004171602427959442
1783151959010356700,11.665356689453125,0.0069065093994140625,0.008419647812843323,-0.0028746798634529114
1783151959020061200,11.675061279296875,0.0020961761474609375,0.013019591569900513,-0.005133137106895447
1783151959029766000,11.684765869140625,-0.002651214599609375,0.01277470588684082,-0.0003764107823371887
1783151959039500800,11.694500732421876,-0.004963874816894531,0.005466006696224213,-0.005091167986392975
1783151959049205500,11.70420556640625,0.0021848678588867188,0.012412041425704956,-0.0026888176798820496
