time,seconds_elapsed,z,y,x
1783169465211043600,0.097043701171875,-0.8318634033203125,-0.5271759033203125,0.04931640625
1783169465220991500,0.106991455078125,-0.8346099853515625,-0.523345947265625,0.0473480224609375
1783169465230941000,0.11694091796875,-0.8384246826171875,-0.51983642578125,0.04656982421875
1783169465240889900,0.126889892578125,-0.8474273681640625,-0.5178680419921875,0.04656982421875
1783169465250868700,0.13686865234375,-0.849945068359375,-0.51556396484375,0.048126220703125
1783169465260817700,0.146817626953125,-0.8425750732421875,-0.5082244873046875,0.05145263671875
1783169465270765800,0.156765869140625,-0.84613037109375,-0.499053955078125,0.055419921875
1783169465280745700,0.166745849609375,-0.8526458740234375,-0.498443603515625,0.0581512451171875
1783169465290693600,0.176693603515625,-0.854156494140625,-0.5010223388671875,0.05816650390625
1783169465300642800,0.186642822265625,-0.855560302734375,-0.4988861083984375,0.0552215576171875
1783169465310591700,0.196591796875,-0.8615264892578125,-0.4975738525390625,0.049407958984375
1783169465320570600,0.206570556640625,-0.858612060546875,-0.4974365234375,0.0467376708984375
1783169465330519600,0.21651953125,-0.850433349609375,-0.4960174560546875,0.0439300537109375
1783169465340468700,0.22646875,-0.8490142822265625,-0.4957427978515625,0.03839111328125
1783169465350416600,0.236416748046875,-0.8480072021484375,-0.4977874755859375,0.03985595703125
1783169465360396500,0.246396484375,-0.8457489013671875,-0.5041351318359375,0.04400634765625
1783169465370344700,0.2563447265625,-0.8446502685546875,-0.508026123046875,0.04595947265625
1783169465380293600,0.266293701171875,-0.841339111328125,-0.508087158203125,0.04534912109375
1783169465390272500,0.2762724609375,-0.8329620361328125,-0.5069732666015625,0.043060302734375
1783169465400222000,0.286221923828125,-0.8311004638671875,-0.50579833984375,0.0429534912109375
1783169465410171000,0.2961708984375,-0.829193115234375,-0.5070343017578125,0.046539306640625
1783169465420118800,0.306118896484375,-0.83135986328125,-0.507415771484375,0.0518341064453125
1783169465430098700,0.3160986328125,-0.8398284912109375,-0.5083770751953125,0.0540771484375
1783169465440046800,0.326046875,-0.8430023193359375,-0.5074310302734375,0.0550384521484375
1783169465449995800,0.335995849609375,-0.849273681640625,-0.5034332275390625,0.057861328125
1783169465459944700,0.34594482421875,-0.851959228515625,-0.5022735595703125,0.0587158203125
1783169465469923800,0.355923828125,-0.8557891845703125,-0.5014495849609375,0.05999755859375
1783169465479872800,0.365872802734375,-0.863494873046875,-0.5016021728515625,0.06256103515625
1783169465489821700,0.37582177734375,-0.86383056640625,-0.503265380859375,0.062957763671875
1783169465499800600,0.385800537109375,-0.86419677734375,-0.503448486328125,0.0650177001953125
1783169465509749800,0.395749755859375,-0.86602783203125,-0.502044677734375,0.0667266845703125
1783169465519697700,0.40569775390625,-0.870452880859375,-0.5009918212890625,0.06927490234375
1783169465529646600,0.415646484375,-0.8700714111328125,-0.5015716552734375,0.0716400146484375
1783169465539625700,0.425625732421875,-0.8645782470703125,-0.500640869140625,0.0715179443359375
1783169465549574700,0.43557470703125,-0.8646240234375,-0.4984130859375,0.0699310302734375
1783169465559523800,0.44552392578125,-0.8640899658203125,-0.5008087158203125,0.0677490234375
1783169465569471500,0.455471435546875,-0.8626708984375,-0.503326416015625,0.0684814453125
1783169465579452000,0.465451904296875,-0.8582305908203125,-0.5013885498046875,0.068389892578125
1783169465589399800,0.47539990234375,-0.8512115478515625,-0.4970550537109375,0.0657958984375
1783169465599348700,0.4853486328125,-0.8487701416015625,-0.496917724609375,0.0648193359375
1783169465609327900,0.495327880859375,-0.849578857421875,-0.499176025390625,0.06591796875
1783169465619276800,0.50527685546875,-0.844940185546875,-0.50067138671875,0.066192626953125
1783169465629225700,0.515225830078125,-0.838043212890625,-0.4997406005859375,0.0633087158203125
1783169465639174700,0.525174560546875,-0.8336944580078125,-0.4962005615234375,0.0612030029296875
1783169465649153800,0.53515380859375,-0.829559326171875,-0.496917724609375,0.0619354248046875
1783169465659102700,0.545102783203125,-0.8289031982421875,-0.4964752197265625,0.061676025390625
1783169465669050600,0.555050537109375,-0.8332061767578125,-0.4949493408203125,0.059783935546875
1783169465679030800,0.56503076171875,-0.838104248046875,-0.495391845703125,0.057647705078125
1783169465688978700,0.574978759765625,-0.841644287109375,-0.4932861328125,0.0553741455078125
1783169465698927600,0.584927734375,-0.839691162109375,-0.4872589111328125,0.05133056640625
1783169465708876500,0.59487646484375,-0.8409423828125,-0.484649658203125,0.050018310546875
1783169465718855700,0.604855712890625,-0.8452911376953125,-0.4906005859375,0.0559234619140625
1783169465728804600,0.6148046875,-0.8400421142578125,-0.498565673828125,0.05828857421875
1783169465738752500,0.62475244140625,-0.8375396728515625,-0.499267578125,0.05914306640625
1783169465748701700,0.63470166015625,-0.8404998779296875,-0.4989166259765625,0.058624267578125
1783169465758680800,0.644680908203125,-0.845428466796875,-0.502838134765625,0.0566253662109375
1783169465768629800,0.654629638671875,-0.849365234375,-0.50909423828125,0.0564117431640625
1783169465778578700,0.66457861328125,-0.843109130859375,-0.5048828125,0.0545196533203125
1783169465788557800,0.674557861328125,-0.8513946533203125,-0.49468994140625,0.0452728271484375
1783169465798506800,0.6845068359375,-0.8642425537109375,-0.49591064453125,0.0373687744140625
1783169465808455700,0.69445556640625,-0.8604888916015625,-0.5005340576171875,0.0354766845703125
1783169465818403800,0.70440380859375,-0.862396240234375,-0.496368408203125,0.037200927734375
1783169465828383700,0.7143837890625,-0.86895751953125,-0.494171142578125,0.04095458984375
1783169465838331600,0.72433154296875,-0.86676025390625,-0.4982147216796875,0.0424346923828125
1783169465848280600,0.734280517578125,-0.8637237548828125,-0.5018463134765625,0.0443115234375
1783169465858229800,0.744229736328125,-0.858734130859375,-0.50177001953125,0.045074462890625
1783169465868208600,0.754208740234375,-0.851715087890625,-0.4994659423828125,0.04620361328125
1783169465878157600,0.764157470703125,-0.854034423828125,-0.4989471435546875,0.0460968017578125
1783169465888105700,0.774105712890625,-0.8599395751953125,-0.5023345947265625,0.04754638671875
1783169465898085600,0.784085693359375,-0.8593902587890625,-0.5044403076171875,0.047393798828125
1783169465908033500,0.794033447265625,-0.8628082275390625,-0.498931884765625,0.046234130859375
1783169465917982700,0.803982666015625,-0.86517333984375,-0.496185302734375,0.0450592041015625
1783169465927932000,0.813931884765625,-0.862152099609375,-0.49481201171875,0.043670654296875
1783169465937910800,0.823910888671875,-0.8627166748046875,-0.4891815185546875,0.043853759765625
1783169465947859700,0.833859619140625,-0.8662872314453125,-0.4859161376953125,0.0436553955078125
1783169465957808600,0.84380859375,-0.8674774169921875,-0.4868316650390625,0.0443115234375
1783169465967756800,0.8537568359375,-0.8719940185546875,-0.4842987060546875,0.0442047119140625
1783169465977736700,0.86373681640625,-0.86932373046875,-0.4825592041015625,0.045654296875
1783169465987684600,0.8736845703125,-0.87188720703125,-0.4810333251953125,0.0484771728515625
1783169465997633800,0.8836337890625,-0.878021240234375,-0.4828643798828125,0.0507965087890625
1783169466007612700,0.89361279296875,-0.874053955078125,-0.4870758056640625,0.0518341064453125
1783169466017561600,0.9035615234375,-0.8744049072265625,-0.4863433837890625,0.05316162109375
1783169466027510500,0.913510498046875,-0.87628173828125,-0.4856109619140625,0.052490234375
1783169466037459700,0.923459716796875,-0.874603271484375,-0.488372802734375,0.050018310546875
1783169466047438600,0.9334384765625,-0.8738250732421875,-0.4897003173828125,0.048095703125
1783169466057386800,0.94338671875,-0.8715362548828125,-0.488067626953125,0.04876708984375
1783169466067335700,0.953335693359375,-0.8712615966796875,-0.4890289306640625,0.0485076904296875
1783169466077284900,0.963284912109375,-0.868560791015625,-0.491180419921875,0.0471343994140625
1783169466087263700,0.973263671875,-0.868804931640625,-0.491180419921875,0.047760009765625
1783169466097212700,0.983212646484375,-0.868133544921875,-0.4916229248046875,0.0513763427734375
1783169466107161900,0.993161865234375,-0.8670654296875,-0.493896484375,0.0543670654296875
1783169466117140700,1.003140625,-0.8605499267578125,-0.49261474609375,0.05328369140625
1783169466127089700,1.013089599609375,-0.855743408203125,-0.4876251220703125,0.0516357421875
1783169466137037800,1.023037841796875,-0.859100341796875,-0.48651123046875,0.0517120361328125
1783169466147012400,1.033012451171875,-0.8621978759765625,-0.48736572265625,0.05206298828125
1783169466156991200,1.0429912109375,-0.86126708984375,-0.487823486328125,0.04974365234375
1783169466166940400,1.0529404296875,-0.85675048828125,-0.4835662841796875,0.047027587890625
1783169466176889300,1.062889404296875,-0.8585357666015625,-0.4817047119140625,0.049774169921875
1783169466186838300,1.07283837890625,-0.8598785400390625,-0.4875640869140625,0.05328369140625
1783169466196817400,1.0828173828125,-0.8630828857421875,-0.4908447265625,0.0550994873046875
1783169466206766300,1.092766357421875,-0.8633575439453125,-0.48785400390625,0.0525665283203125
1783169466216714500,1.102714599609375,-0.854217529296875,-0.480865478515625,0.050994873046875
1783169466226694400,1.1126943359375,-0.8556060791015625,-0.4790496826171875,0.053619384765625
1783169466236642300,1.122642333984375,-0.86181640625,-0.4837646484375,0.0561370849609375
1783169466246591200,1.13259130859375,-0.8600616455078125,-0.48614501953125,0.0575714111328125
1783169466256540400,1.14254052734375,-0.858673095703125,-0.4856109619140625,0.059906005859375
1783169466266519300,1.152519287109375,-0.8586578369140625,-0.4837646484375,0.0621185302734375
1783169466276468200,1.16246826171875,-0.862579345703125,-0.4857177734375,0.0622406005859375
1783169466286416400,1.17241650390625,-0.85955810546875,-0.49017333984375,0.059173583984375
1783169466296365300,1.182365234375,-0.8525848388671875,-0.489227294921875,0.05731201171875
1783169466306344200,1.19234423828125,-0.8511199951171875,-0.48614501953125,0.0590972900390625
1783169466316293000,1.202293212890625,-0.8536834716796875,-0.487030029296875,0.059051513671875
1783169466326242600,1.21224267578125,-0.8525238037109375,-0.4900054931640625,0.056671142578125
1783169466336221200,1.22222119140625,-0.8491363525390625,-0.487945556640625,0.0540313720703125
1783169466346170400,1.23217041015625,-0.850067138671875,-0.4834442138671875,0.0519256591796875
1783169466356119300,1.242119384765625,-0.8564300537109375,-0.48455810546875,0.0531463623046875
1783169466366067500,1.2520673828125,-0.858978271484375,-0.4918212890625,0.0522918701171875
1783169466376047400,1.26204736328125,-0.86114501953125,-0.4903106689453125,0.0515899658203125
1783169466385995300,1.271995361328125,-0.8683319091796875,-0.4862823486328125,0.0519256591796875
1783169466395944400,1.2819443359375,-0.8726654052734375,-0.486297607421875,0.0526885986328125
1783169466405893400,1.291893310546875,-0.87249755859375,-0.48944091796875,0.0497283935546875
1783169466415872300,1.301872314453125,-0.873504638671875,-0.489532470703125,0.045623779296875
1783169466425821200,1.3118212890625,-0.8766937255859375,-0.488525390625,0.0411376953125
1783169466435769300,1.321769287109375,-0.87164306640625,-0.490203857421875,0.040740966796875
1783169466445749200,1.331749267578125,-0.865478515625,-0.4889068603515625,0.04681396484375
1783169466455697400,1.341697509765625,-0.8636932373046875,-0.4874114990234375,0.0509490966796875
1783169466465646300,1.351646240234375,-0.8582611083984375,-0.4909210205078125,0.050079345703125
1783169466475595300,1.36159521484375,-0.8545074462890625,-0.494537353515625,0.0485076904296875
1783169466485574100,1.37157421875,-0.8538665771484375,-0.4959564208984375,0.0490570068359375
1783169466495523300,1.3815234375,-0.85211181640625,-0.4979248046875,0.0477447509765625
1783169466505472500,1.391472412109375,-0.854827880859375,-0.4986114501953125,0.0448150634765625
1783169466515420400,1.40142041015625,-0.8563995361328125,-0.49945068359375,0.041778564453125
1783169466525400300,1.411400390625,-0.8535003662109375,-0.4989166259765625,0.0408172607421875
1783169466535348500,1.421348388671875,-0.852081298828125,-0.497344970703125,0.04071044921875
1783169466545297400,1.43129736328125,-0.8517303466796875,-0.496429443359375,0.04248046875
1783169466555276300,1.4412763671875,-0.8536529541015625,-0.4933013916015625,0.045196533203125
1783169466565225500,1.4512255859375,-0.85821533203125,-0.492523193359375,0.047027587890625
1783169466575174400,1.46117431640625,-0.85235595703125,-0.48931884765625,0.0465240478515625
1783169466585122300,1.471122314453125,-0.8515472412109375,-0.48431396484375,0.0458831787109375
1783169466595102200,1.481102294921875,-0.8512725830078125,-0.4837799072265625,0.049407958984375
1783169466605050400,1.49105029296875,-0.8504638671875,-0.4910888671875,0.0532989501953125
1783169466614999300,1.500999267578125,-0.847503662109375,-0.4945068359375,0.0579681396484375
1783169466624948200,1.5109482421875,-0.851898193359375,-0.495819091796875,0.0616912841796875
1783169466634927400,1.52092724609375,-0.8575897216796875,-0.4984283447265625,0.0625762939453125
1783169466644876300,1.530876220703125,-0.859130859375,-0.5006103515625,0.0620880126953125
1783169466654825500,1.540825439453125,-0.8657989501953125,-0.4981231689453125,0.06304931640625
1783169466664804000,1.55080419921875,-0.866851806640625,-0.4946136474609375,0.062469482421875
1783169466674753500,1.56075341796875,-0.8680877685546875,-0.49017333984375,0.0605010986328125
1783169466684701400,1.570701416015625,-0.873077392578125,-0.4886932373046875,0.058807373046875
1783169466694650400,1.580650390625,-0.8726043701171875,-0.487762451171875,0.0610198974609375
1783169466704629500,1.59062939453125,-0.86895751953125,-0.484954833984375,0.0606536865234375
1783169466714578400,1.600578369140625,-0.8686981201171875,-0.4826812744140625,0.0572357177734375
1783169466724527400,1.61052734375,-0.86444091796875,-0.4822845458984375,0.0562896728515625
1783169466734475300,1.620475341796875,-0.859466552734375,-0.48162841796875,0.0558624267578125
1783169466744455400,1.630455322265625,-0.8555450439453125,-0.4822998046875,0.0535125732421875
1783169466754403300,1.6404033203125,-0.850006103515625,-0.483795166015625,0.05303955078125
1783169466764352300,1.650352294921875,-0.8424835205078125,-0.484832763671875,0.053070068359375
1783169466774331400,1.660331298828125,-0.836639404296875,-0.48773193359375,0.0518341064453125
1783169466784280300,1.6702802734375,-0.838836669921875,-0.4932861328125,0.0519866943359375
1783169466794229200,1.680229248046875,-0.842681884765625,-0.4968414306640625,0.0519866943359375
1783169466804178200,1.69017822265625,-0.8512420654296875,-0.4927825927734375,0.0482177734375
1783169466814157300,1.7001572265625,-0.862335205078125,-0.4885711669921875,0.0434417724609375
1783169466824106200,1.710106201171875,-0.8708343505859375,-0.4856414794921875,0.0375213623046875
1783169466834054100,1.72005419921875,-0.8751983642578125,-0.479766845703125,0.0319976806640625
1783169466844003300,1.73000341796875,-0.879119873046875,-0.4756927490234375,0.03076171875
1783169466853982500,1.739982421875,-0.8792877197265625,-0.4761199951171875,0.0310821533203125
1783169466863931400,1.749931396484375,-0.8757476806640625,-0.4836883544921875,0.0347900390625
1783169466873880300,1.75988037109375,-0.8679656982421875,-0.4919281005859375,0.0399322509765625
1783169466883859500,1.769859375,-0.8571624755859375,-0.49774169921875,0.0437774658203125
1783169466893808400,1.779808349609375,-0.8545379638671875,-0.498046875,0.0433349609375
1783169466903756300,1.78975634765625,-0.856719970703125,-0.5019683837890625,0.043060302734375
1783169466913705500,1.79970556640625,-0.855712890625,-0.505462646484375,0.0406494140625
1783169466923684400,1.809684326171875,-0.8574371337890625,-0.5032806396484375,0.0384674072265625
1783169466933633300,1.81963330078125,-0.861083984375,-0.5034942626953125,0.0365447998046875
1783169466943582200,1.829582275390625,-0.858001708984375,-0.5058746337890625,0.034027099609375
1783169466953531400,1.839531494140625,-0.854888916015625,-0.504058837890625,0.032928466796875
1783169466963510300,1.84951025390625,-0.8546142578125,-0.5008697509765625,0.0339813232421875
1783169466973459200,1.859459228515625,-0.8541412353515625,-0.4999542236328125,0.032440185546875
1783169466983407400,1.869407470703125,-0.8513946533203125,-0.4998016357421875,0.031158447265625
1783169466993387300,1.87938720703125,-0.8477935791015625,-0.4985809326171875,0.03533935546875
1783169467003335200,1.889335205078125,-0.8449249267578125,-0.5000152587890625,0.038055419921875
1783169467013284400,1.899284423828125,-0.8422088623046875,-0.50341796875,0.0374298095703125
1783169467023233500,1.909233642578125,-0.8459930419921875,-0.50762939453125,0.0395355224609375
1783169467033212400,1.91921240234375,-0.849273681640625,-0.5081329345703125,0.0418853759765625
1783169467043161300,1.929161376953125,-0.8503875732421875,-0.5045623779296875,0.0442657470703125
1783169467053110300,1.9391103515625,-0.8549957275390625,-0.499420166015625,0.044952392578125
1783169467063058400,1.949058349609375,-0.857269287109375,-0.494964599609375,0.0433349609375
1783169467073037300,1.959037353515625,-0.8585205078125,-0.490692138671875,0.0430755615234375
1783169467082986200,1.968986328125,-0.8619842529296875,-0.4873504638671875,0.0434112548828125
1783169467092935400,1.978935302734375,-0.8597412109375,-0.4869537353515625,0.0430450439453125
1783169467102914300,1.988914306640625,-0.859466552734375,-0.4846343994140625,0.0444793701171875
1783169467112863200,1.99886328125,-0.8597259521484375,-0.481842041015625,0.047637939453125
1783169467122812200,2.008812255859375,-0.8557891845703125,-0.4830474853515625,0.051422119140625
1783169467132760300,2.01876025390625,-0.8556365966796875,-0.482452392578125,0.0532379150390625
1783169467142740200,2.028740234375,-0.861602783203125,-0.479217529296875,0.054901123046875
1783169467152716500,2.038716552734375,-0.871856689453125,-0.4829559326171875,0.055999755859375
1783169467162665700,2.048665771484375,-0.8689727783203125,-0.489349365234375,0.0555267333984375
1783169467172615000,2.058614990234375,-0.8600616455078125,-0.485626220703125,0.0530242919921875
1783169467182593800,2.06859375,-0.86468505859375,-0.4793701171875,0.0522003173828125
1783169467192542700,2.078542724609375,-0.8652191162109375,-0.484283447265625,0.0542449951171875
1783169467202491600,2.08849169921875,-0.86279296875,-0.4888153076171875,0.056610107421875
1783169467212470800,2.098470703125,-0.8624267578125,-0.4877471923828125,0.055084228515625
1783169467222419700,2.108419677734375,-0.85919189453125,-0.4861297607421875,0.0528411865234375
1783169467232367900,2.118367919921875,-0.8528594970703125,-0.487213134765625,0.0542755126953125
1783169467242316800,2.12831689453125,-0.8496856689453125,-0.4893951416015625,0.0566253662109375
1783169467252295700,2.138295654296875,-0.85247802734375,-0.4914703369140625,0.056427001953125
1783169467262244600,2.14824462890625,-0.8572540283203125,-0.4938201904296875,0.053466796875
1783169467272193800,2.15819384765625,-0.856597900390625,-0.4969024658203125,0.049713134765625
1783169467282141700,2.1681416015625,-0.8538055419921875,-0.4986572265625,0.04833984375
1783169467292121600,2.17812158203125,-0.85699462890625,-0.4974822998046875,0.0474853515625
1783169467302069800,2.18806982421875,-0.8594970703125,-0.5010833740234375,0.0434112548828125
1783169467312018700,2.198018798828125,-0.855682373046875,-0.503326416015625,0.03936767578125
1783169467321997600,2.20799755859375,-0.8547210693359375,-0.4999542236328125,0.039459228515625
1783169467331946500,2.217946533203125,-0.85577392578125,-0.4970245361328125,0.04058837890625
1783169467341896000,2.22789599609375,-0.8590545654296875,-0.496612548828125,0.0417327880859375
1783169467351844900,2.237844970703125,-0.866973876953125,-0.4954071044921875,0.0411224365234375
1783169467361823700,2.24782373046875,-0.8751373291015625,-0.4922637939453125,0.038909912109375
1783169467371772700,2.257772705078125,-0.8804473876953125,-0.488494873046875,0.0381622314453125
1783169467381720800,2.267720947265625,-0.8837432861328125,-0.4836883544921875,0.0359954833984375
1783169467391669800,2.277669677734375,-0.8858489990234375,-0.48004150390625,0.0320892333984375
1783169467401648600,2.287648681640625,-0.881439208984375,-0.47589111328125,0.0325164794921875
1783169467411597800,2.297597900390625,-0.8779296875,-0.473358154296875,0.034149169921875
1783169467421546800,2.307546630859375,-0.87347412109375,-0.473419189453125,0.034637451171875
1783169467431525600,2.317525634765625,-0.8650970458984375,-0.4726409912109375,0.03424072265625
1783169467441474600,2.327474609375,-0.85748291015625,-0.4712982177734375,0.033935546875
1783169467451422700,2.337422607421875,-0.8500823974609375,-0.4703521728515625,0.0313568115234375
1783169467461371600,2.34737158203125,-0.8378753662109375,-0.4709930419921875,0.032135009765625
1783169467471350800,2.357350830078125,-0.83251953125,-0.47222900390625,0.036895751953125
1783169467481299700,2.3672998046875,-0.8330078125,-0.473907470703125,0.0406951904296875
1783169467491248600,2.37724853515625,-0.837860107421875,-0.4781646728515625,0.0409698486328125
1783169467501197800,2.38719775390625,-0.843658447265625,-0.480804443359375,0.0399169921875
1783169467511176700,2.3971767578125,-0.8431854248046875,-0.4786224365234375,0.03955078125
1783169467521126000,2.4071259765625,-0.847869873046875,-0.4757537841796875,0.03558349609375
1783169467531073800,2.41707373046875,-0.8530426025390625,-0.47723388671875,0.033599853515625
1783169467541053700,2.4270537109375,-0.8583831787109375,-0.4833984375,0.0342559814453125
1783169467551001900,2.437001953125,-0.86090087890625,-0.4899444580078125,0.0333404541015625
1783169467560950800,2.44695068359375,-0.86309814453125,-0.49298095703125,0.02972412109375
1783169467570899700,2.456899658203125,-0.8751373291015625,-0.501068115234375,0.0271148681640625
1783169467580878800,2.46687890625,-0.8836822509765625,-0.5087890625,0.0264434814453125
1783169467590827800,2.476827880859375,-0.8886871337890625,-0.508575439453125,0.02337646484375
1783169467600775700,2.486775634765625,-0.89752197265625,-0.5065460205078125,0.0188446044921875
1783169467610724600,2.496724609375,-0.897125244140625,-0.5088348388671875,0.0161895751953125
1783169467620703700,2.506703857421875,-0.8970184326171875,-0.5099639892578125,0.01513671875
1783169467630652700,2.516652587890625,-0.9019927978515625,-0.50958251953125,0.0156097412109375
1783169467640601600,2.5266015625,-0.9095916748046875,-0.508575439453125,0.0165557861328125
1783169467650580700,2.536580810546875,-0.909881591796875,-0.510101318359375,0.0157012939453125
1783169467660529700,2.54652978515625,-0.904998779296875,-0.509307861328125,0.0148468017578125
1783169467670478800,2.556478759765625,-0.9040679931640625,-0.5037078857421875,0.0157928466796875
1783169467680426500,2.566426513671875,-0.9004364013671875,-0.5,0.0197906494140625
1783169467690407000,2.576406982421875,-0.8944549560546875,-0.498992919921875,0.0258026123046875
1783169467700354800,2.586354736328125,-0.8882598876953125,-0.497802734375,0.029388427734375
1783169467710303700,2.5963037109375,-0.882354736328125,-0.491973876953125,0.031829833984375
1783169467720252700,2.606252685546875,-0.878631591796875,-0.4882354736328125,0.032684326171875
1783169467730231800,2.616231689453125,-0.8773040771484375,-0.487060546875,0.0280914306640625
1783169467740180700,2.6261806640625,-0.871551513671875,-0.48394775390625,0.0244598388671875
1783169467750128600,2.636128662109375,-0.859405517578125,-0.477996826171875,0.0219268798828125
1783169467760108800,2.64610888671875,-0.8516693115234375,-0.4739227294921875,0.0213165283203125
1783169467770056700,2.656056640625,-0.842926025390625,-0.47845458984375,0.02264404296875
1783169467780005600,2.666005615234375,-0.8367156982421875,-0.4857025146484375,0.02587890625
1783169467789954600,2.67595458984375,-0.8365325927734375,-0.4896697998046875,0.02764892578125
1783169467799933700,2.68593359375,-0.830108642578125,-0.49041748046875,0.029815673828125
1783169467809882600,2.695882568359375,-0.826080322265625,-0.4912567138671875,0.03094482421875
1783169467819831600,2.70583154296875,-0.827880859375,-0.492523193359375,0.03070068359375
1783169467829779700,2.71577978515625,-0.8284912109375,-0.49432373046875,0.0305023193359375
1783169467839759600,2.725759521484375,-0.8238525390625,-0.49664306640625,0.0285797119140625
1783169467849707500,2.73570751953125,-0.826416015625,-0.497283935546875,0.02777099609375
1783169467859656700,2.74565673828125,-0.8325958251953125,-0.4979248046875,0.0274658203125
1783169467869635800,2.7556357421875,-0.831329345703125,-0.5001068115234375,0.02618408203125
1783169467879584800,2.765584716796875,-0.827239990234375,-0.5010223388671875,0.026611328125
1783169467889533700,2.77553369140625,-0.8258056640625,-0.5030670166015625,0.0283660888671875
1783169467899482600,2.785482666015625,-0.82489013671875,-0.506866455078125,0.03216552734375
1783169467909461800,2.795461669921875,-0.82147216796875,-0.508514404296875,0.0350189208984375
1783169467919409700,2.80540966796875,-0.8249359130859375,-0.5098419189453125,0.0379791259765625
1783169467929358800,2.81535888671875,-0.836456298828125,-0.511505126953125,0.03924560546875
1783169467939307800,2.825307861328125,-0.8456878662109375,-0.5125732421875,0.0365753173828125
1783169467949286700,2.83528662109375,-0.847412109375,-0.5099945068359375,0.0347137451171875
1783169467959235600,2.845235595703125,-0.84771728515625,-0.5053558349609375,0.034088134765625
1783169467969184500,2.8551845703125,-0.848968505859375,-0.5067901611328125,0.0353851318359375
1783169467979163600,2.86516357421875,-0.8497161865234375,-0.5107574462890625,0.036285400390625
1783169467989112600,2.875112548828125,-0.8492889404296875,-0.51153564453125,0.036285400390625
1783169467999060700,2.885060791015625,-0.8490142822265625,-0.5094757080078125,0.0358123779296875
1783169468009009700,2.895009765625,-0.846343994140625,-0.5058441162109375,0.034576416015625
1783169468018988500,2.904988525390625,-0.8405914306640625,-0.5023345947265625,0.031829833984375
1783169468028937700,2.914937744140625,-0.832855224609375,-0.502593994140625,0.031280517578125
1783169468038887000,2.924886962890625,-0.8227996826171875,-0.50640869140625,0.0327301025390625
1783169468048835800,2.9348359375,-0.8139801025390625,-0.51043701171875,0.0395660400390625
1783169468058814700,2.944814697265625,-0.810302734375,-0.5110626220703125,0.0455780029296875
1783169468068763600,2.954763671875,-0.812744140625,-0.51336669921875,0.0510101318359375
1783169468078711800,2.9647119140625,-0.8149261474609375,-0.5166473388671875,0.0529632568359375
1783169468088690700,2.974690673828125,-0.81866455078125,-0.5164794921875,0.0537109375
1783169468098639600,2.9846396484375,-0.826202392578125,-0.5133056640625,0.0532989501953125
1783169468108588800,2.9945888671875,-0.835235595703125,-0.5128631591796875,0.0513458251953125
1783169468118537700,3.004537841796875,-0.8443756103515625,-0.513885498046875,0.0489349365234375
1783169468128516600,3.0145166015625,-0.8475189208984375,-0.513702392578125,0.048675537109375
1783169468138465500,3.024465576171875,-0.8509979248046875,-0.5125732421875,0.047698974609375
1783169468148441000,3.034441162109375,-0.859954833984375,-0.5142822265625,0.0410919189453125
1783169468158390000,3.04439013671875,-0.8773345947265625,-0.51898193359375,0.0399169921875
1783169468168369200,3.054369140625,-0.8837738037109375,-0.5240325927734375,0.0408172607421875
1783169468178318000,3.064318115234375,-0.87969970703125,-0.5217742919921875,0.0421142578125
1783169468188267300,3.074267333984375,-0.8776397705078125,-0.51751708984375,0.0390625
1783169468198246100,3.08424609375,-0.873992919921875,-0.519195556640625,0.03106689453125
1783169468208195300,3.0941953125,-0.87158203125,-0.5201568603515625,0.031768798828125
1783169468218144300,3.104144287109375,-0.88116455078125,-0.5199127197265625,0.035491943359375
1783169468228092200,3.114092041015625,-0.89093017578125,-0.520294189453125,0.039215087890625
1783169468238072000,3.124072021484375,-0.8908538818359375,-0.516937255859375,0.044097900390625
1783169468248020200,3.134020263671875,-0.885833740234375,-0.5075836181640625,0.0456695556640625
1783169468257969200,3.14396923828125,-0.87786865234375,-0.49615478515625,0.0404815673828125
1783169468267918000,3.15391796875,-0.875732421875,-0.495208740234375,0.04083251953125
1783169468277897200,3.163897216796875,-0.8769683837890625,-0.5063629150390625,0.048095703125
1783169468287846100,3.17384619140625,-0.87139892578125,-0.5125732421875,0.060302734375
1783169468297794000,3.1837939453125,-0.8633270263671875,-0.5142364501953125,0.0723876953125
1783169468307774000,3.19377392578125,-0.8568267822265625,-0.5134735107421875,0.0750579833984375
1783169468317722000,3.20372216796875,-0.8501434326171875,-0.504180908203125,0.0688629150390625
1783169468327671000,3.213671142578125,-0.8501739501953125,-0.4964599609375,0.0547637939453125
1783169468337620000,3.223619873046875,-0.8531036376953125,-0.496978759765625,0.0445098876953125
1783169468347599000,3.23359912109375,-0.8565826416015625,-0.49951171875,0.042205810546875
1783169468357548300,3.24354833984375,-0.8603668212890625,-0.4998626708984375,0.0438995361328125
1783169468367497200,3.253497314453125,-0.85321044921875,-0.5001678466796875,0.042999267578125
1783169468377445000,3.263445068359375,-0.8452606201171875,-0.494232177734375,0.04095458984375
1783169468387425300,3.27342529296875,-0.8458709716796875,-0.49053955078125,0.038330078125
1783169468397373200,3.283373291015625,-0.8427581787109375,-0.49688720703125,0.0410308837890625
1783169468407322000,3.293322021484375,-0.8308563232421875,-0.505859375,0.047821044921875
1783169468417301200,3.30330126953125,-0.8309478759765625,-0.509796142578125,0.0474700927734375
1783169468427250200,3.313250244140625,-0.829559326171875,-0.5117340087890625,0.0466766357421875
1783169468437199000,3.32319921875,-0.8229217529296875,-0.5115203857421875,0.0463409423828125
1783169468447147000,3.33314697265625,-0.815948486328125,-0.5091705322265625,0.04180908203125
1783169468457127200,3.343127197265625,-0.814605712890625,-0.504180908203125,0.040863037109375
1783169468467075000,3.353074951171875,-0.8209686279296875,-0.50616455078125,0.042510986328125
1783169468477024000,3.36302392578125,-0.824371337890625,-0.5108184814453125,0.046417236328125
1783169468486973000,3.372972900390625,-0.8297119140625,-0.5113525390625,0.0462799072265625
1783169468496952000,3.3829521484375,-0.8376617431640625,-0.5094451904296875,0.04473876953125
1783169468506901000,3.39290087890625,-0.8388671875,-0.505645751953125,0.0449066162109375
1783169468516850200,3.40285009765625,-0.8396453857421875,-0.50299072265625,0.0440673828125
1783169468526829000,3.4128291015625,-0.8389129638671875,-0.5002899169921875,0.042938232421875
1783169468536778200,3.4227783203125,-0.8387451171875,-0.501800537109375,0.0423431396484375
1783169468546726100,3.43272607421875,-0.8411712646484375,-0.506927490234375,0.0423736572265625
1783169468556675000,3.442675048828125,-0.83782958984375,-0.511627197265625,0.0423126220703125
1783169468566654200,3.452654296875,-0.8395233154296875,-0.5149078369140625,0.0410003662109375
1783169468576603100,3.46260302734375,-0.8444671630859375,-0.5167236328125,0.035980224609375
1783169468586552000,3.472552001953125,-0.845306396484375,-0.5182342529296875,0.0344085693359375
1783169468596500200,3.482500244140625,-0.8488006591796875,-0.5176239013671875,0.0317840576171875
1783169468606480100,3.492480224609375,-0.84857177734375,-0.5164642333984375,0.0293426513671875
1783169468616428000,3.502427978515625,-0.853057861328125,-0.5154266357421875,0.028472900390625
1783169468626377200,3.512377197265625,-0.858795166015625,-0.515533447265625,0.0293731689453125
1783169468636356000,3.522356201171875,-0.856781005859375,-0.5142669677734375,0.030609130859375
1783169468646305000,3.532304931640625,-0.859649658203125,-0.5111083984375,0.032318115234375
1783169468656254000,3.54225390625,-0.8653717041015625,-0.5081787109375,0.0321807861328125
1783169468666203100,3.552203125,-0.8677978515625,-0.5070953369140625,0.0289306640625
1783169468676182000,3.56218212890625,-0.8680419921875,-0.50469970703125,0.0275421142578125
1783169468686131200,3.572131103515625,-0.8663482666015625,-0.50225830078125,0.027801513671875
1783169468696079000,3.5820791015625,-0.86651611328125,-0.5019683837890625,0.028045654296875
1783169468706028300,3.5920283203125,-0.86578369140625,-0.5026092529296875,0.028411865234375
1783169468716007200,3.602007080078125,-0.8598175048828125,-0.5032958984375,0.0323028564453125
1783169468725956000,3.6119560546875,-0.857330322265625,-0.502227783203125,0.03643798828125
1783169468735905300,3.6219052734375,-0.85406494140625,-0.5003204345703125,0.036590576171875
1783169468745884200,3.63188427734375,-0.8499755859375,-0.4989013671875,0.03460693359375
1783169468755833000,3.6418330078125,-0.8443145751953125,-0.497283935546875,0.036102294921875
1783169468765781200,3.65178125,-0.8435211181640625,-0.496124267578125,0.0368804931640625
1783169468775730200,3.661730224609375,-0.8458709716796875,-0.49676513671875,0.035888671875
1783169468785709000,3.671708984375,-0.8361358642578125,-0.4970245361328125,0.033782958984375
1783169468795658000,3.681657958984375,-0.8284454345703125,-0.4974822998046875,0.0356292724609375
1783169468805607200,3.691607177734375,-0.8285369873046875,-0.499237060546875,0.0387420654296875
1783169468815556000,3.70155615234375,-0.8268585205078125,-0.5031890869140625,0.0390625
1783169468825535000,3.711534912109375,-0.82611083984375,-0.50506591796875,0.038330078125
1783169468835484000,3.72148388671875,-0.826904296875,-0.503631591796875,0.0392303466796875
1783169468845432000,3.73143212890625,-0.825439453125,-0.5037078857421875,0.041900634765625
1783169468855412000,3.741411865234375,-0.82476806640625,-0.503509521484375,0.042877197265625
1783169468865360100,3.751360107421875,-0.8341522216796875,-0.503021240234375,0.0417327880859375
1783169468875309300,3.761309326171875,-0.8445281982421875,-0.5028533935546875,0.0390625
1783169468885258200,3.77125830078125,-0.846435546875,-0.50048828125,0.03857421875
1783169468895237000,3.781237060546875,-0.8537750244140625,-0.49560546875,0.0388641357421875
1783169468905186300,3.791186279296875,-0.85858154296875,-0.4934539794921875,0.03985595703125
1783169468915135200,3.80113525390625,-0.8624114990234375,-0.4933013916015625,0.0399322509765625
1783169468925083100,3.811083251953125,-0.8690338134765625,-0.494476318359375,0.038848876953125
1783169468935062300,3.821062255859375,-0.8733673095703125,-0.4964599609375,0.036590576171875
1783169468945011200,3.83101123046875,-0.8722991943359375,-0.499298095703125,0.035797119140625
1783169468954960100,3.840960205078125,-0.8717041015625,-0.5009613037109375,0.0363006591796875
1783169468964939000,3.85093896484375,-0.87396240234375,-0.503387451171875,0.03369140625
1783169468974888200,3.86088818359375,-0.8747406005859375,-0.50653076171875,0.03118896484375
1783169468984837000,3.870837158203125,-0.87774658203125,-0.5074462890625,0.0321197509765625
1783169468994785000,3.880784912109375,-0.8776092529296875,-0.5098724365234375,0.030517578125
1783169469004765000,3.890764892578125,-0.8743438720703125,-0.5120849609375,0.026092529296875
1783169469014713000,3.900713134765625,-0.873565673828125,-0.51104736328125,0.02203369140625
1783169469024662000,3.910662109375,-0.873779296875,-0.51055908203125,0.0212249755859375
1783169469034611200,3.920611083984375,-0.87158203125,-0.51031494140625,0.0218658447265625
1783169469044590300,3.93059033203125,-0.8695220947265625,-0.509857177734375,0.0218963623046875
1783169469054539300,3.940539306640625,-0.86456298828125,-0.5081329345703125,0.0218048095703125
1783169469064488200,3.95048828125,-0.858978271484375,-0.50592041015625,0.0205841064453125
1783169469074467000,3.960467041015625,-0.8553009033203125,-0.5032958984375,0.023101806640625
1783169469084416300,3.970416259765625,-0.856964111328125,-0.5023651123046875,0.02734375
1783169469094364200,3.9803642578125,-0.8585662841796875,-0.5025482177734375,0.028228759765625
1783169469104313000,3.99031298828125,-0.8594970703125,-0.501861572265625,0.0253143310546875
1783169469114292200,4.000292236328125,-0.8567352294921875,-0.498992919921875,0.023468017578125
1783169469124241200,4.0102412109375,-0.85406494140625,-0.49530029296875,0.0240631103515625
1783169469134190000,4.020190185546875,-0.850860595703125,-0.495513916015625,0.0252227783203125
1783169469144138000,4.030137939453125,-0.848388671875,-0.498260498046875,0.02606201171875
1783169469154141000,4.040140869140625,-0.847625732421875,-0.499664306640625,0.02679443359375
1783169469164089000,4.050089111328125,-0.843597412109375,-0.5016937255859375,0.027984619140625
1783169469174038000,4.0600380859375,-0.845703125,-0.5037078857421875,0.0286712646484375
1783169469184017000,4.070016845703125,-0.846466064453125,-0.5042572021484375,0.028778076171875
1783169469193965800,4.0799658203125,-0.847808837890625,-0.5016021728515625,0.0280609130859375
1783169469203915000,4.0899150390625,-0.8532867431640625,-0.498504638671875,0.02911376953125
1783169469213864000,4.099864013671875,-0.85504150390625,-0.497650146484375,0.0345306396484375
1783169469223842800,4.1098427734375,-0.8583831787109375,-0.4968109130859375,0.0364990234375
1783169469233792000,4.1197919921875,-0.8570556640625,-0.493927001953125,0.0371856689453125
1783169469243740000,4.129739990234375,-0.855987548828125,-0.493865966796875,0.0362701416015625
1783169469253689000,4.139689208984375,-0.8542022705078125,-0.493621826171875,0.036376953125
1783169469263668000,4.14966796875,-0.8518524169921875,-0.493804931640625,0.0352020263671875
1783169469273617200,4.1596171875,-0.854248046875,-0.49615478515625,0.0286102294921875
1783169469283566000,4.169566162109375,-0.8515167236328125,-0.50103759765625,0.016937255859375
1783169469293545000,4.179544921875,-0.8491668701171875,-0.5050811767578125,0.0052642822265625
1783169469303494000,4.189493896484375,-0.850006103515625,-0.50616455078125,0.0023956298828125
1783169469313442000,4.199442138671875,-0.8500823974609375,-0.5036468505859375,0.010711669921875
1783169469323391000,4.209390869140625,-0.8467254638671875,-0.50341796875,0.0157318115234375
1783169469333369900,4.219369873046875,-0.8446044921875,-0.5033721923828125,0.014404296875
1783169469343319000,4.229319091796875,-0.842529296875,-0.5018463134765625,0.013702392578125
1783169469353268000,4.23926806640625,-0.8433380126953125,-0.4993133544921875,0.01727294921875
1783169469363217000,4.249216796875,-0.8460235595703125,-0.4942626953125,0.02545166015625
1783169469373195800,4.25919580078125,-0.845367431640625,-0.4902801513671875,0.032073974609375
1783169469383145000,4.26914501953125,-0.8437042236328125,-0.4881439208984375,0.0368499755859375
1783169469393092900,4.2790927734375,-0.848358154296875,-0.48895263671875,0.040252685546875
1783169469403073000,4.289072998046875,-0.8492279052734375,-0.4895172119140625,0.0431671142578125
1783169469413021000,4.29902099609375,-0.84674072265625,-0.4885711669921875,0.0467987060546875
1783169469422970000,4.30897021484375,-0.847808837890625,-0.4869842529296875,0.0453338623046875
1783169469432919000,4.3189189453125,-0.8529052734375,-0.4886474609375,0.0423736572265625
1783169469442898000,4.32889794921875,-0.858001708984375,-0.491912841796875,0.040283203125
1783169469452847000,4.33884716796875,-0.8626708984375,-0.493682861328125,0.0388946533203125
1783169469462795000,4.348794921875,-0.866790771484375,-0.494171142578125,0.035186767578125
1783169469472744000,4.358743896484375,-0.8626861572265625,-0.495758056640625,0.0329132080078125
1783169469482723000,4.36872314453125,-0.8609619140625,-0.4978790283203125,0.0349578857421875
1783169469492672000,4.378672119140625,-0.8616180419921875,-0.4996337890625,0.039031982421875
1783169469502621000,4.388620849609375,-0.8574066162109375,-0.5014801025390625,0.0406341552734375
1783169469512600000,4.39860009765625,-0.8582916259765625,-0.5010833740234375,0.0403289794921875
1783169469522549000,4.408549072265625,-0.8637847900390625,-0.5003204345703125,0.038665771484375
1783169469532498000,4.418497802734375,-0.869873046875,-0.500640869140625,0.0367431640625
1783169469542445800,4.42844580078125,-0.86865234375,-0.499176025390625,0.0351104736328125
1783169469552426000,4.438426025390625,-0.8707733154296875,-0.4959259033203125,0.0333404541015625
1783169469562374000,4.448373779296875,-0.87481689453125,-0.49639892578125,0.03118896484375
1783169469572322800,4.45832275390625,-0.870513916015625,-0.5034637451171875,0.0287322998046875
1783169469582272000,4.46827197265625,-0.8640594482421875,-0.507568359375,0.0250091552734375
1783169469592251100,4.478251220703125,-0.859588623046875,-0.5053558349609375,0.0234375
1783169469602200000,4.488199951171875,-0.859710693359375,-0.5049896240234375,0.02203369140625
1783169469612148000,4.49814794921875,-0.8647003173828125,-0.50653076171875,0.016357421875
1783169469622128000,4.508128173828125,-0.8689727783203125,-0.5052032470703125,0.010223388671875
1783169469632076000,4.518075927734375,-0.8622589111328125,-0.5006866455078125,0.0099639892578125
1783169469642025000,4.52802490234375,-0.8574371337890625,-0.495147705078125,0.0156402587890625
1783169469651974000,4.537973876953125,-0.858306884765625,-0.4918365478515625,0.0197296142578125
1783169469661953000,4.547953125,-0.86090087890625,-0.4942626953125,0.0234832763671875
1783169469671902000,4.55790185546875,-0.8545074462890625,-0.4971771240234375,0.0285491943359375
1783169469681851000,4.567850830078125,-0.849639892578125,-0.493560791015625,0.03192138671875
1783169469691799000,4.577799072265625,-0.8489990234375,-0.4918975830078125,0.035614013671875
1783169469701779000,4.587779052734375,-0.8475189208984375,-0.4928741455078125,0.0338134765625
1783169469711726800,4.597726806640625,-0.84613037109375,-0.4930572509765625,0.032135009765625
1783169469721675800,4.60767578125,-0.8441314697265625,-0.4936981201171875,0.0308380126953125
1783169469731655000,4.617655029296875,-0.844268798828125,-0.4934234619140625,0.0304412841796875
1783169469741603800,4.627603759765625,-0.8480072021484375,-0.493133544921875,0.02880859375
1783169469751553000,4.637552978515625,-0.855224609375,-0.4920501708984375,0.0279388427734375
1783169469761502000,4.647501953125,-0.8575439453125,-0.4930572509765625,0.0307769775390625
1783169469771481000,4.657481201171875,-0.8601226806640625,-0.4930877685546875,0.033477783203125
1783169469781429000,4.667428955078125,-0.8665618896484375,-0.4922027587890625,0.0350189208984375
1783169469791378000,4.6773779296875,-0.870330810546875,-0.49322509765625,0.0345611572265625
1783169469801327000,4.6873271484375,-0.8685760498046875,-0.4921722412109375,0.036163330078125
1783169469811306000,4.697305908203125,-0.8671722412109375,-0.49005126953125,0.0383453369140625
1783169469821255000,4.7072548828125,-0.8673553466796875,-0.489715576171875,0.0371551513671875
1783169469831203800,4.717203857421875,-0.869476318359375,-0.4909515380859375,0.0368194580078125
1783169469841183000,4.727182861328125,-0.8680572509765625,-0.4954833984375,0.0385589599609375
1783169469851132000,4.7371318359375,-0.86639404296875,-0.4980010986328125,0.040924072265625
1783169469861079800,4.747079833984375,-0.8675384521484375,-0.49713134765625,0.036651611328125
1783169469871029000,4.757029052734375,-0.86517333984375,-0.4959869384765625,0.03118896484375
1783169469881007900,4.7670078125,-0.860931396484375,-0.4929962158203125,0.02947998046875
1783169469890956800,4.776956787109375,-0.8630218505859375,-0.490203857421875,0.0304718017578125
1783169469900905700,4.78690576171875,-0.8644561767578125,-0.48931884765625,0.0312652587890625
1783169469910855200,4.796855224609375,-0.866241455078125,-0.4887237548828125,0.0288848876953125
1783169469920834000,4.806833984375,-0.8651275634765625,-0.487640380859375,0.02978515625
1783169469930783000,4.816782958984375,-0.8648834228515625,-0.4866485595703125,0.0330657958984375
1783169469940731100,4.826731201171875,-0.8684539794921875,-0.48870849609375,0.0349273681640625
1783169469950710000,4.8367099609375,-0.8643798828125,-0.48846435546875,0.0334930419921875
1783169469960659000,4.846658935546875,-0.8612518310546875,-0.4862213134765625,0.032470703125
1783169469970607900,4.85660791015625,-0.8592681884765625,-0.4841461181640625,0.0312957763671875
1783169469980557000,4.86655712890625,-0.853790283203125,-0.487060546875,0.029266357421875
1783169469990536000,4.876535888671875,-0.85174560546875,-0.4910430908203125,0.02606201171875
1783169470000484900,4.88648486328125,-0.852142333984375,-0.495697021484375,0.024444580078125
1783169470010433000,4.89643310546875,-0.84967041015625,-0.4968109130859375,0.025146484375
1783169470020382000,4.9063818359375,-0.846954345703125,-0.4988555908203125,0.0272064208984375
1783169470030360800,4.91636083984375,-0.8488616943359375,-0.5003509521484375,0.027801513671875
1783169470040310000,4.92631005859375,-0.852569580078125,-0.4980926513671875,0.028045654296875
1783169470050259000,4.936259033203125,-0.85748291015625,-0.4960479736328125,0.0277862548828125
1783169470060237800,4.94623779296875,-0.8610687255859375,-0.4945831298828125,0.0287322998046875
1783169470070186800,4.956186767578125,-0.86383056640625,-0.49114990234375,0.0310821533203125
1783169470080136000,4.966135986328125,-0.8662261962890625,-0.4878997802734375,0.0341796875
1783169470090083800,4.976083740234375,-0.866973876953125,-0.4869537353515625,0.035247802734375
1783169470100064000,4.98606396484375,-0.86749267578125,-0.4855804443359375,0.033935546875
1783169470110012200,4.99601220703125,-0.8676605224609375,-0.4857330322265625,0.0325469970703125
1783169470119961000,5.005961181640625,-0.8605499267578125,-0.4873504638671875,0.031341552734375
1783169470129910000,5.015909912109375,-0.8543243408203125,-0.4902191162109375,0.0316314697265625
1783169470139889000,5.025888916015625,-0.8502349853515625,-0.4947357177734375,0.033599853515625
1783169470149863000,5.03586279296875,-0.846649169921875,-0.49810791015625,0.0355072021484375
1783169470159811000,5.04581103515625,-0.846588134765625,-0.5010986328125,0.0370941162109375
1783169470169791000,5.055791015625,-0.843017578125,-0.5025177001953125,0.0356903076171875
1783169470179739000,5.06573876953125,-0.843505859375,-0.5020599365234375,0.0322723388671875
1783169470189688000,5.07568798828125,-0.844757080078125,-0.50201416015625,0.029327392578125
1783169470199637000,5.085636962890625,-0.8421783447265625,-0.4997406005859375,0.0283966064453125
1783169470209616000,5.095615966796875,-0.8467559814453125,-0.49786376953125,0.0263214111328125
1783169470219564800,5.105564697265625,-0.8527374267578125,-0.499053955078125,0.0245513916015625
1783169470229514000,5.115513916015625,-0.85406494140625,-0.500518798828125,0.02252197265625
1783169470239462000,5.1254619140625,-0.853057861328125,-0.496551513671875,0.0206756591796875
1783169470249441800,5.13544189453125,-0.8558807373046875,-0.4938201904296875,0.0212249755859375
1783169470259390000,5.145389892578125,-0.8577880859375,-0.4934539794921875,0.021697998046875
1783169470269339000,5.1553388671875,-0.8594512939453125,-0.4959716796875,0.0236053466796875
1783169470279317800,5.16531787109375,-0.864227294921875,-0.4989166259765625,0.025787353515625
1783169470289267000,5.175266845703125,-0.8602752685546875,-0.5001678466796875,0.0257568359375
1783169470299216100,5.185216064453125,-0.8563690185546875,-0.497589111328125,0.0259246826171875
1783169470309164000,5.1951640625,-0.8604583740234375,-0.4980621337890625,0.0276336669921875
1783169470319144000,5.20514404296875,-0.859344482421875,-0.5007781982421875,0.030242919921875
1783169470329092000,5.215092041015625,-0.8567047119140625,-0.500823974609375,0.0348663330078125
1783169470339041000,5.225041015625,-0.859588623046875,-0.4954833984375,0.0366668701171875
1783169470348990000,5.234989990234375,-0.8622283935546875,-0.4931488037109375,0.035369873046875
1783169470358969000,5.244968994140625,-0.8600616455078125,-0.4935760498046875,0.0371856689453125
1783169470368918000,5.25491796875,-0.8583984375,-0.4931488037109375,0.041961669921875
1783169470378867000,5.264866943359375,-0.8558349609375,-0.49169921875,0.044921875
1783169470388845800,5.274845703125,-0.855682373046875,-0.4915008544921875,0.0456390380859375
1783169470398795000,5.284794921875,-0.861083984375,-0.4951629638671875,0.043792724609375
1783169470408743000,5.294742919921875,-0.859588623046875,-0.49658203125,0.041046142578125
1783169470418691800,5.30469189453125,-0.85693359375,-0.495025634765625,0.0391693115234375
1783169470428671000,5.3146708984375,-0.8626556396484375,-0.496429443359375,0.03546142578125
1783169470438620000,5.324619873046875,-0.8639373779296875,-0.500701904296875,0.033355712890625
1783169470448569000,5.334569091796875,-0.86199951171875,-0.50262451171875,0.034698486328125
1783169470458517000,5.34451708984375,-0.8597869873046875,-0.5012359619140625,0.0355072021484375
1783169470468497200,5.3544970703125,-0.857940673828125,-0.50091552734375,0.0364227294921875
1783169470478445000,5.364445068359375,-0.8614501953125,-0.501373291015625,0.037078857421875
1783169470488394000,5.37439404296875,-0.86859130859375,-0.502105712890625,0.0394287109375
1783169470498373000,5.384373046875,-0.863006591796875,-0.501129150390625,0.04193115234375
1783169470508322000,5.394322021484375,-0.8594207763671875,-0.4961700439453125,0.04302978515625
1783169470518271000,5.40427099609375,-0.861053466796875,-0.491912841796875,0.0429840087890625
1783169470528220000,5.414219970703125,-0.8603363037109375,-0.4927520751953125,0.0434417724609375
1783169470538199000,5.424198974609375,-0.8570404052734375,-0.493255615234375,0.0454559326171875
1783169470548148000,5.43414794921875,-0.85479736328125,-0.490234375,0.0440673828125
1783169470558096000,5.444095947265625,-0.8561553955078125,-0.4901885986328125,0.039825439453125
1783169470568044800,5.454044921875,-0.8590545654296875,-0.493072509765625,0.03741455078125
1783169470578024000,5.46402392578125,-0.8574981689453125,-0.4969940185546875,0.0335845947265625
1783169470587972900,5.473972900390625,-0.855621337890625,-0.496429443359375,0.0299224853515625
1783169470597921800,5.483921875,-0.8578033447265625,-0.4958648681640625,0.0271148681640625
1783169470607901000,5.49390087890625,-0.8577880859375,-0.499847412109375,0.024017333984375
1783169470617850000,5.50385009765625,-0.855743408203125,-0.500762939453125,0.02178955078125
1783169470627797800,5.5137978515625,-0.854766845703125,-0.499908447265625,0.017059326171875
1783169470637747000,5.523746826171875,-0.8544769287109375,-0.4983673095703125,0.015838623046875
1783169470647726000,5.53372607421875,-0.853271484375,-0.499786376953125,0.015472412109375
1783169470657675000,5.543675048828125,-0.85174560546875,-0.5021209716796875,0.0143585205078125
1783169470667624000,5.5536240234375,-0.8533935546875,-0.5027923583984375,0.012054443359375
1783169470677572900,5.56357275390625,-0.8535919189453125,-0.5044708251953125,0.0108184814453125
1783169470687552000,5.573552001953125,-0.8492279052734375,-0.50469970703125,0.010498046875
1783169470697501000,5.5835009765625,-0.85125732421875,-0.5045166015625,0.0115814208984375
1783169470707448800,5.59344873046875,-0.8566436767578125,-0.506072998046875,0.013153076171875
1783169470717429000,5.603428955078125,-0.852264404296875,-0.504364013671875,0.015289306640625
1783169470727377000,5.613376953125,-0.8486328125,-0.500091552734375,0.0173492431640625
1783169470737325800,5.623325927734375,-0.8498077392578125,-0.4990234375,0.018951416015625
1783169470747274800,5.633274658203125,-0.85113525390625,-0.5001983642578125,0.0204925537109375
1783169470757254000,5.64325390625,-0.8492889404296875,-0.5016326904296875,0.023345947265625
1783169470767202800,5.653202880859375,-0.8501739501953125,-0.4990081787109375,0.0233154296875
1783169470777152000,5.663152099609375,-0.847503662109375,-0.497894287109375,0.02197265625
1783169470787100000,5.673099853515625,-0.8474273681640625,-0.49859619140625,0.02020263671875
1783169470797078800,5.683078857421875,-0.8477630615234375,-0.50079345703125,0.02105712890625
1783169470807028000,5.693028076171875,-0.842498779296875,-0.501220703125,0.025115966796875
1783169470816977200,5.70297705078125,-0.842620849609375,-0.501007080078125,0.02581787109375
1783169470826956000,5.7129560546875,-0.850311279296875,-0.5010528564453125,0.0277557373046875
1783169470836905000,5.722905029296875,-0.849395751953125,-0.5031280517578125,0.0296783447265625
1783169470846854000,5.73285400390625,-0.84619140625,-0.50238037109375,0.02880859375
1783169470856802000,5.742802001953125,-0.8494720458984375,-0.49951171875,0.0287628173828125
1783169470866782000,5.752781982421875,-0.85003662109375,-0.5006866455078125,0.028045654296875
1783169470876729900,5.762729736328125,-0.8495025634765625,-0.50140380859375,0.027313232421875
1783169470886679000,5.772678955078125,-0.8526611328125,-0.5003814697265625,0.02734375
1783169470896628000,5.7826279296875,-0.8580322265625,-0.4994659423828125,0.0260467529296875
1783169470906606800,5.79260693359375,-0.8578033447265625,-0.5006561279296875,0.0236358642578125
1783169470916555800,5.8025556640625,-0.8532562255859375,-0.500213623046875,0.0236358642578125
1783169470926505000,5.8125048828125,-0.8567047119140625,-0.5010833740234375,0.023284912109375
1783169470936483800,5.82248388671875,-0.85980224609375,-0.50274658203125,0.02264404296875
1783169470946433000,5.83243310546875,-0.8596649169921875,-0.5050201416015625,0.02154541015625
1783169470956381000,5.842380859375,-0.8628997802734375,-0.5040740966796875,0.0208892822265625
1783169470966330000,5.852330078125,-0.8644866943359375,-0.50250244140625,0.0182952880859375
1783169470976309000,5.86230908203125,-0.862091064453125,-0.5048065185546875,0.01837158203125
1783169470986258000,5.8722578125,-0.860260009765625,-0.5075225830078125,0.0196990966796875
1783169470996207000,5.88220703125,-0.8614654541015625,-0.5072479248046875,0.0221099853515625
1783169471006155000,5.892155029296875,-0.8660736083984375,-0.508270263671875,0.023101806640625
1783169471016135000,5.902135009765625,-0.862518310546875,-0.511138916015625,0.0228118896484375
1783169471026083000,5.9120830078125,-0.8510284423828125,-0.5096588134765625,0.022552490234375
1783169471036032000,5.922031982421875,-0.8512115478515625,-0.505157470703125,0.0212249755859375
1783169471046011000,5.932010986328125,-0.85064697265625,-0.503204345703125,0.021820068359375
1783169471055960000,5.9419599609375,-0.8467864990234375,-0.5055084228515625,0.0240936279296875
1783169471065909000,5.951908935546875,-0.8456878662109375,-0.50750732421875,0.0248870849609375
1783169471075858000,5.96185791015625,-0.84283447265625,-0.50628662109375,0.0252532958984375
1783169471085836800,5.9718369140625,-0.8426971435546875,-0.5047149658203125,0.0274810791015625
1783169471095786000,5.981785888671875,-0.8429107666015625,-0.50494384765625,0.029632568359375
1783169471105734000,5.99173388671875,-0.8399505615234375,-0.5068817138671875,0.03076171875
1783169471115682800,6.001682861328125,-0.8387298583984375,-0.5065460205078125,0.031951904296875
1783169471125662000,6.011661865234375,-0.8373870849609375,-0.507781982421875,0.0339508056640625
1783169471135611100,6.021611083984375,-0.83941650390625,-0.512115478515625,0.036834716796875
1783169471145560000,6.03156005859375,-0.8409881591796875,-0.512451171875,0.037017822265625
1783169471155560000,6.041559814453125,-0.8441925048828125,-0.5121002197265625,0.0379180908203125
1783169471165508900,6.0515087890625,-0.85040283203125,-0.51104736328125,0.037017822265625
1783169471175457000,6.06145703125,-0.8522796630859375,-0.508575439453125,0.037384033203125
1783169471185406000,6.071406005859375,-0.85662841796875,-0.5050506591796875,0.038970947265625
1783169471195385000,6.081385009765625,-0.8604736328125,-0.505340576171875,0.039886474609375
1783169471205334300,6.091334228515625,-0.8610992431640625,-0.507965087890625,0.042388916015625
1783169471215283200,6.101283203125,-0.8599395751953125,-0.51116943359375,0.0434417724609375
1783169471225232100,6.111232177734375,-0.857574462890625,-0.511016845703125,0.0439453125
1783169471235211000,6.1212109375,-0.858306884765625,-0.51025390625,0.044403076171875
1783169471245160200,6.13116015625,-0.8592529296875,-0.507781982421875,0.043304443359375
1783169471255108000,6.141108154296875,-0.8624420166015625,-0.507110595703125,0.042236328125
1783169471265088000,6.151087890625,-0.86578369140625,-0.5080413818359375,0.04022216796875
1783169471275036200,6.1610361328125,-0.8644256591796875,-0.50537109375,0.0396575927734375
1783169471284985000,6.170985107421875,-0.865447998046875,-0.50115966796875,0.0410614013671875
1783169471294934000,6.18093408203125,-0.8692474365234375,-0.501495361328125,0.0416259765625
1783169471304913200,6.1909130859375,-0.866302490234375,-0.5021820068359375,0.0406646728515625
1783169471314862000,6.200862060546875,-0.8590087890625,-0.497528076171875,0.0380706787109375
1783169471324810000,6.21081005859375,-0.857421875,-0.4940032958984375,0.0359649658203125
1783169471334759000,6.220759033203125,-0.8556365966796875,-0.495513916015625,0.037109375
1783169471344738000,6.230738037109375,-0.8482513427734375,-0.5004730224609375,0.034515380859375
1783169471354687000,6.24068701171875,-0.843231201171875,-0.5018768310546875,0.03277587890625
1783169471364636200,6.25063623046875,-0.839630126953125,-0.5001678466796875,0.0332794189453125
1783169471374615300,6.260615234375,-0.837615966796875,-0.502288818359375,0.0337371826171875
1783169471384564200,6.270564208984375,-0.8364715576171875,-0.5054168701171875,0.0336151123046875
1783169471394513200,6.28051318359375,-0.8341522216796875,-0.5082855224609375,0.031494140625
1783169471404461000,6.2904609375,-0.83502197265625,-0.506988525390625,0.03070068359375
1783169471414441200,6.300441162109375,-0.8364410400390625,-0.50567626953125,0.0277252197265625
1783169471424389000,6.31038916015625,-0.8363037109375,-0.5072479248046875,0.0251007080078125
1783169471434338000,6.320338134765625,-0.8411865234375,-0.5074310302734375,0.023529052734375
1783169471444287000,6.330286865234375,-0.8416748046875,-0.509033203125,0.02276611328125
1783169471454266000,6.34026611328125,-0.8427276611328125,-0.5066375732421875,0.022003173828125
1783169471464215000,6.350215087890625,-0.848114013671875,-0.50494384765625,0.023040771484375
1783169471474163000,6.360162841796875,-0.853607177734375,-0.506866455078125,0.023681640625
1783169471484143000,6.37014306640625,-0.8599700927734375,-0.50811767578125,0.0217742919921875
1783169471494091000,6.380091064453125,-0.8606109619140625,-0.5078125,0.0184783935546875
1783169471504040000,6.3900400390625,-0.8595733642578125,-0.5067138671875,0.01690673828125
1783169471513988900,6.39998876953125,-0.855865478515625,-0.50762939453125,0.018829345703125
1783169471523968000,6.409968017578125,-0.852874755859375,-0.5092620849609375,0.0241546630859375
1783169471533917200,6.419917236328125,-0.85247802734375,-0.5128173828125,0.029296875
1783169471543866000,6.4298662109375,-0.85443115234375,-0.51513671875,0.0299835205078125
1783169471553814300,6.439814208984375,-0.8598785400390625,-0.5145721435546875,0.028656005859375
1783169471563794200,6.449794189453125,-0.86212158203125,-0.5135650634765625,0.0274200439453125
1783169471573742000,6.4597421875,-0.8594207763671875,-0.5125274658203125,0.0238494873046875
1783169471583691000,6.46969091796875,-0.8590087890625,-0.5101470947265625,0.021392822265625
1783169471593670100,6.479670166015625,-0.8593597412109375,-0.508819580078125,0.0223846435546875
1783169471603619000,6.489619140625,-0.85589599609375,-0.5096893310546875,0.0254974365234375
1783169471613568000,6.499568115234375,-0.851776123046875,-0.5100555419921875,0.0284423828125
1783169471623516200,6.50951611328125,-0.847991943359375,-0.5113983154296875,0.0311126708984375
1783169471633496000,6.51949609375,-0.84564208984375,-0.51202392578125,0.0320892333984375
1783169471643444000,6.52944384765625,-0.8486175537109375,-0.5129852294921875,0.032684326171875
1783169471653393200,6.53939306640625,-0.8469390869140625,-0.5147552490234375,0.0319976806640625
1783169471663342000,6.549342041015625,-0.8402099609375,-0.513275146484375,0.0336456298828125
1783169471673321000,6.559321044921875,-0.8400115966796875,-0.5101165771484375,0.035400390625
1783169471683270000,6.569269775390625,-0.845001220703125,-0.5125274658203125,0.0356903076171875
1783169471693219000,6.579218994140625,-0.846923828125,-0.5153350830078125,0.036224365234375
1783169471703198200,6.5891982421875,-0.84765625,-0.5145263671875,0.0367584228515625
1783169471713147100,6.599147216796875,-0.8509063720703125,-0.509918212890625,0.0364837646484375
1783169471723095300,6.60909521484375,-0.8529052734375,-0.5079345703125,0.0333099365234375
1783169471733044200,6.619044189453125,-0.8518218994140625,-0.5077972412109375,0.0300445556640625
1783169471743023000,6.629023193359375,-0.8490753173828125,-0.507049560546875,0.0312347412109375
1783169471752972000,6.638971923828125,-0.849395751953125,-0.507171630859375,0.033782958984375
1783169471762921200,6.648921142578125,-0.8458709716796875,-0.51123046875,0.0354461669921875
1783169471772870100,6.6588701171875,-0.8447113037109375,-0.510284423828125,0.0370330810546875
1783169471782849000,6.66884912109375,-0.8477783203125,-0.5077056884765625,0.038055419921875
1783169471792798000,6.6787978515625,-0.848876953125,-0.5065155029296875,0.03656005859375
1783169471802746000,6.68874609375,-0.8478851318359375,-0.505615234375,0.03466796875
1783169471812725000,6.69872509765625,-0.84979248046875,-0.5021514892578125,0.0357818603515625
1783169471822674000,6.708673828125,-0.8498992919921875,-0.5015106201171875,0.0356903076171875
1783169471832623000,6.718623046875,-0.8485565185546875,-0.502288818359375,0.0354156494140625
1783169471842572000,6.728572021484375,-0.8497772216796875,-0.504791259765625,0.0314788818359375
1783169471852551000,6.738551025390625,-0.84649658203125,-0.5090484619140625,0.028564453125
1783169471862500000,6.7485,-0.8403778076171875,-0.5106201171875,0.027679443359375
1783169471872448000,6.758447998046875,-0.8347320556640625,-0.5091705322265625,0.02679443359375
1783169471882397200,6.768397216796875,-0.8326263427734375,-0.5121917724609375,0.0272674560546875
1783169471892376000,6.7783759765625,-0.836639404296875,-0.5163421630859375,0.0268707275390625
1783169471902325200,6.7883251953125,-0.836029052734375,-0.51873779296875,0.027679443359375
1783169471912274200,6.798274169921875,-0.8347930908203125,-0.5183563232421875,0.0277557373046875
1783169471922253000,6.808253173828125,-0.8365936279296875,-0.5146026611328125,0.0263671875
1783169471932202000,6.818201904296875,-0.8396148681640625,-0.5115814208984375,0.025177001953125
1783169471942151200,6.828151123046875,-0.840972900390625,-0.5111846923828125,0.0289764404296875
1783169471952099000,6.83809912109375,-0.8411712646484375,-0.5092926025390625,0.032928466796875
1783169471962079000,6.848078857421875,-0.843048095703125,-0.50537109375,0.03326416015625
1783169471972027100,6.858027099609375,-0.8434295654296875,-0.504302978515625,0.0312347412109375
1783169471981976000,6.86797607421875,-0.8444976806640625,-0.5080413818359375,0.02899169921875
1783169471991925000,6.877925048828125,-0.842559814453125,-0.5123291015625,0.027130126953125
1783169472001904000,6.887904052734375,-0.8387298583984375,-0.51373291015625,0.025543212890625
1783169472011853000,6.89785302734375,-0.8349456787109375,-0.51629638671875,0.024810791015625
1783169472021801000,6.907801025390625,-0.8324737548828125,-0.5200042724609375,0.0255584716796875
1783169472031781000,6.917781005859375,-0.8334808349609375,-0.5220947265625,0.026702880859375
1783169472041729000,6.92772900390625,-0.834686279296875,-0.522216796875,0.0255584716796875
1783169472051678200,6.93767822265625,-0.83612060546875,-0.5203094482421875,0.0255889892578125
1783169472061627100,6.947627197265625,-0.837738037109375,-0.5181121826171875,0.027557373046875
1783169472071606300,6.957606201171875,-0.8417816162109375,-0.51544189453125,0.0296173095703125
1783169472081555200,6.96755517578125,-0.8487091064453125,-0.512054443359375,0.0297698974609375
1783169472091504000,6.977504150390625,-0.8518218994140625,-0.5090484619140625,0.0316925048828125
1783169472101452000,6.9874521484375,-0.8531646728515625,-0.5062408447265625,0.0337982177734375
1783169472111432200,6.99743212890625,-0.8550262451171875,-0.50421142578125,0.0350189208984375
1783169472121380000,7.007380126953125,-0.8570709228515625,-0.5041961669921875,0.0370330810546875
1783169472131329000,7.0173291015625,-0.8602294921875,-0.507965087890625,0.03729248046875
1783169472141308200,7.02730810546875,-0.8587646484375,-0.50927734375,0.035888671875
1783169472151277000,7.037277099609375,-0.8593597412109375,-0.509979248046875,0.034912109375
1783169472161226000,7.04722607421875,-0.8612213134765625,-0.51129150390625,0.03192138671875
1783169472171174100,7.057174072265625,-0.8559722900390625,-0.5124969482421875,0.02874755859375
1783169472181154000,7.067154052734375,-0.8552703857421875,-0.512481689453125,0.02874755859375
1783169472191102000,7.07710205078125,-0.8596343994140625,-0.5120086669921875,0.0262298583984375
1783169472201051000,7.08705078125,-0.8567962646484375,-0.513763427734375,0.02471923828125
1783169472211000000,7.097,-0.8563232421875,-0.5120391845703125,0.0247955322265625
1783169472220979000,7.10697900390625,-0.85943603515625,-0.5099639892578125,0.023193359375
1783169472230928000,7.116927978515625,-0.8567657470703125,-0.50848388671875,0.0214996337890625
1783169472240876800,7.126876708984375,-0.8515167236328125,-0.506134033203125,0.020355224609375
1783169472250856000,7.13685595703125,-0.8460693359375,-0.5024566650390625,0.02276611328125
1783169472260804900,7.146804931640625,-0.843475341796875,-0.504852294921875,0.026458740234375
1783169472270753000,7.1567529296875,-0.84344482421875,-0.509735107421875,0.0304107666015625
1783169472280702000,7.166701904296875,-0.843902587890625,-0.5115203857421875,0.0308380126953125
1783169472290680800,7.176680908203125,-0.84625244140625,-0.5091094970703125,0.029327392578125
1783169472300629800,7.186629638671875,-0.8477325439453125,-0.5074462890625,0.02813720703125
1783169472310579000,7.196578857421875,-0.8479461669921875,-0.5076904296875,0.0270233154296875
1783169472320526800,7.20652685546875,-0.8479156494140625,-0.508697509765625,0.02496337890625
1783169472330507000,7.216507080078125,-0.8459320068359375,-0.5066070556640625,0.02679443359375
1783169472340455200,7.226455078125,-0.8479156494140625,-0.5038299560546875,0.0278472900390625
1783169472350404000,7.236404052734375,-0.8516387939453125,-0.503662109375,0.0293731689453125
1783169472360383000,7.246383056640625,-0.8529052734375,-0.5042266845703125,0.02960205078125
1783169472370332000,7.256331787109375,-0.855987548828125,-0.5021209716796875,0.0289154052734375
1783169472380281000,7.266281005859375,-0.861358642578125,-0.501129150390625,0.0285491943359375
1783169472390230000,7.27622998046875,-0.864837646484375,-0.500946044921875,0.0265655517578125
1783169472400209000,7.286208984375,-0.8629608154296875,-0.501800537109375,0.0278167724609375
1783169472410157800,7.29615771484375,-0.861358642578125,-0.5008544921875,0.02996826171875
1783169472420106000,7.30610595703125,-0.8605804443359375,-0.5001068115234375,0.0310821533203125
1783169472430055000,7.316054931640625,-0.860870361328125,-0.501373291015625,0.0329132080078125
1783169472440033800,7.32603369140625,-0.8572540283203125,-0.5020751953125,0.03472900390625
1783169472449983000,7.33598291015625,-0.8557891845703125,-0.4998931884765625,0.0346527099609375
1783169472459932000,7.345931884765625,-0.8566436767578125,-0.497772216796875,0.0331878662109375
1783169472469910800,7.355910888671875,-0.85321044921875,-0.499114990234375,0.03125
1783169472479860000,7.36585986328125,-0.8543701171875,-0.5006561279296875,0.0312652587890625
1783169472489808000,7.375807861328125,-0.8541717529296875,-0.5023651123046875,0.0328216552734375
1783169472499757000,7.385757080078125,-0.8512420654296875,-0.501434326171875,0.0333709716796875
1783169472509736000,7.39573583984375,-0.854766845703125,-0.5006561279296875,0.0322723388671875
1783169472519685000,7.40568505859375,-0.856658935546875,-0.501495361328125,0.032684326171875
1783169472529634000,7.415634033203125,-0.8589324951171875,-0.4994049072265625,0.033599853515625
1783169472539583000,7.4255830078125,-0.8610382080078125,-0.4982147216796875,0.029510498046875
1783169472549561900,7.435561767578125,-0.86187744140625,-0.4985809326171875,0.02545166015625
1783169472559511000,7.445510986328125,-0.8646392822265625,-0.49853515625,0.024871826171875
1783169472569459000,7.455458984375,-0.866180419921875,-0.50054931640625,0.0261688232421875
1783169472579438800,7.46543896484375,-0.8660736083984375,-0.5032196044921875,0.02655029296875
1783169472589387000,7.475386962890625,-0.863677978515625,-0.504425048828125,0.027984619140625
1783169472599336000,7.4853359375,-0.86138916015625,-0.503875732421875,0.02777099609375
1783169472609284900,7.495284912109375,-0.8602294921875,-0.50506591796875,0.0309600830078125
1783169472619264000,7.505263916015625,-0.86004638671875,-0.503692626953125,0.0318450927734375
1783169472629213000,7.515212890625,-0.857696533203125,-0.501220703125,0.0301055908203125
1783169472639160800,7.525160888671875,-0.8552398681640625,-0.500732421875,0.029388427734375
1783169472649109800,7.53510986328125,-0.8525848388671875,-0.5005035400390625,0.0289306640625
1783169472659089000,7.5450888671875,-0.849884033203125,-0.499359130859375,0.02923583984375
1783169472669038000,7.5550380859375,-0.8483123779296875,-0.4994049072265625,0.0286865234375
1783169472678987000,7.564987060546875,-0.8482818603515625,-0.5010528564453125,0.0272674560546875
1783169472688966100,7.574966064453125,-0.847412109375,-0.50152587890625,0.024169921875
1783169472698915000,7.5849150390625,-0.8477325439453125,-0.5009765625,0.0222015380859375
1783169472708864000,7.594864013671875,-0.8512420654296875,-0.5052337646484375,0.020721435546875
1783169472718812000,7.60481201171875,-0.84783935546875,-0.507415771484375,0.0189056396484375
1783169472728792000,7.6147919921875,-0.847991943359375,-0.5069122314453125,0.01904296875
1783169472738740000,7.624739990234375,-0.8488922119140625,-0.5068206787109375,0.0186767578125
1783169472748689000,7.63468896484375,-0.8480682373046875,-0.5055999755859375,0.0182342529296875
1783169472758637800,7.644637939453125,-0.8497772216796875,-0.5040740966796875,0.0164031982421875
1783169472768617000,7.654616943359375,-0.8519287109375,-0.5029144287109375,0.0131988525390625
1783169472778566000,7.66456591796875,-0.850494384765625,-0.5032196044921875,0.01025390625
1783169472788514800,7.674514892578125,-0.8456268310546875,-0.502960205078125,0.009246826171875
1783169472798494000,7.684493896484375,-0.843719482421875,-0.5025177001953125,0.0101318359375
1783169472808443100,7.694443115234375,-0.8418731689453125,-0.5010986328125,0.013427734375
1783169472818390800,7.704390869140625,-0.84112548828125,-0.505340576171875,0.0172119140625
1783169472828340000,7.714340087890625,-0.841094970703125,-0.5093536376953125,0.0181884765625
1783169472838319000,7.724319091796875,-0.841339111328125,-0.5079803466796875,0.0171966552734375
1783169472848268000,7.73426806640625,-0.84100341796875,-0.5040435791015625,0.0192108154296875
1783169472858217000,7.744217041015625,-0.8436279296875,-0.5015716552734375,0.0228271484375
1783169472868165000,7.7541650390625,-0.84539794921875,-0.5015106201171875,0.025848388671875
1783169472878145000,7.76414501953125,-0.84674072265625,-0.5014495849609375,0.0279693603515625
1783169472888093000,7.774093017578125,-0.8517913818359375,-0.5018157958984375,0.0278167724609375
1783169472898041900,7.784041748046875,-0.856231689453125,-0.5020751953125,0.029144287109375
1783169472908021000,7.79402099609375,-0.85906982421875,-0.504608154296875,0.02593994140625
1783169472917970000,7.803969970703125,-0.863128662109375,-0.5055999755859375,0.024261474609375
1783169472927918800,7.8139189453125,-0.8690948486328125,-0.5040435791015625,0.0262298583984375
1783169472937867800,7.82386767578125,-0.8753509521484375,-0.5023040771484375,0.02655029296875
1783169472947847000,7.833846923828125,-0.8733978271484375,-0.505889892578125,0.024383544921875
1783169472957795800,7.8437958984375,-0.8746490478515625,-0.505950927734375,0.0212860107421875
1783169472967744000,7.853743896484375,-0.87774658203125,-0.503448486328125,0.0204010009765625
1783169472977693000,7.86369287109375,-0.8752288818359375,-0.5017242431640625,0.021759033203125
1783169472987671800,7.873671875,-0.8658294677734375,-0.5011749267578125,0.0241546630859375
1783169472997621000,7.88362109375,-0.8592987060546875,-0.499267578125,0.023712158203125
1783169473007570000,7.89356982421875,-0.8560791015625,-0.498565673828125,0.0175628662109375
1783169473017549000,7.903549072265625,-0.8536834716796875,-0.4999237060546875,0.0115203857421875
1783169473027498000,7.913498046875,-0.853179931640625,-0.5009002685546875,0.00775146484375
1783169473037446100,7.923446044921875,-0.852325439453125,-0.4990081787109375,0.0028228759765625
1783169473047395000,7.93339501953125,-0.8504180908203125,-0.498779296875,-0.003509521484375
1783169473057374000,7.9433740234375,-0.84893798828125,-0.4987640380859375,-0.0080718994140625
1783169473067323000,7.953322998046875,-0.8497467041015625,-0.4991607666015625,-0.0067291259765625
1783169473077272000,7.96327197265625,-0.8491058349609375,-0.500946044921875,-0.004547119140625
1783169473087221000,7.973220947265625,-0.8475341796875,-0.501068115234375,-0.0025634765625
1783169473097199900,7.983199951171875,-0.8474578857421875,-0.4987945556640625,-0.001220703125
1783169473107148800,7.993148681640625,-0.84649658203125,-0.498992919921875,0.0024871826171875
1783169473117097000,8.003096923828124,-0.8457183837890625,-0.49884033203125,0.005401611328125
1783169473127076900,8.013076904296875,-0.8496551513671875,-0.496612548828125,0.0062255859375
1783169473137024800,8.023024658203125,-0.85400390625,-0.4995574951171875,0.0062408447265625
1783169473146974000,8.032973876953125,-0.85260009765625,-0.504913330078125,0.0058135986328125
1783169473156927700,8.042927734375,-0.84844970703125,-0.5069122314453125,0.006683349609375
1783169473166907000,8.052906982421876,-0.8500518798828125,-0.50677490234375,0.0098114013671875
1783169473176855800,8.062855712890626,-0.850677490234375,-0.508636474609375,0.01019287109375
1783169473186803700,8.0728037109375,-0.852447509765625,-0.5080718994140625,0.0099639892578125
1783169473196753000,8.0827529296875,-0.8609466552734375,-0.5079498291015625,0.013397216796875
1783169473206731800,8.092731689453124,-0.8695831298828125,-0.5083160400390625,0.017547607421875
1783169473216680700,8.1026806640625,-0.86981201171875,-0.503265380859375,0.0225982666015625
1783169473226629600,8.112629638671875,-0.8741912841796875,-0.4951629638671875,0.024169921875
1783169473236608800,8.12260888671875,-0.8801116943359375,-0.4923553466796875,0.0239410400390625
1783169473246557700,8.1325576171875,-0.881103515625,-0.49261474609375,0.0245513916015625
1783169473256507000,8.1425068359375,-0.877899169921875,-0.4918060302734375,0.02606201171875
1783169473266455000,8.152455078125,-0.8707275390625,-0.489288330078125,0.024200439453125
1783169473276435000,8.16243505859375,-0.8658294677734375,-0.4888458251953125,0.022979736328125
1783169473286382800,8.1723828125,-0.85858154296875,-0.4903717041015625,0.0224609375
1783169473296331800,8.182331787109375,-0.852691650390625,-0.4945831298828125,0.0241546630859375
1783169473306281000,8.192281005859375,-0.848052978515625,-0.498565673828125,0.0251312255859375
1783169473316259800,8.202259765625,-0.842437744140625,-0.501251220703125,0.025726318359375
1783169473326208800,8.212208740234376,-0.8362579345703125,-0.5011444091796875,0.025482177734375
1783169473336157000,8.222156982421875,-0.8395538330078125,-0.50115966796875,0.024871826171875
1783169473346136800,8.23213671875,-0.8413848876953125,-0.504180908203125,0.0243988037109375
1783169473356084700,8.242084716796874,-0.84051513671875,-0.502899169921875,0.0262908935546875
1783169473366034000,8.252033935546875,-0.8448486328125,-0.4974822998046875,0.0271148681640625
1783169473375982800,8.26198291015625,-0.8494873046875,-0.4947509765625,0.0243988037109375
1783169473385961700,8.271961669921875,-0.850799560546875,-0.493743896484375,0.022247314453125
1783169473395910700,8.28191064453125,-0.8537750244140625,-0.4940185546875,0.0224761962890625
1783169473405859800,8.29185986328125,-0.854461669921875,-0.4951934814453125,0.022979736328125
1783169473415807700,8.301807861328125,-0.854644775390625,-0.4964447021484375,0.0196990966796875
1783169473425788000,8.311787841796875,-0.857391357421875,-0.49859619140625,0.0206146240234375
1783169473435736000,8.321736083984375,-0.8583984375,-0.5021820068359375,0.0213470458984375
1783169473445685000,8.33168505859375,-0.858856201171875,-0.505523681640625,0.0192413330078125
1783169473455663900,8.341663818359375,-0.8569793701171875,-0.5080108642578125,0.011962890625
1783169473465612800,8.35161279296875,-0.8574981689453125,-0.5087127685546875,0.00628662109375
1783169473475562000,8.36156201171875,-0.8573455810546875,-0.50982666015625,0.005706787109375
1783169473485510000,8.371510009765625,-0.8566741943359375,-0.5100860595703125,0.0063018798828125
1783169473495489800,8.38148974609375,-0.85418701171875,-0.50927734375,0.004791259765625
1783169473505438000,8.39143798828125,-0.8558502197265625,-0.5081024169921875,0.001953125
1783169473515387000,8.401386962890625,-0.8591461181640625,-0.50811767578125,0.0008544921875
1783169473525335800,8.411335693359375,-0.855712890625,-0.5085601806640625,0.0021209716796875
1783169473535314700,8.421314697265625,-0.8527069091796875,-0.50762939453125,0.00323486328125
1783169473545263900,8.431263916015626,-0.8544769287109375,-0.5079193115234375,0.004364013671875
1783169473555212800,8.441212890625,-0.857147216796875,-0.510009765625,0.0065460205078125
1783169473565191700,8.451191650390625,-0.8496551513671875,-0.5103607177734375,0.0075225830078125
1783169473575140600,8.461140625,-0.8451080322265625,-0.5074920654296875,0.008026123046875
1783169473585088800,8.4710888671875,-0.8477630615234375,-0.506805419921875,0.0103302001953125
1783169473595038000,8.481037841796875,-0.8458404541015625,-0.50970458984375,0.01080322265625
1783169473605016800,8.491016845703125,-0.8428955078125,-0.5090179443359375,0.0102691650390625
1783169473614966000,8.500966064453126,-0.846343994140625,-0.5052947998046875,0.01025390625
1783169473624915000,8.5109150390625,-0.8487548828125,-0.503204345703125,0.011871337890625
1783169473634863900,8.52086376953125,-0.8476715087890625,-0.5030975341796875,0.0145416259765625
1783169473644842800,8.5308427734375,-0.8490142822265625,-0.503631591796875,0.017059326171875
1783169473654791000,8.540791015625,-0.8473663330078125,-0.5019683837890625,0.019378662109375
1783169473664739800,8.55073974609375,-0.8471832275390625,-0.4991912841796875,0.02044677734375
1783169473674719000,8.560718994140625,-0.848724365234375,-0.49786376953125,0.0206451416015625
1783169473684668000,8.57066796875,-0.8470306396484375,-0.4997406005859375,0.020782470703125
1783169473694616800,8.580616943359376,-0.8478851318359375,-0.498779296875,0.021881103515625
1783169473704565800,8.590565673828126,-0.8530731201171875,-0.49835205078125,0.021636962890625
1783169473714545000,8.600544921875,-0.85302734375,-0.4980926513671875,0.020050048828125
1783169473724493800,8.610493896484375,-0.8542022705078125,-0.4972686767578125,0.0204620361328125
1783169473734441700,8.620441650390624,-0.852508544921875,-0.50054931640625,0.0205078125
1783169473744390700,8.630390625,-0.85003662109375,-0.5010833740234375,0.0211334228515625
1783169473754369800,8.640369873046875,-0.84979248046875,-0.5006256103515625,0.0230865478515625
1783169473764319000,8.650319091796876,-0.850494384765625,-0.5025482177734375,0.0217742919921875
1783169473774268000,8.660267822265626,-0.8541717529296875,-0.504486083984375,0.0182342529296875
1783169473784247000,8.6702470703125,-0.8531951904296875,-0.5059356689453125,0.0149383544921875
1783169473794196000,8.680196044921875,-0.850250244140625,-0.5062103271484375,0.012664794921875
1783169473804145000,8.690144775390625,-0.8508453369140625,-0.5070953369140625,0.0122528076171875
1783169473814092800,8.7000927734375,-0.8556671142578125,-0.5114593505859375,0.0109405517578125
1783169473824073000,8.710072998046876,-0.857452392578125,-0.5133209228515625,0.00897216796875
1783169473834020900,8.720020751953125,-0.8543548583984375,-0.512847900390625,0.008544921875
1783169473843969800,8.7299697265625,-0.8552398681640625,-0.509765625,0.0087127685546875
1783169473853918700,8.739918701171876,-0.8535003662109375,-0.5081939697265625,0.006500244140625
1783169473863897900,8.74989794921875,-0.8504791259765625,-0.5056304931640625,0.00579833984375
1783169473873846800,8.7598466796875,-0.8526763916015625,-0.5055084228515625,0.00653076171875
1783169473883794700,8.769794677734374,-0.84991455078125,-0.508544921875,0.0097808837890625
1783169473893774800,8.77977490234375,-0.844512939453125,-0.510833740234375,0.0120697021484375
1783169473903722800,8.78972265625,-0.8430633544921875,-0.50927734375,0.0129852294921875
1783169473913671700,8.799671630859375,-0.842620849609375,-0.5090484619140625,0.01239013671875
1783169473923620900,8.809620849609376,-0.842742919921875,-0.509185791015625,0.011016845703125
1783169473933600000,8.81960009765625,-0.846710205078125,-0.51025390625,0.0110626220703125
1783169473943549000,8.829548828125,-0.8477630615234375,-0.509613037109375,0.0094451904296875
1783169473953497900,8.839497802734375,-0.8479766845703125,-0.5068206787109375,0.007110595703125
1783169473963446000,8.849446044921875,-0.8499298095703125,-0.5053558349609375,0.0077362060546875
1783169473973426000,8.859426025390626,-0.8510589599609375,-0.5052642822265625,0.00860595703125
1783169473983373800,8.869373779296875,-0.854278564453125,-0.5052337646484375,0.01202392578125
1783169473993322800,8.87932275390625,-0.8545989990234375,-0.5037689208984375,0.0157470703125
1783169474003302000,8.889302001953125,-0.85357666015625,-0.5014190673828125,0.01898193359375
1783169474013250800,8.899250732421875,-0.8534393310546875,-0.50042724609375,0.0191802978515625
1783169474023199700,8.90919970703125,-0.8537750244140625,-0.5006561279296875,0.020050048828125
1783169474033148000,8.91914794921875,-0.8563079833984375,-0.500732421875,0.0211639404296875
1783169474043127800,8.9291279296875,-0.8600006103515625,-0.5028533935546875,0.0226898193359375
1783169474053075700,8.93907568359375,-0.85467529296875,-0.503997802734375,0.0254058837890625
1783169474063024600,8.949024658203125,-0.851165771484375,-0.5023040771484375,0.025482177734375
1783169474072973800,8.958973876953126,-0.854644775390625,-0.50115966796875,0.0253753662109375
1783169474082952700,8.96895263671875,-0.8510589599609375,-0.502288818359375,0.0245513916015625
1783169474092902000,8.97890185546875,-0.848602294921875,-0.5032806396484375,0.0248565673828125
1783169474102850800,8.988850830078125,-0.8516693115234375,-0.5033721923828125,0.024627685546875
1783169474112830000,8.998829833984376,-0.8500823974609375,-0.504302978515625,0.0240478515625
1783169474122779000,9.00877880859375,-0.84979248046875,-0.5057220458984375,0.0227508544921875
1783169474132726800,9.018726806640625,-0.84930419921875,-0.5064239501953125,0.0210723876953125
1783169474142676000,9.028676025390626,-0.84881591796875,-0.5059814453125,0.0192108154296875
1783169474152693200,9.038693359375,-0.851104736328125,-0.5047149658203125,0.01873779296875
1783169474162642200,9.04864208984375,-0.85223388671875,-0.5048675537109375,0.0157928466796875
1783169474172591000,9.058591064453125,-0.8512420654296875,-0.5062103271484375,0.010467529296875
1783169474182539300,9.068539306640625,-0.8479766845703125,-0.5059967041015625,0.010406494140625
1783169474192519200,9.078519287109375,-0.8470916748046875,-0.506134033203125,0.010284423828125
1783169474202467300,9.08846728515625,-0.8463592529296875,-0.508392333984375,0.0091705322265625
1783169474212416300,9.098416259765624,-0.8470001220703125,-0.5101165771484375,0.0080108642578125
1783169474222395100,9.10839501953125,-0.84698486328125,-0.512542724609375,0.0043792724609375
1783169474232344000,9.118343994140625,-0.84600830078125,-0.5108184814453125,0.000518798828125
1783169474242293000,9.12829296875,-0.8486480712890625,-0.5075531005859375,-0.0002899169921875
1783169474252242200,9.1382421875,-0.8456268310546875,-0.505401611328125,-0.0018768310546875
1783169474262221000,9.148220947265624,-0.83953857421875,-0.5049591064453125,-0.00079345703125
1783169474272170200,9.158170166015625,-0.84375,-0.5047760009765625,0.00128173828125
1783169474282118400,9.168118408203124,-0.850433349609375,-0.5066070556640625,0.0043792724609375
1783169474292067300,9.1780673828125,-0.8497161865234375,-0.5056304931640625,0.0068511962890625
1783169474302046200,9.188046142578125,-0.8495025634765625,-0.4992218017578125,0.0046844482421875
1783169474311995400,9.197995361328125,-0.847198486328125,-0.4960174560546875,0.0041351318359375
1783169474321944300,9.2079443359375,-0.849273681640625,-0.4958343505859375,0.0061798095703125
1783169474331923200,9.217923095703124,-0.8502197265625,-0.4999542236328125,0.0104522705078125
1783169474341872000,9.2278720703125,-0.8486328125,-0.504974365234375,0.01336669921875
1783169474351820300,9.2378203125,-0.847686767578125,-0.50567626953125,0.0163726806640625
1783169474361769200,9.247769287109374,-0.84857177734375,-0.5033111572265625,0.0171966552734375
1783169474371748000,9.257748046875,-0.8520355224609375,-0.5041351318359375,0.0172119140625
1783169474381697300,9.267697265625,-0.8559112548828125,-0.5069580078125,0.0147247314453125
1783169474391646200,9.277646240234375,-0.8588104248046875,-0.5048980712890625,0.014129638671875
1783169474401595100,9.28759521484375,-0.8610687255859375,-0.5021514892578125,0.0140228271484375
1783169474411574000,9.297573974609374,-0.8655853271484375,-0.502960205078125,0.012237548828125
1783169474421523200,9.307523193359375,-0.869720458984375,-0.504180908203125,0.0109100341796875
1783169474431471000,9.31747119140625,-0.875396728515625,-0.5038299560546875,0.0116424560546875
1783169474441451300,9.327451171875,-0.876800537109375,-0.5017852783203125,0.01080322265625
1783169474451399200,9.337399169921875,-0.8708038330078125,-0.5005950927734375,0.0120697021484375
1783169474461348400,9.347348388671875,-0.86932373046875,-0.4999237060546875,0.0125579833984375
1783169474471297300,9.35729736328125,-0.8679351806640625,-0.502105712890625,0.0163116455078125
1783169474481276200,9.367276123046874,-0.86358642578125,-0.503570556640625,0.0208740234375
1783169474491225300,9.377225341796875,-0.860107421875,-0.5024261474609375,0.0201416015625
1783169474501173200,9.38717333984375,-0.857940673828125,-0.5015411376953125,0.019683837890625
1783169474511122200,9.3971220703125,-0.852996826171875,-0.4993133544921875,0.0181884765625
1783169474521101300,9.407101318359375,-0.852630615234375,-0.4972686767578125,0.0170440673828125
1783169474531050200,9.41705029296875,-0.8545379638671875,-0.4956817626953125,0.0174713134765625
1783169474540999200,9.426999267578125,-0.8535614013671875,-0.494873046875,0.01727294921875
1783169474550978300,9.436978271484374,-0.851470947265625,-0.4959716796875,0.0155029296875
1783169474560927200,9.44692724609375,-0.8513641357421875,-0.4964599609375,0.01690673828125
1783169474570876200,9.456876220703125,-0.8498687744140625,-0.496673583984375,0.018280029296875
1783169474580824000,9.466823974609374,-0.8470916748046875,-0.499481201171875,0.0175933837890625
1783169474590804200,9.47680419921875,-0.8452606201171875,-0.5037078857421875,0.0179290771484375
1783169474600752000,9.486752197265625,-0.8477020263671875,-0.503143310546875,0.0172882080078125
1783169474610701300,9.496701416015625,-0.849273681640625,-0.5021209716796875,0.0155181884765625
1783169474620650200,9.506650146484375,-0.850830078125,-0.5,0.0144500732421875
1783169474630629400,9.51662939453125,-0.8554840087890625,-0.499969482421875,0.012969970703125
1783169474640578300,9.526578369140625,-0.8589019775390625,-0.498504638671875,0.0121612548828125
1783169474650527200,9.53652734375,-0.8608856201171875,-0.498931884765625,0.01177978515625
1783169474660506400,9.54650634765625,-0.8615570068359375,-0.4975433349609375,0.0121002197265625
1783169474670454300,9.556454345703125,-0.8613128662109375,-0.496307373046875,0.0119781494140625
1783169474680403200,9.5664033203125,-0.86114501953125,-0.4974365234375,0.0126495361328125
1783169474690352000,9.57635205078125,-0.8608245849609375,-0.4984130859375,0.01263427734375
1783169474700331300,9.586331298828124,-0.8603973388671875,-0.4979705810546875,0.0140838623046875
1783169474710280200,9.5962802734375,-0.8592681884765625,-0.49603271484375,0.0150299072265625
1783169474720229000,9.60622900390625,-0.8601226806640625,-0.4958038330078125,0.014739990234375
1783169474730177300,9.61617724609375,-0.859100341796875,-0.4972076416015625,0.0150299072265625
1783169474740157200,9.6261572265625,-0.857147216796875,-0.4964447021484375,0.016082763671875
1783169474750105000,9.63610498046875,-0.8570556640625,-0.4954986572265625,0.01739501953125
1783169474760054000,9.646053955078125,-0.856536865234375,-0.4938507080078125,0.0184783935546875
1783169474770033200,9.656033203125,-0.85455322265625,-0.49163818359375,0.021728515625
1783169474779982000,9.665982177734374,-0.8572540283203125,-0.4912567138671875,0.0258941650390625
1783169474789931300,9.67593115234375,-0.8606719970703125,-0.49285888671875,0.026336669921875
1783169474799880200,9.685880126953125,-0.8656005859375,-0.49517822265625,0.02679443359375
1783169474809859300,9.695859375,-0.8663330078125,-0.497283935546875,0.0238494873046875
1783169474819808300,9.705808349609375,-0.86944580078125,-0.49688720703125,0.02093505859375
1783169474829756200,9.715756103515625,-0.876007080078125,-0.497589111328125,0.0189056396484375
1783169474839705300,9.725705322265625,-0.8767242431640625,-0.500030517578125,0.0151214599609375
1783169474849684200,9.735684326171874,-0.871551513671875,-0.502349853515625,0.0098724365234375
1783169474859633200,9.745633056640624,-0.8674163818359375,-0.50054931640625,0.0083770751953125
1783169474869582000,9.75558203125,-0.8665771484375,-0.500885009765625,0.0073394775390625
1783169474879561200,9.765561279296875,-0.864227294921875,-0.5033111572265625,0.00799560546875
1783169474889510100,9.77551025390625,-0.857330322265625,-0.501800537109375,0.0099639892578125
1783169474899458000,9.7854580078125,-0.849853515625,-0.5006866455078125,0.0099029541015625
1783169474909407200,9.7954072265625,-0.844573974609375,-0.4996490478515625,0.0121917724609375
1783169474919386000,9.80538623046875,-0.8339996337890625,-0.498687744140625,0.0161590576171875
1783169474929335000,9.8153349609375,-0.831756591796875,-0.496307373046875,0.0228271484375
1783169474939284200,9.8252841796875,-0.8360137939453125,-0.495941162109375,0.027679443359375
1783169474949233400,9.8352333984375,-0.838531494140625,-0.494903564453125,0.025604248046875
1783169474959212300,9.84521240234375,-0.83843994140625,-0.4918975830078125,0.0257568359375
1783169474969161200,9.8551611328125,-0.8387298583984375,-0.488433837890625,0.0247802734375
1783169474979109400,9.865109375,-0.8391876220703125,-0.4868316650390625,0.0225067138671875
1783169474989089300,9.87508935546875,-0.84393310546875,-0.490142822265625,0.0228118896484375
1783169474999037200,9.885037109375,-0.8467254638671875,-0.495452880859375,0.0222930908203125
1783169475008986000,9.894986083984374,-0.8499298095703125,-0.499786376953125,0.0191497802734375
1783169475018935300,9.904935302734375,-0.8551177978515625,-0.5006103515625,0.0167694091796875
1783169475028914200,9.9149140625,-0.8614959716796875,-0.5014190673828125,0.013580322265625
1783169475038863000,9.924863037109375,-0.86962890625,-0.50286865234375,0.0125732421875
1783169475048811300,9.934811279296875,-0.8732757568359375,-0.5022125244140625,0.01422119140625
1783169475058760200,9.94476025390625,-0.8732452392578125,-0.49957275390625,0.013885498046875
1783169475068739000,9.954739013671874,-0.8714752197265625,-0.4957122802734375,0.0136871337890625
1783169475078688300,9.964688232421874,-0.86981201171875,-0.4941864013671875,0.0141448974609375
1783169475088637200,9.97463720703125,-0.8719024658203125,-0.4955902099609375,0.02044677734375
1783169475098616000,9.984615966796875,-0.8706512451171875,-0.4984588623046875,0.024322509765625
1783169475108565000,9.99456494140625,-0.86749267578125,-0.495758056640625,0.02117919921875
1783169475118514200,10.00451416015625,-0.866973876953125,-0.493438720703125,0.0130157470703125
1783169475128462300,10.01446240234375,-0.8666839599609375,-0.4949951171875,0.008056640625
1783169475138442200,10.024442138671875,-0.86407470703125,-0.4996490478515625,0.0125885009765625
1783169475148390400,10.034390380859374,-0.860198974609375,-0.5058441162109375,0.0171966552734375
1783169475158336800,10.044336669921876,-0.853302001953125,-0.50665283203125,0.0163421630859375
1783169475168286000,10.054285888671876,-0.8505706787109375,-0.5056915283203125,0.01220703125
1783169475178264800,10.064264892578125,-0.848602294921875,-0.5045166015625,0.0085601806640625
1783169475188214000,10.074214111328125,-0.8487396240234375,-0.5023193359375,0.0092620849609375
1783169475198162000,10.084161865234375,-0.8499603271484375,-0.49920654296875,0.0096282958984375
1783169475208142000,10.09414208984375,-0.848297119140625,-0.4958648681640625,0.0052947998046875
1783169475218090000,10.104090087890626,-0.85015869140625,-0.495452880859375,0.002349853515625
1783169475228039000,10.114038818359376,-0.853515625,-0.49737548828125,0.0056304931640625
1783169475237988000,10.123988037109376,-0.849884033203125,-0.4992523193359375,0.0092926025390625
1783169475247967000,10.133967041015625,-0.8498382568359375,-0.498565673828125,0.0131378173828125
1783169475257916000,10.143916015625,-0.852203369140625,-0.5005340576171875,0.0140838623046875
1783169475267864800,10.15386474609375,-0.8487701416015625,-0.504241943359375,0.01348876953125
1783169475277813000,10.16381298828125,-0.847381591796875,-0.50335693359375,0.012603759765625
1783169475287793000,10.17379296875,-0.851470947265625,-0.50067138671875,0.0100555419921875
1783169475297741000,10.183740966796876,-0.853729248046875,-0.5029296875,0.0115966796875
1783169475307690000,10.19368994140625,-0.854522705078125,-0.50579833984375,0.013336181640625
1783169475317668900,10.2036689453125,-0.8577728271484375,-0.5048980712890625,0.0129852294921875
1783169475327617800,10.21361767578125,-0.85662841796875,-0.501312255859375,0.014190673828125
1783169475337567000,10.22356689453125,-0.8573760986328125,-0.497100830078125,0.01580810546875
1783169475347515000,10.233514892578125,-0.8568572998046875,-0.4947052001953125,0.0201568603515625
1783169475357495000,10.2434951171875,-0.8554534912109375,-0.492218017578125,0.02166748046875
1783169475367443000,10.25344287109375,-0.857025146484375,-0.4924163818359375,0.0242462158203125
1783169475377392000,10.26339208984375,-0.8590240478515625,-0.4951934814453125,0.0280609130859375
1783169475387341000,10.273341064453126,-0.8585968017578125,-0.4963836669921875,0.0291595458984375
1783169475397320000,10.28331982421875,-0.861297607421875,-0.493865966796875,0.0284881591796875
1783169475407269000,10.29326904296875,-0.865509033203125,-0.4927978515625,0.0227203369140625
1783169475417218000,10.303218017578125,-0.864349365234375,-0.492523193359375,0.0183258056640625
1783169475427197000,10.313197021484376,-0.8655853271484375,-0.491424560546875,0.01922607421875
1783169475437145900,10.323145751953126,-0.8633270263671875,-0.4904937744140625,0.0203399658203125
1783169475447094000,10.333093994140626,-0.8571624755859375,-0.4917755126953125,0.019317626953125
1783169475457043000,10.34304296875,-0.8553466796875,-0.4934234619140625,0.018707275390625
1783169475467021800,10.353021728515625,-0.8535308837890625,-0.49713134765625,0.019866943359375
1783169475476971000,10.362970947265625,-0.852691650390625,-0.500152587890625,0.021087646484375
1783169475486920000,10.372919921875,-0.8516387939453125,-0.5003509521484375,0.02191162109375
1783169475496868900,10.382868896484375,-0.852386474609375,-0.49993896484375,0.0227508544921875
1783169475506847700,10.39284765625,-0.8526611328125,-0.4994354248046875,0.0207977294921875
1783169475516796000,10.4027958984375,-0.848907470703125,-0.4993133544921875,0.019775390625
1783169475526744800,10.412744873046876,-0.8514251708984375,-0.497100830078125,0.0216827392578125
1783169475536724000,10.422723876953125,-0.8556671142578125,-0.49822998046875,0.0203857421875
1783169475546673200,10.432673095703125,-0.8554840087890625,-0.500213623046875,0.01910400390625
1783169475556622000,10.4426220703125,-0.8568572998046875,-0.4991912841796875,0.02008056640625
1783169475566571000,10.452571044921875,-0.8566741943359375,-0.4976043701171875,0.0193634033203125
1783169475576550000,10.4625498046875,-0.8580322265625,-0.4970245361328125,0.018707275390625
1783169475586499000,10.4724990234375,-0.8668212890625,-0.497100830078125,0.0164337158203125
1783169475596447000,10.482447021484376,-0.865692138671875,-0.4994659423828125,0.0156097412109375
1783169475606396000,10.49239599609375,-0.857208251953125,-0.4987945556640625,0.017181396484375
1783169475616375000,10.502375,-0.8558197021484375,-0.49737548828125,0.018402099609375
1783169475626324000,10.512323974609375,-0.8588104248046875,-0.499114990234375,0.0214996337890625
1783169475636273000,10.52227294921875,-0.85650634765625,-0.503143310546875,0.02301025390625
1783169475646252000,10.532251953125,-0.8551788330078125,-0.500823974609375,0.0249786376953125
1783169475656201000,10.542200927734376,-0.853912353515625,-0.498382568359375,0.0251922607421875
1783169475666150000,10.55214990234375,-0.8589019775390625,-0.4995269775390625,0.021820068359375
1783169475676097800,10.562097900390626,-0.8595123291015625,-0.5011749267578125,0.0204925537109375
1783169475686077000,10.572076904296875,-0.8575286865234375,-0.5005035400390625,0.0230255126953125
1783169475696025900,10.58202587890625,-0.85968017578125,-0.4996337890625,0.0257568359375
1783169475705975000,10.59197509765625,-0.8607635498046875,-0.499267578125,0.0252532958984375
1783169475715924000,10.601924072265625,-0.86004638671875,-0.498138427734375,0.0255126953125
1783169475725903000,10.611903076171876,-0.8593902587890625,-0.4959259033203125,0.026275634765625
1783169475735852000,10.62185205078125,-0.8589630126953125,-0.4937896728515625,0.0251007080078125
1783169475745800000,10.631800048828126,-0.8572540283203125,-0.4948883056640625,0.023284912109375
1783169475755780000,10.641780029296875,-0.857574462890625,-0.495391845703125,0.0234832763671875
1783169475765728000,10.65172802734375,-0.8563232421875,-0.4940948486328125,0.0240020751953125
1783169475775677000,10.661677001953125,-0.8550872802734375,-0.4959259033203125,0.02557373046875
1783169475785625900,10.6716259765625,-0.8543701171875,-0.49737548828125,0.0257415771484375
1783169475795605000,10.68160498046875,-0.855010986328125,-0.49713134765625,0.0250244140625
1783169475805554000,10.691553955078126,-0.8520660400390625,-0.495086669921875,0.0226898193359375
1783169475815502800,10.7015029296875,-0.8516387939453125,-0.4934234619140625,0.020263671875
1783169475825451000,10.711450927734376,-0.8545684814453125,-0.492401123046875,0.01995849609375
1783169475835431000,10.721430908203125,-0.85089111328125,-0.4937591552734375,0.0195465087890625
1783169475845378800,10.73137890625,-0.849273681640625,-0.49359130859375,0.0194091796875
1783169475855327700,10.74132763671875,-0.851165771484375,-0.493499755859375,0.02020263671875
1783169475865307000,10.751306884765626,-0.849517822265625,-0.4967498779296875,0.020721435546875
1783169475875256000,10.761256103515626,-0.8491058349609375,-0.4986572265625,0.0193939208984375
1783169475885205000,10.771205078125,-0.8506927490234375,-0.4981536865234375,0.01849365234375
1783169475895153200,10.781153076171876,-0.850677490234375,-0.4979400634765625,0.0173492431640625
1783169475905133000,10.791133056640625,-0.849609375,-0.497894287109375,0.015838623046875
1783169475915081000,10.8010810546875,-0.8547515869140625,-0.4970550537109375,0.0133514404296875
1783169475925030000,10.81102978515625,-0.8553924560546875,-0.496734619140625,0.0152130126953125
1783169475934979000,10.82097900390625,-0.8536224365234375,-0.4959259033203125,0.0175018310546875
1783169475944958000,10.8309580078125,-0.8536834716796875,-0.4966583251953125,0.017364501953125
1783169475954907000,10.840906982421876,-0.8528289794921875,-0.4982757568359375,0.0190887451171875
1783169475964855800,10.850855712890626,-0.8474578857421875,-0.4977264404296875,0.0225067138671875
1783169475974835000,10.8608349609375,-0.846771240234375,-0.4952239990234375,0.0247802734375
1783169475984784000,10.870783935546875,-0.8614044189453125,-0.5025634765625,0.017425537109375
1783169475994731800,10.880731689453125,-0.86138916015625,-0.507965087890625,0.012786865234375
1783169476004681000,10.890680908203125,-0.850250244140625,-0.4996795654296875,0.016571044921875
1783169476014659800,10.900659912109376,-0.8545074462890625,-0.4918975830078125,0.018402099609375
1783169476024608800,10.91060888671875,-0.8614654541015625,-0.495880126953125,0.0124053955078125
1783169476034558000,10.920557861328126,-0.8575897216796875,-0.4983062744140625,0.0111846923828125
1783169476044506000,10.930506103515626,-0.857818603515625,-0.496185302734375,0.0145263671875
1783169476054486000,10.940486083984375,-0.8586273193359375,-0.4947967529296875,0.0181121826171875
1783169476064434200,10.95043408203125,-0.8565521240234375,-0.496124267578125,0.0227203369140625
1783169476074383000,10.960383056640625,-0.8550872802734375,-0.499237060546875,0.0128326416015625
1783169476084362000,10.970362060546876,-0.8542327880859375,-0.4989471435546875,0.0121917724609375
1783169476094311000,10.980310791015626,-0.8570556640625,-0.495697021484375,0.0150909423828125
1783169476104259800,10.990259765625,-0.8656158447265625,-0.4947357177734375,0.0161895751953125
1783169476114209000,11.000208984375,-0.8631134033203125,-0.49658203125,0.0131683349609375
1783169476124188000,11.01018798828125,-0.8643035888671875,-0.496734619140625,0.007049560546875
1783169476134136800,11.02013671875,-0.866363525390625,-0.4944305419921875,0.00799560546875
1783169476144085000,11.0300849609375,-0.86553955078125,-0.493743896484375,0.011932373046875
1783169476154055000,11.040054931640626,-0.86328125,-0.4954833984375,0.014434814453125
1783169476164033800,11.05003369140625,-0.86309814453125,-0.49884033203125,0.01373291015625
1783169476173983000,11.05998291015625,-0.86322021484375,-0.499847412109375,0.0128326416015625
1783169476183932200,11.06993212890625,-0.8605804443359375,-0.4999847412109375,0.0128326416015625
1783169476193911000,11.0799111328125,-0.8604736328125,-0.49957275390625,0.014984130859375
1783169476203860000,11.08985986328125,-0.8598480224609375,-0.5014190673828125,0.015655517578125
1783169476213808000,11.09980810546875,-0.8569183349609375,-0.501007080078125,0.015350341796875
1783169476223757000,11.109757080078126,-0.8603515625,-0.4992828369140625,0.0170135498046875
1783169476233736000,11.11973583984375,-0.8580322265625,-0.4997406005859375,0.0182342529296875
1783169476243685000,11.12968505859375,-0.857025146484375,-0.497589111328125,0.01873779296875
1783169476253634000,11.139634033203125,-0.8627166748046875,-0.495452880859375,0.019775390625
1783169476263583000,11.1495830078125,-0.8661651611328125,-0.494842529296875,0.0250244140625
1783169476273561900,11.159561767578126,-0.8685150146484375,-0.4948883056640625,0.029541015625
1783169476283511000,11.169510986328126,-0.8721160888671875,-0.4936370849609375,0.026885986328125
1783169476293459000,11.179458984375,-0.8717498779296875,-0.4914703369140625,0.0235443115234375
1783169476303438800,11.18943896484375,-0.8685455322265625,-0.491455078125,0.0213165283203125
1783169476313387000,11.199386962890625,-0.8647003173828125,-0.495086669921875,0.0193939208984375
1783169476323336000,11.2093359375,-0.8605194091796875,-0.4974517822265625,0.016326904296875
1783169476333284900,11.219284912109375,-0.8562164306640625,-0.497314453125,0.014190673828125
1783169476343263700,11.229263671875,-0.8524169921875,-0.49822998046875,0.013397216796875
1783169476353213200,11.239213134765626,-0.8466949462890625,-0.5,0.0112457275390625
1783169476363160800,11.249160888671875,-0.8404693603515625,-0.498321533203125,0.0102386474609375
1783169476373110000,11.259110107421876,-0.83551025390625,-0.494049072265625,0.0090179443359375
1783169476383089200,11.269089111328125,-0.8346099853515625,-0.49066162109375,0.0120086669921875
1783169476393038000,11.2790380859375,-0.8374481201171875,-0.490447998046875,0.0204315185546875
1783169476402987000,11.288987060546875,-0.83734130859375,-0.4828948974609375,0.029693603515625
1783169476412966000,11.2989658203125,-0.8378143310546875,-0.4764251708984375,0.0367889404296875
1783169476422915000,11.3089150390625,-0.8391876220703125,-0.475677490234375,0.039764404296875
1783169476432864000,11.318864013671876,-0.8414459228515625,-0.47747802734375,0.041107177734375
1783169476442812000,11.32881201171875,-0.8449859619140625,-0.4782867431640625,0.0438690185546875
1783169476452791800,11.338791748046875,-0.8470001220703125,-0.4753570556640625,0.0461273193359375
1783169476462740000,11.348739990234375,-0.8499298095703125,-0.4741058349609375,0.04150390625
1783169476472689000,11.35868896484375,-0.8515777587890625,-0.475006103515625,0.035888671875
1783169476482637800,11.368637939453125,-0.85833740234375,-0.478302001953125,0.032989501953125
1783169476492617000,11.378616943359376,-0.861297607421875,-0.4820098876953125,0.0319671630859375
1783169476502566000,11.38856591796875,-0.862213134765625,-0.4838104248046875,0.028076171875
1783169476512515000,11.39851513671875,-0.8636627197265625,-0.4892425537109375,0.0216522216796875
1783169476522494000,11.408493896484375,-0.8695220947265625,-0.4945526123046875,0.0184173583984375
1783169476532441900,11.41844189453125,-0.8727569580078125,-0.4989776611328125,0.014251708984375
1783169476542391000,11.42839111328125,-0.8747100830078125,-0.503570556640625,0.0111083984375
1783169476552340000,11.438340087890625,-0.8723907470703125,-0.50579833984375,0.0089111328125
1783169476562319000,11.448319091796876,-0.8774871826171875,-0.5072174072265625,0.0071258544921875
1783169476572268000,11.45826806640625,-0.8811187744140625,-0.5110015869140625,0.0045623779296875
1783169476582217000,11.468217041015626,-0.880767822265625,-0.50958251953125,0.0017242431640625
1783169476592165000,11.4781650390625,-0.8827972412109375,-0.5074615478515625,-0.0015869140625
1783169476602145000,11.48814501953125,-0.8817291259765625,-0.50732421875,-0.00347900390625
1783169476612093000,11.498093017578125,-0.878265380859375,-0.5050048828125,-0.0013275146484375
1783169476622041900,11.508041748046875,-0.876953125,-0.50201416015625,-0.0000152587890625
1783169476632021000,11.51802099609375,-0.873931884765625,-0.5013580322265625,0.0012664794921875
1783169476641970000,11.527969970703126,-0.8728485107421875,-0.4988555908203125,0.002960205078125
1783169476651918800,11.5379189453125,-0.872589111328125,-0.49078369140625,0.0067291259765625
1783169476661867800,11.54786767578125,-0.8701324462890625,-0.486907958984375,0.009918212890625
1783169476671847000,11.557846923828125,-0.8721923828125,-0.487762451171875,0.0140380859375
1783169476681796000,11.567796142578125,-0.8747100830078125,-0.4889068603515625,0.0199737548828125
1783169476691743700,11.57774365234375,-0.8708648681640625,-0.486480712890625,0.0254669189453125
1783169476701693200,11.587693115234375,-0.868194580078125,-0.48236083984375,0.0308685302734375
1783169476711672000,11.597672119140626,-0.8693389892578125,-0.4809417724609375,0.033233642578125
1783169476721621000,11.60762109375,-0.866943359375,-0.483795166015625,0.0303802490234375
1783169476731570000,11.61756982421875,-0.860443115234375,-0.4832000732421875,0.028533935546875
1783169476741549000,11.627549072265625,-0.856475830078125,-0.482513427734375,0.02593994140625
1783169476751498000,11.637498046875,-0.8599395751953125,-0.4817047119140625,0.0204315185546875
1783169476761446000,11.64744580078125,-0.8565521240234375,-0.488006591796875,0.0180511474609375
1783169476771395000,11.65739501953125,-0.84686279296875,-0.489013671875,0.0216827392578125
1783169476781374000,11.6673740234375,-0.84454345703125,-0.4852294921875,0.0243072509765625
1783169476791323000,11.677322998046876,-0.849609375,-0.48785400390625,0.022186279296875
1783169476801271800,11.687271728515626,-0.86279296875,-0.4949798583984375,0.021331787109375
1783169476811221000,11.697220947265626,-0.8572845458984375,-0.4990081787109375,0.013092041015625
1783169476821200000,11.707199951171875,-0.84246826171875,-0.4913482666015625,0.0161590576171875
1783169476831148800,11.717148681640625,-0.84527587890625,-0.4817657470703125,0.036041259765625
1783169476841097000,11.727096923828125,-0.831146240234375,-0.484344482421875,0.041961669921875
1783169476851076900,11.737076904296876,-0.785888671875,-0.480010986328125,0.073699951171875
1783169476861024800,11.747024658203125,-0.8702850341796875,-0.488006591796875,0.0696258544921875
1783169476870974000,11.756973876953126,-0.88665771484375,-0.498046875,0.02813720703125
1783169476880923100,11.766923095703126,-0.878570556640625,-0.493499755859375,0.0290374755859375
1783169476890902000,11.776902099609375,-0.8834228515625,-0.493072509765625,0.0303955078125
1783169476900851000,11.786850830078125,-0.8829498291015625,-0.5044097900390625,0.02215576171875
1783169476910799000,11.796799072265625,-0.864105224609375,-0.5183868408203125,0.022064208984375
