time,seconds_elapsed,z,y,x
1782858705681210000,0.253210205078125,-0.23701788485050201,-0.2387377917766571,0.4458886981010437
1782858705691159000,0.263158935546875,-0.24175335466861725,-0.32380688190460205,0.44669651985168457
1782858705701108000,0.27310791015625,-0.24725916981697083,-0.4110880196094513,0.4097611606121063
1782858705711087000,0.283087158203125,-0.24300241470336914,-0.48927855491638184,0.3420408368110657
1782858705721036300,0.293036376953125,-0.22882267832756042,-0.5287042856216431,0.2552731931209564
1782858705731001300,0.30300146484375,-0.22408033907413483,-0.5062949061393738,0.17292648553848267
1782858705740981200,0.312981201171875,-0.2595861554145813,-0.4326763153076172,0.08674580603837967
1782858705750929400,0.322929443359375,-0.3153162896633148,-0.31822875142097473,0.0045736124739050865
1782858705760878300,0.33287841796875,-0.36178261041641235,-0.18551014363765717,-0.04429033398628235
1782858705770827300,0.3428271484375,-0.38298678398132324,-0.005266915075480938,-0.044204823672771454
1782858705780806400,0.352806396484375,-0.3866015076637268,0.18318474292755127,0.0025222045369446278
1782858705790755300,0.36275537109375,-0.36560511589050293,0.3196629285812378,0.08726674318313599
1782858705800704300,0.372704345703125,-0.34374216198921204,0.38522568345069885,0.1784038543701172
1782858705810652200,0.382652099609375,-0.32205212116241455,0.37537819147109985,0.24993248283863068
1782858705820632300,0.39263232421875,-0.3262212872505188,0.2482852339744568,0.2957282066345215
1782858705830580200,0.402580322265625,-0.37370386719703674,0.07886453717947006,0.31704115867614746
1782858705840529400,0.412529296875,-0.4475240409374237,-0.0196085087954998,0.3373000919818878
1782858705850508500,0.422508544921875,-0.5071642398834229,-0.032676249742507935,0.356738418340683
1782858705860457500,0.43245751953125,-0.5330813527107239,-0.0009659891948103905,0.34140366315841675
1782858705870406400,0.442406494140625,-0.5201679468154907,0.02577969990670681,0.2801538407802582
1782858705880355300,0.452355224609375,-0.47683724761009216,0.021472569555044174,0.17007766664028168
1782858705890334500,0.46233447265625,-0.451104998588562,-0.059514421969652176,0.01750490441918373
1782858705900282400,0.472282470703125,-0.45866408944129944,-0.20861922204494476,-0.14787766337394714
1782858705910231300,0.482231201171875,-0.5222542881965637,-0.36238449811935425,-0.33794674277305603
1782858705920180200,0.49218017578125,-0.6129986047744751,-0.4681093394756317,-0.5373783111572266
1782858705930159400,0.502159423828125,-0.6570713520050049,-0.5444803833961487,-0.7357856631278992
1782858705940108300,0.5121083984375,-0.62225341796875,-0.5869511365890503,-0.9169514775276184
1782858705950057200,0.52205712890625,-0.5230923295021057,-0.5482304692268372,-1.0624315738677979
1782858705960005400,0.53200537109375,-0.38272133469581604,-0.45843881368637085,-1.1521574258804321
1782858705969985300,0.5419853515625,-0.2282043844461441,-0.31676173210144043,-1.1600532531738281
1782858705979933200,0.55193310546875,-0.09034000337123871,-0.1426226794719696,-1.0741794109344482
1782858705989882000,0.561882080078125,-0.00894458033144474,-0.0001756562851369381,-0.9130969643592834
1782858705999861200,0.571861328125,0.04625502601265907,0.0672859475016594,-0.7221872210502625
1782858706009810400,0.581810546875,0.11676578223705292,0.058533865958452225,-0.5299714803695679
1782858706019759400,0.59175927734375,0.20492680370807648,-0.04804210737347603,-0.35538607835769653
1782858706029708300,0.601708251953125,0.29423755407333374,-0.19703538715839386,-0.20751424133777618
1782858706039687400,0.6116875,0.36247414350509644,-0.3115878105163574,-0.0801222026348114
1782858706049636400,0.62163623046875,0.38695386052131653,-0.39598792791366577,0.028254292905330658
1782858706059584300,0.631584228515625,0.36913546919822693,-0.42804092168807983,0.11490076780319214
1782858706069533400,0.641533447265625,0.32640957832336426,-0.3857738971710205,0.17350444197654724
1782858706079512300,0.65151220703125,0.27891290187835693,-0.29888400435447693,0.21902398765087128
1782858706089461200,0.661461181640625,0.2313985526561737,-0.18972614407539368,0.2538049817085266
1782858706099410200,0.67141015625,0.17873775959014893,-0.08518721908330917,0.2847929894924164
1782858706109389300,0.681389404296875,0.11767156422138214,0.01395195722579956,0.31360700726509094
1782858706119338200,0.691338134765625,0.05522523820400238,0.08736172318458557,0.3324022591114044
1782858706129286400,0.701286376953125,0.017035093158483505,0.08941101282835007,0.3398454785346985
1782858706139235300,0.7112353515625,0.0036945194005966187,0.0634198933839798,0.3260266184806824
1782858706149214200,0.721214111328125,-0.08082465082406998,0.1952081024646759,0.34287452697753906
1782858706159163100,0.7311630859375,-0.13767941296100616,0.22008229792118073,0.3880433142185211
1782858706169112300,0.7411123046875,-0.19034679234027863,0.14820492267608643,0.4256792962551117
1782858706179061500,0.7510615234375,-0.22421446442604065,0.10336156189441681,0.4753437936306
1782858706189040400,0.761040283203125,-0.22792069613933563,0.07932981103658676,0.5231149792671204
1782858706198989300,0.7709892578125,-0.20594827830791473,0.0603925995528698,0.5755617022514343
1782858706208937500,0.7809375,-0.18362964689731598,0.03733072057366371,0.6433343887329102
1782858706218886400,0.790886474609375,-0.18073637783527374,0.014398773200809956,0.7085317373275757
1782858706228865300,0.800865234375,-0.19686798751354218,0.07246533036231995,0.7793411612510681
1782858706238814500,0.810814453125,-0.24248741567134857,0.14808738231658936,0.8666166663169861
1782858706248763400,0.820763427734375,-0.3126978278160095,0.1895192265510559,0.9169929623603821
1782858706258742300,0.8307421875,-0.39076998829841614,0.20905165374279022,0.91715008020401
1782858706268691200,0.840691162109375,-0.4695849120616913,0.19069558382034302,0.8579484820365906
1782858706278639400,0.850639404296875,-0.5410745143890381,0.11952393501996994,0.7356585264205933
1782858706288588300,0.86058837890625,-0.6002317070960999,0.018836194649338722,0.5650461316108704
1782858706298567200,0.870567138671875,-0.6308402419090271,-0.03052336536347866,0.3887755274772644
1782858706308516400,0.880516357421875,-0.6470820307731628,0.05870984122157097,0.2465033233165741
1782858706318465300,0.89046533203125,-0.6795206665992737,0.23370055854320526,0.14392954111099243
1782858706328414500,0.90041455078125,-0.7280319929122925,0.4303743541240692,0.0718567818403244
1782858706338393300,0.910393310546875,-0.8002520799636841,0.6453505754470825,0.013422232121229172
1782858706348342500,0.920342529296875,-0.8965978026390076,0.83857262134552,-0.039234012365341187
1782858706358290400,0.93029052734375,-1.042582631111145,0.9697858095169067,-0.12282557040452957
1782858706368239400,0.9402392578125,-1.245216965675354,1.01795494556427,-0.2560672163963318
1782858706378218500,0.950218505859375,-1.5231201648712158,0.9989919662475586,-0.4266972839832306
1782858706388167400,0.96016748046875,-1.8738336563110352,0.8883503079414368,-0.6494048833847046
1782858706398116400,0.970116455078125,-2.248802900314331,0.6503300666809082,-0.9117651581764221
1782858706408095200,0.98009521484375,-2.5588176250457764,0.4270177185535431,-1.187214732170105
1782858706418044400,0.99004443359375,-2.742516279220581,0.41215595602989197,-1.4072922468185425
1782858706427992300,0.999992431640625,-2.789346933364868,0.5967137217521667,-1.5362215042114258
1782858706437941200,1.009941162109375,-2.715388536453247,0.8291261792182922,-1.565999984741211
1782858706447920400,1.01992041015625,-2.5289835929870605,1.0200324058532715,-1.4569867849349976
1782858706457869300,1.029869384765625,-2.2687554359436035,1.0736162662506104,-1.1885312795639038
1782858706467818200,1.039818359375,-1.9672420024871826,0.9161206483840942,-0.769395112991333
1782858706477767200,1.04976708984375,-1.6832067966461182,0.6204418540000916,-0.23379428684711456
1782858706487746300,1.059746337890625,-1.4826432466506958,0.2693663239479065,0.3771229088306427
1782858706497695500,1.069695556640625,-1.3888325691223145,-0.051668956875801086,0.9958676099777222
1782858706507643100,1.07964306640625,-1.3822622299194336,-0.3595236539840698,1.540668249130249
1782858706517623600,1.08962353515625,-1.43203866481781,-0.6271156668663025,1.9661487340927124
1782858706527571500,1.099571533203125,-1.4970942735671997,-0.8249416351318359,2.263763427734375
1782858706537520400,1.109520263671875,-1.551993727684021,-0.9177379012107849,2.4374871253967285
1782858706547469300,1.11946923828125,-1.5886056423187256,-0.9278731346130371,2.4778387546539307
1782858706557448400,1.129448486328125,-1.6218655109405518,-0.9204772710800171,2.387955665588379
1782858706567397400,1.1393974609375,-1.6498253345489502,-0.9019716382026672,2.197246551513672
1782858706577345300,1.14934521484375,-1.6580116748809814,-0.8646831512451172,1.963709831237793
1782858706587294500,1.15929443359375,-1.632948875427246,-0.7867212295532227,1.7233552932739258
1782858706597273300,1.1692734375,-1.574466586112976,-0.6744977831840515,1.5161725282669067
1782858706607222300,1.17922216796875,-1.4984718561172485,-0.5588489770889282,1.3438987731933594
1782858706617171200,1.189171142578125,-1.4128040075302124,-0.45048952102661133,1.1947416067123413
1782858706627120400,1.199120361328125,-1.3257478475570679,-0.4395061135292053,1.0445530414581299
1782858706637099300,1.209099365234375,-1.2341524362564087,-0.5488523244857788,0.8839846253395081
1782858706647048200,1.219048095703125,-1.1341578960418701,-0.7489345073699951,0.6965814828872681
1782858706656996400,1.228996337890625,-1.033083200454712,-1.0194008350372314,0.47276705503463745
1782858706666976500,1.2389765625,-0.9744080901145935,-1.3384041786193848,0.2012689709663391
1782858706676924200,1.248924072265625,-0.9904482960700989,-1.5472625494003296,-0.10246800631284714
1782858706686873300,1.258873291015625,-1.0937899351119995,-1.4143298864364624,-0.3910548686981201
1782858706696822500,1.268822509765625,-1.2833163738250732,-1.0169905424118042,-0.6348462700843811
1782858706706801400,1.278801513671875,-1.5293552875518799,-0.6155490875244141,-0.82512366771698
1782858706716750300,1.288750244140625,-1.7375253438949585,-0.3769806921482086,-0.9414979815483093
1782858706726698500,1.298698486328125,-1.8425644636154175,-0.2625850439071655,-0.9741033911705017
1782858706736672500,1.308672607421875,-1.8402800559997559,-0.23578457534313202,-0.9318073391914368
1782858706746651400,1.3186513671875,-1.7626004219055176,-0.30358949303627014,-0.8474613428115845
1782858706756600300,1.328600341796875,-1.6672085523605347,-0.4564930200576782,-0.7543540000915527
1782858706766549200,1.33854931640625,-1.6058659553527832,-0.6517188549041748,-0.6779972910881042
1782858706776498400,1.34849853515625,-1.557383418083191,-0.7737030386924744,-0.6287789344787598
1782858706786477600,1.3584775390625,-1.4836206436157227,-0.713585615158081,-0.5880277752876282
1782858706796426500,1.368426513671875,-1.32268226146698,-0.5387935638427734,-0.5631288290023804
1782858706806374700,1.378374755859375,-1.047484040260315,-0.34565839171409607,-0.5363159775733948
1782858706816354600,1.3883544921875,-0.7092456221580505,-0.24155008792877197,-0.5081391930580139
1782858706826302500,1.398302490234375,-0.3808819353580475,-0.2769574224948883,-0.4488145709037781
1782858706836251400,1.40825146484375,-0.1249452531337738,-0.3367762565612793,-0.3330160677433014
1782858706846200600,1.41820068359375,0.061090681701898575,-0.3519197702407837,-0.15549452602863312
1782858706856179500,1.428179443359375,0.20788225531578064,-0.3558197021484375,0.07160414755344391
1782858706866128400,1.43812841796875,0.3402992784976959,-0.41025763750076294,0.3145967721939087
1782858706876077300,1.448077392578125,0.4459007978439331,-0.5699738264083862,0.524894654750824
1782858706886025500,1.458025390625,0.4897770583629608,-0.8095781207084656,0.6707629561424255
1782858706896005400,1.46800537109375,0.4639289677143097,-1.0714476108551025,0.7145645022392273
1782858706905953300,1.477953369140625,0.39024388790130615,-1.276877760887146,0.6432662606239319
1782858706915902500,1.48790234375,0.3019081950187683,-1.2900785207748413,0.4736039638519287
1782858706925851400,1.497851318359375,0.23870037496089935,-1.0796113014221191,0.25075235962867737
1782858706935830300,1.507830322265625,0.24494893848896027,-0.6986002922058105,0.028345122933387756
1782858706945779500,1.517779541015625,0.340534508228302,-0.23837418854236603,-0.1445845067501068
1782858706955727600,1.5277275390625,0.5168077945709229,0.1874447613954544,-0.21478436887264252
1782858706965707500,1.53770751953125,0.7111263871192932,0.456031858921051,-0.18525128066539764
1782858706975655700,1.54765576171875,0.8726654648780823,0.505277693271637,-0.06465323269367218
1782858706985604600,1.5576044921875,1.000059723854065,0.37445569038391113,0.12169917672872543
1782858706995553500,1.567553466796875,1.0932927131652832,0.12423571944236755,0.34953978657722473
1782858707005532400,1.577532470703125,1.1501647233963013,-0.12328345328569412,0.587409257888794
1782858707015481600,1.587481689453125,1.173250675201416,-0.30148568749427795,0.8105477690696716
1782858707025430500,1.597430419921875,1.1673158407211304,-0.41103070974349976,0.9807982444763184
1782858707035378400,1.60737841796875,1.1562097072601318,-0.4702141284942627,1.0883182287216187
1782858707045358300,1.6173583984375,1.1689393520355225,-0.44065186381340027,1.1240066289901733
1782858707055306500,1.627306396484375,1.1831533908843994,-0.3493051826953888,1.076707363128662
1782858707065255400,1.63725537109375,1.1727617979049683,-0.27190956473350525,0.9504432678222656
1782858707075234300,1.647234375,1.1216461658477783,-0.21645429730415344,0.763543963432312
1782858707085183500,1.65718359375,1.0420122146606445,-0.18473570048809052,0.5554296970367432
1782858707095132400,1.66713232421875,0.9492228031158447,-0.13011133670806885,0.36533913016319275
1782858707105080300,1.677080322265625,0.8547337055206299,-0.02488020434975624,0.2127128392457962
1782858707115060500,1.687060546875,0.7563560009002686,0.07169081270694733,0.09696972370147705
1782858707125008400,1.69700830078125,0.6699373126029968,0.13081948459148407,-0.006686756853014231
1782858707134957600,1.70695751953125,0.6087842583656311,0.17087289690971375,-0.1044900119304657
1782858707144906500,1.716906494140625,0.575879693031311,0.20437709987163544,-0.2167566567659378
1782858707154885600,1.7268857421875,0.5665003061294556,0.21303504705429077,-0.34959912300109863
1782858707164834600,1.73683447265625,0.5671862959861755,0.19899392127990723,-0.504592776298523
1782858707174783500,1.746783447265625,0.5579866170883179,0.1954742819070816,-0.662381649017334
1782858707184731400,1.7567314453125,0.5407773852348328,0.20449066162109375,-0.8115200400352478
1782858707194711600,1.766711669921875,0.5206471085548401,0.2163180261850357,-0.9285092353820801
1782858707204659500,1.776659423828125,0.5197210907936096,0.21954569220542908,-1.008331298828125
1782858707214608400,1.7866083984375,0.5423992872238159,0.18931907415390015,-1.0535411834716797
1782858707224587500,1.79658740234375,0.5936785340309143,0.16587238013744354,-1.033449411392212
1782858707234536400,1.806536376953125,0.6396010518074036,0.17095182836055756,-0.9476909041404724
1782858707244485400,1.8164853515625,0.6679384112358093,0.10114932060241699,-0.8172114491462708
1782858707254433300,1.826433349609375,0.6916996836662292,-0.027979105710983276,-0.6675436496734619
1782858707264413400,1.836413330078125,0.7011940479278564,-0.1552639752626419,-0.4855923056602478
1782858707274361300,1.846361328125,0.6775600910186768,-0.24113626778125763,-0.28136059641838074
1782858707284310500,1.856310546875,0.6228053569793701,-0.27604353427886963,-0.061451271176338196
1782858707294259500,1.866259521484375,0.5499691963195801,-0.26594269275665283,0.15402083098888397
1782858707304238600,1.876238525390625,0.4574976861476898,-0.2315938025712967,0.3407041132450104
1782858707314187500,1.8861875,0.3845028579235077,-0.18761089444160461,0.4739023745059967
1782858707324136400,1.896136474609375,0.3696148097515106,-0.1698608547449112,0.531245231628418
1782858707334084600,1.906084716796875,0.4298379421234131,-0.1877218782901764,0.5240427255630493
1782858707344064500,1.916064453125,0.5356994271278381,-0.24441920220851898,0.49437224864959717
1782858707354012400,1.926012451171875,0.6307247877120972,-0.29960548877716064,0.4673509895801544
1782858707363961300,1.93596142578125,0.6616002917289734,-0.30055564641952515,0.442862868309021
1782858707373940500,1.9459404296875,0.5987305045127869,-0.24338796734809875,0.4289318919181824
1782858707383889400,1.955889404296875,0.4404768943786621,-0.1766560971736908,0.42404505610466003
1782858707393838300,1.96583837890625,0.23157374560832977,-0.22378525137901306,0.45548152923583984
1782858707403786500,1.975786376953125,0.001112116500735283,-0.355300635099411,0.5217933654785156
1782858707413766400,1.985766357421875,-0.21380391716957092,-0.45596757531166077,0.6064107418060303
1782858707423714300,1.99571435546875,-0.383846640586853,-0.514284610748291,0.6848514676094055
1782858707433663500,2.00566357421875,-0.380634605884552,-0.551266610622406,0.6853553652763367
1782858707443612700,2.01561279296875,-0.43405741453170776,-0.4181167185306549,0.5798380374908447
1782858707453591300,2.02559130859375,-0.3271634578704834,-0.2705126106739044,0.5478209853172302
1782858707463540500,2.03554052734375,-0.22310063242912292,-0.24244433641433716,0.45307257771492004
1782858707473489400,2.045489501953125,-0.1956319808959961,-0.3234928548336029,0.3285146653652191
1782858707483437600,2.0554375,-0.22521692514419556,-0.34599122405052185,0.2321758270263672
1782858707493417500,2.06541748046875,-0.2302369773387909,-0.2261551171541214,0.18734391033649445
1782858707503365600,2.07536572265625,-0.1888166069984436,-0.10514920949935913,0.18961364030838013
1782858707513314600,2.085314453125,-0.12619557976722717,0.031970828771591187,0.16947267949581146
1782858707523293400,2.09529345703125,-0.030967118218541145,0.14334401488304138,0.15353408455848694
1782858707533242400,2.105242431640625,0.06222647801041603,0.22547855973243713,0.1511031538248062
1782858707543191600,2.115191650390625,0.11203581094741821,0.2455252856016159,0.1426326334476471
1782858707553140500,2.125140380859375,0.11354796588420868,0.14179354906082153,0.1147429570555687
1782858707563119400,2.135119384765625,0.07211284339427948,-0.09123680740594864,0.05713707208633423
1782858707573067500,2.145067626953125,-0.017141666263341904,-0.33055245876312256,-0.05133960396051407
1782858707583016400,2.155016357421875,-0.15075643360614777,-0.47489720582962036,-0.24313005805015564
1782858707592965400,2.16496533203125,-0.2749550938606262,-0.5384469032287598,-0.48862501978874207
1782858707602944300,2.1749443359375,-0.3249690532684326,-0.5270835161209106,-0.7275115251541138
1782858707612893400,2.1848935546875,-0.25634846091270447,-0.39907872676849365,-0.9258216619491577
1782858707622842600,2.194842529296875,-0.0976942628622055,-0.1621185690164566,-1.0718104839324951
1782858707632790500,2.20479052734375,0.1176806315779686,0.06471564620733261,-1.1384855508804321
1782858707642770400,2.2147705078125,0.3406165540218353,0.20272637903690338,-1.1328036785125732
1782858707652718600,2.224718505859375,0.5560047626495361,0.184279203414917,-1.0638117790222168
1782858707662667500,2.23466748046875,0.7470093369483948,0.010800719261169434,-0.9265630841255188
1782858707672646400,2.244646484375,0.8851773142814636,-0.2264200896024704,-0.7267770171165466
1782858707682595600,2.254595703125,0.9592995047569275,-0.3550174832344055,-0.47284674644470215
1782858707692544500,2.26454443359375,0.9762462973594666,-0.31887438893318176,-0.19197940826416016
1782858707702493400,2.274493408203125,0.9482206702232361,-0.2020343542098999,0.07308200001716614
1782858707712472300,2.284472412109375,0.8898572325706482,-0.06338619440793991,0.3013809323310852
1782858707722421500,2.29442138671875,0.7895336747169495,0.06488323956727982,0.4581039547920227
1782858707732409000,2.3044091796875,0.6220954060554504,0.08621169626712799,0.5270465016365051
1782858707742358000,2.31435791015625,0.3972562253475189,0.012614047154784203,0.5136314630508423
1782858707752337000,2.3243369140625,0.15168455243110657,-0.07005686312913895,0.424130380153656
1782858707762285800,2.334285888671875,-0.047339700162410736,-0.08693686127662659,0.27284395694732666
1782858707772235000,2.344235107421875,-0.1894182711839676,-0.06286880373954773,0.074496790766716
1782858707782214000,2.3542138671875,-0.2791471779346466,-0.038149621337652206,-0.15428169071674347
1782858707792162800,2.364162841796875,-0.3268878161907196,0.036596521735191345,-0.390967458486557
1782858707802111000,2.374111083984375,-0.3432254493236542,0.1529780924320221,-0.6130677461624146
1782858707812060000,2.384059814453125,-0.3534091114997864,0.3026951551437378,-0.8061605095863342
1782858707822038800,2.394038818359375,-0.3610002398490906,0.4610593318939209,-0.9373565316200256
1782858707831988000,2.403988037109375,-0.3565378487110138,0.5768218636512756,-1.0046993494033813
1782858707841937200,2.413937255859375,-0.3280649781227112,0.6007680892944336,-1.011562705039978
1782858707851886000,2.423885986328125,-0.28534603118896484,0.5468782186508179,-0.9694716334342957
1782858707861865000,2.433864990234375,-0.2384616881608963,0.4134610593318939,-0.8864707350730896
1782858707871814000,2.44381396484375,-0.1867833137512207,0.23855845630168915,-0.7793424129486084
1782858707881762000,2.453761962890625,-0.11460143327713013,0.07595837116241455,-0.6478787064552307
1782858707891711000,2.4637109375,-0.030292144045233727,-0.035648319870233536,-0.4952487051486969
1782858707901690000,2.473690185546875,0.050353504717350006,-0.04091550409793854,-0.31243613362312317
1782858707911639000,2.48363916015625,0.14600014686584473,0.04228803887963295,-0.07546059787273407
1782858707921588000,2.493587890625,0.2556562125682831,0.12679387629032135,0.23560011386871338
1782858707931566800,2.50356689453125,0.36316749453544617,0.10317830741405487,0.6250126361846924
1782858707941516000,2.51351611328125,0.4422990083694458,-0.1177404373884201,1.0526131391525269
1782858707951464000,2.5234638671875,0.45834988355636597,-0.5899689793586731,1.4359314441680908
1782858707961412900,2.533412841796875,0.3817461133003235,-1.1875265836715698,1.6754213571548462
1782858707971392000,2.54339208984375,0.2843599021434784,-1.6126652956008911,1.7647299766540527
1782858707981341000,2.5533408203125,0.23067376017570496,-1.7028577327728271,1.7135897874832153
1782858707991289900,2.563289794921875,0.21341407299041748,-1.4958528280258179,1.5084857940673828
1782858708001239000,2.573239013671875,0.22397762537002563,-1.1465100049972534,1.1229486465454102
1782858708011218200,2.58321826171875,0.26378974318504333,-0.784807026386261,0.5611706972122192
1782858708021167000,2.5931669921875,0.3430027961730957,-0.4801313877105713,-0.1210302859544754
1782858708031115000,2.603114990234375,0.47084251046180725,-0.16337476670742035,-0.7997187972068787
1782858708041064000,2.61306396484375,0.6184529662132263,0.23142459988594055,-1.3287467956542969
1782858708051043000,2.62304296875,0.7703285217285156,0.6612186431884766,-1.6130565404891968
1782858708060992000,2.632991943359375,0.9378568530082703,0.9737870097160339,-1.6503976583480835
1782858708070941000,2.64294091796875,1.1524841785430908,1.060128092765808,-1.453284740447998
1782858708080920000,2.652920166015625,1.4046956300735474,0.8826870918273926,-1.077232003211975
1782858708090869000,2.662868896484375,1.6329107284545898,0.5137702822685242,-0.617278516292572
1782858708100817000,2.67281689453125,1.776530385017395,0.06960917264223099,-0.14720633625984192
1782858708110765800,2.682765869140625,1.831161379814148,-0.31513530015945435,0.2826702296733856
1782858708120745000,2.692744873046875,1.8203989267349243,-0.5552675127983093,0.6432898044586182
1782858708130694000,2.70269384765625,1.7630845308303833,-0.664836585521698,0.8742241859436035
1782858708140642800,2.712642822265625,1.6629332304000854,-0.6623666882514954,0.9438942670822144
1782858708150591700,2.722591796875,1.517491102218628,-0.5728679299354553,0.8424720168113708
1782858708160571000,2.73257080078125,1.3643007278442383,-0.37137338519096375,0.5967680215835571
1782858708170520000,2.74252001953125,1.228783369064331,-0.02379198744893074,0.267000287771225
1782858708180468000,2.752468017578125,1.125889539718628,0.3248753547668457,-0.08939507603645325
1782858708190417200,2.762417236328125,1.0674104690551758,0.5684528350830078,-0.4054872691631317
1782858708200396000,2.77239599609375,1.0508828163146973,0.7318869829177856,-0.6180770397186279
1782858708210345000,2.782344970703125,1.0635136365890503,0.8010237216949463,-0.7022507786750793
1782858708220294000,2.7922939453125,1.0668036937713623,0.7370687127113342,-0.6785987019538879
1782858708230273000,2.80227294921875,1.023727536201477,0.5775828957557678,-0.581028163433075
1782858708240222000,2.812221923828125,0.9428499937057495,0.44554489850997925,-0.4549594521522522
1782858708250170000,2.822170166015625,0.8545670509338379,0.3629424273967743,-0.33946508169174194
1782858708260119000,2.832119140625,0.7785740494728088,0.3312474489212036,-0.2700764834880829
1782858708270098000,2.842097900390625,0.7086546421051025,0.3150128126144409,-0.26846742630004883
1782858708280046800,2.852046875,0.6495562791824341,0.34183454513549805,-0.3390055298805237
1782858708289996000,2.86199609375,0.6163221597671509,0.4082178473472595,-0.44202032685279846
1782858708299945000,2.871945068359375,0.6290974020957947,0.5020555853843689,-0.5252530574798584
1782858708309923800,2.881923828125,0.6757909059524536,0.6296526789665222,-0.5674085021018982
1782858708319872800,2.891872802734375,0.7086915969848633,0.7754943370819092,-0.5509368777275085
1782858708329821000,2.901821044921875,0.692057728767395,0.8728365898132324,-0.4961976706981659
1782858708339770000,2.91177001953125,0.6154655814170837,0.9168834686279297,-0.41669824719429016
1782858708349748700,2.921748779296875,0.512186586856842,0.9058049917221069,-0.3384875953197479
1782858708359698200,2.9316982421875,0.4230581223964691,0.8451941609382629,-0.2676030397415161
1782858708369647000,2.941647216796875,0.38801252841949463,0.7715790271759033,-0.22799786925315857
1782858708379626000,2.9516259765625,0.39451658725738525,0.7020465731620789,-0.2199438065290451
1782858708389575000,2.961574951171875,0.43613487482070923,0.6817184090614319,-0.22881905734539032
1782858708399524000,2.971524169921875,0.49113908410072327,0.722991406917572,-0.23874393105506897
1782858708409472000,2.981471923828125,0.5509851574897766,0.8114056587219238,-0.23028387129306793
1782858708419451000,2.991450927734375,0.6215758323669434,0.9565197825431824,-0.1805148422718048
1782858708429400000,3.001400146484375,0.7130663394927979,1.100541114807129,-0.07689496874809265
1782858708439349000,3.011348876953125,0.8348852396011353,1.1920108795166016,0.08789937198162079
1782858708449298000,3.0212978515625,0.985370934009552,1.112128734588623,0.3009866178035736
1782858708459276800,3.03127685546875,1.1328290700912476,0.861375629901886,0.5221189260482788
1782858708469226000,3.04122607421875,1.2405169010162354,0.675919234752655,0.756784975528717
1782858708479174000,3.051173828125,1.2695528268814087,0.6674312353134155,1.028493881225586
1782858708489153800,3.06115380859375,1.20212984085083,0.7955995798110962,1.3210487365722656
1782858708499102000,3.07110205078125,1.0614172220230103,1.0205751657485962,1.5986896753311157
1782858708509051000,3.08105078125,0.863964855670929,1.2329691648483276,1.8007484674453735
1782858708519000000,3.091,0.6619614362716675,1.284369945526123,1.883995532989502
1782858708528979000,3.10097900390625,0.4822273850440979,1.1160187721252441,1.830567717552185
1782858708538928000,3.11092822265625,0.3151620924472809,0.6619958281517029,1.666203498840332
1782858708548877000,3.120876953125,0.1605410873889923,-0.0752454400062561,1.4630520343780518
1782858708558825000,3.130824951171875,0.03052503988146782,-0.6707398295402527,1.3077423572540283
1782858708568804900,3.140804931640625,-0.12024955451488495,-0.9658907651901245,1.2263380289077759
1782858708578753000,3.1507529296875,-0.2807435393333435,-1.1650846004486084,1.1808284521102905
1782858708588702000,3.160701904296875,-0.38155779242515564,-1.2791321277618408,1.1417431831359863
1782858708598651000,3.17065087890625,-0.4068928062915802,-1.1761113405227661,1.1048650741577148
1782858708608630000,3.180630126953125,-0.3787543773651123,-0.9123531579971313,1.055736780166626
1782858708618579000,3.190578857421875,-0.3321475088596344,-0.6683309078216553,0.9600153565406799
1782858708628526800,3.20052685546875,-0.2813040316104889,-0.5484976768493652,0.8287537693977356
1782858708638507000,3.210507080078125,-0.2326999306678772,-0.5535793900489807,0.7057344913482666
1782858708648455000,3.220454833984375,-0.20430611073970795,-0.7033938765525818,0.5798620581626892
1782858708658403800,3.23040380859375,-0.2070501297712326,-1.0078365802764893,0.43960580229759216
1782858708668352800,3.240352783203125,-0.24370987713336945,-1.2840332984924316,0.31651341915130615
1782858708678332000,3.250331787109375,-0.32252079248428345,-1.3863686323165894,0.222223699092865
1782858708688281000,3.260281005859375,-0.45603758096694946,-1.3055859804153442,0.13693302869796753
1782858708698230000,3.27022998046875,-0.6373450756072998,-1.0188285112380981,0.04698210209608078
1782858708708178000,3.280177978515625,-0.8361037373542786,-0.6148189902305603,-0.024760793894529343
1782858708718158000,3.290157958984375,-1.0113650560379028,-0.20420880615711212,-0.06576334685087204
1782858708728106000,3.30010595703125,-1.1314622163772583,0.13282513618469238,-0.0642181858420372
1782858708738089200,3.310089111328125,-1.1600641012191772,0.30727413296699524,-0.018319223076105118
1782858708748038400,3.320038330078125,-1.1168513298034668,0.32693520188331604,0.06334847211837769
1782858708758017300,3.330017333984375,-1.031612753868103,0.22293490171432495,0.14003042876720428
1782858708767966200,3.33996630859375,-0.9254592061042786,0.0011649560183286667,0.17330555617809296
1782858708777914400,3.349914306640625,-0.7932778000831604,-0.29719388484954834,0.1443299502134323
1782858708787894300,3.359894287109375,-0.6478961110115051,-0.5638607740402222,0.0945642739534378
1782858708797842200,3.36984228515625,-0.4951089918613434,-0.6330604553222656,0.04700680077075958
1782858708807791400,3.379791259765625,-0.3777959644794464,-0.5140533447265625,0.026996340602636337
1782858708817740300,3.389740234375,-0.3068883419036865,-0.3148966431617737,-0.003288324922323227
1782858708827719200,3.39971923828125,-0.278269499540329,-0.13200244307518005,-0.07013659924268723
1782858708837668000,3.409668212890625,-0.2701447606086731,-0.02583613246679306,-0.209527850151062
1782858708847617000,3.419616943359375,-0.289166122674942,-0.015766452997922897,-0.4265531301498413
1782858708857565200,3.429565185546875,-0.3330921530723572,-0.06819489598274231,-0.6997178196907043
1782858708867545000,3.439545166015625,-0.38512206077575684,-0.16279196739196777,-1.00339674949646
1782858708877493200,3.4494931640625,-0.42475807666778564,-0.33260008692741394,-1.312883734703064
1782858708887442200,3.459442138671875,-0.41779255867004395,-0.5382784605026245,-1.5728304386138916
1782858708897391400,3.469391357421875,-0.35159826278686523,-0.7240513563156128,-1.7360397577285767
1782858708907370200,3.479370361328125,-0.22437211871147156,-0.8410054445266724,-1.761979579925537
1782858708917319400,3.4893193359375,-0.07485680282115936,-0.8578876852989197,-1.6468852758407593
1782858708927267300,3.499267333984375,0.043186742812395096,-0.7781931161880493,-1.3981596231460571
1782858708937247200,3.509247314453125,0.0981515571475029,-0.6341052055358887,-1.0459699630737305
1782858708947195400,3.5191953125,0.08449140191078186,-0.4371599853038788,-0.624533474445343
1782858708957144300,3.529144287109375,-0.005974659696221352,-0.24184419214725494,-0.20234456658363342
1782858708967093200,3.53909326171875,-0.15997301042079926,-0.12062296271324158,0.1672060489654541
1782858708977072000,3.549072021484375,-0.35154831409454346,-0.12437576800584793,0.4063069820404053
1782858708987021300,3.559021240234375,-0.5430157780647278,-0.23848529160022736,0.5092730522155762
1782858708996970200,3.56897021484375,-0.6913149356842041,-0.34107550978660583,0.5021403431892395
1782858709006918100,3.578918212890625,-0.768801212310791,-0.297088086605072,0.45655661821365356
1782858709016898000,3.58889794921875,-0.7836996912956238,-0.06547648459672928,0.4289866089820862
1782858709026846200,3.59884619140625,-0.7667587995529175,0.27496206760406494,0.4439418315887451
1782858709036795100,3.608795166015625,-0.7331183552742004,0.6593515872955322,0.4721798598766327
1782858709046744000,3.618744140625,-0.6923424601554871,0.9731864929199219,0.48300108313560486
1782858709056723200,3.62872314453125,-0.6347683668136597,1.1117197275161743,0.4779869616031647
1782858709066672400,3.63867236328125,-0.5391957759857178,1.1310911178588867,0.47549718618392944
1782858709076620000,3.6486201171875,-0.39481595158576965,1.1535115242004395,0.4859798848628998
1782858709086600200,3.65860009765625,-0.1887940615415573,1.251054286956787,0.5119547843933105
1782858709096548400,3.66854833984375,0.06377925723791122,1.4000273942947388,0.5466777682304382
1782858709106497300,3.678497314453125,0.34569990634918213,1.513471245765686,0.5759381651878357
1782858709116446200,3.6884462890625,0.6402162313461304,1.630990743637085,0.5642545223236084
1782858709126425300,3.69842529296875,0.8406457304954529,1.5350549221038818,0.4352371394634247
1782858709136374300,3.708374267578125,0.8788496255874634,1.023481011390686,0.20590730011463165
1782858709146323200,3.7183232421875,0.7114044427871704,0.3036440312862396,-0.020877104252576828
1782858709156271000,3.72827099609375,0.3578318655490875,-0.25825080275535583,-0.1630624681711197
1782858709166251300,3.738251220703125,-0.0631057545542717,-0.49604469537734985,-0.21318182349205017
1782858709176199200,3.74819921875,-0.36424145102500916,-0.4739913046360016,-0.1863805204629898
1782858709186148000,3.758148193359375,-0.4947581887245178,-0.4399912655353546,-0.1716255396604538
1782858709196127200,3.768127197265625,-0.5153610706329346,-0.4958612024784088,-0.23146682977676392
1782858709206076200,3.778076171875,-0.530258297920227,-0.5922242403030396,-0.3895166516304016
1782858709216025000,3.788025146484375,-0.5846017003059387,-0.7292839288711548,-0.6166358590126038
1782858709225974300,3.797974365234375,-0.644658088684082,-0.8199970722198486,-0.8509442210197449
1782858709235953200,3.807953125,-0.6969654560089111,-0.7911883592605591,-1.0650526285171509
1782858709245902300,3.81790234375,-0.7448669075965881,-0.6636192202568054,-1.2754182815551758
1782858709255850200,3.827850341796875,-0.8155941367149353,-0.44897183775901794,-1.5176246166229248
1782858709265799200,3.837799072265625,-0.9162645936012268,-0.22024093568325043,-1.8216701745986938
1782858709275778300,3.8477783203125,-0.961050271987915,-0.022484390065073967,-2.143465518951416
1782858709285727200,3.857727294921875,-0.8971927762031555,0.22005023062229156,-2.4119081497192383
1782858709295676200,3.86767626953125,-0.715644896030426,0.4628675878047943,-2.545509099960327
1782858709305624300,3.877624267578125,-0.4362174868583679,0.6247736215591431,-2.4930880069732666
1782858709315604200,3.887604248046875,-0.1208236813545227,0.6678534150123596,-2.2530698776245117
1782858709325552000,3.89755224609375,0.16959509253501892,0.6131651401519775,-1.8512322902679443
1782858709335501300,3.907501220703125,0.3940102159976959,0.47608068585395813,-1.32527756690979
1782858709345480200,3.917480224609375,0.5421991348266602,0.3073369562625885,-0.7273334264755249
1782858709355429000,3.92742919921875,0.610975980758667,0.11380097270011902,-0.1172349601984024
1782858709365378000,3.9373779296875,0.6015220284461975,-0.08640509098768234,0.4449482262134552
1782858709375327200,3.9473271484375,0.5226682424545288,-0.2549302279949188,0.8987799882888794
1782858709385306000,3.95730615234375,0.40303581953048706,-0.39419254660606384,1.2027374505996704
1782858709395255300,3.96725537109375,0.2683217525482178,-0.48386478424072266,1.352671504020691
1782858709405203200,3.977203125,0.14886538684368134,-0.5423493981361389,1.3627928495407104
1782858709415152400,3.98715234375,0.0750637799501419,-0.593895435333252,1.2697631120681763
1782858709425131300,3.99713134765625,0.06137086823582649,-0.5816313028335571,1.1070902347564697
1782858709435080200,4.007080078125,0.09030881524085999,-0.4662807881832123,0.8986953496932983
1782858709445029400,4.017029296875,0.14960676431655884,-0.26434633135795593,0.6810415983200073
1782858709454977300,4.026977294921875,0.20533035695552826,-0.020405258983373642,0.5041579008102417
1782858709464957200,4.036957275390625,0.24889248609542847,0.12564276158809662,0.37549179792404175
1782858709474905300,4.0469052734375,0.29794302582740784,0.11175493150949478,0.29023078083992004
1782858709484854300,4.056854248046875,0.3491617441177368,0.004933673422783613,0.25142931938171387
1782858709494833200,4.066833251953125,0.41623803973197937,-0.14625370502471924,0.28769850730895996
1782858709504782000,4.076781982421875,0.511353075504303,-0.21715131402015686,0.44434112310409546
1782858709514731300,4.086731201171875,0.607586681842804,-0.14129383862018585,0.7152559161186218
1782858709524680200,4.09668017578125,0.7092443108558655,0.01515782531350851,1.0382390022277832
1782858709534659000,4.1066591796875,0.7952791452407837,0.15317079424858093,1.3471990823745728
1782858709544608000,4.11660791015625,0.8571949601173401,0.21465758979320526,1.6085851192474365
1782858709554556200,4.12655615234375,0.8497775793075562,0.25442323088645935,1.7811355590820312
1782858709564505000,4.136505126953125,0.7031002640724182,0.21650247275829315,1.8064403533935547
1782858709574484200,4.146484130859375,0.44376829266548157,-0.0636167973279953,1.6363751888275146
1782858709584433400,4.156433349609375,0.21679505705833435,-0.7858671545982361,1.2670490741729736
1782858709594382300,4.16638232421875,0.0961829274892807,-1.667376160621643,0.7606782913208008
1782858709604330200,4.176330322265625,0.023448538035154343,-2.2237915992736816,0.19676139950752258
1782858709614310100,4.18631005859375,-0.10594069957733154,-2.260371685028076,-0.3649202287197113
1782858709624258300,4.19625830078125,-0.3118094205856323,-1.7023146152496338,-0.8654413819313049
1782858709634207200,4.206207275390625,-0.5217887759208679,-0.6001288294792175,-1.2027326822280884
1782858709644186400,4.216186279296875,-0.6620327234268188,0.8308041095733643,-1.316114068031311
1782858709654135300,4.22613525390625,-0.7538331151008606,2.2064685821533203,-1.2253031730651855
1782858709664084200,4.236084228515625,-0.8408274054527283,3.0839905738830566,-0.9881412386894226
1782858709674033200,4.246033203125,-0.9416140913963318,3.266754627227783,-0.6755296587944031
1782858709684012300,4.25601220703125,-1.059814214706421,2.8512935638427734,-0.3426113426685333
1782858709693961200,4.265961181640625,-1.2042819261550903,2.1036674976348877,-0.06192822381854057
1782858709703909000,4.2759091796875,-1.3776886463165283,1.281838059425354,0.07779265195131302
1782858709713858000,4.285858154296875,-1.5258514881134033,0.5499435067176819,0.006187995430082083
1782858709723837200,4.295837158203125,-1.5939452648162842,0.04311302676796913,-0.27696940302848816
1782858709733799700,4.305799560546875,-1.5894016027450562,-0.23831193149089813,-0.7232141494750977
1782858709743748600,4.31574853515625,-1.5554615259170532,-0.37495899200439453,-1.22971510887146
1782858709753696800,4.32569677734375,-1.5387067794799805,-0.4585632085800171,-1.690714955329895
1782858709763676700,4.3356767578125,-1.5347213745117188,-0.5217618942260742,-2.036259412765503
1782858709773624600,4.34562451171875,-1.5061471462249756,-0.5190995931625366,-2.250155448913574
1782858709783573800,4.35557373046875,-1.4165278673171997,-0.4496574103832245,-2.334764003753662
1782858709793552600,4.365552734375,-1.2485854625701904,-0.39583727717399597,-2.280282497406006
1782858709803501800,4.375501708984375,-1.0416874885559082,-0.3823297321796417,-2.082352876663208
1782858709813450800,4.38545068359375,-0.893409013748169,-0.4315967261791229,-1.7571134567260742
1782858709823399700,4.395399658203125,-0.8516421318054199,-0.5114721059799194,-1.314877986907959
1782858709833378800,4.40537890625,-0.9029858708381653,-0.5105214715003967,-0.7799803614616394
1782858709843327700,4.41532763671875,-0.9850317239761353,-0.4337414801120758,-0.18035849928855896
1782858709853275600,4.425275634765625,-1.0161453485488892,-0.31909307837486267,0.4370109438896179
1782858709863224800,4.435224853515625,-0.9226100444793701,-0.2527066171169281,1.052538514137268
1782858709873203700,4.44520361328125,-0.6874415278434753,-0.21987126767635345,1.6438684463500977
1782858709883152600,4.455152587890625,-0.37399330735206604,-0.22051921486854553,2.172581672668457
1782858709893101600,4.4651015625,-0.052454933524131775,-0.28336331248283386,2.5960159301757812
1782858709903080700,4.475080810546875,0.22931495308876038,-0.3833375871181488,2.892979383468628
1782858709913029600,4.485029541015625,0.44595417380332947,-0.5119019150733948,3.0803868770599365
1782858709922977800,4.494977783203125,0.5712758302688599,-0.6379980444908142,3.1646811962127686
1782858709932926700,4.5049267578125,0.6191090941429138,-0.6948245167732239,3.1409857273101807
1782858709942905600,4.514905517578125,0.5831311345100403,-0.6872918009757996,2.9824910163879395
1782858709952854800,4.524854736328125,0.4693002998828888,-0.6154635548591614,2.6867916584014893
1782858709962804000,4.534803955078125,0.32801079750061035,-0.39868760108947754,2.29766845703125
1782858709972753000,4.5447529296875,0.2363947331905365,0.1047072783112526,1.8967924118041992
1782858709982731800,4.554731689453125,0.2270747423171997,0.8708409070968628,1.4986088275909424
1782858709992680700,4.5646806640625,0.2540912926197052,1.6159263849258423,1.084155559539795
1782858710002628900,4.57462890625,0.314214289188385,1.984979271888733,0.6368063688278198
1782858710012577800,4.584577880859375,0.3802309036254883,1.7016159296035767,0.19967405498027802
1782858710022556700,4.594556640625,0.41493797302246094,0.9484199285507202,-0.13194996118545532
1782858710032505900,4.604505859375,0.3654686510562897,0.17950452864170074,-0.27592507004737854
1782858710042454800,4.614454833984375,0.187992125749588,-0.3933086693286896,-0.2881702780723572
1782858710052433700,4.62443359375,-0.12503601610660553,-0.8134716153144836,-0.31672582030296326
1782858710062382600,4.634382568359375,-0.4869692027568817,-1.0419762134552002,-0.44545984268188477
1782858710072331800,4.644331787109375,-0.8232950568199158,-0.8953306078910828,-0.675321638584137
1782858710082279700,4.65427978515625,-1.1113362312316895,-0.27670735120773315,-0.9434316754341125
1782858710092258800,4.6642587890625,-1.3348960876464844,0.5868708491325378,-1.1870529651641846
1782858710102207700,4.674207763671875,-1.4373114109039307,1.374967098236084,-1.3520458936691284
1782858710112157000,4.684156982421875,-1.3887702226638794,1.8413653373718262,-1.3927643299102783
1782858710122105900,4.69410595703125,-1.2437869310379028,1.880239486694336,-1.3240935802459717
1782858710132084700,4.704084716796875,-1.0795753002166748,1.5510987043380737,-1.1698614358901978
1782858710142034000,4.714033935546875,-1.0037719011306763,0.9177701473236084,-0.9950311183929443
1782858710151981800,4.72398193359375,-1.0343148708343506,0.10097723454236984,-0.8440971374511719
1782858710161930800,4.7339306640625,-1.0658632516860962,-0.7564482688903809,-0.7469335794448853
1782858710171910000,4.743909912109375,-0.9815316796302795,-1.619291067123413,-0.7469505071640015
1782858710181858800,4.75385888671875,-0.8135096430778503,-2.2962965965270996,-0.8554418683052063
1782858710191807700,4.763807861328125,-0.6652385592460632,-2.593923807144165,-1.0565756559371948
1782858710201787000,4.773786865234375,-0.5615409016609192,-2.418487310409546,-1.2908432483673096
1782858710211735800,4.78373583984375,-0.5027949213981628,-1.8133957386016846,-1.4900388717651367
1782858710221684700,4.793684814453125,-0.4258948266506195,-0.9885308146476746,-1.6073518991470337
1782858710231632600,4.803632568359375,-0.26131370663642883,-0.22393137216567993,-1.5888079404830933
1782858710241612800,4.81361279296875,-0.0074638742953538895,0.19813625514507294,-1.449463129043579
1782858710251560700,4.823560791015625,0.2516385316848755,0.15363788604736328,-1.2098805904388428
1782858710261509600,4.833509521484375,0.4557216167449951,-0.14123423397541046,-0.8637982606887817
1782858710271458800,4.843458740234375,0.5980153679847717,-0.458660364151001,-0.4090721309185028
1782858710281437700,4.853437744140625,0.6682407855987549,-0.7790354490280151,0.08350320905447006
1782858710291387000,4.863386962890625,0.6839667558670044,-1.1056817770004272,0.5211684107780457
1782858710301334800,4.873334716796875,0.6935245990753174,-1.3998864889144897,0.852148711681366
1782858710311283700,4.88328369140625,0.6973678469657898,-1.6439663171768188,1.0538772344589233
1782858710321262800,4.893262939453125,0.7354859113693237,-1.7679295539855957,1.1459813117980957
1782858710331211800,4.903211669921875,0.8225881457328796,-1.6506208181381226,1.1734869480133057
1782858710341160700,4.91316064453125,0.9193364977836609,-1.3361378908157349,1.1729974746704102
1782858710351139800,4.923139892578125,0.965717077255249,-0.9558519721031189,1.1468802690505981
1782858710361088800,4.9330888671875,0.9304482936859131,-0.6287705302238464,1.0957587957382202
1782858710371037700,4.94303759765625,0.8431090116500854,-0.42482835054397583,1.0290998220443726
1782858710380985900,4.95298583984375,0.754600465297699,-0.2887418866157532,0.9609796404838562
1782858710390965800,4.9629658203125,0.6858888864517212,-0.1853765845298767,0.9128560423851013
1782858710400913700,4.97291357421875,0.6322767734527588,-0.12895165383815765,0.8778597116470337
1782858710410862600,4.982862548828125,0.5909779071807861,-0.1418619155883789,0.8516524434089661
1782858710420811800,4.992811767578125,0.5823633670806885,-0.16600239276885986,0.8306292295455933
1782858710430790700,5.002790771484375,0.6101351380348206,-0.1649366021156311,0.7845655679702759
1782858710440739800,5.01273974609375,0.6746882796287537,-0.09907795488834381,0.6962607502937317
1782858710450687700,5.022687744140625,0.7327588200569153,0.07370486855506897,0.5517002940177917
1782858710460637000,5.032636962890625,0.7335308790206909,0.33193162083625793,0.36210504174232483
1782858710470615800,5.04261572265625,0.6987455487251282,0.6231296062469482,0.20376592874526978
1782858710480564700,5.052564697265625,0.6485130190849304,0.8294590711593628,0.1289215236902237
1782858710490514000,5.062513916015625,0.5768547654151917,0.9086890816688538,0.1537039428949356
1782858710500492800,5.072492919921875,0.48115190863609314,0.8293393850326538,0.2779281735420227
1782858710510441700,5.082441650390625,0.3319709002971649,0.6439638137817383,0.4516216218471527
1782858710520390700,5.092390625,0.14323987066745758,0.4119865298271179,0.630646288394928
1782858710530338800,5.1023388671875,-0.05025316774845123,0.16771379113197327,0.7494293451309204
1782858710540318700,5.112318603515625,-0.20706728100776672,-0.06875200569629669,0.7815254926681519
1782858710550266600,5.1222666015625,-0.3061099052429199,-0.2691429555416107,0.7199857831001282
1782858710560215800,5.1322158203125,-0.36547282338142395,-0.4164154827594757,0.562492311000824
1782858710570164700,5.142164794921875,-0.40603581070899963,-0.4792453646659851,0.3288697898387909
1782858710580143600,5.1521435546875,-0.44461411237716675,-0.43070393800735474,0.032262369990348816
1782858710590092500,5.162092529296875,-0.4651016294956207,-0.24438965320587158,-0.2849586308002472
1782858710600040700,5.172040771484375,-0.44947871565818787,0.029413655400276184,-0.5777406692504883
1782858710610020600,5.1820205078125,-0.42017048597335815,0.2555869221687317,-0.8192384839057922
1782858710619968800,5.19196875,-0.40221837162971497,0.32097071409225464,-1.003488540649414
1782858710629918000,5.20191796875,-0.3706188499927521,0.24497364461421967,-1.1374201774597168
1782858710639867000,5.211866943359375,-0.29872336983680725,0.04732849821448326,-1.2169307470321655
1782858710649845800,5.221845703125,-0.2321324646472931,-0.2336886078119278,-1.2544503211975098
1782858710659794700,5.231794677734375,-0.20490697026252747,-0.5450373888015747,-1.2524539232254028
1782858710669743900,5.241743896484375,-0.22350755333900452,-0.797775387763977,-1.2223138809204102
1782858710679691800,5.25169189453125,-0.29074278473854065,-0.8922326564788818,-1.1769086122512817
1782858710689671700,5.261671630859375,-0.4055372178554535,-0.7856154441833496,-1.126619577407837
1782858710699619800,5.271619873046875,-0.5473867654800415,-0.4575755298137665,-1.0713504552841187
1782858710709568800,5.28156884765625,-0.6389869451522827,0.05254765599966049,-0.9697680473327637
1782858710719517700,5.291517578125,-0.6352952718734741,0.6665570139884949,-0.7868895530700684
1782858710729496800,5.301496826171875,-0.5559067130088806,1.204878807067871,-0.5301553010940552
1782858710739483000,5.31148291015625,-0.4594496786594391,1.493090271949768,-0.20878471434116364
1782858710749431800,5.321431884765625,-0.40890368819236755,1.4726924896240234,0.16942355036735535
1782858710759411000,5.331410888671875,-0.43622612953186035,1.211944341659546,0.5700340867042542
1782858710769358800,5.34135888671875,-0.5408453345298767,0.7952650189399719,0.9405778646469116
1782858710779308000,5.35130810546875,-0.6818581223487854,0.2704872488975525,1.2203259468078613
1782858710789257000,5.361257080078125,-0.7910445928573608,-0.23642751574516296,1.3754750490188599
1782858710799236000,5.371236083984375,-0.8513262867927551,-0.6142386794090271,1.4232453107833862
1782858710809185000,5.38118505859375,-0.7956315279006958,-1.0778263807296753,1.3805657625198364
1782858710819134000,5.391134033203125,-0.6827515959739685,-1.3335456848144531,1.2209690809249878
1782858710829082000,5.40108203125,-0.43428266048431396,-1.2691866159439087,1.0591708421707153
1782858710839062000,5.41106201171875,-0.10856872797012329,-0.9671729803085327,0.9391013383865356
1782858710849010000,5.421010009765625,0.14898265898227692,-0.6632393002510071,0.8661385178565979
1782858710858958800,5.430958740234375,0.3130599856376648,-0.4358152151107788,0.8589064478874207
1782858710868908000,5.440907958984375,0.41264089941978455,-0.27235865592956543,0.9135165810585022
1782858710878887000,5.450886962890625,0.4752236008644104,-0.2771155834197998,1.0131675004959106
1782858710888835800,5.4608359375,0.5050290822982788,-0.4606380760669708,1.118450403213501
1782858710898784800,5.47078466796875,0.5251023769378662,-0.7152437567710876,1.2032203674316406
1782858710908764000,5.480763916015625,0.5338210463523865,-0.9129284620285034,1.2363427877426147
1782858710918712800,5.490712890625,0.4910176694393158,-1.0683749914169312,1.1481833457946777
1782858710928661000,5.500660888671875,0.4413418769836426,-1.1001931428909302,0.9563493728637695
1782858710938610200,5.510610107421875,0.4130908250808716,-0.9041813611984253,0.7097917795181274
1782858710948588800,5.5205888671875,0.3957199156284332,-0.39116978645324707,0.4305129051208496
1782858710958538000,5.5305380859375,0.3884444236755371,0.34316810965538025,0.13021354377269745
1782858710968487000,5.54048681640625,0.344688355922699,1.022708773612976,-0.16898606717586517
1782858710978435000,5.55043505859375,0.20376987755298615,1.4679276943206787,-0.46666622161865234
1782858710988415000,5.5604150390625,-0.07181031256914139,1.6996848583221436,-0.7361131310462952
1782858710998363100,5.570363037109375,-0.45353344082832336,1.8000199794769287,-0.9244350790977478
1782858711008312000,5.58031201171875,-0.816687822341919,1.7199256420135498,-0.9753848910331726
1782858711018261000,5.590260986328125,-0.9955188035964966,1.3991832733154297,-0.9112746119499207
1782858711028240000,5.600239990234375,-0.9497127532958984,0.8096234202384949,-0.795073926448822
1782858711038189000,5.61018896484375,-0.788573682308197,0.13585138320922852,-0.7097070813179016
1782858711048138000,5.620137939453125,-0.5906474590301514,-0.3040904700756073,-0.7061153650283813
1782858711058116900,5.630116943359375,-0.36116451025009155,-0.3987509310245514,-0.7546554803848267
1782858711068065800,5.640065673828125,-0.10638764500617981,-0.2166033387184143,-0.7913414239883423
1782858711078014000,5.650013916015625,0.14025409519672394,0.09692715853452682,-0.7868574857711792
1782858711087963000,5.659962890625,0.2816638946533203,0.33828896284103394,-0.7458895444869995
1782858711097941800,5.669941650390625,0.2995448708534241,0.3720330595970154,-0.6589522361755371
1782858711107891000,5.679890869140625,0.22651788592338562,0.17659561336040497,-0.5431709289550781
1782858711117840100,5.689840087890625,0.08621138334274292,-0.14190299808979034,-0.4751809537410736
1782858711127788000,5.6997880859375,-0.06740555912256241,-0.4586479663848877,-0.5234184861183167
1782858711137768000,5.709767822265625,-0.17818453907966614,-0.6288009881973267,-0.6687703132629395
1782858711147716000,5.719716064453125,-0.21569839119911194,-0.6315218806266785,-0.8541353940963745
1782858711157665000,5.7296650390625,-0.2027226686477661,-0.5771750211715698,-1.0375335216522217
1782858711167614000,5.739614013671875,-0.13399900496006012,-0.5187452435493469,-1.1514009237289429
1782858711177593000,5.749593017578125,-0.01218682061880827,-0.4162638485431671,-1.1433488130569458
1782858711187542000,5.7595419921875,0.12797331809997559,-0.28242290019989014,-1.0085241794586182
1782858711197491000,5.769490966796875,0.26135241985321045,-0.17001298069953918,-0.7593652606010437
1782858711207469800,5.7794697265625,0.3420485854148865,-0.1462063193321228,-0.4383433759212494
1782858711217419000,5.7894189453125,0.3843387961387634,-0.23453138768672943,-0.1230005994439125
1782858711227367000,5.799366943359375,0.3640424609184265,-0.44330665469169617,0.15186995267868042
1782858711237315800,5.80931591796875,0.2802964448928833,-0.5499151349067688,0.4657171070575714
1782858711247295000,5.819294921875,0.15359830856323242,-0.4509360194206238,0.7747026681900024
1782858711257244000,5.829243896484375,-0.024391664192080498,-0.28428658843040466,1.0207736492156982
1782858711267193000,5.839193115234375,-0.1731734573841095,-0.12340153753757477,1.2052675485610962
1782858711277140700,5.849140625,-0.24790921807289124,0.0035505532287061214,1.3203113079071045
1782858711287121200,5.85912109375,-0.2596084475517273,0.036740437150001526,1.3436881303787231
1782858711297069000,5.869069091796875,-0.21825513243675232,-0.06891222298145294,1.2885359525680542
1782858711307018000,5.87901806640625,-0.16102752089500427,-0.35106948018074036,1.1574841737747192
1782858711316967000,5.888966796875,-0.12031445652246475,-0.8551893830299377,1.000978946685791
1782858711326946000,5.898946044921875,-0.10432914644479752,-1.2602618932724,0.8716427683830261
1782858711336895000,5.90889501953125,-0.14333006739616394,-1.2412914037704468,0.7683137059211731
1782858711346844000,5.918843994140625,-0.24234414100646973,-0.8659101128578186,0.6691460013389587
1782858711356823000,5.928822998046875,-0.3644716739654541,-0.28776419162750244,0.5819604992866516
1782858711366772000,5.93877197265625,-0.463230162858963,0.282560795545578,0.5124483704566956
1782858711376720000,5.948719970703125,-0.5025333762168884,0.6739171147346497,0.46281665563583374
1782858711386668800,5.958668701171875,-0.4489904046058655,0.7748702764511108,0.43065646290779114
1782858711396648000,5.96864794921875,-0.3313111662864685,0.583423376083374,0.41841259598731995
1782858711406596900,5.978596923828125,-0.19676795601844788,0.2139303982257843,0.4146299660205841
1782858711416545800,5.9885458984375,-0.09978894889354706,-0.15871268510818481,0.39515241980552673
1782858711426494000,5.998493896484375,-0.09184680879116058,-0.4017019271850586,0.3481236398220062
1782858711436473900,6.008473876953125,-0.18332719802856445,-0.28149908781051636,0.2568645477294922
1782858711446421800,6.018421875,-0.32456183433532715,-0.17800851166248322,0.20049870014190674
1782858711456371000,6.028370849609375,-0.4269710183143616,-0.12030846625566483,0.18281371891498566
1782858711466320100,6.038320068359375,-0.39571458101272583,-0.16380760073661804,0.2856971025466919
1782858711476299000,6.048299072265625,-0.2919762134552002,-0.02467021718621254,0.49893561005592346
1782858711486248000,6.058248046875,-0.18815326690673828,0.2880791127681732,0.7275616526603699
1782858711496196900,6.06819677734375,-0.10091183334589005,0.40223604440689087,0.8272472620010376
1782858711506176000,6.078176025390625,-0.05580129474401474,0.15838393568992615,0.681352972984314
1782858711516125000,6.088125,-0.1252317726612091,-0.29463252425193787,0.255275160074234
1782858711526073000,6.098072998046875,-0.3188018202781677,-0.6393318772315979,-0.37370771169662476
1782858711536022000,6.10802197265625,-0.5792054533958435,-0.5633177757263184,-1.0550436973571777
1782858711546001000,6.1180009765625,-0.7747610211372375,-0.1478661298751831,-1.6836369037628174
1782858711555949800,6.12794970703125,-0.7645624279975891,0.40334853529930115,-2.160017728805542
1782858711565899000,6.13789892578125,-0.5160476565361023,0.9989748597145081,-2.416511297225952
1782858711575848000,6.147847900390625,-0.15240049362182617,1.3993403911590576,-2.467453956604004
1782858711585826800,6.157826904296875,0.1926114410161972,1.4915456771850586,-2.359937906265259
1782858711595775700,6.167775634765625,0.44720375537872314,1.342024326324463,-2.1157758235931396
1782858711605724000,6.177723876953125,0.5935438275337219,0.9845955967903137,-1.797170877456665
1782858711615673000,6.187673095703125,0.63993901014328,0.4214768707752228,-1.4702122211456299
1782858711625652000,6.19765185546875,0.615679144859314,-0.2947697043418884,-1.16854989528656
1782858711635601200,6.20760107421875,0.5664559006690979,-0.9224416613578796,-0.9079090356826782
1782858711645550000,6.217550048828125,0.5247868299484253,-1.27116858959198,-0.7174764275550842
1782858711655529000,6.227529052734375,0.5460479259490967,-1.2664486169815063,-0.6058867573738098
1782858711665478000,6.237477783203125,0.6327899694442749,-0.9136959910392761,-0.543676495552063
1782858711675426000,6.247426025390625,0.7097718715667725,-0.3697192072868347,-0.52544105052948
1782858711685375000,6.257375,0.7081097960472107,0.25627872347831726,-0.531247615814209
1782858711695354000,6.26735400390625,0.6526023745536804,0.8068260550498962,-0.4667556881904602
1782858711705303000,6.277302978515625,0.5382646322250366,1.2372260093688965,-0.2784275412559509
1782858711715252000,6.287251953125,0.36507582664489746,1.5392298698425293,0.03793787956237793
1782858711725201000,6.297200927734375,0.15162107348442078,1.6374473571777344,0.4398433268070221
1782858711735186700,6.307186767578125,-0.052239902317523956,1.5219218730926514,0.8637450337409973
1782858711745135600,6.317135498046875,-0.18524092435836792,1.2557052373886108,1.237868070602417
1782858711755083500,6.32708349609375,-0.2087731659412384,0.9679991006851196,1.5174046754837036
1782858711765032400,6.337032470703125,-0.17069151997566223,0.7655488848686218,1.6885921955108643
1782858711775011600,6.347011474609375,-0.08499738574028015,0.41910308599472046,1.7451475858688354
1782858711784960500,6.35696044921875,0.003463197499513626,-0.0706382468342781,1.640735387802124
1782858711794909400,6.366909423828125,0.11989020556211472,-0.5691686272621155,1.4181818962097168
1782858711804888600,6.376888671875,0.21002724766731262,-0.8751053810119629,1.1480920314788818
1782858711814837500,6.38683740234375,0.21451732516288757,-0.9004808068275452,0.8770220279693604
1782858711824785400,6.396785400390625,0.16550619900226593,-0.5259464383125305,0.6202359795570374
1782858711834734300,6.406734375,0.09145407378673553,-0.06970643252134323,0.41678568720817566
1782858711844713500,6.41671337890625,0.001454642042517662,0.2890765070915222,0.23524199426174164
1782858711854662400,6.426662353515625,-0.08297049254179001,0.45981523394584656,0.10377611219882965
1782858711864611300,6.436611328125,-0.17177227139472961,0.5362781882286072,0.057876843959093094
1782858711874560300,6.446560302734375,-0.26487982273101807,0.5641921162605286,0.12450354546308517
1782858711884539400,6.456539306640625,-0.3535260856151581,0.497956246137619,0.29619112610816956
1782858711894488600,6.466488525390625,-0.43347978591918945,0.3153826892375946,0.5398820638656616
1782858711904436200,6.476436279296875,-0.44148755073547363,0.1166936382651329,0.837677538394928
1782858711914416600,6.486416748046875,-0.3407832980155945,-0.01500872615724802,1.1567630767822266
1782858711924364500,6.496364501953125,-0.1910155713558197,-0.022118592634797096,1.4609715938568115
1782858711934313500,6.5063134765625,-0.14824706315994263,0.11272071301937103,1.673127293586731
1782858711944262400,6.516262451171875,-0.27044057846069336,0.3511810600757599,1.7631547451019287
1782858711954241500,6.526241455078125,-0.5512637495994568,0.6317040324211121,1.7282859086990356
1782858711964190500,6.5361904296875,-0.9274227023124695,0.8145515322685242,1.5686936378479004
1782858711974138600,6.546138671875,-1.276934266090393,0.8533385992050171,1.3004640340805054
1782858711984087600,6.556087646484375,-1.5095208883285522,0.7859867215156555,0.9466445446014404
1782858711994066400,6.56606640625,-1.5661466121673584,0.6248044967651367,0.5179741978645325
1782858712004015400,6.576015380859375,-1.4476748704910278,0.46496763825416565,0.06470496207475662
1782858712013964300,6.58596435546875,-1.1620937585830688,0.3407282531261444,-0.33329352736473083
1782858712023913500,6.59591357421875,-0.7799777984619141,0.2536042332649231,-0.6131333708763123
1782858712033892400,6.605892333984375,-0.36624395847320557,0.17106516659259796,-0.7461502552032471
1782858712043841300,6.61584130859375,0.004002753645181656,0.04014499485492706,-0.7519358992576599
1782858712053789400,6.62578955078125,0.2734246253967285,-0.23155470192432404,-0.6812073588371277
1782858712063769600,6.63576953125,0.416326642036438,-0.6238800287246704,-0.5934156775474548
1782858712073717200,6.64571728515625,0.42555320262908936,-1.118904948234558,-0.5537889003753662
1782858712083666700,6.655666748046875,0.34187084436416626,-1.6388798952102661,-0.5908481478691101
1782858712093615600,6.66561572265625,0.21751774847507477,-2.030256748199463,-0.7128909230232239
1782858712103594500,6.675594482421875,0.08979786187410355,-2.145216464996338,-0.8811109066009521
1782858712113543400,6.68554345703125,-0.007398197427392006,-1.9441815614700317,-1.022053599357605
1782858712123491600,6.69549169921875,-0.047589704394340515,-1.4840755462646484,-1.0856776237487793
1782858712133440500,6.7054404296875,-0.03767342492938042,-0.9315190315246582,-1.0604811906814575
1782858712143419400,6.71541943359375,-0.009592682123184204,-0.42463788390159607,-0.9542588591575623
1782858712153368600,6.72536865234375,-0.0035734064877033234,-0.05067998915910721,-0.7872725129127502
1782858712163317500,6.7353173828125,-0.05041798576712608,0.18885836005210876,-0.5882986783981323
1782858712173266400,6.745266357421875,-0.11448032408952713,0.25028282403945923,-0.37505650520324707
1782858712183245300,6.755245361328125,-0.14930616319179535,0.15250125527381897,-0.1345890909433365
1782858712193194500,6.765194580078125,-0.12665703892707825,-0.038392797112464905,0.12458468228578568
1782858712203142400,6.775142333984375,-0.04193384200334549,-0.2524246871471405,0.3830205798149109
1782858712213122300,6.785122314453125,0.07486254721879959,-0.41097307205200195,0.6132879257202148
1782858712223070500,6.795070556640625,0.19924479722976685,-0.4628448188304901,0.7892096042633057
1782858712233019400,6.805019287109375,0.3031504154205322,-0.3992381691932678,0.8999670147895813
1782858712242968600,6.814968505859375,0.37465226650238037,-0.2658950388431549,0.9498273134231567
1782858712252947500,6.824947509765625,0.39931580424308777,-0.11143381148576736,0.9539618492126465
1782858712262896600,6.834896728515625,0.3628314435482025,-0.01344297081232071,0.9265210032463074
1782858712272844500,6.844844482421875,0.24681854248046875,-0.03373226523399353,0.9021695852279663
1782858712282793500,6.85479345703125,0.05218019336462021,-0.14027580618858337,0.8840577006340027
1782858712292772600,6.864772705078125,-0.19338002800941467,-0.24157872796058655,0.860126256942749
1782858712302721500,6.874721435546875,-0.430003821849823,-0.30256402492523193,0.8046352863311768
1782858712312670500,6.88467041015625,-0.60125333070755,-0.2884601950645447,0.7230413556098938
1782858712322619400,6.894619384765625,-0.6900331974029541,-0.1563957929611206,0.6377400755882263
1782858712332598500,6.9045986328125,-0.7088912725448608,0.041890665888786316,0.5714489817619324
1782858712342547500,6.91454736328125,-0.6588271856307983,0.2563953995704651,0.5389867424964905
1782858712352495400,6.924495361328125,-0.5556190013885498,0.43615877628326416,0.5429508686065674
1782858712362475500,6.9344755859375,-0.4807080626487732,0.5049165487289429,0.562938928604126
1782858712372423400,6.94442333984375,-0.4447562098503113,0.46523386240005493,0.5908110737800598
1782858712382372400,6.954372314453125,-0.4167405962944031,0.37750735878944397,0.6637625098228455
1782858712392321300,6.9643212890625,-0.4171435236930847,0.35749688744544983,0.7808656692504883
1782858712402300400,6.974300537109375,-0.4792573153972626,0.39555713534355164,0.8731009364128113
1782858712412249600,6.98424951171875,-0.5863862037658691,0.3644106686115265,0.8414796590805054
1782858712422198500,6.994198486328125,-0.6919240951538086,0.20226822793483734,0.6752016544342041
1782858712432146400,7.004146484375,-0.7852625250816345,0.04173128306865692,0.40788954496383667
1782858712442125600,7.01412548828125,-0.9176260232925415,-0.006807578727602959,0.06363161653280258
1782858712452074500,7.024074462890625,-1.0941869020462036,0.13714933395385742,-0.28302112221717834
1782858712462023400,7.0340234375,-1.2310882806777954,0.38092097640037537,-0.5318410992622375
1782858712471972400,7.043972412109375,-1.2726943492889404,0.5462886095046997,-0.6330430507659912
1782858712481951500,7.053951416015625,-1.2150474786758423,0.5898041129112244,-0.5769239664077759
1782858712491900400,7.063900390625,-1.0748485326766968,0.5406466722488403,-0.41740328073501587
1782858712501848600,7.0738486328125,-0.9101221561431885,0.2768842577934265,-0.24819180369377136
1782858712511828500,7.083828369140625,-0.7683173418045044,-0.16807295382022858,-0.12991151213645935
1782858712521776400,7.0937763671875,-0.698485255241394,-0.648021399974823,-0.1252763420343399
1782858712531725300,7.103725341796875,-0.6665725708007812,-1.076142430305481,-0.2557230591773987
1782858712541674500,7.113674560546875,-0.5891331434249878,-1.3655458688735962,-0.455947607755661
1782858712551653400,7.1236533203125,-0.4210299253463745,-1.4677432775497437,-0.6422708630561829
1782858712561602300,7.133602294921875,-0.16117724776268005,-1.3776968717575073,-0.7753137946128845
1782858712571551500,7.143551513671875,0.14275306463241577,-1.1335259675979614,-0.8406155705451965
1782858712581499600,7.153499755859375,0.4278082847595215,-0.8355028629302979,-0.8336616158485413
1782858712591479600,7.1634794921875,0.6572904586791992,-0.46738743782043457,-0.7631137371063232
1782858712601427500,7.173427490234375,0.7741700410842896,0.002662563230842352,-0.636638879776001
1782858712611376600,7.183376708984375,0.750221848487854,0.46974050998687744,-0.483315110206604
1782858712621325600,7.19332568359375,0.6447490453720093,0.741382896900177,-0.3251691460609436
1782858712631304400,7.203304443359375,0.5010512471199036,0.7097964882850647,-0.2060379534959793
1782858712641253400,7.21325341796875,0.38141024112701416,0.44214290380477905,-0.17982466518878937
1782858712651201500,7.223201416015625,0.3405323028564453,0.14494451880455017,-0.24256661534309387
1782858712661181400,7.233181396484375,0.3930114507675171,-0.06184503063559532,-0.3434704840183258
1782858712671129300,7.24312939453125,0.5319560170173645,-0.10498398542404175,-0.4396260678768158
1782858712681078500,7.25307861328125,0.7267428636550903,-0.017115099355578423,-0.48515450954437256
1782858712691027500,7.26302734375,0.9286082983016968,0.1666605919599533,-0.43980327248573303
1782858712701006300,7.27300634765625,1.0692405700683594,0.4463692009449005,-0.2844577729701996
1782858712710955300,7.282955322265625,1.0681369304656982,0.7076513767242432,-0.07926120609045029
1782858712720904400,7.292904541015625,0.9605189561843872,0.8785962462425232,0.1766401082277298
1782858712730852400,7.302852294921875,0.8124767541885376,0.8769778609275818,0.4777756929397583
1782858712740861200,7.312861083984375,0.6387983560562134,0.7440478801727295,0.7584277987480164
1782858712750809000,7.32280908203125,0.44095051288604736,0.543917715549469,0.9380963444709778
1782858712760758300,7.33275830078125,0.3153245747089386,0.36932119727134705,1.0074419975280762
1782858712770707200,7.342707275390625,0.3176460564136505,0.3280129134654999,0.9964205026626587
1782858712780686000,7.35268603515625,0.42734432220458984,0.4409778118133545,0.9271417856216431
1782858712790635000,7.362635009765625,0.583191454410553,0.7115491032600403,0.8330256342887878
1782858712800583200,7.372583251953125,0.7602880001068115,1.0813558101654053,0.7252130508422852
1782858712810563000,7.38256298828125,0.9606183767318726,1.395721197128296,0.5889233350753784
1782858712820511000,7.392510986328125,1.2128738164901733,1.6490391492843628,0.4796328544616699
1782858712830460200,7.402460205078125,1.4405888319015503,1.8621668815612793,0.40705716609954834
1782858712840409000,7.4124091796875,1.5640369653701782,2.1309690475463867,0.3932077884674072
1782858712850388000,7.422387939453125,1.5884908437728882,2.451787233352661,0.4905354082584381
1782858712860337000,7.4323369140625,1.4981458187103271,2.5882887840270996,0.6638469696044922
1782858712870286300,7.442286376953125,1.2777236700057983,2.264427900314331,0.8498903512954712
1782858712880234200,7.452234130859375,0.9652276039123535,1.3757736682891846,0.9528295397758484
1782858712890214100,7.462214111328125,0.6117981672286987,0.3323647379875183,0.9347677230834961
1782858712900162300,7.472162353515625,0.2085624486207962,-0.39074522256851196,0.7269989848136902
1782858712910111200,7.482111328125,-0.25652027130126953,-0.7362824082374573,0.2662673592567444
1782858712920060200,7.49206005859375,-0.7168660759925842,-0.8004740476608276,-0.37251463532447815
1782858712930039000,7.5020390625,-1.069563865661621,-0.5102794766426086,-1.0027402639389038
1782858712939988200,7.51198828125,-1.2672113180160522,-0.03792203962802887,-1.4759984016418457
1782858712949936000,7.52193603515625,-1.2862260341644287,0.37368494272232056,-1.760259747505188
1782858712959916000,7.531916015625,-1.1631884574890137,0.4788261651992798,-1.8800524473190308
1782858712969864200,7.5418642578125,-0.932260274887085,0.21885985136032104,-1.8451917171478271
1782858712979813000,7.551813232421875,-0.6358857154846191,-0.256663054227829,-1.6275382041931152
1782858712989762000,7.561761962890625,-0.3174651265144348,-0.8254356980323792,-1.2634040117263794
1782858712999741200,7.5717412109375,-0.00800996646285057,-1.4182920455932617,-0.8226187825202942
1782858713009690000,7.581690185546875,0.2333938628435135,-1.8696656227111816,-0.3662738502025604
1782858713019639000,7.59163916015625,0.4066943824291229,-2.1027228832244873,0.0547310933470726
1782858713029587000,7.6015869140625,0.5280163288116455,-2.1582322120666504,0.3945714831352234
1782858713039567400,7.6115673828125,0.6263434886932373,-2.1059751510620117,0.6148846745491028
1782858713049515300,7.621515380859375,0.7067350149154663,-2.048111915588379,0.6968234777450562
1782858713059464200,7.631464111328125,0.7790586352348328,-2.0503828525543213,0.6497593522071838
1782858713069413000,7.6414130859375,0.8513096570968628,-2.043268918991089,0.5290550589561462
1782858713079392300,7.651392333984375,0.9109914302825928,-1.9150553941726685,0.366728276014328
1782858713089341200,7.661341064453125,0.9588990211486816,-1.6205579042434692,0.17098061740398407
1782858713099290000,7.6712900390625,0.9893302321434021,-1.2460551261901855,-0.05326513946056366
1782858713109269200,7.681269287109375,1.0007075071334839,-0.9208389520645142,-0.2694099545478821
1782858713119217200,7.691217041015625,1.0148448944091797,-0.6805532574653625,-0.41208165884017944
1782858713129166000,7.701166015625,1.03949773311615,-0.47684696316719055,-0.44095513224601746
1782858713139115000,7.711114990234375,1.0624936819076538,-0.2703363001346588,-0.35788699984550476
1782858713149094100,7.72109423828125,1.0698274374008179,-0.08738940209150314,-0.21602600812911987
1782858713159043000,7.73104296875,1.0364381074905396,0.0016292901709675789,-0.09980808198451996
1782858713168992000,7.740991943359375,0.9570679068565369,-0.03493537753820419,-0.058588217943906784
1782858713178940200,7.750940185546875,0.849664568901062,-0.1897076815366745,-0.08499596267938614
1782858713188920000,7.760920166015625,0.7410672903060913,-0.3478533923625946,-0.12884464859962463
1782858713198868000,7.770867919921875,0.6536601185798645,-0.39024487137794495,-0.12409815192222595
1782858713208817200,7.780817138671875,0.5608814358711243,-0.2701387107372284,-0.0361909382045269
1782858713218766300,7.790766357421875,0.44357481598854065,-0.054673001170158386,0.1197887510061264
1782858713228745200,7.8007451171875,0.3022752106189728,0.1802268624305725,0.2806447446346283
1782858713238694100,7.810694091796875,0.14120283722877502,0.38057586550712585,0.3878098726272583
1782858713248643000,7.82064306640625,0.01590537279844284,0.5039827227592468,0.4504338502883911
1782858713258622200,7.830622314453125,-0.024653496220707893,0.5567606091499329,0.4973999857902527
1782858713268571100,7.840571044921875,0.035140860825777054,0.5888689756393433,0.5852470397949219
1782858713278519000,7.85051904296875,0.1783711314201355,0.6068950295448303,0.7278794050216675
1782858713288468200,7.86046826171875,0.37034937739372253,0.6098756790161133,0.9347071647644043
1782858713298447000,7.870447021484375,0.5659735798835754,0.6087270975112915,1.1950241327285767
1782858713308396000,7.88039599609375,0.7412921190261841,0.5095573663711548,1.4393278360366821
1782858713318345000,7.890344970703125,0.8993887901306152,0.21851465106010437,1.5993714332580566
1782858713328293000,7.900293212890625,1.0448449850082397,-0.25334182381629944,1.659928321838379
1782858713338273000,7.91027294921875,1.1326559782028198,-0.7159793376922607,1.6458286046981812
1782858713348221200,7.92022119140625,1.0951496362686157,-0.8916677832603455,1.5867847204208374
1782858713358170000,7.930170166015625,0.9040720462799072,-0.6466910243034363,1.5135098695755005
1782858713368119300,7.940119384765625,0.5929269194602966,-0.02574625425040722,1.4161792993545532
1782858713378098000,7.950097900390625,0.2483557164669037,0.7868403792381287,1.2860636711120605
1782858713388047000,7.960047119140625,-0.059644993394613266,1.4045991897583008,1.0490968227386475
1782858713397996300,7.969996337890625,-0.2770525813102722,1.4863337278366089,0.6653506755828857
1782858713407975200,7.97997509765625,-0.42777469754219055,1.0146836042404175,0.20074601471424103
1782858713417924000,7.989924072265625,-0.6048431396484375,0.22775183618068695,-0.2953037917613983
1782858713427872300,7.999872314453125,-0.852782666683197,-0.4124355912208557,-0.8026812076568604
1782858713437821200,8.0098212890625,-1.1220264434814453,-0.5731147527694702,-1.244404673576355
1782858713447800000,8.019800048828126,-1.340144157409668,-0.29763445258140564,-1.5526589155197144
1782858713457749200,8.029749267578126,-1.4652858972549438,0.15191160142421722,-1.7650704383850098
1782858713467698200,8.0396982421875,-1.4427073001861572,0.4055388271808624,-1.9148591756820679
1782858713477646000,8.04964599609375,-1.2514734268188477,0.31981873512268066,-1.971466064453125
1782858713487626000,8.0596259765625,-0.9158299565315247,0.012304063886404037,-1.9271702766418457
1782858713497574100,8.06957421875,-0.5661894083023071,-0.44573259353637695,-1.8629179000854492
1782858713507523000,8.079523193359375,-0.3464205861091614,-0.9828136563301086,-1.8370821475982666
1782858713517472000,8.089471923828125,-0.282000869512558,-1.3615169525146484,-1.8166903257369995
1782858713527451100,8.099451171875,-0.3358454704284668,-1.4612784385681152,-1.7754899263381958
1782858713537400300,8.109400390625,-0.4965067505836487,-1.337242841720581,-1.7384310960769653
1782858713547349200,8.119349365234376,-0.7369286417961121,-1.0986233949661255,-1.7217949628829956
1782858713557328100,8.129328125,-1.0023633241653442,-0.8155118227005005,-1.7219992876052856
1782858713567277300,8.13927734375,-1.2203795909881592,-0.29520899057388306,-1.7183443307876587
1782858713577225200,8.14922509765625,-1.3640358448028564,0.4884272515773773,-1.6742897033691406
1782858713587174100,8.159174072265625,-1.4685391187667847,1.2576355934143066,-1.6016379594802856
1782858713597153300,8.1691533203125,-1.548161506652832,1.8108996152877808,-1.471903681755066
1782858713607102200,8.179102294921876,-1.5890644788742065,2.0751543045043945,-1.2461429834365845
1782858713617051100,8.189051025390626,-1.5663667917251587,2.0696754455566406,-0.9328636527061462
1782858713626999000,8.1989990234375,-1.4982061386108398,1.897922396659851,-0.5479016304016113
1782858713636979200,8.208979248046875,-1.410736083984375,1.5868048667907715,-0.14014612138271332
1782858713646927000,8.218927001953125,-1.3187896013259888,1.1713594198226929,0.23394598066806793
1782858713656876000,8.2288759765625,-1.2296123504638672,0.72046959400177,0.525947630405426
1782858713666825000,8.238824951171875,-1.1315553188323975,0.30251365900039673,0.7618637681007385
1782858713676804000,8.24880419921875,-1.049646019935608,-0.04270363599061966,0.9278044104576111
1782858713686753000,8.2587529296875,-0.9960235357284546,-0.29119575023651123,1.017186164855957
1782858713696702200,8.2687021484375,-0.9641596674919128,-0.4268466830253601,1.0339888334274292
1782858713706681000,8.27868115234375,-0.929858386516571,-0.48591479659080505,1.0021848678588867
1782858713716630300,8.28863037109375,-0.877217173576355,-0.4606550335884094,0.9764878153800964
1782858713726578200,8.298578125,-0.8027565479278564,-0.3457212448120117,0.999750018119812
1782858713736555500,8.308555419921875,-0.7384343147277832,-0.20946985483169556,1.0711580514907837
1782858713746534400,8.318534423828124,-0.7143843770027161,-0.10003229975700378,1.1524654626846313
1782858713756483600,8.328483642578124,-0.752912163734436,-0.05729379504919052,1.200857162475586
1782858713766432500,8.3384326171875,-0.8440977334976196,-0.1783834546804428,1.1801360845565796
1782858713776380400,8.34838037109375,-0.9531264305114746,-0.412207692861557,1.0563470125198364
1782858713786360600,8.358360595703125,-1.0135886669158936,-0.5837525725364685,0.9003503918647766
1782858713796308500,8.36830859375,-1.0043789148330688,-0.5502311587333679,0.7479501366615295
1782858713806257400,8.37825732421875,-0.9383271336555481,-0.3449597656726837,0.6196227669715881
1782858713816206300,8.388206298828125,-0.8379741311073303,-0.182986319065094,0.5163021683692932
1782858713826185500,8.398185546875,-0.685886025428772,-0.1560324728488922,0.4431602954864502
1782858713836134400,8.408134521484374,-0.5009821057319641,-0.23546506464481354,0.37901705503463745
1782858713846083300,8.418083251953124,-0.3286856710910797,-0.23962518572807312,0.32741668820381165
1782858713856062500,8.4280625,-0.1929388791322708,0.22325438261032104,0.35749551653862
1782858713866011400,8.438011474609375,-0.099929578602314,0.841469943523407,0.4847424030303955
1782858713875959300,8.447959228515625,-0.040393002331256866,0.8503679037094116,0.6536531448364258
1782858713885908500,8.457908447265625,0.03504662588238716,0.3383699357509613,0.8184756636619568
1782858713895887400,8.467887451171874,0.16381652653217316,-0.19610558450222015,0.9457605481147766
1782858713905836300,8.477836181640624,0.27525436878204346,-0.5441679358482361,1.0038152933120728
1782858713915785500,8.487785400390624,0.29145562648773193,-0.6843659281730652,1.0116851329803467
1782858713925734400,8.497734375,0.21559442579746246,-0.6320632696151733,0.9516335725784302
1782858713935713500,8.507713623046875,0.1458561271429062,-0.42757368087768555,0.8331893682479858
1782858713945661400,8.517661376953125,0.15255343914031982,-0.0740630030632019,0.6537895202636719
1782858713955610600,8.527610595703125,0.23881711065769196,0.27207455039024353,0.43664976954460144
1782858713965559600,8.5375595703125,0.33885878324508667,0.42143315076828003,0.1774653196334839
1782858713975538400,8.547538330078124,0.4299769401550293,0.32117530703544617,-0.08916651457548141
1782858713985487400,8.5574873046875,0.5275365114212036,0.03048088774085045,-0.31651389598846436
1782858713995436500,8.5674365234375,0.6340353488922119,-0.31165799498558044,-0.4581744372844696
1782858714005415400,8.57741552734375,0.7541066408157349,-0.5367265343666077,-0.50883948802948
1782858714015364400,8.5873642578125,0.8427398800849915,-0.6285325884819031,-0.5348575711250305
1782858714025312500,8.5973125,0.9205297231674194,-0.651984691619873,-0.5832740664482117
1782858714035261400,8.607261474609375,0.9989168047904968,-0.5471518635749817,-0.6911449432373047
1782858714045240300,8.617240234375,1.0273367166519165,-0.2852632701396942,-0.9196188449859619
1782858714055189200,8.627189208984374,1.051457166671753,0.009356572292745113,-1.2630714178085327
1782858714065138700,8.637138671875,1.1141676902770996,0.17875277996063232,-1.659412145614624
1782858714075087600,8.647087646484374,1.2169331312179565,0.1563110649585724,-1.996376395225525
1782858714085066500,8.65706640625,1.318727970123291,0.07371978461742401,-2.1603055000305176
1782858714095015400,8.667015380859375,1.3781578540802002,0.03092905879020691,-2.1141202449798584
1782858714104963600,8.676963623046875,1.3916795253753662,0.046006809920072556,-1.8946521282196045
1782858714114912500,8.68691259765625,1.3773874044418335,0.12541824579238892,-1.5779067277908325
1782858714124891400,8.696891357421874,1.3557147979736328,0.2177223563194275,-1.2097655534744263
1782858714134840600,8.706840576171874,1.3441388607025146,0.28721073269844055,-0.8217421770095825
1782858714144789500,8.71678955078125,1.316851019859314,0.2750406265258789,-0.44804471731185913
1782858714154768400,8.726768310546875,1.2457176446914673,0.15470704436302185,-0.11474357545375824
1782858714164717300,8.73671728515625,1.1293199062347412,-0.02220035158097744,0.1247265413403511
1782858714174665500,8.74666552734375,1.0016956329345703,-0.11244983971118927,0.2511817216873169
1782858714184614400,8.756614501953125,0.8762655258178711,-0.09161752462387085,0.2619781792163849
1782858714194593500,8.766593505859374,0.7770527005195618,0.0018827379681169987,0.16112931072711945
1782858714204542500,8.77654248046875,0.6726940274238586,0.0495368093252182,-0.07218091189861298
1782858714214491400,8.786491455078124,0.5755195021629333,0.018337421119213104,-0.43291541934013367
1782858714224440600,8.796440673828124,0.5319752097129822,0.00528473686426878,-0.8279266357421875
1782858714234419500,8.80641943359375,0.5371960401535034,0.07656385749578476,-1.1796730756759644
1782858714244368600,8.81636865234375,0.5326423048973083,0.1640620231628418,-1.4359474182128906
1782858714254316500,8.826316650390625,0.5316083431243896,0.29106342792510986,-1.534236192703247
1782858714264296400,8.83629638671875,0.5374401807785034,0.533351719379425,-1.4328118562698364
1782858714274244600,8.84624462890625,0.5495671033859253,0.8452732563018799,-1.143091082572937
1782858714284193500,8.856193603515624,0.5805359482765198,1.1201122999191284,-0.7166667580604553
1782858714294142500,8.866142578125,0.6301848888397217,1.21531081199646,-0.24063228070735931
1782858714304121600,8.87612158203125,0.701302170753479,1.0995889902114868,0.21069841086864471
1782858714314070500,8.886070556640625,0.7617719769477844,0.7045453190803528,0.579035758972168
1782858714324018400,8.896018310546875,0.7924657464027405,0.13295872509479523,0.8448365330696106
1782858714333967400,8.90596728515625,0.7990046739578247,-0.3625315725803375,1.0363749265670776
1782858714343946500,8.915946533203124,0.7989010810852051,-0.5753083229064941,1.1943309307098389
1782858714353895400,8.9258955078125,0.7403834462165833,-0.6511306166648865,1.2481037378311157
1782858714363844400,8.93584423828125,0.6372911334037781,-0.9315369725227356,1.1427162885665894
1782858714373793300,8.945793212890624,0.5479258298873901,-1.241081714630127,0.9170783162117004
1782858714383772400,8.9557724609375,0.4279469847679138,-1.2464954853057861,0.6113490462303162
1782858714393721600,8.9657216796875,0.22561973333358765,-0.9738900661468506,0.21945300698280334
1782858714403669200,8.975669189453125,-0.01741901971399784,-0.5869844555854797,-0.20580346882343292
1782858714413649700,8.985649658203124,-0.20149976015090942,-0.15280452370643616,-0.5762897729873657
1782858714423597600,8.99559765625,-0.26947587728500366,0.25794997811317444,-0.7932649850845337
1782858714433546500,9.00554638671875,-0.2560807764530182,0.5788021683692932,-0.8525366187095642
1782858714443495400,9.015495361328124,-0.24804389476776123,0.7272449135780334,-0.8168159127235413
1782858714453474600,9.025474609375,-0.2860531508922577,0.633823812007904,-0.7801894545555115
1782858714463423500,9.035423583984375,-0.3324004113674164,0.35448193550109863,-0.7968307137489319
1782858714473371400,9.045371337890625,-0.36122769117355347,-0.022272057831287384,-0.9058390259742737
1782858714483320600,9.055320556640625,-0.3780894875526428,-0.4291854798793793,-1.1341129541397095
1782858714493299500,9.065299560546874,-0.36311280727386475,-0.7352796792984009,-1.4073033332824707
1782858714503248400,9.075248291015624,-0.3392636775970459,-0.7623366117477417,-1.658534049987793
1782858714513197300,9.085197265625,-0.3174578547477722,-0.5339735746383667,-1.8653404712677002
1782858714523146500,9.095146484375,-0.27523770928382874,-0.06514269858598709,-1.9588669538497925
1782858714533125400,9.10512548828125,-0.22269637882709503,0.4873085618019104,-1.9143568277359009
1782858714543074300,9.11507421875,-0.1770751029253006,0.8875550627708435,-1.7511342763900757
1782858714553022500,9.1250224609375,-0.15038041770458221,0.991713285446167,-1.5115323066711426
1782858714563002400,9.13500244140625,-0.15761330723762512,0.8996152877807617,-1.2237564325332642
1782858714572950300,9.1449501953125,-0.20175223052501678,0.7607733011245728,-0.9022846221923828
1782858714582899500,9.1548994140625,-0.28412991762161255,0.6291468143463135,-0.609379231929779
1782858714592848600,9.1648486328125,-0.36326363682746887,0.47037336230278015,-0.4063543677330017
1782858714602827500,9.17482763671875,-0.38125061988830566,0.3287840187549591,-0.3005903661251068
1782858714612776400,9.1847763671875,-0.3107311725616455,0.25497308373451233,-0.2829531729221344
1782858714622724600,9.194724609375,-0.1679125279188156,0.27232304215431213,-0.3302634358406067
1782858714632673500,9.204673583984375,0.0338280126452446,0.38560378551483154,-0.37681812047958374
1782858714642652400,9.21465234375,0.26196905970573425,0.6321712732315063,-0.36337846517562866
1782858714652601600,9.2246015625,0.44968175888061523,0.9313499331474304,-0.25851908326148987
1782858714662550500,9.234550537109374,0.5425314903259277,1.1700280904769897,-0.06953345984220505
1782858714672499500,9.24449951171875,0.5461365580558777,1.3041881322860718,0.1892949640750885
1782858714682478300,9.254478271484375,0.43849074840545654,1.3062502145767212,0.460516095161438
1782858714692427500,9.264427490234375,0.21053549647331238,1.2143309116363525,0.6737632751464844
1782858714702375400,9.27437548828125,-0.06235089898109436,1.0875070095062256,0.8326192498207092
1782858714712355300,9.284355224609374,-0.282269150018692,0.9544690251350403,0.9452401995658875
1782858714722303500,9.294303466796874,-0.4105171263217926,0.8275123834609985,1.0187711715698242
1782858714732252400,9.30425244140625,-0.46205922961235046,0.7421907186508179,1.0813480615615845
1782858714742227500,9.3142275390625,-0.47059518098831177,0.7415565848350525,1.1323816776275635
1782858714752206600,9.32420654296875,-0.4413021206855774,0.8724921345710754,1.1763044595718384
1782858714762155500,9.334155517578125,-0.413982093334198,1.1015604734420776,1.206978440284729
1782858714772104400,9.3441044921875,-0.42029058933258057,1.2953075170516968,1.204582929611206
1782858714782052600,9.354052490234375,-0.4438007175922394,1.3848891258239746,1.190963864326477
1782858714792031500,9.364031494140624,-0.4672149419784546,1.3546886444091797,1.2191962003707886
1782858714801980400,9.37398046875,-0.522463858127594,1.1719214916229248,1.2594949007034302
1782858714811929600,9.3839296875,-0.6200487613677979,0.8036208152770996,1.269391417503357
1782858714821878800,9.393878662109374,-0.7085331082344055,0.31502339243888855,1.2583739757537842
1782858714831857700,9.403857666015625,-0.7515016198158264,-0.057596832513809204,1.2623839378356934
1782858714841806600,9.413806640625,-0.7393496632575989,-0.35015547275543213,1.2544597387313843
1782858714851754800,9.423754638671875,-0.669651985168457,-0.6109486222267151,1.1396948099136353
1782858714861734700,9.433734619140624,-0.5460062026977539,-0.6462501883506775,0.899061381816864
1782858714871682600,9.4436826171875,-0.43381935358047485,-0.45700347423553467,0.5304343104362488
1782858714881631500,9.453631591796874,-0.3557799458503723,-0.2050444781780243,0.15006886422634125
1782858714891580700,9.46358056640625,-0.32405325770378113,-0.00025738170370459557,-0.14046616852283478
1782858714901559600,9.4735595703125,-0.2912311255931854,0.08203855156898499,-0.2947295308113098
1782858714911508500,9.483508544921875,-0.23343196511268616,-0.01390635035932064,-0.305378794670105
1782858714921457400,9.49345751953125,-0.1563611477613449,-0.26594871282577515,-0.22215501964092255
1782858714931405600,9.503405517578125,-0.06615062057971954,-0.5458148121833801,-0.08752740919589996
1782858714941385500,9.513385498046874,0.03652755171060562,-0.787247896194458,0.08796051889657974
1782858714951333600,9.523333740234374,0.14857973158359528,-0.9912429451942444,0.2708418369293213
1782858714961282600,9.533282470703124,0.28075483441352844,-1.167311191558838,0.4111555218696594
1782858714971231700,9.543231689453124,0.4508054852485657,-1.2559090852737427,0.4519783854484558
1782858714981210400,9.55321044921875,0.6391069293022156,-1.2618279457092285,0.37674808502197266
1782858714991159600,9.56315966796875,0.8376890420913696,-1.243035912513733,0.2032323181629181
1782858715001107700,9.573107666015625,1.0340468883514404,-1.235206127166748,-0.02241038717329502
1782858715011087600,9.583087646484374,1.216847538948059,-1.1717486381530762,-0.22352805733680725
1782858715021035800,9.593035888671874,1.3164663314819336,-1.0389450788497925,-0.3650345802307129
1782858715030984700,9.602984619140624,1.3105285167694092,-0.8536779284477234,-0.41901230812072754
1782858715040933600,9.61293359375,1.2220958471298218,-0.6478337049484253,-0.4041998088359833
1782858715050912500,9.62291259765625,1.0896971225738525,-0.45442742109298706,-0.34766921401023865
1782858715060861700,9.63286181640625,0.9370269179344177,-0.30715036392211914,-0.26801353693008423
1782858715070810600,9.642810546875,0.781262218952179,-0.27023035287857056,-0.1677824705839157
1782858715080758500,9.652758544921875,0.6249522566795349,-0.4035777449607849,-0.06736186146736145
1782858715090738400,9.662738525390624,0.4695417881011963,-0.6715006232261658,0.029047556221485138
1782858715100686600,9.6726865234375,0.31390321254730225,-0.956092119216919,0.09670649468898773
1782858715110635500,9.682635498046874,0.16601212322711945,-1.1816383600234985,0.11372603476047516
1782858715120584400,9.69258447265625,0.034769151359796524,-1.3119354248046875,0.06030808389186859
1782858715130563600,9.7025634765625,-0.05336710065603256,-1.3152892589569092,-0.04112521559000015
1782858715140512800,9.7125126953125,-0.08987504243850708,-1.1126339435577393,-0.14315570890903473
1782858715150460400,9.72246044921875,-0.10120534896850586,-0.7734024524688721,-0.23365823924541473
1782858715160440600,9.732440673828124,-0.11560027301311493,-0.37401220202445984,-0.29088929295539856
1782858715170388700,9.742388671875,-0.14240965247154236,0.0023383242078125477,-0.28774136304855347
1782858715180337700,9.752337646484374,-0.21368221938610077,0.27977660298347473,-0.21033313870429993
1782858715190286600,9.76228662109375,-0.30273935198783875,0.43741264939308167,-0.07339886575937271
1782858715200265700,9.772265625,-0.37043318152427673,0.4623180031776428,0.08770879358053207
1782858715210214700,9.782214599609375,-0.3894050717353821,0.37432050704956055,0.24445943534374237
1782858715220163600,9.79216357421875,-0.3523365259170532,0.24464188516139984,0.3627072274684906
1782858715230111500,9.802111572265625,-0.27346745133399963,0.12276004999876022,0.4160829484462738
1782858715240091600,9.812091552734374,-0.1540297567844391,0.03142614662647247,0.43658289313316345
1782858715250039600,9.82203955078125,-0.018955737352371216,-0.01847364939749241,0.43912678956985474
1782858715259988500,9.831988525390624,0.1104789450764656,-0.07652097195386887,0.41887611150741577
1782858715269937400,9.8419375,0.25824883580207825,-0.20721760392189026,0.38774266839027405
1782858715279916500,9.85191650390625,0.45441195368766785,-0.2776305377483368,0.39077040553092957
1782858715289865500,9.861865478515625,0.6826990842819214,-0.2077830731868744,0.5008983016014099
1782858715299813600,9.871813720703125,0.8852348923683167,-0.05711846798658371,0.7041078805923462
1782858715309793500,9.88179345703125,1.0181732177734375,0.0942152813076973,0.9385457634925842
1782858715319741400,9.891741455078124,1.0672508478164673,0.21161992847919464,1.1778212785720825
1782858715329690600,9.901690673828124,0.9719969630241394,0.17726628482341766,1.3508793115615845
1782858715339639600,9.9116396484375,0.6817118525505066,-0.24180607497692108,1.3668510913848877
1782858715349618700,9.92161865234375,0.34501808881759644,-0.7983879446983337,1.2305266857147217
1782858715359567600,9.931567626953125,0.12455734610557556,-1.0881932973861694,0.9934502840042114
1782858715369516500,9.9415166015625,0.011608574539422989,-1.1863629817962646,0.651843249797821
1782858715379464700,9.951464599609375,-0.020413540303707123,-1.2477970123291016,0.23519326746463776
1782858715389444600,9.961444580078124,0.0939844399690628,-1.1195895671844482,-0.17972776293754578
1782858715399392500,9.971392578125,0.3413127362728119,-0.6027389764785767,-0.49994251132011414
1782858715409341700,9.981341796875,0.5419564247131348,0.187329962849617,-0.6512701511383057
1782858715419290600,9.99129052734375,0.5407143831253052,0.8693037033081055,-0.6756538152694702
1782858715429269500,10.00126953125,0.32546761631965637,1.1531490087509155,-0.6669002771377563
1782858715439218400,10.011218505859375,-0.008257631212472916,1.039769172668457,-0.6767545342445374
1782858715449167600,10.021167724609375,-0.31073370575904846,0.7001071572303772,-0.7198330760002136
1782858715459146500,10.031146484375,-0.5204083919525146,0.3554791808128357,-0.8591403961181641
1782858715469094400,10.041094482421874,-0.6444284319877625,0.08438705652952194,-1.0954214334487915
1782858715479043600,10.051043701171874,-0.6610884070396423,-0.27968382835388184,-1.3333998918533325
1782858715488992800,10.06099267578125,-0.6236752867698669,-0.6579842567443848,-1.550303339958191
1782858715498971600,10.0709716796875,-0.5165208578109741,-0.8978381156921387,-1.700250506401062
1782858715508920600,10.080920654296875,-0.3092353940010071,-0.9588533639907837,-1.7404818534851074
1782858715518869800,10.090869873046875,-0.03223336115479469,-0.9057667255401611,-1.6844708919525146
1782858715528817700,10.100817626953125,0.24901725351810455,-0.7839503288269043,-1.5286587476730347
1782858715538797600,10.110797607421874,0.45423296093940735,-0.6848993897438049,-1.2840713262557983
1782858715548745700,10.120745849609374,0.5441319942474365,-0.6306647658348083,-0.9491503238677979
1782858715558694700,10.130694580078124,0.5002068281173706,-0.6111751794815063,-0.5843654274940491
1782858715568643600,10.1406435546875,0.37668535113334656,-0.6494307518005371,-0.27019548416137695
1782858715578622500,10.15062255859375,0.27035999298095703,-0.8024930357933044,-0.08023618906736374
1782858715588571600,10.160571533203125,0.21139030158519745,-1.0163700580596924,-0.03969988971948624
1782858715598520600,10.1705205078125,0.26533767580986023,-1.1975629329681396,-0.14777842164039612
1782858715608499500,10.18049951171875,0.44880181550979614,-1.232524037361145,-0.35667839646339417
1782858715618448400,10.190448486328124,0.6984990239143372,-1.074952483177185,-0.5660902261734009
1782858715628396500,10.200396484375,0.9056200981140137,-0.768240749835968,-0.6990024447441101
1782858715638345500,10.210345458984374,1.0294018983840942,-0.39657261967658997,-0.7545996308326721
1782858715648324600,10.22032470703125,1.043455958366394,-0.06325007975101471,-0.7286227345466614
1782858715658273800,10.230273681640625,0.9240028262138367,0.1594698131084442,-0.6678866744041443
1782858715668222700,10.24022265625,0.6880137324333191,0.2351517230272293,-0.5740787982940674
1782858715678170600,10.250170654296875,0.42150697112083435,0.24524642527103424,-0.4090219736099243
1782858715688150500,10.260150634765624,0.1918770670890808,0.38585376739501953,-0.18398690223693848
1782858715698098700,10.2700986328125,0.03212735056877136,0.684084951877594,0.07223209738731384
1782858715708047600,10.280047607421874,-0.06238945573568344,1.0211431980133057,0.33641335368156433
1782858715717996500,10.28999658203125,-0.11160068213939667,1.2894045114517212,0.596566379070282
1782858715727975700,10.2999755859375,-0.12622544169425964,1.4393012523651123,0.8529642224311829
1782858715737958700,10.309958740234375,-0.12264322489500046,1.491312026977539,1.0812580585479736
1782858715747907600,10.319907470703125,-0.1453811377286911,1.4565010070800781,1.2380850315093994
1782858715757886700,10.32988671875,-0.19938285648822784,1.3136887550354004,1.2896264791488647
1782858715767835600,10.339835693359374,-0.23097816109657288,1.110534429550171,1.2389369010925293
1782858715777783600,10.349783447265626,-0.21698778867721558,0.9573538899421692,1.1328438520431519
1782858715787732500,10.359732421875,-0.17581161856651306,0.9674897789955139,1.054790735244751
1782858715797711600,10.369711669921875,-0.15336808562278748,1.0996118783950806,1.0070205926895142
1782858715807660500,10.37966064453125,-0.1954748034477234,1.238242506980896,0.9373969435691833
1782858715817609500,10.389609375,-0.2986328899860382,1.3768173456192017,0.8164345622062683
1782858715827557600,10.3995576171875,-0.44784966111183167,1.5570244789123535,0.6587363481521606
1782858715837537500,10.40953759765625,-0.5758576989173889,1.6556205749511719,0.46063685417175293
1782858715847485400,10.4194853515625,-0.6192030906677246,1.3253341913223267,0.2600803077220917
1782858715857434600,10.4294345703125,-0.5901263952255249,0.5373330116271973,0.09716623276472092
1782858715867383800,10.4393837890625,-0.5935104489326477,-0.31216001510620117,-0.01919064112007618
1782858715877362700,10.44936279296875,-0.7069997191429138,-0.9352291822433472,-0.10905421525239944
1782858715887311600,10.4593115234375,-0.88411545753479,-1.2320587635040283,-0.14075282216072083
1782858715897260500,10.469260498046875,-1.032789945602417,-1.1158764362335205,-0.09644182026386261
1782858715907208700,10.479208740234375,-1.096336841583252,-0.6174009442329407,-0.01113292295485735
1782858715917188600,10.489188720703124,-1.0274914503097534,-0.03159821778535843,0.030866991728544235
1782858715927136800,10.49913671875,-0.825049877166748,0.3334715664386749,-0.027487874031066895
1782858715937085700,10.509085693359374,-0.5343099236488342,0.5237924456596375,-0.15933725237846375
1782858715947064600,10.519064697265625,-0.2267291247844696,0.5764157772064209,-0.3040316104888916
1782858715957013500,10.529013427734375,0.0234394334256649,0.41763895750045776,-0.4364836513996124
1782858715966962700,10.538962646484375,0.1963212788105011,0.0871555507183075,-0.5288265347480774
1782858715976910600,10.54891064453125,0.3035861849784851,-0.10208814591169357,-0.5451280474662781
1782858715986890500,10.558890380859374,0.3892323970794678,-0.14286752045154572,-0.49986201524734497
1782858715996838700,10.568838623046876,0.48476314544677734,-0.20043495297431946,-0.40757814049720764
1782858716006787600,10.57878759765625,0.6080995798110962,-0.2323479950428009,-0.2645791172981262
1782858716016736800,10.58873681640625,0.7148971557617188,-0.19155795872211456,-0.09194846451282501
1782858716026715400,10.59871533203125,0.7592398524284363,-0.13110101222991943,0.046246420592069626
1782858716036664800,10.608664794921875,0.7252272963523865,-0.1024019792675972,0.12619052827358246
1782858716046613800,10.61861376953125,0.6351679563522339,-0.1045670285820961,0.15146687626838684
1782858716056561700,10.628561767578125,0.5153366327285767,-0.15420594811439514,0.12534472346305847
1782858716066541600,10.63854150390625,0.38718611001968384,-0.21081027388572693,0.06826422363519669
1782858716076489700,10.64848974609375,0.2812897562980652,-0.24806815385818481,-0.00794905610382557
1782858716086438700,10.658438720703124,0.21302485466003418,-0.21767134964466095,-0.09221804887056351
1782858716096417800,10.668417724609375,0.1907682865858078,-0.13087919354438782,-0.15852941572666168
1782858716106366700,10.67836669921875,0.20082613825798035,-0.017882488667964935,-0.18529267609119415
1782858716116315600,10.688315673828125,0.2202262133359909,0.09487149119377136,-0.16752992570400238
1782858716126263600,10.698263671875,0.2299719750881195,0.16634543240070343,-0.11433791369199753
1782858716136243500,10.708243408203124,0.22254522144794464,0.14446410536766052,-0.05517445504665375
1782858716146191600,10.718191650390626,0.2018883228302002,0.07111164927482605,0.017336003482341766
1782858716156140500,10.728140625,0.17097967863082886,0.02677401527762413,0.11342152208089828
1782858716166089500,10.73808935546875,0.11952118575572968,0.029724664986133575,0.21403487026691437
1782858716176068600,10.748068603515625,0.05144066736102104,0.05407767370343208,0.2958703339099884
1782858716186017500,10.758017578125,0.005169600248336792,0.09553898125886917,0.3573480546474457
1782858716195966700,10.767966796875,-0.016008390113711357,0.13866008818149567,0.377760648727417
1782858716205914600,10.77791455078125,-0.009445851668715477,0.1230466291308403,0.3461920917034149
1782858716215894800,10.787894775390624,0.023546185344457626,0.03876636177301407,0.2956239879131317
1782858716225842700,10.7978427734375,0.07413528114557266,0.022477837279438972,0.2658175230026245
1782858716235791600,10.80779150390625,0.12410736829042435,0.09819497168064117,0.2758754789829254
1782858716245770800,10.817770751953125,0.17290431261062622,0.1686825305223465,0.3399505317211151
1782858716255719700,10.8277197265625,0.21460221707820892,0.13349498808383942,0.42377060651779175
1782858716265668600,10.837668701171875,0.25646480917930603,0.009978842921555042,0.5178952217102051
1782858716275617500,10.847617431640625,0.29751503467559814,-0.10644097626209259,0.6026167273521423
1782858716285596700,10.8575966796875,0.3277519941329956,-0.18542996048927307,0.6462081670761108
1782858716295544600,10.867544677734376,0.3543340563774109,-0.24302826821804047,0.6535302400588989
1782858716305493500,10.877493408203126,0.38584718108177185,-0.3342965841293335,0.6309733986854553
1782858716315442700,10.887442626953124,0.4170903265476227,-0.46124202013015747,0.5806774497032166
1782858716325421600,10.897421630859375,0.41692671179771423,-0.6240090131759644,0.4932120442390442
1782858716335370500,10.90737060546875,0.3635615110397339,-0.8045327067375183,0.3185795247554779
1782858716345319400,10.9173193359375,0.2646811902523041,-0.999563455581665,0.003396991640329361
1782858716355267600,10.927267578125,0.133742094039917,-1.1310703754425049,-0.4336727559566498
1782858716365247700,10.937247802734374,0.02784087136387825,-1.079053521156311,-0.9552398920059204
1782858716375195600,10.947195556640626,-0.04798492044210434,-0.7453189492225647,-1.5007729530334473
1782858716385144800,10.957144775390624,-0.10593844950199127,-0.19159963726997375,-1.9917798042297363
1782858716395123700,10.967123779296875,-0.16991370916366577,0.4941486418247223,-2.3287456035614014
1782858716405072600,10.97707275390625,-0.20527660846710205,1.124482274055481,-2.4308674335479736
1782858716415021600,10.987021484375,-0.17728304862976074,1.4816596508026123,-2.278273105621338
1782858716424970800,10.996970703125,-0.10142461955547333,1.4530397653579712,-1.9174081087112427
1782858716434949600,11.00694970703125,-0.018997659906744957,1.0683866739273071,-1.4272464513778687
1782858716444898600,11.016898681640624,0.029142972081899643,0.48411446809768677,-0.9060440063476562
1782858716454846700,11.0268466796875,0.03081810101866722,-0.07933586090803146,-0.4320564866065979
1782858716464795600,11.036795654296874,-0.01845153048634529,-0.49718764424324036,-0.09022612869739532
1782858716474774500,11.0467744140625,-0.07524424046278,-0.7285686731338501,0.08740191906690598
1782858716484723500,11.056723388671875,-0.10147344321012497,-0.7758824229240417,0.1362859606742859
1782858716494672600,11.066672607421875,-0.10233204811811447,-0.6764613389968872,0.12223511934280396
1782858716504620500,11.07662060546875,-0.10443955659866333,-0.4313180446624756,0.07876882702112198
1782858716514600400,11.086600341796874,-0.11499631404876709,-0.08210810273885727,0.023481864482164383
1782858716524548600,11.096548583984376,-0.1410830318927765,0.3027932047843933,-0.02161465212702751
1782858716534497800,11.106497802734374,-0.1734822541475296,0.6076524257659912,-0.03958433121442795
1782858716544476400,11.116476318359375,-0.21577873826026917,0.7230156064033508,-0.03931259736418724
1782858716554425600,11.126425537109375,-0.25425344705581665,0.6250096559524536,-0.053842540830373764
1782858716564374800,11.136374755859375,-0.27797913551330566,0.38113921880722046,-0.08479360491037369
1782858716574323700,11.14632373046875,-0.256741464138031,0.1450989991426468,-0.11658775061368942
1782858716584302600,11.156302490234374,-0.18289229273796082,0.0022851177491247654,-0.1548219472169876
1782858716594251500,11.16625146484375,-0.07219401001930237,-0.05146306753158569,-0.20312076807022095
1782858716604199700,11.17619970703125,0.05429336801171303,-0.03307798132300377,-0.25768908858299255
1782858716614148600,11.186148681640624,0.18308889865875244,0.06883081048727036,-0.29875448346138
1782858716624127700,11.196127685546875,0.29331743717193604,0.25189095735549927,-0.3135284185409546
1782858716634076700,11.20607666015625,0.3680068850517273,0.46395421028137207,-0.29452410340309143
1782858716644025600,11.216025634765625,0.409305602312088,0.6538918018341064,-0.2352038025856018
1782858716653973500,11.225973388671875,0.40995725989341736,0.7923791408538818,-0.16340790688991547
1782858716663953700,11.23595361328125,0.3580339550971985,0.8677375316619873,-0.10837903618812561
1782858716673901600,11.245901611328126,0.271732896566391,0.907507061958313,-0.0793476477265358
1782858716683850500,11.2558505859375,0.2021026909351349,0.9503889679908752,-0.038885317742824554
1782858716693829600,11.26582958984375,0.17656457424163818,0.9898109436035156,0.031216006726026535
1782858716703778800,11.27577880859375,0.20165927708148956,0.9837359189987183,0.11234799772500992
1782858716713727700,11.285727783203125,0.25316187739372253,0.9053699970245361,0.19224336743354797
1782858716723676700,11.2956767578125,0.3144688606262207,0.8287779688835144,0.2574487626552582
1782858716733655800,11.30565576171875,0.3788771629333496,0.8422756791114807,0.3095356822013855
1782858716743627500,11.31562744140625,0.45786893367767334,0.9553927779197693,0.3775947391986847
1782858716753575700,11.32557568359375,0.5402194857597351,1.1155198812484741,0.48243486881256104
1782858716763524600,11.335524658203125,0.6087865233421326,1.2505775690078735,0.6228235363960266
1782858716773503500,11.34550341796875,0.6557788252830505,1.3197358846664429,0.789119303226471
1782858716783452400,11.355452392578124,0.6703483462333679,1.2820007801055908,0.9483826160430908
1782858716793401600,11.365401611328124,0.6537075638771057,1.1085498332977295,1.0727500915527344
1782858716803349800,11.375349853515624,0.6117275357246399,0.8134589791297913,1.1599493026733398
1782858716813329700,11.38532958984375,0.5438917875289917,0.48437055945396423,1.2204389572143555
1782858716823277800,11.39527783203125,0.4557083249092102,0.19673798978328705,1.2174323797225952
1782858716833226800,11.405226806640625,0.3835257589817047,-0.049951959401369095,1.1219955682754517
1782858716843205600,11.41520556640625,0.36640602350234985,-0.26442939043045044,0.9479750394821167
1782858716853154600,11.425154541015624,0.35846900939941406,-0.44368064403533936,0.7140828967094421
1782858716863103700,11.435103759765624,0.2749881148338318,-0.558536946773529,0.448528528213501
1782858716873052700,11.445052734375,0.06707407534122467,-0.48347222805023193,0.1987309455871582
1782858716883031600,11.455031494140625,-0.22335702180862427,-0.1730654239654541,0.005368174985051155
1782858716892980500,11.46498046875,-0.5118753910064697,0.2533807158470154,-0.08803980052471161
1782858716902928600,11.4749287109375,-0.7154864072799683,0.635765552520752,-0.10730132460594177
1782858716912877600,11.484877685546875,-0.8181741833686829,0.8281530737876892,-0.11102655529975891
1782858716922856400,11.4948564453125,-0.8537266850471497,0.7809455990791321,-0.138498455286026
1782858716932805600,11.5048056640625,-0.857292652130127,0.5124992728233337,-0.20330248773097992
1782858716942754800,11.5147548828125,-0.8394708037376404,0.05273149907588959,-0.31473875045776367
1782858716952703700,11.524703857421875,-0.784944474697113,-0.4916396737098694,-0.46632638573646545
1782858716962682600,11.5346826171875,-0.680358350276947,-0.9346964359283447,-0.6198936104774475
1782858716972630800,11.544630859375,-0.5447863936424255,-1.1690055131912231,-0.7523909211158752
1782858716982579700,11.554579833984375,-0.3850066661834717,-1.1869434118270874,-0.8380618691444397
1782858716992558600,11.56455859375,-0.20478254556655884,-1.0279161930084229,-0.8624678254127502
1782858717002507800,11.5745078125,-0.01437314972281456,-0.7812815308570862,-0.8078910708427429
1782858717012456700,11.584456787109374,0.16215075552463531,-0.5177567005157471,-0.6479421257972717
1782858717022405600,11.594405517578124,0.300265908241272,-0.31128591299057007,-0.4032762944698334
1782858717032384500,11.604384521484375,0.3978364169597626,-0.23282253742218018,-0.11237627267837524
1782858717042333700,11.614333740234375,0.4146385192871094,-0.30598413944244385,0.15841850638389587
1782858717052281600,11.624281494140625,0.34772980213165283,-0.47671830654144287,0.38447797298431396
1782858717062230500,11.63423046875,0.2509298026561737,-0.6318877935409546,0.5615937113761902
1782858717072209700,11.644209716796874,0.17191141843795776,-0.7808884382247925,0.6581993699073792
1782858717082158600,11.65415869140625,0.13112996518611908,-0.9313675761222839,0.6528240442276001
1782858717092107500,11.664107421875,0.12080302834510803,-1.0380053520202637,0.5605161786079407
1782858717102056700,11.674056640625,0.1423528492450714,-1.0441017150878906,0.43274930119514465
1782858717112035600,11.68403564453125,0.17978863418102264,-0.9300113916397095,0.3226979076862335
1782858717121984800,11.69398486328125,0.1854107677936554,-0.7280862927436829,0.2522604167461395
1782858717131932700,11.7039326171875,0.13954606652259827,-0.4527324140071869,0.2286514788866043
1782858717141911800,11.713911865234374,0.04289736971259117,-0.15954594314098358,0.23290008306503296
1782858717151860700,11.72386083984375,-0.07429210841655731,0.030993912369012833,0.2590275704860687
1782858717161809700,11.7338095703125,-0.17380298674106598,0.0673636868596077,0.3236357271671295
1782858717171758600,11.743758544921874,-0.2416802942752838,0.007690771482884884,0.42047545313835144
1782858717181737700,11.75373779296875,-0.2685732841491699,-0.09187478572130203,0.5209653973579407
1782858717191686700,11.763686767578125,-0.2606639564037323,-0.22116486728191376,0.59842449426651
1782858717201634600,11.773634521484375,-0.2280343472957611,-0.37194183468818665,0.6418861746788025
1782858717211583500,11.78358349609375,-0.1788468062877655,-0.4920903444290161,0.6558613777160645
1782858717221562600,11.793562744140624,-0.11507761478424072,-0.527007520198822,0.6468619704246521
1782858717231511600,11.803511474609374,-0.050587840378284454,-0.45617783069610596,0.6063427925109863
1782858717241460500,11.81346044921875,0.004421917721629143,-0.30710121989250183,0.518356442451477
1782858717251409400,11.823409423828124,0.06343597173690796,-0.16673238575458527,0.3881475627422333
1782858717261388500,11.833388427734375,0.1271539330482483,-0.13512523472309113,0.22929030656814575
1782858717271337500,11.84333740234375,0.19332654774188995,-0.22445805370807648,0.0448155514895916
1782858717281285600,11.85328564453125,0.2617161273956299,-0.37911078333854675,-0.1557631641626358
1782858717291265800,11.863265869140625,0.32492226362228394,-0.4897637963294983,-0.3268582224845886
1782858717301213700,11.873213623046874,0.34952178597450256,-0.4707311689853668,-0.4375423491001129
1782858717311162600,11.88316259765625,0.31956735253334045,-0.3517126142978668,-0.4770476818084717
1782858717321111600,11.893111572265624,0.23725692927837372,-0.24031150341033936,-0.4348223805427551
1782858717331090700,11.903090576171875,0.11379224061965942,-0.1954747885465622,-0.3373240530490875
1782858717341039600,11.91303955078125,-0.020137866958975792,-0.254816472530365,-0.2244037687778473
1782858717350987800,11.92298779296875,-0.15978577733039856,-0.4186176657676697,-0.16470742225646973
1782858717360936700,11.932936767578125,-0.2758152484893799,-0.6401167511940002,-0.1869177520275116
1782858717370915600,11.94291552734375,-0.34426432847976685,-0.7944945693016052,-0.2723058760166168
1782858717380864500,11.952864501953124,-0.35428565740585327,-0.7478465437889099,-0.3773708641529083
1782858717390813700,11.962813720703124,-0.3194831907749176,-0.50995272397995,-0.46817106008529663
1782858717400762600,11.9727626953125,-0.2619220018386841,-0.15624433755874634,-0.5322151184082031
1782858717410741500,11.982741455078125,-0.18892954289913177,0.2564065754413605,-0.5489525198936462
1782858717420690400,11.9926904296875,-0.13703227043151855,0.5929065346717834,-0.5057463645935059
1782858717430638600,12.002638671875,-0.11298231780529022,0.7979491949081421,-0.4023129343986511
1782858717440618500,12.012618408203124,-0.11326336115598679,0.8621258735656738,-0.26901379227638245
1782858717450566700,12.022566650390624,-0.1341201663017273,0.807275652885437,-0.14901202917099
1782858717460515800,12.032515869140624,-0.1424284428358078,0.7005685567855835,-0.08701074123382568
1782858717470464800,12.04246484375,-0.12496183067560196,0.6013477444648743,-0.08099839091300964
1782858717480443600,12.052443603515625,-0.07884782552719116,0.5045241713523865,-0.12703925371170044
1782858717490392600,12.062392578125,0.004058243706822395,0.45473745465278625,-0.20421525835990906
1782858717500340700,12.0723408203125,0.12201455235481262,0.5426319241523743,-0.2886233925819397
1782858717510289700,12.08228955078125,0.25441598892211914,0.8117547631263733,-0.3565228283405304
1782858717520268800,12.092268798828124,0.3783620595932007,1.2411572933197021,-0.38720613718032837
1782858717530217700,12.1022177734375,0.5113288760185242,1.5757476091384888,-0.38849592208862305
1782858717540166700,12.112166748046874,0.61778324842453,1.4404871463775635,-0.43365785479545593
1782858717550115600,12.122115478515624,0.6408507823944092,0.7197228670120239,-0.5367911458015442
1782858717560094700,12.1320947265625,0.6060434579849243,-0.09300584346055984,-0.5732637643814087
1782858717570043600,12.142043701171875,0.5122283101081848,-0.4698878526687622,-0.4528348445892334
1782858717579991600,12.151991455078125,0.37768155336380005,-0.5034604668617249,-0.23780713975429535
1782858717589971500,12.161971435546874,0.23957587778568268,-0.4719241261482239,-0.025888759642839432
1782858717599919600,12.171919677734374,0.12095769494771957,-0.42993035912513733,0.14684967696666718
1782858717609868500,12.18186865234375,0.0069163478910923,-0.3453308045864105,0.27688491344451904
1782858717619817700,12.191817626953124,-0.10440291464328766,-0.25437039136886597,0.37640997767448425
1782858717629796900,12.201796875,-0.19267313182353973,-0.16979479789733887,0.48140430450439453
1782858717639745800,12.211745849609375,-0.24871881306171417,-0.09739270806312561,0.5999516248703003
1782858717649693700,12.221693603515625,-0.2785872220993042,-0.023034855723381042,0.706599771976471
1782858717659642600,12.231642578125,-0.29891592264175415,0.03538259118795395,0.7748521566390991
1782858717669621800,12.241621826171874,-0.3105776607990265,0.05019935220479965,0.75379878282547
1782858717679570700,12.25157080078125,-0.290863573551178,0.046778734773397446,0.6427821516990662
1782858717689519600,12.26151953125,-0.25532233715057373,0.03242962062358856,0.4507160484790802
1782858717699468500,12.271468505859374,-0.24026095867156982,0.04334663599729538,0.21491128206253052
1782858717709447700,12.28144775390625,-0.2600221335887909,0.08690529316663742,-0.015264124609529972
1782858717719396600,12.291396728515625,-0.3167274296283722,0.149506613612175,-0.20848487317562103
1782858717729344500,12.301344482421875,-0.3656419813632965,0.2477082908153534,-0.3764914572238922
1782858717739327200,12.3113271484375,-0.35301536321640015,0.339505672454834,-0.501952588558197
1782858717749275100,12.321275146484375,-0.24840983748435974,0.3933318853378296,-0.5782244205474854
1782858717759224000,12.33122412109375,-0.025430595502257347,0.4631199240684509,-0.6279540061950684
1782858717769173200,12.34117333984375,0.30323463678359985,0.596492350101471,-0.6509000658988953
1782858717779152100,12.351152099609376,0.7018800973892212,0.8149173259735107,-0.6002970337867737
1782858717789101000,12.36110107421875,1.1223969459533691,1.1183475255966187,-0.39859771728515625
1782858717799050000,12.371050048828126,1.1676877737045288,1.26625394821167,0.5750443935394287
1782858717808998100,12.380998046875,0.6636322736740112,-0.006118303630501032,1.3342639207839966
1782858717818977000,12.39097705078125,0.04364137724041939,-1.6208513975143433,1.6121091842651367
1782858717828926200,12.40092626953125,-0.31997278332710266,-2.7586331367492676,1.4859365224838257
1782858717838875100,12.410875244140625,-0.3686522841453552,-2.6802947521209717,1.2029638290405273
1782858717848824000,12.420823974609375,-0.3083338141441345,-1.8076367378234863,0.8766298890113831
1782858717858803000,12.430802978515626,-0.24327343702316284,-0.8091378211975098,0.46515387296676636
1782858717868752100,12.440752197265626,-0.14031217992305756,-0.061238326132297516,0.006874181795865297
1782858717878700000,12.450699951171876,0.03465225175023079,0.4104098975658417,-0.44480636715888977
1782858717888680200,12.46068017578125,0.22689412534236908,0.690546452999115,-0.7181228399276733
