time,seconds_elapsed,z,y,x
1782858878465666300,0.097666259765625,-0.6558837890625,-0.657379150390625,0.167694091796875
1782858878475614200,0.1076142578125,-0.6641082763671875,-0.6584320068359375,0.1585845947265625
1782858878485563400,0.1175634765625,-0.6766204833984375,-0.655517578125,0.154815673828125
1782858878495512300,0.12751220703125,-0.6890106201171875,-0.6481170654296875,0.15252685546875
1782858878505491200,0.1374912109375,-0.6983184814453125,-0.6334228515625,0.15631103515625
1782858878515440400,0.1474404296875,-0.7063751220703125,-0.6253662109375,0.1663665771484375
1782858878525389300,0.157389404296875,-0.71051025390625,-0.6250457763671875,0.18426513671875
1782858878535337500,0.16733740234375,-0.7193145751953125,-0.634246826171875,0.20330810546875
1782858878545317400,0.1773173828125,-0.722991943359375,-0.6527557373046875,0.200653076171875
1782858878555265500,0.187265625,-0.738983154296875,-0.64971923828125,0.198699951171875
1782858878565214500,0.19721435546875,-0.75286865234375,-0.6256866455078125,0.2182464599609375
1782858878575163400,0.207163330078125,-0.7500457763671875,-0.606231689453125,0.243927001953125
1782858878585142300,0.217142333984375,-0.7551727294921875,-0.6031494140625,0.262359619140625
1782858878595091500,0.227091552734375,-0.776092529296875,-0.60736083984375,0.270660400390625
1782858878605040400,0.237040283203125,-0.7811126708984375,-0.6176300048828125,0.2760772705078125
1782858878614988300,0.24698828125,-0.7658538818359375,-0.6253662109375,0.296844482421875
1782858878624967400,0.256967529296875,-0.77850341796875,-0.62225341796875,0.30804443359375
1782858878634916400,0.266916259765625,-0.78924560546875,-0.6118927001953125,0.3121490478515625
1782858878644865300,0.276865234375,-0.777008056640625,-0.6107635498046875,0.32611083984375
1782858878654814200,0.286814208984375,-0.8089447021484375,-0.600677490234375,0.3236541748046875
1782858878664793300,0.29679345703125,-0.8650054931640625,-0.6065521240234375,0.2657012939453125
1782858878674742500,0.306742431640625,-0.85382080078125,-0.608123779296875,0.2321929931640625
1782858878684690200,0.316690185546875,-0.8039093017578125,-0.56146240234375,0.2328948974609375
1782858878694639400,0.326639404296875,-0.791168212890625,-0.5141143798828125,0.203399658203125
1782858878704618500,0.336618408203125,-0.8102874755859375,-0.495758056640625,0.1817169189453125
1782858878714567400,0.3465673828125,-0.8262939453125,-0.490142822265625,0.1689453125
1782858878724516400,0.356516357421875,-0.8457489013671875,-0.4899444580078125,0.1464691162109375
1782858878734465300,0.36646533203125,-0.8284759521484375,-0.48809814453125,0.13592529296875
1782858878744444400,0.3764443359375,-0.7795867919921875,-0.4901123046875,0.129730224609375
1782858878754393300,0.386393310546875,-0.7588043212890625,-0.5140380859375,0.1476898193359375
1782858878764341200,0.39634130859375,-0.7322235107421875,-0.523956298828125,0.1824951171875
1782858878774290400,0.40629052734375,-0.7410125732421875,-0.549652099609375,0.1862030029296875
1782858878784269300,0.416269287109375,-0.7627105712890625,-0.5853271484375,0.176513671875
1782858878794218200,0.42621826171875,-0.762237548828125,-0.593109130859375,0.18218994140625
1782858878804167200,0.436167236328125,-0.7305755615234375,-0.581085205078125,0.1720123291015625
1782858878814115300,0.446115234375,-0.676910400390625,-0.56036376953125,0.1384124755859375
1782858878824095200,0.45609521484375,-0.66943359375,-0.5568695068359375,0.1232757568359375
1782858878834043400,0.46604345703125,-0.6781158447265625,-0.576812744140625,0.1211700439453125
1782858878843992300,0.475992431640625,-0.673583984375,-0.6005401611328125,0.13824462890625
1782858878853941500,0.48594140625,-0.65185546875,-0.6147613525390625,0.1678314208984375
1782858878863920400,0.49592041015625,-0.6967010498046875,-0.6451873779296875,0.199859619140625
1782858878873869300,0.505869384765625,-0.70538330078125,-0.6533966064453125,0.192047119140625
1782858878883851500,0.5158515625,-0.6427459716796875,-0.583648681640625,0.1537017822265625
1782858878893799400,0.52579931640625,-0.6116180419921875,-0.47454833984375,0.1205596923828125
1782858878903779600,0.535779541015625,-0.6237945556640625,-0.31646728515625,0.075286865234375
1782858878913727500,0.5457275390625,-0.596099853515625,-0.25274658203125,0.0661163330078125
1782858878923676400,0.555676513671875,-0.570098876953125,-0.21002197265625,0.0574951171875
1782858878933655600,0.565655517578125,-0.5886383056640625,-0.173583984375,0.057342529296875
1782858878943604500,0.5756044921875,-0.5431976318359375,-0.117706298828125,0.064178466796875
1782858878953553400,0.585553466796875,-0.4168243408203125,-0.04248046875,0.033782958984375
1782858878963501600,0.59550146484375,-0.3950347900390625,-0.05523681640625,0.011810302734375
1782858878973481500,0.6054814453125,-0.491851806640625,-0.1462554931640625,-0.0078277587890625
1782858878983429400,0.615429443359375,-0.725250244140625,-0.3339080810546875,0.010162353515625
1782858878993378300,0.62537841796875,-1.099884033203125,-0.6745452880859375,0.1112213134765625
1782858879003327500,0.635327392578125,-1.082244873046875,-0.861480712890625,0.194732666015625
1782858879013306600,0.645306640625,-0.6454925537109375,-0.6722564697265625,0.193572998046875
1782858879023255600,0.655255615234375,-0.541656494140625,-0.60455322265625,0.2487640380859375
1782858879033204500,0.66520458984375,-0.610260009765625,-0.647613525390625,0.33111572265625
1782858879043152600,0.675152587890625,-0.7316436767578125,-0.6646270751953125,0.3729400634765625
1782858879053132500,0.685132568359375,-0.8193511962890625,-0.6358642578125,0.29486083984375
1782858879063080400,0.69508056640625,-0.853271484375,-0.537109375,0.103546142578125
1782858879073029600,0.705029541015625,-0.7978057861328125,-0.377105712890625,-0.04931640625
1782858879082978600,0.714978515625,-0.737548828125,-0.202728271484375,-0.258026123046875
1782858879092957400,0.72495751953125,-0.794281005859375,-0.1515045166015625,-0.2934722900390625
1782858879102906400,0.73490625,-0.720703125,-0.1796722412109375,-0.2299652099609375
1782858879112854500,0.7448544921875,-0.7463836669921875,-0.1833343505859375,-0.1454620361328125
1782858879122803500,0.754803466796875,-0.7273101806640625,-0.1820526123046875,-0.134307861328125
1782858879132782300,0.7647822265625,-0.6747283935546875,-0.1900482177734375,-0.1857452392578125
1782858879142731500,0.7747314453125,-0.6340484619140625,-0.193267822265625,-0.2569122314453125
1782858879152680400,0.784680419921875,-0.6208953857421875,-0.208343505859375,-0.27545166015625
1782858879162629600,0.794629638671875,-0.6240386962890625,-0.22662353515625,-0.2788543701171875
1782858879172608500,0.8046083984375,-0.6356658935546875,-0.2028656005859375,-0.371063232421875
1782858879182557700,0.8145576171875,-0.621002197265625,-0.1142578125,-0.513427734375
1782858879192505600,0.824505615234375,-0.5508880615234375,-0.01361083984375,-0.616180419921875
1782858879202454500,0.83445458984375,-0.4730987548828125,0.0572052001953125,-0.66473388671875
1782858879212433700,0.84443359375,-0.4337921142578125,0.099609375,-0.7195281982421875
1782858879222382600,0.854382568359375,-0.41314697265625,0.1076507568359375,-0.78045654296875
1782858879232331500,0.86433154296875,-0.4031982421875,0.087249755859375,-0.834228515625
1782858879242280400,0.874280517578125,-0.4062042236328125,0.0782470703125,-0.8803863525390625
1782858879252259600,0.884259521484375,-0.4139404296875,0.0933685302734375,-0.9187164306640625
1782858879262208500,0.89420849609375,-0.3657989501953125,0.1636199951171875,-0.9436187744140625
1782858879272156400,0.904156494140625,-0.2673492431640625,0.279754638671875,-0.9610137939453125
1782858879282105300,0.914105224609375,-0.1994171142578125,0.3902435302734375,-0.9802398681640625
1782858879292084500,0.92408447265625,-0.164794921875,0.4529571533203125,-0.991607666015625
1782858879302033400,0.934033447265625,-0.1376953125,0.4434356689453125,-1.0460205078125
1782858879311982300,0.943982421875,-0.1188507080078125,0.40057373046875,-1.0844268798828125
1782858879321930500,0.953930419921875,-0.0980682373046875,0.387115478515625,-1.0725555419921875
1782858879331910700,0.96391064453125,-0.07568359375,0.4249267578125,-1.03143310546875
1782858879341858600,0.973858642578125,-0.0510406494140625,0.49005126953125,-0.9974517822265625
1782858879351807500,0.983807373046875,-0.02825927734375,0.5492401123046875,-0.9942779541015625
1782858879361756700,0.993756591796875,-0.009796142578125,0.5923919677734375,-1.020111083984375
1782858879371735600,1.003735595703125,0.0114288330078125,0.6126556396484375,-1.0389404296875
1782858879381684500,1.0136845703125,0.0311279296875,0.6100616455078125,-1.062164306640625
1782858879391633400,1.02363330078125,0.043853759765625,0.6091766357421875,-1.06536865234375
1782858879401581600,1.03358154296875,0.0429229736328125,0.6387786865234375,-1.0569305419921875
1782858879411561500,1.0435615234375,0.04217529296875,0.7011871337890625,-1.062103271484375
1782858879421509600,1.053509521484375,0.046600341796875,0.77386474609375,-1.073089599609375
1782858879431458600,1.06345849609375,0.045928955078125,0.83001708984375,-1.080108642578125
1782858879441407500,1.073407470703125,0.0476226806640625,0.8606719970703125,-1.098785400390625
1782858879451386400,1.083386474609375,0.0505523681640625,0.8715972900390625,-1.1295318603515625
1782858879461335300,1.093335205078125,0.045379638671875,0.8745880126953125,-1.1578826904296875
1782858879471283500,1.103283447265625,0.049468994140625,0.878173828125,-1.1898651123046875
1782858879481232400,1.113232421875,0.066497802734375,0.893035888671875,-1.22601318359375
1782858879491211500,1.12321142578125,0.0879974365234375,0.9203338623046875,-1.2596893310546875
1782858879501160700,1.13316064453125,0.101470947265625,0.93145751953125,-1.2766265869140625
1782858879511109600,1.143109619140625,0.104705810546875,0.9196014404296875,-1.288482666015625
1782858879521058600,1.15305859375,0.107818603515625,0.8910064697265625,-1.2960968017578125
1782858879531037700,1.16303759765625,0.11956787109375,0.8534393310546875,-1.295379638671875
1782858879540986600,1.172986572265625,0.1331024169921875,0.8135528564453125,-1.2888946533203125
1782858879550934500,1.1829345703125,0.1497039794921875,0.7784881591796875,-1.2799835205078125
1782858879560883500,1.192883544921875,0.1702117919921875,0.7466888427734375,-1.2589569091796875
1782858879570862600,1.202862548828125,0.19482421875,0.7168426513671875,-1.2357940673828125
1782858879580811500,1.2128115234375,0.21246337890625,0.6967620849609375,-1.2112884521484375
1782858879590760400,1.222760498046875,0.21710205078125,0.6788787841796875,-1.174285888671875
1782858879600708600,1.23270849609375,0.22393798828125,0.652099609375,-1.1340484619140625
1782858879610688500,1.2426884765625,0.2386322021484375,0.6236724853515625,-1.10028076171875
1782858879620636400,1.252636474609375,0.2487030029296875,0.597137451171875,-1.0640106201171875
1782858879630585300,1.26258544921875,0.2565765380859375,0.5715789794921875,-1.0218658447265625
1782858879640534500,1.272534423828125,0.2591705322265625,0.5467987060546875,-0.984832763671875
1782858879650513400,1.282513427734375,0.2557220458984375,0.5315704345703125,-0.95635986328125
1782858879660462600,1.292462646484375,0.2529296875,0.530303955078125,-0.9330902099609375
1782858879670411500,1.30241162109375,0.25823974609375,0.5240631103515625,-0.911376953125
1782858879680359700,1.312359619140625,0.263916015625,0.5085601806640625,-0.886383056640625
1782858879690339600,1.322339599609375,0.258941650390625,0.489959716796875,-0.8665618896484375
1782858879700287500,1.33228759765625,0.2491607666015625,0.47412109375,-0.8514404296875
1782858879710236700,1.342236572265625,0.2393951416015625,0.4671630859375,-0.8415069580078125
1782858879720185600,1.352185546875,0.2369384765625,0.4671173095703125,-0.84063720703125
1782858879730164500,1.36216455078125,0.23291015625,0.4691925048828125,-0.83746337890625
1782858879740113400,1.372113525390625,0.2274322509765625,0.4778900146484375,-0.8352813720703125
1782858879750062600,1.3820625,0.2193756103515625,0.4906158447265625,-0.839630126953125
1782858879760010500,1.392010498046875,0.20916748046875,0.4947052001953125,-0.8430023193359375
1782858879769990400,1.401990478515625,0.1937408447265625,0.4908294677734375,-0.8470916748046875
1782858879779938600,1.4119384765625,0.1806182861328125,0.4889678955078125,-0.8573455810546875
1782858879789887500,1.421887451171875,0.1692352294921875,0.4925384521484375,-0.8643341064453125
1782858879799836400,1.43183642578125,0.1588592529296875,0.498626708984375,-0.8747406005859375
1782858879809815300,1.441815185546875,0.1534271240234375,0.50799560546875,-0.8895721435546875
1782858879819764700,1.4517646484375,0.1483306884765625,0.5208892822265625,-0.91094970703125
1782858879829712600,1.461712646484375,0.1392822265625,0.534088134765625,-0.9272003173828125
1782858879839661600,1.47166162109375,0.118896484375,0.5408782958984375,-0.938140869140625
1782858879849640700,1.481640625,0.090728759765625,0.5626068115234375,-0.958343505859375
1782858879859589600,1.491589599609375,0.0645599365234375,0.618316650390625,-0.98809814453125
1782858879869538600,1.50153857421875,0.041656494140625,0.7050018310546875,-1.0312042236328125
1782858879879487500,1.511487548828125,0.0353240966796875,0.79559326171875,-1.096649169921875
1782858879889483000,1.52148291015625,0.039794921875,0.865081787109375,-1.1732635498046875
1782858879899432000,1.531431884765625,0.0487823486328125,0.9013671875,-1.2352752685546875
1782858879909379800,1.5413798828125,0.0501861572265625,0.88287353515625,-1.27020263671875
1782858879919329000,1.5513291015625,0.0402069091796875,0.8179473876953125,-1.275360107421875
1782858879929308000,1.561307861328125,0.0130462646484375,0.7378387451171875,-1.2584381103515625
1782858879939256800,1.5712568359375,-0.02178955078125,0.6674346923828125,-1.2111663818359375
1782858879949205800,1.581205810546875,-0.0418853759765625,0.6168365478515625,-1.1491241455078125
1782858879959154000,1.59115380859375,-0.0467987060546875,0.589141845703125,-1.0880584716796875
1782858879969133800,1.6011337890625,-0.0441741943359375,0.575836181640625,-1.0359344482421875
1782858879979082000,1.61108203125,-0.04327392578125,0.570404052734375,-0.9952239990234375
1782858879989031200,1.62103125,-0.0443572998046875,0.56719970703125,-0.9661102294921875
1782858879998980000,1.63097998046875,-0.0522613525390625,0.5699462890625,-0.9388885498046875
1782858880008959000,1.640958984375,-0.0583648681640625,0.580078125,-0.91058349609375
1782858880018908000,1.650907958984375,-0.0613861083984375,0.599273681640625,-0.88922119140625
1782858880028857000,1.660857177734375,-0.06732177734375,0.6266326904296875,-0.891815185546875
1782858880038805000,1.670804931640625,-0.067352294921875,0.6689605712890625,-0.9042816162109375
1782858880048785000,1.680784912109375,-0.070556640625,0.71160888671875,-0.908538818359375
1782858880058733000,1.690733154296875,-0.0726470947265625,0.756378173828125,-0.9302978515625
1782858880068682000,1.700681884765625,-0.0738525390625,0.8095245361328125,-0.9574432373046875
1782858880078631000,1.710630859375,-0.0831756591796875,0.8521881103515625,-0.9767303466796875
1782858880088610000,1.720610107421875,-0.0943450927734375,0.8747406005859375,-1.0011444091796875
1782858880098559000,1.73055908203125,-0.1017608642578125,0.889007568359375,-1.03143310546875
1782858880108507000,1.7405068359375,-0.108123779296875,0.9071044921875,-1.0704345703125
1782858880118486800,1.75048681640625,-0.10638427734375,0.937591552734375,-1.114044189453125
1782858880128435000,1.76043505859375,-0.1048431396484375,0.96795654296875,-1.1456146240234375
1782858880138384000,1.7703837890625,-0.106353759765625,0.987457275390625,-1.1690521240234375
1782858880148333000,1.7803330078125,-0.1057891845703125,0.9940032958984375,-1.1883087158203125
1782858880158312200,1.790312255859375,-0.109283447265625,0.991485595703125,-1.2054443359375
1782858880168261000,1.80026123046875,-0.1098785400390625,0.9849700927734375,-1.2086334228515625
1782858880178210000,1.8102099609375,-0.114959716796875,0.971771240234375,-1.200439453125
1782858880188158000,1.820157958984375,-0.1163482666015625,0.9586181640625,-1.186248779296875
1782858880198138000,1.83013818359375,-0.117584228515625,0.9376678466796875,-1.1663360595703125
1782858880208086000,1.8400859375,-0.11224365234375,0.9255523681640625,-1.1464385986328125
1782858880218035000,1.850034912109375,-0.1016845703125,0.9218597412109375,-1.119964599609375
1782858880227984000,1.85998388671875,-0.0913543701171875,0.913970947265625,-1.0942535400390625
1782858880237963000,1.869962890625,-0.0827178955078125,0.8903656005859375,-1.066741943359375
1782858880247912000,1.879911865234375,-0.0748138427734375,0.8582916259765625,-1.037841796875
1782858880257860900,1.88986083984375,-0.0695343017578125,0.8272552490234375,-1.0055084228515625
1782858880267809000,1.89980908203125,-0.0667877197265625,0.801666259765625,-0.9725799560546875
1782858880277788000,1.909787841796875,-0.060882568359375,0.7837066650390625,-0.943145751953125
1782858880287736800,1.91973681640625,-0.0504302978515625,0.7732086181640625,-0.91436767578125
1782858880297685800,1.929685791015625,-0.0401611328125,0.7610626220703125,-0.886505126953125
1782858880307635000,1.939635009765625,-0.0315399169921875,0.7491455078125,-0.86962890625
1782858880317614000,1.949614013671875,-0.0223388671875,0.74432373046875,-0.8482513427734375
1782858880327563000,1.95956298828125,-0.013916015625,0.7345733642578125,-0.8203887939453125
1782858880337511200,1.96951123046875,-0.005401611328125,0.71868896484375,-0.80364990234375
1782858880347460000,1.979460205078125,0.0042724609375,0.7044830322265625,-0.7800140380859375
1782858880357439000,1.98943896484375,0.00433349609375,0.6839599609375,-0.7513275146484375
1782858880367388000,1.999387939453125,0.0058746337890625,0.659149169921875,-0.7271728515625
1782858880377337000,2.009337158203125,0.0114593505859375,0.6427154541015625,-0.708587646484375
1782858880387286000,2.0192861328125,0.0171661376953125,0.633148193359375,-0.6954803466796875
1782858880397265000,2.029264892578125,0.026031494140625,0.6307525634765625,-0.6901702880859375
1782858880407213800,2.0392138671875,0.0364837646484375,0.6281585693359375,-0.6784210205078125
1782858880417162000,2.049161865234375,0.04150390625,0.6128997802734375,-0.6645050048828125
1782858880427111000,2.05911083984375,0.0469512939453125,0.5881805419921875,-0.652099609375
1782858880437090000,2.069090087890625,0.0552215576171875,0.56878662109375,-0.6449737548828125
1782858880447039000,2.0790390625,0.065765380859375,0.5645599365234375,-0.6456756591796875
1782858880456988000,2.08898779296875,0.08148193359375,0.570037841796875,-0.6425628662109375
1782858880466935800,2.098935791015625,0.093292236328125,0.5713958740234375,-0.6318817138671875
1782858880476916000,2.108916015625,0.1040802001953125,0.5678863525390625,-0.6217193603515625
1782858880486864000,2.11886376953125,0.120086669921875,0.5632476806640625,-0.6132659912109375
1782858880496813000,2.12881298828125,0.1361083984375,0.5630645751953125,-0.605743408203125
1782858880506762000,2.138761962890625,0.1518707275390625,0.57037353515625,-0.5997314453125
1782858880516741000,2.1487412109375,0.172271728515625,0.5789794921875,-0.596221923828125
1782858880526690000,2.15868994140625,0.1934661865234375,0.58221435546875,-0.5937042236328125
1782858880536639000,2.168638916015625,0.2171478271484375,0.5825653076171875,-0.59271240234375
1782858880546587000,2.1785869140625,0.2427215576171875,0.58404541015625,-0.5914154052734375
1782858880556567000,2.188567138671875,0.2664947509765625,0.5830078125,-0.5948333740234375
1782858880566515000,2.198514892578125,0.2910614013671875,0.590179443359375,-0.60540771484375
1782858880576464000,2.2084638671875,0.305267333984375,0.61431884765625,-0.619720458984375
1782858880586412800,2.218412841796875,0.3060760498046875,0.65716552734375,-0.6407012939453125
1782858880596392000,2.228391845703125,0.3072662353515625,0.70379638671875,-0.654388427734375
1782858880606340900,2.2383408203125,0.31011962890625,0.7398529052734375,-0.667266845703125
1782858880616289000,2.2482890625,0.3144989013671875,0.76080322265625,-0.67724609375
1782858880626238000,2.258238037109375,0.3249359130859375,0.757720947265625,-0.68292236328125
1782858880636216800,2.268216796875,0.3396148681640625,0.741241455078125,-0.6891326904296875
1782858880646166000,2.278166015625,0.3521728515625,0.7199554443359375,-0.6979217529296875
1782858880656115000,2.288114990234375,0.3679962158203125,0.7037353515625,-0.7143707275390625
1782858880666064100,2.298064208984375,0.38543701171875,0.701416015625,-0.738128662109375
1782858880676043000,2.30804296875,0.400543212890625,0.700958251953125,-0.758636474609375
1782858880685992000,2.317991943359375,0.4112396240234375,0.6967315673828125,-0.777862548828125
1782858880695940000,2.327940185546875,0.4277496337890625,0.6945953369140625,-0.796539306640625
1782858880705889000,2.337888916015625,0.4527435302734375,0.69317626953125,-0.813873291015625
1782858880715868000,2.347867919921875,0.4711456298828125,0.693603515625,-0.830902099609375
1782858880725817000,2.357817138671875,0.4781646728515625,0.6952056884765625,-0.8548431396484375
1782858880735766000,2.36776611328125,0.48101806640625,0.6878509521484375,-0.86981201171875
1782858880745715000,2.37771484375,0.470489501953125,0.6701202392578125,-0.8851318359375
1782858880755693800,2.38769384765625,0.456024169921875,0.6474609375,-0.899566650390625
1782858880765642000,2.39764208984375,0.439788818359375,0.626739501953125,-0.909423828125
1782858880775591000,2.4075908203125,0.41796875,0.615570068359375,-0.91363525390625
1782858880785539800,2.417539794921875,0.39776611328125,0.61956787109375,-0.9263916015625
1782858880795519000,2.42751904296875,0.3787078857421875,0.6382904052734375,-0.9445343017578125
1782858880805468200,2.43746826171875,0.3622283935546875,0.6631011962890625,-0.9661865234375
1782858880815417000,2.4474169921875,0.355438232421875,0.693572998046875,-1.0001220703125
1782858880825365000,2.457364990234375,0.35089111328125,0.71539306640625,-1.0312957763671875
1782858880835345200,2.46734521484375,0.3408050537109375,0.723785400390625,-1.0601806640625
1782858880845293000,2.47729296875,0.3261260986328125,0.7207794189453125,-1.0898284912109375
1782858880855242000,2.487241943359375,0.311279296875,0.70806884765625,-1.107086181640625
1782858880865191000,2.49719091796875,0.2936248779296875,0.6891021728515625,-1.11602783203125
1782858880875170000,2.507170166015625,0.274749755859375,0.662109375,-1.1197967529296875
1782858880885132000,2.517132080078125,0.2564239501953125,0.626617431640625,-1.1099853515625
1782858880895081000,2.5270810546875,0.2418670654296875,0.58544921875,-1.095794677734375
1782858880905029000,2.537029052734375,0.2373809814453125,0.548553466796875,-1.0845947265625
1782858880915009000,2.547009033203125,0.2380218505859375,0.5250701904296875,-1.0711517333984375
1782858880924957000,2.55695703125,0.244232177734375,0.516937255859375,-1.057403564453125
1782858880934906000,2.566906005859375,0.251861572265625,0.5175628662109375,-1.048065185546875
1782858880944855000,2.57685498046875,0.2550201416015625,0.52142333984375,-1.042022705078125
1782858880954834000,2.586833984375,0.2528076171875,0.5238800048828125,-1.0318450927734375
1782858880964782800,2.596782958984375,0.242950439453125,0.5239715576171875,-1.0177154541015625
1782858880974731000,2.60673095703125,0.2317657470703125,0.5186614990234375,-0.9974822998046875
1782858880984680000,2.616679931640625,0.2167510986328125,0.5093536376953125,-0.97479248046875
1782858880994659000,2.6266591796875,0.20166015625,0.49993896484375,-0.9542999267578125
1782858881004608000,2.63660791015625,0.19134521484375,0.4933013916015625,-0.9370269775390625
1782858881014557000,2.646556884765625,0.1846160888671875,0.493621826171875,-0.925323486328125
1782858881024505900,2.656505859375,0.1847076416015625,0.4982147216796875,-0.9108123779296875
1782858881034484700,2.666484619140625,0.1812744140625,0.498046875,-0.892120361328125
1782858881044434200,2.67643408203125,0.1737823486328125,0.4909210205078125,-0.87249755859375
1782858881054382000,2.686382080078125,0.1687164306640625,0.4807586669921875,-0.8501739501953125
1782858881064331000,2.6963310546875,0.1688232421875,0.46624755859375,-0.82867431640625
1782858881074310100,2.70631005859375,0.1669464111328125,0.4514617919921875,-0.807281494140625
1782858881084259000,2.716259033203125,0.1649322509765625,0.43707275390625,-0.784515380859375
1782858881094208000,2.7262080078125,0.164459228515625,0.4289093017578125,-0.767913818359375
1782858881104156000,2.736156005859375,0.1617584228515625,0.4275665283203125,-0.755828857421875
1782858881114136000,2.746135986328125,0.1605682373046875,0.4348297119140625,-0.7522430419921875
1782858881124084000,2.756083984375,0.1620330810546875,0.441192626953125,-0.7532501220703125
1782858881134033000,2.766032958984375,0.16375732421875,0.449249267578125,-0.759246826171875
1782858881143981800,2.77598193359375,0.158905029296875,0.457305908203125,-0.7650146484375
1782858881153961000,2.7859609375,0.147705078125,0.460479736328125,-0.7703857421875
1782858881163910000,2.795909912109375,0.1331024169921875,0.4604034423828125,-0.777099609375
1782858881173858800,2.80585888671875,0.1178741455078125,0.4610748291015625,-0.7848358154296875
1782858881183807000,2.815806884765625,0.103179931640625,0.4592437744140625,-0.7938690185546875
1782858881193787000,2.825786865234375,0.090118408203125,0.457489013671875,-0.80853271484375
1782858881203734800,2.83573486328125,0.0789947509765625,0.4588775634765625,-0.8210906982421875
1782858881213684000,2.84568408203125,0.0692596435546875,0.461700439453125,-0.8391876220703125
1782858881223633200,2.855633056640625,0.05755615234375,0.4709930419921875,-0.8602447509765625
1782858881233612000,2.865612060546875,0.046966552734375,0.4822998046875,-0.8751220703125
1782858881243561000,2.87556103515625,0.03411865234375,0.487884521484375,-0.885589599609375
1782858881253509000,2.885509033203125,0.0213775634765625,0.4878692626953125,-0.8936920166015625
1782858881263458000,2.8954580078125,0.0126190185546875,0.484954833984375,-0.902069091796875
1782858881273437000,2.90543701171875,0.0047454833984375,0.4810791015625,-0.90716552734375
1782858881283386000,2.91538623046875,-0.0042877197265625,0.47906494140625,-0.9104156494140625
1782858881293335000,2.9253349609375,-0.009674072265625,0.4805450439453125,-0.914794921875
1782858881303284000,2.935283935546875,-0.0098724365234375,0.4837799072265625,-0.9189910888671875
1782858881313262800,2.945262939453125,-0.0147247314453125,0.4836883544921875,-0.9113311767578125
1782858881323212000,2.9552119140625,-0.0323333740234375,0.4851531982421875,-0.903289794921875
1782858881333160000,2.965159912109375,-0.0594329833984375,0.5095367431640625,-0.9052734375
1782858881343108900,2.97510888671875,-0.0811309814453125,0.566070556640625,-0.9138031005859375
1782858881353088000,2.985087890625,-0.0872039794921875,0.6295318603515625,-0.9248046875
1782858881363037000,2.995036865234375,-0.0745849609375,0.6732177734375,-0.94732666015625
1782858881372986000,3.004986083984375,-0.0539093017578125,0.69561767578125,-0.970184326171875
1782858881382935000,3.01493505859375,-0.0381927490234375,0.693115234375,-0.9821929931640625
1782858881392914200,3.0249140625,-0.0304107666015625,0.671966552734375,-0.9838714599609375
1782858881402863000,3.034863037109375,-0.0270233154296875,0.6483917236328125,-0.98345947265625
1782858881412811000,3.04481103515625,-0.0226287841796875,0.6375274658203125,-0.9832611083984375
1782858881422760000,3.054760009765625,-0.021392822265625,0.6406707763671875,-0.977783203125
1782858881432739000,3.064739013671875,-0.0181121826171875,0.6537933349609375,-0.970306396484375
1782858881442688000,3.07468798828125,-0.0101470947265625,0.6640472412109375,-0.9664154052734375
1782858881452637000,3.084636962890625,-0.0056304931640625,0.6620330810546875,-0.9709014892578125
1782858881462585000,3.094585205078125,-0.001220703125,0.666290283203125,-0.99078369140625
1782858881472565000,3.10456494140625,0.0101776123046875,0.6869964599609375,-1.023040771484375
1782858881482513000,3.114512939453125,0.0153045654296875,0.709564208984375,-1.0504608154296875
1782858881492461800,3.1244619140625,0.0113983154296875,0.72662353515625,-1.06146240234375
1782858881502441000,3.13444091796875,-0.001373291015625,0.73626708984375,-1.0642242431640625
1782858881512390000,3.144389892578125,-0.018310546875,0.732513427734375,-1.06085205078125
1782858881522338800,3.1543388671875,-0.036590576171875,0.7131195068359375,-1.048797607421875
1782858881532288000,3.1642880859375,-0.054229736328125,0.6814117431640625,-1.0303802490234375
1782858881542267100,3.17426708984375,-0.0710296630859375,0.651458740234375,-1.012847900390625
1782858881552216000,3.184216064453125,-0.0867919921875,0.6339263916015625,-0.9979248046875
1782858881562164000,3.1941640625,-0.0983123779296875,0.632568359375,-0.9843902587890625
1782858881572113200,3.204113037109375,-0.1044921875,0.643157958984375,-0.9735565185546875
1782858881582092000,3.214092041015625,-0.101593017578125,0.6649169921875,-0.9794921875
1782858881592041000,3.224041015625,-0.0928955078125,0.696868896484375,-0.9909820556640625
1782858881601990000,3.233989990234375,-0.087005615234375,0.7171173095703125,-0.9897003173828125
1782858881611938000,3.24393798828125,-0.086639404296875,0.7216796875,-0.9790191650390625
1782858881621918000,3.25391796875,-0.0905303955078125,0.7169036865234375,-0.961090087890625
1782858881631865900,3.263865966796875,-0.0996856689453125,0.7037353515625,-0.935638427734375
1782858881641815000,3.27381494140625,-0.1117401123046875,0.6891632080078125,-0.90802001953125
1782858881651764000,3.283763916015625,-0.1199951171875,0.6784210205078125,-0.8791656494140625
1782858881661742800,3.293742919921875,-0.12872314453125,0.67388916015625,-0.8495941162109375
1782858881671691800,3.30369189453125,-0.1322479248046875,0.6778564453125,-0.8247833251953125
1782858881681641000,3.313640869140625,-0.1299285888671875,0.68524169921875,-0.8047943115234375
1782858881691588900,3.3235888671875,-0.1275634765625,0.691192626953125,-0.78564453125
1782858881701569000,3.333569091796875,-0.12469482421875,0.6932525634765625,-0.7693634033203125
1782858881711517000,3.343516845703125,-0.121307373046875,0.6956939697265625,-0.754150390625
1782858881721466000,3.353466064453125,-0.1180419921875,0.69549560546875,-0.740081787109375
1782858881731415000,3.3634150390625,-0.115325927734375,0.6949615478515625,-0.7311248779296875
1782858881741394000,3.373393798828125,-0.1129150390625,0.6897735595703125,-0.7195892333984375
1782858881751343000,3.383343017578125,-0.112457275390625,0.67724609375,-0.706298828125
1782858881761291000,3.393291015625,-0.110748291015625,0.6604766845703125,-0.7033233642578125
1782858881771240000,3.403239990234375,-0.108917236328125,0.6436309814453125,-0.7002105712890625
1782858881781219000,3.413218994140625,-0.1109771728515625,0.624755859375,-0.6952972412109375
1782858881791168000,3.42316796875,-0.1143646240234375,0.6081695556640625,-0.69415283203125
1782858881801117000,3.433116943359375,-0.115478515625,0.595703125,-0.695526123046875
1782858881811065900,3.44306591796875,-0.1132049560546875,0.5909423828125,-0.7047882080078125
1782858881821045000,3.453044921875,-0.108642578125,0.59381103515625,-0.7171783447265625
1782858881830994000,3.462993896484375,-0.1007843017578125,0.596954345703125,-0.72802734375
1782858881840941800,3.47294189453125,-0.09454345703125,0.5976104736328125,-0.7415771484375
1782858881850890800,3.482890869140625,-0.086456298828125,0.5990142822265625,-0.7584228515625
1782858881860870000,3.492869873046875,-0.0747833251953125,0.6037445068359375,-0.7767486572265625
1782858881870818800,3.50281884765625,-0.060760498046875,0.6082305908203125,-0.797149658203125
1782858881880768000,3.51276806640625,-0.042266845703125,0.610076904296875,-0.818572998046875
1782858881890726000,3.522725830078125,-0.01800537109375,0.61151123046875,-0.838470458984375
1782858881900704800,3.532704833984375,0.00347900390625,0.6137542724609375,-0.856842041015625
1782858881910654000,3.542654052734375,0.022491455078125,0.6179351806640625,-0.8773651123046875
1782858881920601900,3.552601806640625,0.040985107421875,0.621429443359375,-0.9014129638671875
1782858881930550800,3.56255078125,0.059967041015625,0.6226806640625,-0.9292755126953125
1782858881940530000,3.572530029296875,0.0821990966796875,0.624725341796875,-0.951812744140625
1782858881950478800,3.582478759765625,0.095458984375,0.618927001953125,-0.9606475830078125
1782858881960427800,3.592427734375,0.094879150390625,0.607086181640625,-0.966522216796875
1782858881970375700,3.602375732421875,0.0865631103515625,0.590423583984375,-0.9746551513671875
1782858881980355800,3.61235595703125,0.071502685546875,0.5746917724609375,-0.9828033447265625
1782858881990303700,3.6223037109375,0.061004638671875,0.56219482421875,-0.9890289306640625
1782858882000253000,3.6322529296875,0.061126708984375,0.54949951171875,-0.9990692138671875
1782858882010201900,3.642201904296875,0.0538330078125,0.5409393310546875,-1.004669189453125
1782858882020181000,3.652180908203125,0.0339202880859375,0.548736572265625,-1.0019989013671875
1782858882030130000,3.6621298828125,0.0213470458984375,0.55670166015625,-0.989471435546875
1782858882040078800,3.672078857421875,0.0237884521484375,0.5507965087890625,-0.9744110107421875
1782858882050027000,3.682027099609375,0.0315704345703125,0.542083740234375,-0.9665374755859375
1782858882060007000,3.6920068359375,0.03839111328125,0.5368194580078125,-0.9575347900390625
1782858882069954800,3.701954833984375,0.044769287109375,0.5372161865234375,-0.944427490234375
1782858882079903700,3.71190380859375,0.0446929931640625,0.5411376953125,-0.9279327392578125
1782858882089853000,3.72185302734375,0.0381622314453125,0.542388916015625,-0.9092864990234375
1782858882099831800,3.731831787109375,0.0353851318359375,0.5402679443359375,-0.9010162353515625
1782858882109780700,3.74178076171875,0.0462493896484375,0.5419769287109375,-0.896636962890625
1782858882119729000,3.75172900390625,0.061065673828125,0.539947509765625,-0.89349365234375
1782858882129677800,3.761677734375,0.0785980224609375,0.5368804931640625,-0.8994293212890625
1782858882139656700,3.77165673828125,0.0933380126953125,0.5323333740234375,-0.9077301025390625
1782858882149605600,3.781605712890625,0.092315673828125,0.536651611328125,-0.9149169921875
1782858882159555000,3.79155517578125,0.0782318115234375,0.5591888427734375,-0.9174041748046875
1782858882169504000,3.80150390625,0.06768798828125,0.58245849609375,-0.92413330078125
1782858882179483000,3.81148291015625,0.069061279296875,0.5883636474609375,-0.931365966796875
1782858882189431800,3.821431884765625,0.0795135498046875,0.5717315673828125,-0.933380126953125
1782858882199380000,3.8313798828125,0.0873260498046875,0.54266357421875,-0.9261627197265625
1782858882209329000,3.841328857421875,0.0943450927734375,0.51666259765625,-0.916046142578125
1782858882219307800,3.851307861328125,0.1056976318359375,0.4951629638671875,-0.900482177734375
1782858882229257000,3.861257080078125,0.1188812255859375,0.477813720703125,-0.8875732421875
1782858882239206000,3.871205810546875,0.129852294921875,0.4764556884765625,-0.8775177001953125
1782858882249153800,3.88115380859375,0.137420654296875,0.494720458984375,-0.8665924072265625
1782858882259133700,3.8911337890625,0.1433258056640625,0.5316925048828125,-0.872528076171875
1782858882269081900,3.901081787109375,0.1524810791015625,0.5795745849609375,-0.8896942138671875
1782858882279030800,3.91103076171875,0.1628875732421875,0.6327362060546875,-0.9104461669921875
1782858882288979700,3.920979736328125,0.1764678955078125,0.6828460693359375,-0.936126708984375
1782858882298958800,3.930958740234375,0.1923675537109375,0.724151611328125,-0.962371826171875
1782858882308907800,3.94090771484375,0.2111968994140625,0.75640869140625,-0.9918060302734375
1782858882318857000,3.95085693359375,0.2281494140625,0.7712249755859375,-1.014251708984375
1782858882328804600,3.9608046875,0.2357330322265625,0.7680206298828125,-1.01788330078125
1782858882338785000,3.970784912109375,0.2377777099609375,0.756195068359375,-1.013336181640625
1782858882348733000,3.98073291015625,0.24066162109375,0.7485198974609375,-1.0065460205078125
1782858882358681900,3.990681884765625,0.2392578125,0.7486724853515625,-0.9999237060546875
1782858882368630800,4.000630859375,0.2367706298828125,0.7561492919921875,-0.9931793212890625
1782858882378610000,4.01060986328125,0.239288330078125,0.7600250244140625,-0.980865478515625
1782858882388558800,4.020558837890625,0.242340087890625,0.749420166015625,-0.9599761962890625
1782858882398507800,4.0305078125,0.2390289306640625,0.7222747802734375,-0.9315185546875
1782858882408456000,4.0404560546875,0.2353057861328125,0.6834716796875,-0.89776611328125
1782858882418434800,4.050434814453125,0.2329254150390625,0.6490631103515625,-0.8659820556640625
1782858882428383700,4.0603837890625,0.2317352294921875,0.624786376953125,-0.8338623046875
1782858882438332700,4.070332763671875,0.228424072265625,0.6082000732421875,-0.800384521484375
1782858882448281900,4.08028173828125,0.225921630859375,0.5943145751953125,-0.7713470458984375
1782858882458260700,4.0902607421875,0.2268829345703125,0.5826873779296875,-0.74371337890625
1782858882468209700,4.100209716796875,0.223876953125,0.569061279296875,-0.7164459228515625
1782858882478157800,4.11015771484375,0.2197113037109375,0.549468994140625,-0.6914825439453125
1782858882488106800,4.120106689453125,0.218719482421875,0.5321807861328125,-0.6728363037109375
1782858882498085600,4.130085693359375,0.221343994140625,0.523101806640625,-0.6590118408203125
1782858882508035000,4.14003515625,0.2286224365234375,0.522216796875,-0.646636962890625
1782858882517984000,4.14998388671875,0.2342071533203125,0.52716064453125,-0.634979248046875
1782858882527933000,4.159932861328125,0.2327728271484375,0.5333404541015625,-0.6250762939453125
1782858882537911800,4.169911865234375,0.22943115234375,0.5360260009765625,-0.6171722412109375
1782858882547860700,4.17986083984375,0.2268524169921875,0.5371246337890625,-0.60919189453125
1782858882557809000,4.189808837890625,0.2238616943359375,0.5389556884765625,-0.5995941162109375
1782858882567757800,4.1997578125,0.2183990478515625,0.5361785888671875,-0.5919036865234375
1782858882577737000,4.209737060546875,0.2158203125,0.5343017578125,-0.5870513916015625
1782858882587686000,4.219685791015625,0.2125244140625,0.5308074951171875,-0.584014892578125
1782858882597634800,4.229634765625,0.208740234375,0.5252838134765625,-0.5792694091796875
1782858882607582700,4.239582763671875,0.20166015625,0.5185546875,-0.5740966796875
1782858882617563000,4.24956298828125,0.19354248046875,0.5101470947265625,-0.571197509765625
1782858882627510800,4.2595107421875,0.1854400634765625,0.5051727294921875,-0.5722808837890625
1782858882637459700,4.269459716796875,0.17974853515625,0.50384521484375,-0.5752105712890625
1782858882647409000,4.279408935546875,0.1776885986328125,0.498870849609375,-0.57958984375
1782858882657387800,4.2893876953125,0.1725311279296875,0.4922943115234375,-0.58636474609375
1782858882667337000,4.2993369140625,0.168060302734375,0.489166259765625,-0.5954132080078125
1782858882677286000,4.309285888671875,0.16558837890625,0.4894561767578125,-0.6029205322265625
1782858882687234000,4.319234130859375,0.160675048828125,0.490997314453125,-0.6116485595703125
1782858882697214000,4.3292138671875,0.1546478271484375,0.490966796875,-0.621124267578125
1782858882707161900,4.339161865234375,0.1480865478515625,0.4889068603515625,-0.63128662109375
1782858882717110800,4.34911083984375,0.142822265625,0.4887237548828125,-0.6436614990234375
1782858882727060000,4.35906005859375,0.14019775390625,0.49285888671875,-0.65924072265625
1782858882737038800,4.369038818359375,0.1381683349609375,0.4994964599609375,-0.6782684326171875
1782858882746987800,4.37898779296875,0.1382904052734375,0.5041351318359375,-0.69537353515625
1782858882756936000,4.38893603515625,0.136993408203125,0.50775146484375,-0.7125091552734375
1782858882766884900,4.398884765625,0.1329193115234375,0.5098876953125,-0.7272186279296875
1782858882776863700,4.40886376953125,0.1300811767578125,0.5085601806640625,-0.7421112060546875
1782858882786812700,4.418812744140625,0.127655029296875,0.5056915283203125,-0.7563018798828125
1782858882796761900,4.428761962890625,0.1258392333984375,0.501068115234375,-0.768951416015625
1782858882806740700,4.43874072265625,0.123138427734375,0.497833251953125,-0.7797088623046875
1782858882816689700,4.448689697265625,0.1193389892578125,0.4950103759765625,-0.790771484375
1782858882826638800,4.458638916015625,0.1199798583984375,0.4927825927734375,-0.800994873046875
1782858882836587000,4.4685869140625,0.124755859375,0.4937591552734375,-0.81103515625
1782858882846567000,4.47856689453125,0.1224365234375,0.4977874755859375,-0.8199615478515625
1782858882856514800,4.488514892578125,0.1183624267578125,0.50433349609375,-0.827911376953125
1782858882866464000,4.498464111328125,0.12274169921875,0.506103515625,-0.836212158203125
1782858882876413000,4.508412841796875,0.1279449462890625,0.5043487548828125,-0.848358154296875
1782858882886429400,4.518429443359375,0.1326904296875,0.5077972412109375,-0.863067626953125
1782858882896378600,4.528378662109375,0.1378173828125,0.5135955810546875,-0.8745880126953125
1782858882906326500,4.538326416015625,0.139312744140625,0.513763427734375,-0.88519287109375
1782858882916275500,4.548275390625,0.1419830322265625,0.5073394775390625,-0.8936920166015625
1782858882926254600,4.558254638671875,0.1443939208984375,0.496124267578125,-0.9037017822265625
1782858882936203500,4.56820361328125,0.1470184326171875,0.4955291748046875,-0.9222869873046875
1782858882946152700,4.578152587890625,0.1580352783203125,0.5054931640625,-0.9461517333984375
1782858882956101600,4.5881015625,0.1732940673828125,0.5157470703125,-0.9683990478515625
1782858882966080800,4.598080810546875,0.183807373046875,0.5223541259765625,-0.9911041259765625
1782858882976029700,4.60802978515625,0.1795501708984375,0.5317230224609375,-1.025115966796875
1782858882985977600,4.6179775390625,0.1635894775390625,0.574371337890625,-1.0777130126953125
1782858882995926500,4.627926513671875,0.1506805419921875,0.65301513671875,-1.13372802734375
1782858883005905700,4.63790576171875,0.1417694091796875,0.7338104248046875,-1.209503173828125
1782858883015854600,4.6478544921875,0.1390228271484375,0.7951812744140625,-1.2880706787109375
1782858883025803500,4.657803466796875,0.139739990234375,0.814910888671875,-1.346221923828125
1782858883035752400,4.66775244140625,0.1452789306640625,0.78289794921875,-1.3842010498046875
1782858883045731600,4.677731689453125,0.1476287841796875,0.7080078125,-1.4046783447265625
1782858883055680500,4.687680419921875,0.147735595703125,0.6114349365234375,-1.3987579345703125
1782858883065628400,4.69762841796875,0.1476898193359375,0.5142669677734375,-1.360382080078125
1782858883075577600,4.70757763671875,0.1418304443359375,0.4270782470703125,-1.2956390380859375
1782858883085556500,4.717556396484375,0.134124755859375,0.3521728515625,-1.2117919921875
1782858883095505700,4.727505615234375,0.1301116943359375,0.2967529296875,-1.1240997314453125
1782858883105454600,4.73745458984375,0.1329193115234375,0.2698516845703125,-1.0458831787109375
1782858883115402800,4.74740283203125,0.142852783203125,0.26776123046875,-0.9883270263671875
1782858883125382700,4.757382568359375,0.1536102294921875,0.2910003662109375,-0.9536590576171875
1782858883135330600,4.76733056640625,0.1757354736328125,0.3285064697265625,-0.9346466064453125
1782858883145279700,4.77727978515625,0.194244384765625,0.366180419921875,-0.9216156005859375
1782858883155228700,4.787228759765625,0.1926116943359375,0.4043121337890625,-0.923583984375
1782858883165207600,4.79720751953125,0.1811065673828125,0.4409027099609375,-0.9285736083984375
1782858883175156500,4.807156494140625,0.1683197021484375,0.4793243408203125,-0.934783935546875
1782858883185105700,4.817105712890625,0.158050537109375,0.5222625732421875,-0.950469970703125
1782858883195053600,4.827053466796875,0.1453704833984375,0.570220947265625,-0.9734649658203125
1782858883205033500,4.837033447265625,0.125,0.6195068359375,-0.9901275634765625
1782858883214981600,4.846981689453125,0.1015472412109375,0.661346435546875,-1.0099334716796875
1782858883224930600,4.8569306640625,0.083404541015625,0.6929931640625,-1.038970947265625
1782858883234879500,4.86687939453125,0.0714263916015625,0.7151641845703125,-1.0622711181640625
1782858883244858600,4.876858642578125,0.055572509765625,0.7271270751953125,-1.078643798828125
1782858883254807800,4.886807861328125,0.0446319580078125,0.7302398681640625,-1.089324951171875
1782858883264755500,4.89675537109375,0.040863037109375,0.7296600341796875,-1.094970703125
1782858883274704600,4.90670458984375,0.0423583984375,0.7315826416015625,-1.0929107666015625
1782858883284683800,4.916683837890625,0.0461883544921875,0.7382049560546875,-1.0895538330078125
1782858883294632700,4.9266328125,0.0518035888671875,0.74560546875,-1.084930419921875
1782858883304581600,4.93658154296875,0.058135986328125,0.7467193603515625,-1.0714263916015625
1782858883314530600,4.946530517578125,0.0649261474609375,0.7397918701171875,-1.0552215576171875
1782858883324509700,4.956509765625,0.0711822509765625,0.7289886474609375,-1.03955078125
1782858883334458600,4.966458740234375,0.07281494140625,0.7213897705078125,-1.0211639404296875
1782858883344406500,4.976406494140625,0.0739898681640625,0.712615966796875,-0.998870849609375
1782858883354355500,4.98635546875,0.074462890625,0.7048187255859375,-0.974365234375
1782858883364334600,4.99633447265625,0.0786285400390625,0.704986572265625,-0.9530792236328125
1782858883374283500,5.006283447265625,0.0853271484375,0.707305908203125,-0.9316558837890625
1782858883384232400,5.016232421875,0.08917236328125,0.7111053466796875,-0.9112548828125
1782858883394180600,5.0261806640625,0.0900115966796875,0.709808349609375,-0.88775634765625
1782858883404160500,5.036160400390625,0.0880889892578125,0.7037506103515625,-0.863128662109375
1782858883414108400,5.0461083984375,0.090087890625,0.70416259765625,-0.8464202880859375
1782858883424057600,5.0560576171875,0.09991455078125,0.711090087890625,-0.830108642578125
1782858883434006800,5.0660068359375,0.108856201171875,0.71343994140625,-0.8115386962890625
1782858883443985700,5.075985595703125,0.1094512939453125,0.703155517578125,-0.7865142822265625
1782858883453934600,5.0859345703125,0.1048736572265625,0.6769561767578125,-0.753448486328125
1782858883463883500,5.095883544921875,0.094146728515625,0.6436767578125,-0.718414306640625
1782858883473831700,5.105831787109375,0.079193115234375,0.6081390380859375,-0.6853790283203125
1782858883483811600,5.1158115234375,0.0648651123046875,0.5727081298828125,-0.652862548828125
1782858883493759700,5.125759765625,0.0553131103515625,0.54345703125,-0.6197052001953125
1782858883503708700,5.135708740234375,0.0487060546875,0.5217132568359375,-0.5957794189453125
1782858883513657600,5.14565771484375,0.04644775390625,0.5072784423828125,-0.575164794921875
1782858883523636500,5.155636474609375,0.0461578369140625,0.49798583984375,-0.55560302734375
1782858883533585700,5.165585693359375,0.045196533203125,0.4892578125,-0.53936767578125
1782858883543534600,5.17553466796875,0.04833984375,0.4801025390625,-0.5235443115234375
1782858883553482500,5.185482421875,0.050537109375,0.4688873291015625,-0.510009765625
1782858883563461600,5.195461669921875,0.0502166748046875,0.45611572265625,-0.502655029296875
1782858883573410600,5.20541064453125,0.0538482666015625,0.4420013427734375,-0.5007781982421875
1782858883583359500,5.215359375,0.0512237548828125,0.422515869140625,-0.514068603515625
1782858883593308700,5.22530859375,0.0333404541015625,0.3919677734375,-0.5667724609375
1782858883603287800,5.235287841796875,0.0164031982421875,0.35736083984375,-0.6603546142578125
1782858883613236700,5.24523681640625,0.0079803466796875,0.32952880859375,-0.763427734375
1782858883623184600,5.2551845703125,-0.009521484375,0.3060760498046875,-0.88372802734375
1782858883633133600,5.265133544921875,-0.0203399658203125,0.277984619140625,-1.0361480712890625
1782858883643112700,5.27511279296875,-0.01141357421875,0.2388153076171875,-1.2017822265625
1782858883653061600,5.2850615234375,0.001556396484375,0.192962646484375,-1.351531982421875
1782858883663010600,5.295010498046875,-0.0654754638671875,0.1268157958984375,-1.45684814453125
1782858883672959500,5.30495947265625,-0.090087890625,0.074615478515625,-1.4815216064453125
1782858883682938600,5.314938720703125,0.0151214599609375,0.06683349609375,-1.4428863525390625
1782858883692887600,5.324887451171875,0.02728271484375,0.05322265625,-1.4232635498046875
1782858883702835500,5.33483544921875,-0.0595245361328125,0.0876922607421875,-1.3849334716796875
1782858883712784600,5.34478466796875,-0.20263671875,0.2335662841796875,-1.266265869140625
1782858883722763500,5.354763427734375,-0.3128509521484375,0.403594970703125,-1.1614990234375
1782858883732712400,5.36471240234375,-0.35906982421875,0.4792327880859375,-1.1143035888671875
1782858883742661600,5.37466162109375,-0.383514404296875,0.431427001953125,-1.0836334228515625
1782858883752609500,5.384609619140625,-0.410797119140625,0.3473358154296875,-1.0140380859375
1782858883762589700,5.394589599609375,-0.448516845703125,0.2671356201171875,-0.90386962890625
1782858883772537600,5.40453759765625,-0.499603271484375,0.2044677734375,-0.8199005126953125
1782858883782486800,5.41448681640625,-0.527557373046875,0.187713623046875,-0.779083251953125
1782858883792435700,5.424435791015625,-0.5093231201171875,0.1999359130859375,-0.752960205078125
1782858883802414600,5.43441455078125,-0.4794769287109375,0.2230072021484375,-0.723541259765625
1782858883812363500,5.444363525390625,-0.4776611328125,0.2459259033203125,-0.6928253173828125
1782858883822312700,5.454312744140625,-0.51165771484375,0.2789764404296875,-0.69879150390625
1782858883832260600,5.464260498046875,-0.593780517578125,0.3116302490234375,-0.717193603515625
1782858883842240500,5.474240478515625,-0.6909942626953125,0.3127899169921875,-0.733489990234375
1782858883852188700,5.484188720703125,-0.751312255859375,0.276611328125,-0.752349853515625
1782858883862137600,5.4941376953125,-0.76080322265625,0.2260284423828125,-0.78924560546875
1782858883872086500,5.50408642578125,-0.7607421875,0.195068359375,-0.816864013671875
1782858883882065400,5.5140654296875,-0.764617919921875,0.1782379150390625,-0.8166961669921875
1782858883892019500,5.52401953125,-0.752716064453125,0.153564453125,-0.8145751953125
1782858883901967600,5.533967529296875,-0.737396240234375,0.1298980712890625,-0.7943267822265625
1782858883911916500,5.54391650390625,-0.7281494140625,0.1100616455078125,-0.7697601318359375
1782858883921895400,5.5538955078125,-0.719146728515625,0.0945281982421875,-0.757232666015625
1782858883931844400,5.56384423828125,-0.7144622802734375,0.076904296875,-0.737274169921875
1782858883941793500,5.57379345703125,-0.727294921875,0.0638427734375,-0.7229156494140625
1782858883951742500,5.583742431640625,-0.751922607421875,0.0721435546875,-0.729583740234375
1782858883961721300,5.593721435546875,-0.7801513671875,0.0967254638671875,-0.73687744140625
1782858883971670300,5.603670166015625,-0.7975006103515625,0.13177490234375,-0.7416839599609375
1782858883981618400,5.613618408203125,-0.812164306640625,0.166473388671875,-0.75433349609375
1782858883991567400,5.6235673828125,-0.832733154296875,0.182830810546875,-0.7574462890625
1782858884001546500,5.63354638671875,-0.9187164306640625,0.2254638671875,-0.7519683837890625
1782858884011495400,5.643495361328125,-0.9935302734375,0.26898193359375,-0.7380523681640625
1782858884021444600,5.653444580078125,-1.034088134765625,0.28448486328125,-0.7303466796875
1782858884031393500,5.6633935546875,-1.0360107421875,0.290496826171875,-0.7308197021484375
1782858884041372400,5.673372314453125,-1.0199127197265625,0.2866363525390625,-0.7109222412109375
1782858884051321600,5.683321533203125,-1.0236053466796875,0.27850341796875,-0.6887969970703125
1782858884061269500,5.69326953125,-1.04815673828125,0.2679595947265625,-0.662261962890625
1782858884071218400,5.703218505859375,-1.074127197265625,0.2509307861328125,-0.63055419921875
1782858884081197600,5.713197509765625,-1.09661865234375,0.2279052734375,-0.597259521484375
1782858884091146500,5.723146484375,-1.1063995361328125,0.21820068359375,-0.5592041015625
1782858884101095400,5.733095458984375,-1.112701416015625,0.2435455322265625,-0.5256805419921875
1782858884111043300,5.743043212890625,-1.1054534912109375,0.2826080322265625,-0.4916229248046875
1782858884121023500,5.7530234375,-1.06787109375,0.325164794921875,-0.44427490234375
1782858884130971400,5.762971435546875,-1.013031005859375,0.3528900146484375,-0.3819580078125
1782858884140920300,5.77292041015625,-0.953216552734375,0.349456787109375,-0.3014373779296875
1782858884150869200,5.782869140625,-0.9150390625,0.3358306884765625,-0.225341796875
1782858884160848400,5.792848388671875,-0.9150238037109375,0.3093109130859375,-0.1702423095703125
1782858884170797600,5.802797607421875,-0.935333251953125,0.28802490234375,-0.1415863037109375
1782858884180746500,5.81274658203125,-0.9462432861328125,0.2904205322265625,-0.1337890625
1782858884190725600,5.8227255859375,-0.9228668212890625,0.298126220703125,-0.1428985595703125
1782858884200674600,5.832674560546875,-0.905914306640625,0.324371337890625,-0.1571807861328125
1782858884210622500,5.84262255859375,-0.896026611328125,0.3734893798828125,-0.17559814453125
1782858884220571400,5.8525712890625,-0.8795928955078125,0.435028076171875,-0.2033538818359375
1782858884230550500,5.862550537109375,-0.862762451171875,0.447662353515625,-0.239471435546875
1782858884240499500,5.87249951171875,-0.8004150390625,0.35400390625,-0.270660400390625
1782858884250448400,5.882448486328125,-0.7245330810546875,0.2045745849609375,-0.266143798828125
1782858884260396500,5.892396484375,-0.6864166259765625,0.0550994873046875,-0.1634979248046875
1782858884270376400,5.90237646484375,-0.7103729248046875,-0.0455322265625,-0.128387451171875
1782858884280324400,5.912324462890625,-0.73382568359375,-0.08319091796875,-0.1657562255859375
1782858884290273500,5.9222734375,-0.7239837646484375,-0.0877685546875,-0.179351806640625
1782858884300222500,5.932222412109375,-0.7080078125,-0.0886688232421875,-0.185028076171875
1782858884310201300,5.942201416015625,-0.6865997314453125,-0.098236083984375,-0.192047119140625
1782858884320150300,5.952150390625,-0.6699066162109375,-0.1162872314453125,-0.194488525390625
1782858884330099500,5.962099365234375,-0.6613922119140625,-0.1320648193359375,-0.2006988525390625
1782858884340047400,5.97204736328125,-0.6591949462890625,-0.142486572265625,-0.2058563232421875
1782858884350027500,5.982027587890625,-0.67413330078125,-0.152984619140625,-0.2028656005859375
1782858884359975700,5.9919755859375,-0.678802490234375,-0.161773681640625,-0.190704345703125
1782858884369924600,6.001924560546875,-0.672119140625,-0.1712799072265625,-0.1701202392578125
1782858884379873500,6.01187353515625,-0.6683197021484375,-0.1872100830078125,-0.159210205078125
1782858884389852400,6.021852294921875,-0.668792724609375,-0.206207275390625,-0.1595458984375
1782858884399801600,6.031801513671875,-0.662811279296875,-0.2218170166015625,-0.1619110107421875
1782858884409749500,6.04174951171875,-0.6641387939453125,-0.2369232177734375,-0.1436767578125
1782858884419698400,6.051698486328125,-0.675048828125,-0.2584991455078125,-0.1295318603515625
1782858884429677600,6.061677490234375,-0.6920013427734375,-0.285400390625,-0.1327056884765625
1782858884439626500,6.07162646484375,-0.708648681640625,-0.304229736328125,-0.12335205078125
1782858884449575400,6.081575439453125,-0.7113189697265625,-0.322509765625,-0.0921783447265625
1782858884459524400,6.0915244140625,-0.7159576416015625,-0.3487701416015625,-0.0559844970703125
1782858884469503500,6.10150341796875,-0.731689453125,-0.373291015625,-0.0304718017578125
1782858884479452400,6.111452392578125,-0.756805419921875,-0.3821563720703125,-0.0213775634765625
1782858884489400300,6.121400390625,-0.7959442138671875,-0.3730010986328125,-0.0194854736328125
1782858884499349200,6.131349365234375,-0.8404693603515625,-0.36322021484375,-0.0145263671875
1782858884509328400,6.141328369140625,-0.8676300048828125,-0.357421875,-0.0198211669921875
1782858884519277600,6.151277587890625,-0.8923187255859375,-0.342681884765625,-0.0266571044921875
1782858884529226500,6.1612265625,-0.9240875244140625,-0.33270263671875,-0.0302581787109375
1782858884539175400,6.171175537109375,-0.9468231201171875,-0.33404541015625,-0.033599853515625
1782858884549154600,6.181154541015625,-0.9615936279296875,-0.3330535888671875,-0.02899169921875
1782858884559102500,6.1911025390625,-0.985015869140625,-0.328277587890625,-0.0145111083984375
1782858884569051400,6.201051513671875,-1.005462646484375,-0.3328399658203125,-0.00433349609375
1782858884579000600,6.21100048828125,-0.996551513671875,-0.3379669189453125,0.0048065185546875
1782858884588979500,6.2209794921875,-0.9928436279296875,-0.3300933837890625,0.0153045654296875
1782858884598928400,6.230928466796875,-1.00634765625,-0.3231201171875,0.0270233154296875
1782858884608877300,6.240877197265625,-1.015960693359375,-0.32550048828125,0.036712646484375
1782858884618825500,6.250825439453125,-1.048095703125,-0.327301025390625,0.0401153564453125
1782858884628805400,6.260805419921875,-1.0915679931640625,-0.3157501220703125,0.03466796875
1782858884638753500,6.27075341796875,-1.1286468505859375,-0.2828521728515625,0.0157470703125
1782858884648702500,6.280702392578125,-1.1493377685546875,-0.2314605712890625,-0.0073394775390625
1782858884658651400,6.2906513671875,-1.1555023193359375,-0.1759490966796875,-0.026275634765625
1782858884668630300,6.30063037109375,-1.148773193359375,-0.1318359375,-0.0395050048828125
1782858884678579500,6.310579345703125,-1.1099090576171875,-0.0978546142578125,-0.042510986328125
1782858884688528600,6.320528564453125,-1.063812255859375,-0.073333740234375,-0.02813720703125
1782858884698476500,6.3304765625,-1.0230712890625,-0.0765533447265625,0.0053253173828125
1782858884708456400,6.34045654296875,-0.9897918701171875,-0.1058807373046875,0.0488128662109375
1782858884718404600,6.350404541015625,-0.9637908935546875,-0.14068603515625,0.092193603515625
1782858884728353500,6.360353515625,-0.9477996826171875,-0.1692962646484375,0.1250762939453125
1782858884738302500,6.370302490234375,-0.939117431640625,-0.18408203125,0.1368408203125
1782858884748281600,6.380281494140625,-0.9371795654296875,-0.1846771240234375,0.134002685546875
1782858884758230500,6.39023046875,-0.9449005126953125,-0.1756134033203125,0.1230316162109375
1782858884768178400,6.400178466796875,-0.9562835693359375,-0.1646881103515625,0.105438232421875
1782858884778127400,6.41012744140625,-0.969818115234375,-0.1524200439453125,0.0851898193359375
1782858884788106500,6.4201064453125,-0.9915313720703125,-0.137725830078125,0.0708465576171875
1782858884798055400,6.430055419921875,-1.0068206787109375,-0.1306610107421875,0.0605621337890625
1782858884808004400,6.44000439453125,-1.020721435546875,-0.1217041015625,0.0551605224609375
1782858884817953500,6.44995361328125,-1.02264404296875,-0.112762451171875,0.051025390625
1782858884827932400,6.459932373046875,-1.01953125,-0.1162261962890625,0.04583740234375
1782858884837881600,6.469881591796875,-1.0105133056640625,-0.1288604736328125,0.0505828857421875
1782858884847829500,6.47982958984375,-0.995452880859375,-0.147125244140625,0.0585174560546875
1782858884857778400,6.4897783203125,-0.973236083984375,-0.16748046875,0.0621795654296875
1782858884867757600,6.499757568359375,-0.951751708984375,-0.1767730712890625,0.069091796875
1782858884877706500,6.50970654296875,-0.92718505859375,-0.1890411376953125,0.0749969482421875
1782858884887682300,6.519682373046875,-0.9085845947265625,-0.2099761962890625,0.081756591796875
1782858884897630200,6.529630126953125,-0.898284912109375,-0.2367401123046875,0.0888519287109375
1782858884907610000,6.539610107421875,-0.89361572265625,-0.255706787109375,0.086181640625
1782858884917558300,6.549558349609375,-0.8999481201171875,-0.2613677978515625,0.0791168212890625
1782858884927507200,6.559507080078125,-0.9018707275390625,-0.2695770263671875,0.070343017578125
1782858884937456000,6.5694560546875,-0.9058837890625,-0.2813720703125,0.060699462890625
1782858884947435300,6.579435302734375,-0.9249725341796875,-0.2845306396484375,0.0530242919921875
1782858884957384200,6.58938427734375,-0.962127685546875,-0.2691650390625,0.043243408203125
1782858884967333000,6.5993330078125,-1.0096588134765625,-0.25897216796875,0.045867919921875
1782858884977281000,6.609281005859375,-1.053466796875,-0.263214111328125,0.056793212890625
1782858884987261200,6.61926123046875,-1.09417724609375,-0.2680206298828125,0.0507049560546875
1782858884997209000,6.629208984375,-1.118621826171875,-0.27227783203125,0.0617523193359375
1782858885007158000,6.639157958984375,-1.0834503173828125,-0.2981719970703125,0.0804595947265625
1782858885017107000,6.64910693359375,-1.030975341796875,-0.3529815673828125,0.0460205078125
1782858885027086000,6.659086181640625,-0.97412109375,-0.409881591796875,-0.0314178466796875
1782858885037035000,6.669034912109375,-0.944183349609375,-0.3924407958984375,-0.15655517578125
1782858885046983000,6.67898291015625,-1.0716705322265625,-0.3188934326171875,-0.218109130859375
1782858885056932000,6.68893212890625,-1.307220458984375,-0.29266357421875,-0.2108154296875
1782858885066911000,6.698910888671875,-1.4313201904296875,-0.2601470947265625,-0.2745819091796875
1782858885076860200,6.708860107421875,-1.2545013427734375,-0.2442779541015625,-0.303497314453125
1782858885086809000,6.71880908203125,-1.0525970458984375,-0.2853240966796875,-0.17645263671875
1782858885096758000,6.728758056640625,-1.032470703125,-0.3802642822265625,0.0205078125
1782858885106737200,6.738737060546875,-1.1454010009765625,-0.4729766845703125,0.1357879638671875
1782858885116686000,6.74868603515625,-1.2307586669921875,-0.4799346923828125,0.11761474609375
1782858885126634200,6.75863427734375,-1.2042236328125,-0.46551513671875,0.0744171142578125
1782858885136583200,6.768583251953125,-1.1224212646484375,-0.3919830322265625,0.0642242431640625
1782858885146562000,6.77856201171875,-1.0591278076171875,-0.2992095947265625,0.0688934326171875
1782858885156511000,6.788510986328125,-1.066162109375,-0.2427215576171875,0.0774688720703125
1782858885166460200,6.798460205078125,-1.0715789794921875,-0.1985626220703125,0.051422119140625
1782858885176409000,6.8084091796875,-1.1469268798828125,-0.1077117919921875,-0.010833740234375
1782858885186388000,6.818387939453125,-1.229248046875,0.00372314453125,-0.1073760986328125
1782858885196337000,6.8283369140625,-1.1596221923828125,0.020721435546875,-0.213653564453125
1782858885206285000,6.83828515625,-1.149871826171875,0.003662109375,-0.2125091552734375
1782858885216234200,6.848234130859375,-1.1051025390625,-0.0398406982421875,-0.1942138671875
1782858885226212900,6.858212890625,-1.0644989013671875,-0.0897369384765625,-0.1746978759765625
1782858885236162300,6.868162353515625,-1.0615081787109375,-0.1351165771484375,-0.1112060546875
1782858885246111200,6.878111328125,-1.050750732421875,-0.21148681640625,-0.01556396484375
1782858885256059100,6.88805908203125,-1.007476806640625,-0.2690582275390625,0.02874755859375
1782858885266039000,6.8980390625,-0.9741668701171875,-0.2604827880859375,0.0075531005859375
1782858885275987200,6.9079873046875,-0.9659576416015625,-0.268218994140625,-0.04461669921875
1782858885285936000,6.91793603515625,-0.964691162109375,-0.317626953125,-0.128936767578125
1782858885295885000,6.927885009765625,-0.9464111328125,-0.3458404541015625,-0.2356414794921875
1782858885305864200,6.9378642578125,-0.921661376953125,-0.339691162109375,-0.34228515625
1782858885315813000,6.947813232421875,-0.8785400390625,-0.3518218994140625,-0.435943603515625
1782858885325762000,6.957761962890625,-0.7747955322265625,-0.39178466796875,-0.4881439208984375
1782858885335710000,6.9677099609375,-0.636993408203125,-0.4684600830078125,-0.5193023681640625
1782858885345690000,6.977690185546875,-0.535491943359375,-0.5306854248046875,-0.5574188232421875
1782858885355638000,6.987637939453125,-0.446319580078125,-0.5633087158203125,-0.5887908935546875
1782858885365587000,6.9975869140625,-0.38311767578125,-0.5746002197265625,-0.60809326171875
1782858885375536000,7.0075361328125,-0.3238372802734375,-0.531036376953125,-0.616729736328125
1782858885385515300,7.017515380859375,-0.2767333984375,-0.486663818359375,-0.645355224609375
1782858885395464200,7.027464111328125,-0.2593994140625,-0.47760009765625,-0.6594696044921875
1782858885405412000,7.037412109375,-0.252197265625,-0.4531402587890625,-0.640106201171875
1782858885415361300,7.047361328125,-0.224334716796875,-0.4400177001953125,-0.6414337158203125
1782858885425340200,7.057340087890625,-0.168853759765625,-0.43682861328125,-0.6187591552734375
1782858885435289000,7.0672890625,-0.1186370849609375,-0.4296722412109375,-0.56353759765625
1782858885445238000,7.077238037109375,-0.05072021484375,-0.420867919921875,-0.4643402099609375
1782858885455187200,7.087187255859375,0.0031280517578125,-0.4489288330078125,-0.3961181640625
1782858885465166000,7.097166015625,0.0273895263671875,-0.5143585205078125,-0.3705291748046875
1782858885475115000,7.107114990234375,0.03778076171875,-0.5885467529296875,-0.3509674072265625
1782858885485063200,7.117063232421875,0.040679931640625,-0.6826934814453125,-0.325714111328125
1782858885495012000,7.12701220703125,0.0987548828125,-0.73345947265625,-0.355865478515625
1782858885504991000,7.136990966796875,0.2510986328125,-0.7422637939453125,-0.370330810546875
1782858885514940000,7.14693994140625,0.36669921875,-0.7351531982421875,-0.3548736572265625
1782858885524889000,7.15688916015625,0.4138031005859375,-0.744232177734375,-0.3447723388671875
1782858885534837000,7.1668369140625,0.40521240234375,-0.7796478271484375,-0.3296356201171875
1782858885544817200,7.176817138671875,0.386871337890625,-0.807098388671875,-0.3148956298828125
1782858885554765000,7.18676513671875,0.3792266845703125,-0.81927490234375,-0.3318023681640625
1782858885564714200,7.19671435546875,0.3949432373046875,-0.8275299072265625,-0.3490447998046875
1782858885574663200,7.2066630859375,0.438720703125,-0.8439788818359375,-0.3632965087890625
1782858885584642000,7.21664208984375,0.4742584228515625,-0.8801727294921875,-0.3619842529296875
1782858885594591200,7.22659130859375,0.5045013427734375,-0.9221954345703125,-0.3546905517578125
1782858885604540200,7.2365400390625,0.5266571044921875,-0.9446258544921875,-0.3630828857421875
1782858885614488000,7.246488037109375,0.5328216552734375,-0.94580078125,-0.366943359375
1782858885624468000,7.256468017578125,0.529083251953125,-0.950531005859375,-0.352813720703125
1782858885634416000,7.266416015625,0.5084991455078125,-0.9599151611328125,-0.3315277099609375
1782858885644365000,7.276364990234375,0.47491455078125,-0.9598541259765625,-0.3038330078125
1782858885654314000,7.28631396484375,0.4444122314453125,-0.9566497802734375,-0.289459228515625
1782858885664293000,7.296293212890625,0.420196533203125,-0.9442901611328125,-0.2865753173828125
1782858885674242000,7.306241943359375,0.395965576171875,-0.919464111328125,-0.2958221435546875
1782858885684191000,7.31619091796875,0.37860107421875,-0.8945465087890625,-0.3108062744140625
1782858885694170000,7.326170166015625,0.36785888671875,-0.8696441650390625,-0.3151092529296875
1782858885704118000,7.336117919921875,0.35809326171875,-0.852020263671875,-0.3291778564453125
1782858885714067000,7.34606689453125,0.3526611328125,-0.84210205078125,-0.355194091796875
1782858885724016000,7.35601611328125,0.35662841796875,-0.8328704833984375,-0.375885009765625
1782858885733995300,7.365995361328125,0.356414794921875,-0.8319854736328125,-0.39141845703125
1782858885743944200,7.375944091796875,0.353485107421875,-0.828521728515625,-0.4066162109375
1782858885753893000,7.38589306640625,0.3455963134765625,-0.8246612548828125,-0.4134368896484375
1782858885763841300,7.39584130859375,0.346221923828125,-0.8172607421875,-0.421905517578125
1782858885773821200,7.4058212890625,0.34906005859375,-0.8061676025390625,-0.4224700927734375
1782858885783769000,7.41576904296875,0.35223388671875,-0.802490234375,-0.4163818359375
1782858885793718000,7.425718017578125,0.350341796875,-0.81097412109375,-0.40521240234375
1782858885803667000,7.4356669921875,0.3472442626953125,-0.8234100341796875,-0.3905792236328125
1782858885813646000,7.44564599609375,0.354736328125,-0.8368377685546875,-0.379638671875
1782858885823595000,7.455594970703125,0.3685302734375,-0.8470001220703125,-0.3744659423828125
1782858885833544000,7.4655439453125,0.3820037841796875,-0.853424072265625,-0.3642120361328125
1782858885843492000,7.4754921875,0.373748779296875,-0.857177734375,-0.3510589599609375
1782858885853472000,7.485471923828125,0.356231689453125,-0.8589935302734375,-0.3382568359375
1782858885863420000,7.495419921875,0.3414306640625,-0.8656158447265625,-0.3140869140625
1782858885873369000,7.505369140625,0.3246917724609375,-0.87799072265625,-0.2922515869140625
1782858885883318300,7.515318359375,0.3087005615234375,-0.8871917724609375,-0.28271484375
1782858885893299500,7.525299560546875,0.2993927001953125,-0.890716552734375,-0.2747650146484375
1782858885903248600,7.53524853515625,0.289276123046875,-0.8995208740234375,-0.2611236572265625
1782858885913196500,7.545196533203125,0.27642822265625,-0.908721923828125,-0.2581787109375
1782858885923145500,7.5551455078125,0.28668212890625,-0.90350341796875,-0.26617431640625
1782858885933124600,7.56512451171875,0.3129119873046875,-0.8947296142578125,-0.2913055419921875
1782858885943073500,7.575073486328125,0.3368072509765625,-0.894500732421875,-0.32366943359375
1782858885953022500,7.5850224609375,0.359375,-0.888397216796875,-0.3349151611328125
1782858885962971400,7.594971435546875,0.368682861328125,-0.8917694091796875,-0.32415771484375
1782858885972950500,7.604950439453125,0.358795166015625,-0.9061737060546875,-0.3079376220703125
1782858885982899500,7.6148994140625,0.343719482421875,-0.9154815673828125,-0.2963409423828125
1782858885992847400,7.624847412109375,0.3336029052734375,-0.9091339111328125,-0.281219482421875
1782858886002796300,7.63479638671875,0.3145599365234375,-0.895538330078125,-0.2658233642578125
1782858886012775400,7.644775390625,0.2921600341796875,-0.8864288330078125,-0.258819580078125
1782858886022724400,7.654724365234375,0.2811279296875,-0.881378173828125,-0.2562713623046875
1782858886032673300,7.66467333984375,0.2848663330078125,-0.8872222900390625,-0.2688446044921875
1782858886042621400,7.674621337890625,0.2929534912109375,-0.89862060546875,-0.278045654296875
1782858886052601600,7.6846015625,0.2855377197265625,-0.916595458984375,-0.266998291015625
1782858886062549200,7.69454931640625,0.26776123046875,-0.9464569091796875,-0.246063232421875
1782858886072498400,7.70449853515625,0.2413177490234375,-0.975677490234375,-0.2146759033203125
1782858886082447600,7.714447509765625,0.212127685546875,-1.0072479248046875,-0.1843414306640625
1782858886092426500,7.724426513671875,0.18408203125,-1.035125732421875,-0.17303466796875
1782858886102375400,7.73437548828125,0.1593780517578125,-1.0544891357421875,-0.169189453125
1782858886112324400,7.744324462890625,0.1215362548828125,-1.0738677978515625,-0.166107177734375
1782858886122272500,7.7542724609375,0.0927276611328125,-1.0893096923828125,-0.1696929931640625
1782858886132252400,7.76425244140625,0.0902252197265625,-1.090179443359375,-0.1884613037109375
1782858886142200600,7.77420068359375,0.0872039794921875,-1.0847930908203125,-0.21343994140625
1782858886152149500,7.7841494140625,0.076141357421875,-1.076141357421875,-0.2230987548828125
1782858886162098400,7.794098388671875,0.0480804443359375,-1.0600128173828125,-0.216033935546875
1782858886172077300,7.804077392578125,0.0077056884765625,-1.0398406982421875,-0.1989898681640625
1782858886182026500,7.814026611328125,-0.028411865234375,-0.996124267578125,-0.1680450439453125
1782858886191975400,7.823975341796875,-0.0612640380859375,-0.9688568115234375,-0.1785430908203125
1782858886201923300,7.83392333984375,-0.0956573486328125,-0.9603271484375,-0.1856689453125
1782858886211902500,7.84390234375,-0.12799072265625,-0.956085205078125,-0.1822357177734375
1782858886221851600,7.8538515625,-0.1549072265625,-0.9694976806640625,-0.182861328125
1782858886231800600,7.863800537109375,-0.1617431640625,-0.9898529052734375,-0.178436279296875
1782858886241749500,7.87374951171875,-0.168701171875,-1.0053558349609375,-0.1762237548828125
1782858886251728600,7.883728759765625,-0.1671295166015625,-1.01361083984375,-0.184600830078125
1782858886261677600,7.893677490234375,-0.1522064208984375,-1.0129241943359375,-0.1977386474609375
1782858886271625500,7.90362548828125,-0.1441497802734375,-1.003204345703125,-0.2123260498046875
1782858886281574400,7.913574462890625,-0.13232421875,-1.0000152587890625,-0.2229156494140625
1782858886291553500,7.923553466796875,-0.120086669921875,-1.0029754638671875,-0.213287353515625
1782858886301502500,7.93350244140625,-0.1136932373046875,-1.014617919921875,-0.2036895751953125
1782858886311451400,7.943451416015625,-0.13201904296875,-0.9419403076171875,-0.1742706298828125
1782858886321400300,7.953400390625,-0.209442138671875,-0.88677978515625,-0.1345672607421875
1782858886331379500,7.96337939453125,-0.204254150390625,-1.114715576171875,-0.138397216796875
1782858886341328400,7.973328369140625,-0.1283416748046875,-1.056304931640625,-0.0956878662109375
1782858886351276300,7.9832763671875,-0.1267547607421875,-1.072967529296875,-0.1100006103515625
1782858886361225500,7.9932255859375,-0.1360626220703125,-1.076080322265625,-0.1112060546875
1782858886371204400,8.003204345703125,-0.1522064208984375,-1.06475830078125,-0.095001220703125
1782858886381153500,8.013153564453125,-0.16595458984375,-1.055877685546875,-0.073577880859375
1782858886391102500,8.0231025390625,-0.1713409423828125,-1.0410308837890625,-0.0566558837890625
1782858886401050600,8.033050537109375,-0.1709136962890625,-1.029083251953125,-0.0423431396484375
1782858886411030500,8.043030517578124,-0.1620025634765625,-1.0193023681640625,-0.02734375
1782858886420978400,8.052978515625,-0.153228759765625,-1.005950927734375,-0.013458251953125
1782858886430927600,8.062927734375,-0.142578125,-0.9908905029296875,-0.0023193359375
1782858886440876500,8.07287646484375,-0.1397552490234375,-0.9778289794921875,0.0001373291015625
1782858886450855400,8.08285546875,-0.1419830322265625,-0.9721527099609375,0.00152587890625
1782858886460804400,8.092804443359375,-0.1498870849609375,-0.96893310546875,0.0014495849609375
1782858886470753500,8.10275341796875,-0.1564178466796875,-0.961456298828125,0.0030364990234375
1782858886480701400,8.112701416015625,-0.1520843505859375,-0.9495849609375,0.0067596435546875
1782858886490681300,8.122681396484374,-0.141021728515625,-0.9359893798828125,0.0128936767578125
1782858886500629500,8.13262939453125,-0.138092041015625,-0.938507080078125,0.0202789306640625
1782858886510578400,8.142578369140624,-0.14813232421875,-0.9393463134765625,0.026947021484375
1782858886520527400,8.15252734375,-0.15966796875,-0.935516357421875,0.0258026123046875
1782858886530506500,8.162506591796875,-0.16448974609375,-0.9356689453125,0.0229339599609375
1782858886540455700,8.17245556640625,-0.15728759765625,-0.9312286376953125,0.028076171875
1782858886550403300,8.1824033203125,-0.1511993408203125,-0.92962646484375,0.0298309326171875
1782858886560352500,8.1923525390625,-0.144195556640625,-0.9281005859375,0.027587890625
1782858886570331600,8.20233154296875,-0.139312744140625,-0.92755126953125,0.032318115234375
1782858886580280600,8.212280517578124,-0.1445770263671875,-0.928436279296875,0.0450897216796875
1782858886590229500,8.2222294921875,-0.1493682861328125,-0.935943603515625,0.058197021484375
1782858886600178400,8.232178466796874,-0.14947509765625,-0.9486236572265625,0.067596435546875
1782858886610157600,8.242157470703125,-0.144073486328125,-0.9677276611328125,0.0703277587890625
1782858886620106500,8.2521064453125,-0.1314544677734375,-0.9853057861328125,0.0644073486328125
1782858886630054400,8.262054443359375,-0.11773681640625,-1.0001068115234375,0.05279541015625
1782858886640003300,8.27200341796875,-0.1074371337890625,-1.01031494140625,0.050750732421875
1782858886649982500,8.281982421875,-0.1067962646484375,-1.022735595703125,0.059417724609375
1782858886659931400,8.291931396484374,-0.1123046875,-1.0278778076171875,0.07452392578125
1782858886669880300,8.30188037109375,-0.118438720703125,-1.020599365234375,0.086395263671875
1782858886679829200,8.311829345703124,-0.1135101318359375,-1.005279541015625,0.1022491455078125
1782858886689808400,8.321808349609375,-0.1156463623046875,-0.969696044921875,0.135772705078125
1782858886699756300,8.33175634765625,-0.1345672607421875,-0.912689208984375,0.1849822998046875
1782858886709705500,8.34170556640625,-0.1522979736328125,-0.8848876953125,0.22369384765625
1782858886719654700,8.351654541015625,-0.154052734375,-0.8851318359375,0.2439727783203125
1782858886729633500,8.361633544921874,-0.140167236328125,-0.8708953857421875,0.254425048828125
1782858886739582500,8.37158251953125,-0.1343536376953125,-0.8627166748046875,0.260162353515625
1782858886749531400,8.381531494140624,-0.1431121826171875,-0.8575439453125,0.2535858154296875
1782858886759479600,8.3914794921875,-0.166473388671875,-0.8461456298828125,0.2372894287109375
1782858886769459500,8.40145947265625,-0.185699462890625,-0.8311920166015625,0.217742919921875
1782858886779407600,8.41140771484375,-0.2031402587890625,-0.8226165771484375,0.1783599853515625
1782858886789356500,8.4213564453125,-0.205810546875,-0.81219482421875,0.11553955078125
1782858886799305500,8.431305419921875,-0.176971435546875,-0.7901458740234375,0.04595947265625
1782858886809284400,8.441284423828124,-0.13421630859375,-0.772125244140625,-0.0334320068359375
1782858886819233500,8.451233642578124,-0.091888427734375,-0.7629852294921875,-0.0827178955078125
1782858886829182500,8.461182373046874,-0.022735595703125,-0.7435455322265625,-0.1054840087890625
1782858886839130400,8.47113037109375,0.0029144287109375,-0.7600860595703125,-0.167266845703125
1782858886849110300,8.4811103515625,0.0019378662109375,-0.808380126953125,-0.2344512939453125
1782858886859058400,8.491058349609375,0.02362060546875,-0.832763671875,-0.2740936279296875
1782858886869007600,8.501007568359375,0.0348358154296875,-0.8603057861328125,-0.28021240234375
1782858886878956500,8.51095654296875,0.0592041015625,-0.8748016357421875,-0.2527313232421875
1782858886888945200,8.520945068359374,0.100067138671875,-0.872314453125,-0.238311767578125
1782858886898894300,8.530894287109374,0.14202880859375,-0.8636932373046875,-0.239959716796875
1782858886908842200,8.54084228515625,0.196380615234375,-0.8179779052734375,-0.257232666015625
1782858886918791200,8.550791259765624,0.264556884765625,-0.73590087890625,-0.257965087890625
1782858886928770300,8.560770263671875,0.3161163330078125,-0.6780853271484375,-0.229248046875
1782858886938719200,8.57071923828125,0.3861846923828125,-0.6436614990234375,-0.21466064453125
1782858886948668200,8.580668212890625,0.439788818359375,-0.6177978515625,-0.2201080322265625
1782858886958617000,8.5906171875,0.503997802734375,-0.61627197265625,-0.19873046875
1782858886968596200,8.60059619140625,0.595672607421875,-0.5972747802734375,-0.1559906005859375
1782858886978545200,8.610545166015624,0.6171875,-0.61895751953125,-0.145843505859375
1782858886988493300,8.620493408203124,0.6328887939453125,-0.645263671875,-0.173370361328125
1782858886998442200,8.630442138671874,0.678070068359375,-0.60577392578125,-0.1689605712890625
1782858887008421000,8.640421142578125,0.809906005859375,-0.50213623046875,-0.090576171875
1782858887018370000,8.6503701171875,0.987579345703125,-0.385162353515625,-0.0214691162109375
1782858887028319200,8.6603193359375,1.0383453369140625,-0.3656463623046875,-0.0728607177734375
1782858887038267100,8.67026708984375,1.002197265625,-0.3509979248046875,-0.16253662109375
1782858887048247300,8.680247314453124,0.943695068359375,-0.2732391357421875,-0.2206573486328125
1782858887058195200,8.6901953125,0.9215240478515625,-0.104156494140625,-0.22869873046875
1782858887068144400,8.700144287109374,0.944610595703125,0.114532470703125,-0.2569427490234375
1782858887078093300,8.71009326171875,0.938232421875,0.2219696044921875,-0.3585205078125
1782858887088072200,8.720072265625,1.0095367431640625,0.248779296875,-0.4281158447265625
1782858887098021400,8.730021484375,1.139129638671875,0.2835235595703125,-0.4303131103515625
1782858887107970300,8.73997021484375,1.2122344970703125,0.32427978515625,-0.419342041015625
1782858887117918200,8.749918212890625,1.22357177734375,0.3907318115234375,-0.450408935546875
1782858887127898000,8.759898193359374,1.188232421875,0.41180419921875,-0.4858245849609375
1782858887137846300,8.76984619140625,1.195953369140625,0.402557373046875,-0.494171142578125
1782858887147795200,8.779795166015624,1.2391815185546875,0.417755126953125,-0.495880126953125
1782858887157744000,8.789744140625,1.2003326416015625,0.4404754638671875,-0.495147705078125
1782858887167723300,8.79972314453125,1.1466064453125,0.46234130859375,-0.4774017333984375
1782858887177672200,8.809672119140625,1.1238861083984375,0.4753265380859375,-0.4636993408203125
1782858887187620000,8.8196201171875,1.0934600830078125,0.4636383056640625,-0.4689788818359375
1782858887197569000,8.829569091796875,1.0699462890625,0.443634033203125,-0.4753265380859375
1782858887207548200,8.839548095703124,1.0631866455078125,0.4403076171875,-0.471038818359375
1782858887217497000,8.8494970703125,1.04803466796875,0.4449005126953125,-0.45733642578125
1782858887227446300,8.8594462890625,0.9993438720703125,0.4324798583984375,-0.4556427001953125
1782858887237395200,8.869395263671874,0.9517669677734375,0.4102325439453125,-0.4617767333984375
1782858887247374300,8.879374267578125,0.922637939453125,0.4091339111328125,-0.4675140380859375
1782858887257323300,8.8893232421875,0.8986663818359375,0.4083099365234375,-0.472076416015625
1782858887267271200,8.899271240234375,0.8820648193359375,0.40606689453125,-0.47161865234375
1782858887277220400,8.909220458984375,0.8648223876953125,0.4119873046875,-0.467315673828125
1782858887287199200,8.91919921875,0.847320556640625,0.4084320068359375,-0.4562530517578125
1782858887297148200,8.929148193359374,0.838592529296875,0.403076171875,-0.44482421875
1782858887307097000,8.93909716796875,0.831268310546875,0.407379150390625,-0.441253662109375
1782858887317076200,8.949076171875,0.8171234130859375,0.42071533203125,-0.4422760009765625
1782858887327025200,8.959025146484375,0.799224853515625,0.4378204345703125,-0.4522705078125
1782858887336974000,8.96897412109375,0.79766845703125,0.44781494140625,-0.4620819091796875
1782858887346922200,8.978922119140625,0.8187713623046875,0.4495697021484375,-0.4673309326171875
1782858887356901000,8.988901123046874,0.836029052734375,0.4342498779296875,-0.46588134765625
1782858887366850000,8.99885009765625,0.8475494384765625,0.4319000244140625,-0.4703826904296875
1782858887376799200,9.00879931640625,0.859710693359375,0.4515380859375,-0.4843292236328125
1782858887386748400,9.01874853515625,0.8834075927734375,0.4661712646484375,-0.502197265625
1782858887396727300,9.028727294921875,0.916046142578125,0.4660491943359375,-0.5057525634765625
1782858887406676200,9.03867626953125,0.9507293701171875,0.45709228515625,-0.509033203125
1782858887416624400,9.048624267578125,0.986846923828125,0.4420623779296875,-0.530059814453125
1782858887426573300,9.0585732421875,1.0027923583984375,0.409576416015625,-0.5587921142578125
1782858887436552200,9.06855224609375,1.0113983154296875,0.383575439453125,-0.575042724609375
1782858887446501400,9.07850146484375,1.00567626953125,0.3669891357421875,-0.5688629150390625
1782858887456450300,9.0884501953125,0.9714813232421875,0.3475799560546875,-0.5712127685546875
1782858887466399200,9.098399169921874,0.9458465576171875,0.319183349609375,-0.5687103271484375
1782858887476378000,9.108378173828125,0.9655609130859375,0.276519775390625,-0.5556182861328125
1782858887486327300,9.118327392578125,1.000396728515625,0.1845550537109375,-0.5527801513671875
1782858887496275200,9.128275146484375,1.020843505859375,0.123809814453125,-0.5921478271484375
1782858887506224000,9.13822412109375,1.02691650390625,0.13592529296875,-0.6403656005859375
1782858887516203300,9.148203369140624,1.0236358642578125,0.17095947265625,-0.628326416015625
1782858887526152200,9.158152099609374,0.98828125,0.1659088134765625,-0.601837158203125
1782858887536101000,9.16810107421875,0.9602813720703125,0.16156005859375,-0.5580902099609375
1782858887546049000,9.178049072265624,0.9290008544921875,0.137298583984375,-0.52984619140625
1782858887556029400,9.188029541015625,0.86224365234375,0.0469207763671875,-0.5534515380859375
1782858887565977300,9.197977294921875,0.8161773681640625,-0.0575408935546875,-0.57916259765625
1782858887575926300,9.20792626953125,0.8058624267578125,-0.137725830078125,-0.5957794189453125
1782858887585875200,9.217875244140625,0.7976226806640625,-0.1201934814453125,-0.607147216796875
1782858887595854300,9.227854248046874,0.8079833984375,-0.0578460693359375,-0.556427001953125
1782858887605803300,9.23780322265625,0.7291107177734375,-0.045989990234375,-0.510589599609375
1782858887615752200,9.247752197265624,0.56243896484375,-0.1207122802734375,-0.5411834716796875
1782858887625700400,9.257700439453124,0.468109130859375,-0.2289886474609375,-0.5653228759765625
1782858887635680300,9.26768017578125,0.4165191650390625,-0.31378173828125,-0.560089111328125
1782858887645628200,9.277628173828125,0.33135986328125,-0.390594482421875,-0.5695953369140625
1782858887655577000,9.2875771484375,0.2606964111328125,-0.43798828125,-0.582763671875
1782858887665526300,9.2975263671875,0.2093048095703125,-0.41375732421875,-0.6170806884765625
1782858887675505200,9.307505126953124,0.1599884033203125,-0.3259429931640625,-0.6589813232421875
1782858887685454000,9.3174541015625,0.0988616943359375,-0.2501983642578125,-0.6756744384765625
1782858887695402200,9.32740234375,-0.0211181640625,-0.244049072265625,-0.6894073486328125
1782858887705351200,9.33735107421875,-0.1531829833984375,-0.2922515869140625,-0.6903228759765625
1782858887715330000,9.347330078125,-0.2689208984375,-0.34765625,-0.68731689453125
1782858887725279200,9.357279296875,-0.3911590576171875,-0.38763427734375,-0.68853759765625
1782858887735228400,9.367228515625,-0.483306884765625,-0.4037322998046875,-0.6955718994140625
1782858887745177300,9.37717724609375,-0.515350341796875,-0.37994384765625,-0.6759796142578125
1782858887755156200,9.38715625,-0.555023193359375,-0.3156280517578125,-0.6540374755859375
1782858887765105200,9.397105224609374,-0.5998382568359375,-0.2584991455078125,-0.6411590576171875
1782858887775053300,9.40705322265625,-0.6209869384765625,-0.237030029296875,-0.6261444091796875
1782858887785002200,9.417002197265624,-0.6361236572265625,-0.1817779541015625,-0.589324951171875
1782858887794981000,9.426981201171875,-0.653839111328125,-0.104583740234375,-0.538604736328125
1782858887804930300,9.436930419921875,-0.692230224609375,-0.0333099365234375,-0.4652862548828125
1782858887814879200,9.446879150390625,-0.72149658203125,0.00732421875,-0.3741302490234375
1782858887824828200,9.456828125,-0.75042724609375,0.0331878662109375,-0.2984619140625
1782858887834807000,9.46680712890625,-0.770751953125,0.0373687744140625,-0.2491912841796875
1782858887844755200,9.476755126953124,-0.773468017578125,0.0053558349609375,-0.22509765625
1782858887854704000,9.4867041015625,-0.7638092041015625,-0.0104522705078125,-0.2291259765625
1782858887864653000,9.496653076171874,-0.7797088623046875,0.0151519775390625,-0.2436370849609375
1782858887874632200,9.506632080078125,-0.8314056396484375,0.0614166259765625,-0.2465362548828125
1782858887884581400,9.516581298828125,-0.9022369384765625,0.0971221923828125,-0.247161865234375
1782858887894570500,9.526570556640625,-0.9425048828125,0.1051025390625,-0.2429351806640625
1782858887904518400,9.536518310546874,-0.9237213134765625,0.1047210693359375,-0.261505126953125
1782858887914498600,9.54649853515625,-0.874267578125,0.0952301025390625,-0.28704833984375
1782858887924446500,9.556446533203125,-0.82366943359375,0.0841064453125,-0.3086700439453125
1782858887934395600,9.566395751953126,-0.8004608154296875,0.104766845703125,-0.3389129638671875
1782858887944344600,9.576344482421876,-0.812774658203125,0.1371002197265625,-0.3688812255859375
1782858887954323500,9.586323486328125,-0.843353271484375,0.1575927734375,-0.3857574462890625
1782858887964272400,9.5962724609375,-0.8733367919921875,0.156646728515625,-0.388946533203125
1782858887974221600,9.6062216796875,-0.879974365234375,0.1472015380859375,-0.3783721923828125
1782858887984169500,9.61616943359375,-0.8552093505859375,0.1587066650390625,-0.37432861328125
1782858887994149400,9.6261494140625,-0.83477783203125,0.1854400634765625,-0.3928070068359375
1782858888004097500,9.63609765625,-0.9044647216796875,0.211822509765625,-0.3907012939453125
1782858888014046500,9.64604638671875,-1.1817779541015625,0.219024658203125,-0.380035400390625
1782858888023995400,9.655995361328126,-1.4111480712890625,0.1934967041015625,-0.361785888671875
1782858888033974500,9.665974609375,-1.1880950927734375,0.1893310546875,-0.289154052734375
1782858888043923500,9.67592333984375,-1.14056396484375,0.1844024658203125,-0.2716522216796875
1782858888053871400,9.685871337890624,-1.07366943359375,0.145294189453125,-0.288299560546875
1782858888063820300,9.6958203125,-1.0499114990234375,0.13592529296875,-0.2960052490234375
1782858888073799400,9.70579931640625,-1.0824127197265625,0.1235198974609375,-0.292449951171875
1782858888083748600,9.71574853515625,-1.1414642333984375,0.094085693359375,-0.275360107421875
1782858888093697500,9.725697509765626,-1.249603271484375,0.0465087890625,-0.271514892578125
1782858888103646500,9.735646484375,-1.2574310302734375,-0.0171661376953125,-0.249053955078125
1782858888113625600,9.74562548828125,-1.188629150390625,-0.0765380859375,-0.2472686767578125
1782858888123574500,9.755574462890625,-1.1620025634765625,-0.0268402099609375,-0.257659912109375
1782858888133522400,9.7655224609375,-1.2426300048828125,0.1397247314453125,-0.2126922607421875
1782858888143471400,9.775471435546875,-1.2503814697265625,0.2487640380859375,-0.210845947265625
1782858888153450500,9.785450439453125,-1.196044921875,0.300628662109375,-0.2501678466796875
1782858888163399400,9.7953994140625,-1.1919403076171875,0.3624267578125,-0.25274658203125
1782858888173348400,9.805348388671876,-1.2296142578125,0.42041015625,-0.237701416015625
1782858888183296500,9.815296630859375,-1.2975616455078125,0.4772491455078125,-0.236053466796875
1782858888193276400,9.8252763671875,-1.375152587890625,0.52606201171875,-0.233367919921875
1782858888203224300,9.835224365234374,-1.384307861328125,0.5549468994140625,-0.2252349853515625
1782858888213173500,9.845173583984375,-1.3420257568359375,0.5924224853515625,-0.2425994873046875
1782858888223122400,9.855122314453125,-1.3043975830078125,0.6612091064453125,-0.270965576171875
1782858888233101300,9.865101318359375,-1.2787322998046875,0.7467041015625,-0.2834625244140625
1782858888243050500,9.875050537109376,-1.237945556640625,0.7880096435546875,-0.24627685546875
1782858888252999400,9.88499951171875,-1.155487060546875,0.814300537109375,-0.1858673095703125
1782858888262947600,9.894947509765625,-1.0634765625,0.836273193359375,-0.16265869140625
1782858888272927500,9.904927490234375,-0.9839019775390625,0.777923583984375,-0.1666107177734375
1782858888282875600,9.914875732421875,-0.910552978515625,0.6422576904296875,-0.1452178955078125
1782858888292824600,9.924824462890625,-0.852691650390625,0.4586029052734375,-0.1180419921875
1782858888302773500,9.9347734375,-0.82659912109375,0.289764404296875,-0.087799072265625
1782858888312752400,9.94475244140625,-0.8152923583984375,0.1768646240234375,-0.035919189453125
1782858888322701600,9.95470166015625,-0.8517608642578125,0.112060546875,0.0289154052734375
1782858888332650500,9.964650390625,-1.2767333984375,0.0753936767578125,0.0732421875
1782858888342598400,9.974598388671875,-1.46685791015625,0.0523834228515625,0.0983428955078125
1782858888352577500,9.98457763671875,-1.0597686767578125,0.0471649169921875,0.0596923828125
1782858888362526500,9.9945263671875,-0.8253173828125,0.06207275390625,0.0160369873046875
1782858888372475400,10.004475341796875,-0.7680511474609375,0.0482635498046875,-0.0382232666015625
1782858888382424300,10.01442431640625,-0.89581298828125,-0.0877532958984375,-0.0642242431640625
1782858888392403500,10.024403564453126,-1.059051513671875,-0.3546142578125,0.015655517578125
1782858888402352600,10.0343525390625,-1.0525665283203125,-0.4071197509765625,0.0398406982421875
1782858888412300500,10.044300537109375,-0.9471588134765625,-0.3620452880859375,-0.07171630859375
1782858888422249500,10.05424951171875,-0.810516357421875,-0.2902984619140625,-0.1098175048828125
1782858888432228600,10.064228515625,-0.6889801025390625,-0.284912109375,-0.0752105712890625
1782858888442177500,10.074177490234375,-0.6637725830078125,-0.4080352783203125,-0.0969696044921875
1782858888452126500,10.08412646484375,-0.628509521484375,-0.4523162841796875,-0.0420989990234375
1782858888462075400,10.094075439453125,-0.632110595703125,-0.43914794921875,-0.02325439453125
1782858888472054500,10.104054443359376,-0.6029510498046875,-0.4513702392578125,-0.0128631591796875
1782858888482003500,10.11400341796875,-0.6134490966796875,-0.4938812255859375,0.0190582275390625
1782858888491951400,10.123951416015625,-0.769805908203125,-0.572357177734375,0.0255126953125
1782858888501900500,10.133900634765626,-0.9232330322265625,-0.6548309326171875,0.02325439453125
1782858888511879400,10.14387939453125,-0.868194580078125,-0.7197418212890625,0.0422515869140625
1782858888521828400,10.153828369140625,-0.7297210693359375,-0.702880859375,0.0601348876953125
1782858888531777300,10.16377734375,-0.69073486328125,-0.62432861328125,0.036102294921875
1782858888541725400,10.173725341796874,-0.71087646484375,-0.565277099609375,-0.000335693359375
1782858888551705300,10.183705322265626,-0.717926025390625,-0.5388031005859375,-0.030792236328125
1782858888561653200,10.1936533203125,-0.7164459228515625,-0.526824951171875,-0.0644073486328125
1782858888571602700,10.203602783203126,-0.729034423828125,-0.5293121337890625,-0.093994140625
1782858888581551600,10.213551513671876,-0.748931884765625,-0.5758514404296875,-0.1024017333984375
1782858888591530500,10.223530517578125,-0.7207183837890625,-0.6607208251953125,-0.097442626953125
1782858888601479400,10.2334794921875,-0.6658935546875,-0.7365264892578125,-0.087158203125
1782858888611428600,10.2434287109375,-0.6256103515625,-0.750640869140625,-0.075531005859375
1782858888621376500,10.25337646484375,-0.58404541015625,-0.739349365234375,-0.0554351806640625
1782858888631356400,10.2633564453125,-0.546356201171875,-0.7204742431640625,-0.046539306640625
1782858888641304600,10.2733046875,-0.5373992919921875,-0.6850128173828125,-0.0535736083984375
1782858888651253500,10.28325341796875,-0.5363006591796875,-0.655426025390625,-0.054412841796875
1782858888661202400,10.293202392578126,-0.53070068359375,-0.6407623291015625,-0.039459228515625
1782858888671181600,10.303181640625,-0.5274810791015625,-0.646697998046875,-0.0134735107421875
1782858888681130500,10.313130615234375,-0.5366363525390625,-0.667236328125,0.006683349609375
1782858888691078400,10.323078369140624,-0.53802490234375,-0.6786651611328125,0.0107421875
1782858888701027300,10.33302734375,-0.526397705078125,-0.6794891357421875,0.0055389404296875
1782858888711006500,10.34300634765625,-0.5170135498046875,-0.676116943359375,0.002838134765625
1782858888720955400,10.352955322265625,-0.5202178955078125,-0.6635284423828125,0.0075836181640625
1782858888730904600,10.362904541015626,-0.527374267578125,-0.66302490234375,0.017303466796875
1782858888740853500,10.372853515625,-0.5293426513671875,-0.6811370849609375,0.0214080810546875
1782858888750832600,10.38283251953125,-0.5297698974609375,-0.70745849609375,0.0227203369140625
1782858888760781600,10.392781494140625,-0.5334930419921875,-0.73602294921875,0.0194549560546875
1782858888770729500,10.4027294921875,-0.5406036376953125,-0.7498779296875,0.0111236572265625
1782858888780678400,10.412678466796875,-0.5345306396484375,-0.7463531494140625,0.002838134765625
1782858888790657500,10.422657470703125,-0.5261077880859375,-0.73870849609375,0.000396728515625
1782858888800606500,10.4326064453125,-0.5229034423828125,-0.7392120361328125,-0.0000152587890625
1782858888810555400,10.442555419921876,-0.53033447265625,-0.7491912841796875,0.001312255859375
1782858888820504300,10.45250439453125,-0.54364013671875,-0.7625579833984375,-0.002044677734375
1782858888830483500,10.4624833984375,-0.55523681640625,-0.76788330078125,-0.002716064453125
1782858888840431400,10.472431396484374,-0.559600830078125,-0.762847900390625,-0.003326416015625
1782858888850380500,10.482380615234375,-0.5674896240234375,-0.7631683349609375,-0.0093231201171875
1782858888860329500,10.49232958984375,-0.5706024169921875,-0.763275146484375,-0.0177764892578125
1782858888870308400,10.502308349609375,-0.56854248046875,-0.7639923095703125,-0.024871826171875
1782858888880257300,10.51225732421875,-0.5586395263671875,-0.764434814453125,-0.0345916748046875
1782858888890206500,10.52220654296875,-0.54583740234375,-0.75921630859375,-0.040496826171875
1782858888900165400,10.532165283203126,-0.5394287109375,-0.747711181640625,-0.0428314208984375
1782858888910145300,10.542145263671875,-0.5344390869140625,-0.740081787109375,-0.0451507568359375
1782858888920093200,10.55209326171875,-0.5258026123046875,-0.7373046875,-0.04669189453125
1782858888930042400,10.56204248046875,-0.5319061279296875,-0.73785400390625,-0.048553466796875
1782858888939991300,10.5719912109375,-0.54473876953125,-0.741729736328125,-0.0442047119140625
1782858888949970200,10.58197021484375,-0.5536346435546875,-0.742095947265625,-0.0323638916015625
1782858888959919400,10.59191943359375,-0.559112548828125,-0.7400970458984375,-0.0225067138671875
1782858888969868500,10.60186865234375,-0.5635833740234375,-0.74285888671875,-0.0164031982421875
1782858888979816400,10.61181640625,-0.5583648681640625,-0.752899169921875,-0.01593017578125
1782858888989796400,10.62179638671875,-0.5445098876953125,-0.7665252685546875,-0.0159759521484375
1782858888999744500,10.63174462890625,-0.533172607421875,-0.7764129638671875,-0.017120361328125
1782858889009693400,10.641693359375,-0.5361328125,-0.78570556640625,-0.0170440673828125
1782858889019642400,10.651642333984375,-0.5469207763671875,-0.787445068359375,-0.010528564453125
1782858889029621200,10.661621337890624,-0.54901123046875,-0.7852783203125,-0.00445556640625
1782858889039570400,10.6715703125,-0.5474853515625,-0.7857513427734375,-0.000946044921875
1782858889049518300,10.681518310546876,-0.5536041259765625,-0.7889404296875,-0.0002899169921875
1782858889059467300,10.69146728515625,-0.5596923828125,-0.7963104248046875,0.002349853515625
1782858889069446400,10.7014462890625,-0.57244873046875,-0.8046875,0.0046844482421875
1782858889079395300,10.711395263671875,-0.5904541015625,-0.80828857421875,0.0023956298828125
1782858889089344300,10.72134423828125,-0.603546142578125,-0.80731201171875,-0.0058746337890625
1782858889099323400,10.731323486328124,-0.6141815185546875,-0.812225341796875,-0.0088653564453125
1782858889109272300,10.741272216796874,-0.6258392333984375,-0.8232574462890625,-0.0059967041015625
1782858889119221500,10.751221435546874,-0.6358642578125,-0.8290863037109375,-0.0077972412109375
1782858889129169400,10.76116943359375,-0.6505584716796875,-0.8276214599609375,-0.010498046875
1782858889139149300,10.7711494140625,-0.6603546142578125,-0.8233795166015625,-0.015045166015625
1782858889149097500,10.781097412109375,-0.6668548583984375,-0.820404052734375,-0.021453857421875
1782858889159046400,10.79104638671875,-0.6759796142578125,-0.8173065185546875,-0.0252838134765625
1782858889168995300,10.800995361328125,-0.691925048828125,-0.81768798828125,-0.0258941650390625
1782858889178974500,10.810974365234374,-0.7087860107421875,-0.82012939453125,-0.0265960693359375
1782858889188923400,10.82092333984375,-0.725341796875,-0.8125152587890625,-0.0225677490234375
1782858889198871300,10.830871337890626,-0.7378997802734375,-0.7960357666015625,-0.0155029296875
1782858889208820200,10.8408203125,-0.7381134033203125,-0.7848052978515625,-0.001251220703125
1782858889218799400,10.85079931640625,-0.7382965087890625,-0.777130126953125,0.0157623291015625
1782858889228748300,10.860748291015625,-0.7597198486328125,-0.7733001708984375,0.03350830078125
1782858889238697200,10.870697265625,-0.7949066162109375,-0.7669525146484375,0.0435791015625
1782858889248646100,10.880646240234375,-0.83258056640625,-0.7506561279296875,0.05084228515625
1782858889258625300,10.890625244140624,-0.86126708984375,-0.728546142578125,0.054351806640625
1782858889268574200,10.90057421875,-0.87762451171875,-0.6989288330078125,0.0552978515625
1782858889278522400,10.9105224609375,-0.8883056640625,-0.6610260009765625,0.048675537109375
1782858889288471600,10.920471435546874,-0.8766021728515625,-0.622650146484375,0.035247802734375
1782858889298450200,10.9304501953125,-0.8592529296875,-0.6072845458984375,0.0298004150390625
1782858889308399400,10.9403994140625,-0.8586578369140625,-0.6194915771484375,0.02862548828125
1782858889318348300,10.950348388671875,-0.8574676513671875,-0.64788818359375,0.0239715576171875
1782858889328296400,10.96029638671875,-0.8505096435546875,-0.662994384765625,0.027435302734375
1782858889338276400,10.9702763671875,-0.8553619384765625,-0.6583099365234375,0.03045654296875
1782858889348224500,10.980224609375,-0.856536865234375,-0.6463775634765625,0.029693603515625
1782858889358173400,10.99017333984375,-0.8435516357421875,-0.6344146728515625,0.02294921875
1782858889368122400,11.000122314453124,-0.824005126953125,-0.6333160400390625,0.0150146484375
1782858889378101200,11.010101318359375,-0.8058013916015625,-0.6400146484375,0.0102386474609375
1782858889388050400,11.020050537109375,-0.789337158203125,-0.6485595703125,0.0048065185546875
1782858889397999400,11.029999267578125,-0.7685699462890625,-0.6507568359375,0.00213623046875
1782858889407947300,11.039947265625,-0.746063232421875,-0.6450958251953125,0.0054779052734375
1782858889417927200,11.04992724609375,-0.73333740234375,-0.63916015625,0.017608642578125
1782858889427875300,11.059875244140626,-0.7291259765625,-0.6385498046875,0.0356903076171875
1782858889437824300,11.06982421875,-0.7337799072265625,-0.638092041015625,0.0521087646484375
1782858889447773400,11.0797734375,-0.74224853515625,-0.6355438232421875,0.0683746337890625
1782858889457752300,11.08975244140625,-0.7491455078125,-0.6343231201171875,0.085784912109375
1782858889467701500,11.099701416015625,-0.756500244140625,-0.6326751708984375,0.1004180908203125
1782858889477650400,11.109650390625,-0.7663726806640625,-0.6302642822265625,0.1079864501953125
1782858889487598300,11.119598388671875,-0.7730712890625,-0.6251373291015625,0.103973388671875
1782858889497577500,11.129577392578126,-0.7748870849609375,-0.6086273193359375,0.096527099609375
1782858889507526400,11.1395263671875,-0.783477783203125,-0.584014892578125,0.089447021484375
1782858889517475300,11.149475341796874,-0.79388427734375,-0.5593719482421875,0.079071044921875
1782858889527424300,11.15942431640625,-0.7985382080078125,-0.5406494140625,0.0693206787109375
1782858889537403400,11.1694033203125,-0.8019561767578125,-0.530181884765625,0.060791015625
1782858889547352300,11.179352294921875,-0.7993927001953125,-0.5244598388671875,0.0550689697265625
1782858889557300200,11.18930029296875,-0.789794921875,-0.5214691162109375,0.054656982421875
1782858889567249400,11.19924951171875,-0.78338623046875,-0.527099609375,0.0579071044921875
1782858889577228300,11.209228271484376,-0.7820281982421875,-0.539886474609375,0.0572967529296875
1782858889587177200,11.21917724609375,-0.7734527587890625,-0.54931640625,0.0565185546875
1782858889597126100,11.229126220703124,-0.756103515625,-0.5540313720703125,0.0507354736328125
1782858889607075300,11.239075439453124,-0.7384796142578125,-0.5635986328125,0.040191650390625
1782858889617054500,11.249054443359375,-0.730377197265625,-0.5838165283203125,0.0315704345703125
1782858889627003400,11.25900341796875,-0.718719482421875,-0.602203369140625,0.0317840576171875
1782858889636951600,11.26895166015625,-0.703521728515625,-0.612518310546875,0.0395660400390625
1782858889646900500,11.278900390625,-0.6940155029296875,-0.621368408203125,0.04974365234375
1782858889656879400,11.28887939453125,-0.693817138671875,-0.6392364501953125,0.0608673095703125
1782858889666828300,11.298828369140624,-0.6902313232421875,-0.6634674072265625,0.0728912353515625
1782858889676777500,11.308777587890624,-0.6851959228515625,-0.6802978515625,0.0852813720703125
1782858889686725400,11.318725341796876,-0.6867828369140625,-0.6896209716796875,0.0915374755859375
1782858889696705300,11.328705322265625,-0.6890869140625,-0.6959686279296875,0.093902587890625
1782858889706653400,11.3386533203125,-0.6954803466796875,-0.6983184814453125,0.094573974609375
1782858889716602400,11.348602294921875,-0.7057037353515625,-0.6947784423828125,0.087158203125
1782858889726551300,11.35855126953125,-0.71075439453125,-0.6867523193359375,0.080078125
1782858889736530200,11.3685302734375,-0.7124786376953125,-0.676513671875,0.073944091796875
1782858889746479400,11.378479248046874,-0.7154388427734375,-0.666229248046875,0.0701904296875
1782858889756428300,11.38842822265625,-0.7129058837890625,-0.6635589599609375,0.068267822265625
1782858889766376200,11.398376220703126,-0.706390380859375,-0.6654815673828125,0.0682830810546875
1782858889776356400,11.4083564453125,-0.7061614990234375,-0.66656494140625,0.0686492919921875
1782858889786304300,11.41830419921875,-0.7045440673828125,-0.667327880859375,0.0657958984375
1782858889796253400,11.42825341796875,-0.7012939453125,-0.667205810546875,0.06640625
1782858889806202400,11.438202392578125,-0.702850341796875,-0.67022705078125,0.06597900390625
1782858889816181500,11.448181396484374,-0.7097625732421875,-0.6793670654296875,0.06671142578125
1782858889826130400,11.45813037109375,-0.7257843017578125,-0.693084716796875,0.064605712890625
1782858889836078300,11.468078369140626,-0.739013671875,-0.7064208984375,0.052581787109375
1782858889846027300,11.47802734375,-0.7357330322265625,-0.707916259765625,0.040252685546875
1782858889856006400,11.48800634765625,-0.7301788330078125,-0.7031402587890625,0.0280609130859375
1782858889865955300,11.497955322265625,-0.729705810546875,-0.7047882080078125,0.019439697265625
1782858889875904300,11.507904296875,-0.7344207763671875,-0.7145538330078125,0.0147705078125
1782858889885853200,11.517853271484375,-0.738128662109375,-0.7310028076171875,0.007354736328125
1782858889895833600,11.52783349609375,-0.7330169677734375,-0.7494049072265625,-0.0042572021484375
1782858889905782500,11.537782470703124,-0.72540283203125,-0.7625732421875,-0.0090484619140625
1782858889915730400,11.54773046875,-0.7223663330078125,-0.7707977294921875,-0.0101318359375
1782858889925679400,11.557679443359374,-0.71966552734375,-0.7801971435546875,-0.0108184814453125
1782858889935658500,11.567658447265625,-0.717559814453125,-0.7897796630859375,-0.0124359130859375
1782858889945607400,11.577607421875,-0.7176361083984375,-0.7980804443359375,-0.0184173583984375
1782858889955556400,11.587556396484375,-0.7206573486328125,-0.8082427978515625,-0.02581787109375
1782858889965505300,11.59750537109375,-0.722442626953125,-0.815521240234375,-0.0326995849609375
1782858889975484400,11.607484375,-0.71856689453125,-0.813812255859375,-0.037445068359375
1782858889985432300,11.617432373046874,-0.7122650146484375,-0.80987548828125,-0.0416412353515625
1782858889995381200,11.62738134765625,-0.7126312255859375,-0.8132171630859375,-0.0430145263671875
1782858890005330700,11.63733056640625,-0.707427978515625,-0.8244171142578125,-0.042236328125
1782858890015309600,11.6473095703125,-0.6927490234375,-0.848724365234375,-0.0343017578125
1782858890025258500,11.657258544921875,-0.67852783203125,-0.8773193359375,-0.03082275390625
1782858890035207400,11.66720751953125,-0.6735382080078125,-0.8931884765625,-0.0312957763671875
1782858890045155600,11.677155517578125,-0.669158935546875,-0.8978271484375,-0.0229949951171875
1782858890055135500,11.687135498046874,-0.6711578369140625,-0.901580810546875,-0.009735107421875
1782858890065083400,11.69708349609375,-0.6904144287109375,-0.90533447265625,-0.0038604736328125
1782858890075032600,11.707032470703124,-0.71343994140625,-0.9014434814453125,-0.0137481689453125
1782858890084981500,11.7169814453125,-0.72528076171875,-0.8819427490234375,-0.036224365234375
1782858890094960400,11.72696044921875,-0.7183380126953125,-0.85028076171875,-0.066864013671875
1782858890104909300,11.736909423828125,-0.7038116455078125,-0.8133544921875,-0.0922698974609375
1782858890114858500,11.7468583984375,-0.6948699951171875,-0.7746734619140625,-0.1110992431640625
1782858890124806400,11.756806396484375,-0.6969451904296875,-0.738311767578125,-0.1245269775390625
1782858890134786300,11.766786376953124,-0.7047119140625,-0.7110748291015625,-0.1327056884765625
1782858890144734500,11.776734375,-0.7142333984375,-0.691864013671875,-0.1378326416015625
1782858890154683400,11.786683349609374,-0.7157440185546875,-0.6737213134765625,-0.14190673828125
1782858890164632600,11.796632568359374,-0.70361328125,-0.649505615234375,-0.148101806640625
1782858890174611500,11.806611572265625,-0.69610595703125,-0.6223297119140625,-0.1561431884765625
1782858890184560600,11.816560546875,-0.6912384033203125,-0.6046600341796875,-0.1607208251953125
1782858890194508500,11.826508544921875,-0.6848297119140625,-0.5924835205078125,-0.1626434326171875
1782858890204457500,11.83645751953125,-0.674560546875,-0.58563232421875,-0.1661224365234375
1782858890214436600,11.8464365234375,-0.6650543212890625,-0.577972412109375,-0.1674652099609375
1782858890224385500,11.856385498046874,-0.6508941650390625,-0.56658935546875,-0.1674957275390625
1782858890234334500,11.86633447265625,-0.641693115234375,-0.566192626953125,-0.1639404296875
1782858890244283400,11.876283447265624,-0.644134521484375,-0.5802154541015625,-0.158477783203125
1782858890254262500,11.886262451171875,-0.6425018310546875,-0.5946044921875,-0.156707763671875
1782858890264211500,11.89621142578125,-0.6392822265625,-0.607452392578125,-0.151763916015625
1782858890274159400,11.906159423828125,-0.6356048583984375,-0.6209716796875,-0.1482086181640625
1782858890284108300,11.9161083984375,-0.6328582763671875,-0.6289520263671875,-0.139129638671875
1782858890294087400,11.92608740234375,-0.63873291015625,-0.631744384765625,-0.1310272216796875
1782858890304036400,11.936036376953124,-0.641448974609375,-0.6305084228515625,-0.1244049072265625
1782858890313985500,11.945985595703124,-0.6450653076171875,-0.62615966796875,-0.1165618896484375
1782858890323933400,11.955933349609374,-0.6530609130859375,-0.629669189453125,-0.106689453125
1782858890333913600,11.96591357421875,-0.6504974365234375,-0.6317901611328125,-0.0989227294921875
1782858890343861500,11.975861572265625,-0.651580810546875,-0.6360626220703125,-0.089111328125
1782858890353810400,11.985810546875,-0.6551361083984375,-0.6410064697265625,-0.0847930908203125
1782858890363759600,11.995759521484375,-0.65679931640625,-0.6462860107421875,-0.0796966552734375
1782858890373738500,12.005738525390624,-0.646728515625,-0.6561431884765625,-0.092620849609375
1782858890383687400,12.0156875,-0.641082763671875,-0.629669189453125,-0.106109619140625
1782858890393636400,12.02563623046875,-0.5582275390625,-0.57928466796875,-0.0633392333984375
1782858890403584500,12.03558447265625,-0.446746826171875,-0.610260009765625,0.11920166015625
1782858890413564400,12.045564453125,-0.680511474609375,-0.763397216796875,0.1400909423828125
1782858890423512600,12.0555126953125,-0.700469970703125,-0.7852783203125,0.023162841796875
1782858890433461500,12.06546142578125,-0.6006011962890625,-0.70501708984375,-0.0282745361328125
1782858890443410400,12.075410400390625,-0.6090240478515625,-0.6820068359375,-0.0345306396484375
1782858890453389300,12.085389404296874,-0.6501922607421875,-0.6927032470703125,-0.0205841064453125
1782858890463338500,12.09533837890625,-0.643646240234375,-0.686798095703125,-0.030181884765625
1782858890473287700,12.10528759765625,-0.633575439453125,-0.6779632568359375,-0.043121337890625
1782858890483235300,12.1152353515625,-0.6462860107421875,-0.6898956298828125,-0.03485107421875
1782858890493214500,12.12521435546875,-0.6428375244140625,-0.697723388671875,0.0101165771484375
1782858890503163600,12.13516357421875,-0.6012420654296875,-0.701904296875,0.0469512939453125
