time,seconds_elapsed,z,y,x
1782858878628935400,0.260935302734375,0.3931082785129547,-0.098721444606781,-0.9757468104362488
1782858878638884400,0.27088427734375,0.47436150908470154,-0.2396470308303833,-0.9990067481994629
1782858878648863200,0.28086328125,0.5522955060005188,-0.485219269990921,-1.0103148221969604
1782858878658811400,0.290811279296875,0.7508129477500916,-0.618986189365387,-1.1260608434677124
1782858878668760300,0.30076025390625,0.9723943471908569,-0.5025413036346436,-1.2609553337097168
1782858878678709200,0.310709228515625,1.1022565364837646,-0.300364226102829,-1.261366605758667
1782858878688688400,0.3206884765625,1.1628509759902954,-0.17266219854354858,-1.1386593580245972
1782858878698637300,0.33063720703125,1.1740765571594238,-0.02613939344882965,-0.920011043548584
1782858878708586500,0.34058642578125,1.1472140550613403,0.16371309757232666,-0.6507758498191833
1782858878718534100,0.3505341796875,1.100419044494629,0.29659828543663025,-0.35271257162094116
1782858878728514600,0.3605146484375,1.0190520286560059,0.394611120223999,-0.04290439188480377
1782858878738462500,0.37046240234375,0.9281958341598511,0.4257219731807709,0.2544594705104828
1782858878748411400,0.380411376953125,0.8177766799926758,0.2909393906593323,0.47352150082588196
1782858878758360300,0.3903603515625,0.7070178985595703,0.09435106068849564,0.6102414131164551
1782858878768339500,0.40033935546875,0.6682782173156738,-0.17774276435375214,0.6841129660606384
1782858878778288400,0.410288330078125,0.6901901960372925,-0.36520156264305115,0.7378438115119934
1782858878788237300,0.4202373046875,0.7017738819122314,-0.3377465009689331,0.7828019261360168
1782858878798185500,0.430185546875,0.6718049645423889,-0.0700995922088623,0.8355992436408997
1782858878808165400,0.440165283203125,0.6133009195327759,0.31416577100753784,0.8657858967781067
1782858878818113300,0.45011328125,0.5305813550949097,0.5842738747596741,0.8347970843315125
1782858878828062200,0.460062255859375,0.41965991258621216,0.615957498550415,0.7580932378768921
1782858878838011400,0.470011474609375,0.25270894169807434,0.4606373906135559,0.6453216671943665
1782858878847990300,0.479990234375,0.014936871826648712,0.22687362134456635,0.5067747235298157
1782858878857939200,0.489939208984375,-0.28545355796813965,-0.1362360268831253,0.16213440895080566
1782858878867887400,0.499887451171875,-0.5783584117889404,-0.45935148000717163,-0.40687501430511475
1782858878877836300,0.509836181640625,-0.8211630582809448,-0.694953441619873,-1.0505332946777344
1782858878887848700,0.5198486328125,-0.9476826190948486,-0.9638687968254089,-1.7108116149902344
1782858878897797600,0.529797607421875,-0.7794603109359741,-1.4777894020080566,-2.3629093170166016
1782858878907746600,0.53974658203125,-0.5966060757637024,-1.875780463218689,-2.88065505027771
1782858878917725400,0.549725341796875,-0.4492935240268707,-2.0675718784332275,-3.2426416873931885
1782858878927674600,0.559674560546875,-0.3066423535346985,-1.9792102575302124,-3.4671711921691895
1782858878937623600,0.56962353515625,-0.2854853570461273,-1.1901987791061401,-3.635014533996582
1782858878947571500,0.579571533203125,-0.30482763051986694,-0.07437875866889954,-3.506639242172241
1782858878957551400,0.58955126953125,-0.385908305644989,1.1980950832366943,-3.2711617946624756
1782858878967499500,0.59949951171875,-0.4822782278060913,2.1136999130249023,-3.0267791748046875
1782858878977448400,0.609448486328125,-0.5541452765464783,2.403686046600342,-2.9322850704193115
1782858878987397400,0.6193974609375,-0.41420286893844604,1.5165053606033325,-2.8603017330169678
1782858878997376500,0.62937646484375,-0.06935769319534302,0.2804390788078308,-2.479179859161377
1782858879007325400,0.639325439453125,0.20965343713760376,-0.31603044271469116,-2.003995656967163
1782858879017273300,0.6492734375,0.4791337549686432,-0.7865715026855469,-1.5880353450775146
1782858879027222300,0.65922216796875,0.6853098273277283,-0.9642589688301086,-1.4550557136535645
1782858879037201400,0.669201416015625,0.8926492929458618,-1.4908949136734009,-1.4894920587539673
1782858879047150600,0.679150634765625,1.093267560005188,-1.9266890287399292,-1.582689642906189
1782858879057099500,0.689099609375,1.2854691743850708,-2.166212797164917,-1.657142162322998
1782858879067048400,0.69904833984375,1.5584772825241089,-2.25207257270813,-1.568383812904358
1782858879077027600,0.709027587890625,1.8126270771026611,-1.7125402688980103,-1.2946341037750244
1782858879086976500,0.7189765625,2.0372490882873535,-1.8572628498077393,-1.0614005327224731
1782858879096924400,0.72892431640625,2.162081718444824,-1.7437429428100586,-0.7321228981018066
1782858879106873600,0.73887353515625,2.149298906326294,-1.9514093399047852,-0.4324115812778473
1782858879116852500,0.7488525390625,2.071992874145508,-2.4273154735565186,-0.21600250899791718
1782858879126801400,0.758801513671875,2.0456113815307617,-3.1348958015441895,-0.061706408858299255
1782858879136750300,0.768750244140625,2.128404140472412,-3.993873357772827,0.05115159600973129
1782858879146698500,0.778698486328125,2.276928663253784,-4.905905246734619,0.1272634118795395
1782858879156678400,0.788678466796875,2.4530277252197266,-5.756254196166992,0.2293391227722168
1782858879166626600,0.79862646484375,2.6134042739868164,-6.449666500091553,0.3754963278770447
1782858879176575500,0.808575439453125,2.716435194015503,-6.843708038330078,0.548713207244873
1782858879186524700,0.818524658203125,2.775266408920288,-6.821686267852783,0.7502204775810242
1782858879196503300,0.82850341796875,2.827012300491333,-6.537457466125488,0.9648115634918213
1782858879206452700,0.83845263671875,2.9678823947906494,-6.307519435882568,1.195550560951233
1782858879216401700,0.848401611328125,3.2356014251708984,-6.251064777374268,1.4360265731811523
1782858879226349600,0.858349609375,3.603696346282959,-6.270812034606934,1.620896816253662
1782858879236329500,0.86832958984375,3.9930226802825928,-6.188363075256348,1.7440621852874756
1782858879246277600,0.878277587890625,4.302494525909424,-6.019250869750977,1.8225524425506592
1782858879256226600,0.8882265625,4.42759895324707,-5.767246723175049,1.8547471761703491
1782858879266175500,0.898175537109375,4.35706090927124,-5.417022705078125,1.92603600025177
1782858879276154600,0.908154541015625,4.12519645690918,-5.077705383300781,2.0540857315063477
1782858879286103600,0.918103515625,3.779609441757202,-4.822917461395264,2.2123680114746094
1782858879296052500,0.928052490234375,3.438383102416992,-4.567671775817871,2.34624981880188
1782858879306000400,0.93800048828125,3.205854892730713,-4.214812278747559,2.323660373687744
1782858879315979500,0.9479794921875,3.0444014072418213,-3.817284345626831,2.1287448406219482
1782858879325928400,0.957928466796875,2.8735718727111816,-3.4638919830322266,1.8085721731185913
1782858879335877400,0.96787744140625,2.694361925125122,-3.250901222229004,1.4507925510406494
1782858879345826600,0.97782666015625,2.528468370437622,-3.212451934814453,1.1473748683929443
1782858879355805400,0.987805419921875,2.43894362449646,-3.3206889629364014,0.9439102411270142
1782858879365754600,0.997754638671875,2.4681451320648193,-3.4650168418884277,0.8235646486282349
1782858879375702500,1.00770263671875,2.620150327682495,-3.557194471359253,0.7304642200469971
1782858879385651700,1.017651611328125,2.8483240604400635,-3.520556688308716,0.6117380857467651
1782858879395630600,1.027630615234375,3.072683572769165,-3.4108967781066895,0.43989086151123047
1782858879405579500,1.03757958984375,3.247253894805908,-3.297427177429199,0.2506735622882843
1782858879415528400,1.047528564453125,3.3512425422668457,-3.207314968109131,0.08246777951717377
1782858879425477600,1.0574775390625,3.405362606048584,-3.168053150177002,-0.017456956207752228
1782858879435456500,1.06745654296875,3.4281442165374756,-3.1950438022613525,-0.020623454824090004
1782858879445405400,1.077405517578125,3.443650484085083,-3.240487813949585,0.06278302520513535
1782858879455353600,1.087353515625,3.4661951065063477,-3.301469564437866,0.22532816231250763
1782858879465302500,1.097302490234375,3.4899606704711914,-3.3224339485168457,0.4357932507991791
1782858879475281400,1.107281494140625,3.4967880249023438,-3.254641532897949,0.6715113520622253
1782858879485230300,1.117230224609375,3.4640285968780518,-3.084580659866333,0.9391811490058899
1782858879495179500,1.127179443359375,3.380260467529297,-2.8463754653930664,1.206580400466919
1782858879505127400,1.13712744140625,3.2712318897247314,-2.577543258666992,1.4722882509231567
1782858879515107300,1.147107421875,3.1651463508605957,-2.2955737113952637,1.722124695777893
1782858879525055500,1.157055419921875,3.0687263011932373,-1.9948185682296753,1.959060788154602
1782858879535004700,1.167004638671875,2.9578428268432617,-1.692121148109436,2.162172794342041
1782858879544953600,1.17695361328125,2.815034866333008,-1.3832591772079468,2.3115885257720947
1782858879554932500,1.186932373046875,2.633237600326538,-1.0542445182800293,2.3968918323516846
1782858879564881700,1.196881591796875,2.417990207672119,-0.714273989200592,2.4229040145874023
1782858879574830600,1.20683056640625,2.183743953704834,-0.38247960805892944,2.3745367527008057
1782858879584778500,1.216778564453125,1.933950662612915,-0.07791969925165176,2.2508156299591064
1782858879594758400,1.22675830078125,1.678381323814392,0.20190411806106567,2.0609402656555176
1782858879604706600,1.23670654296875,1.439380407333374,0.45945361256599426,1.8428599834442139
1782858879614655500,1.246655517578125,1.2373133897781372,0.6919106841087341,1.6094365119934082
1782858879624604400,1.2566044921875,1.063256859779358,0.8976630568504333,1.366355061531067
1782858879634583600,1.26658349609375,0.9190348982810974,1.0652704238891602,1.1164753437042236
1782858879644532500,1.276532470703125,0.8058079481124878,1.191269874572754,0.860447347164154
1782858879654480400,1.28648046875,0.7258080244064331,1.2932230234146118,0.6058937311172485
1782858879664429300,1.29642919921875,0.6710142493247986,1.3771318197250366,0.36759114265441895
1782858879674408400,1.306408447265625,0.6393498182296753,1.4596556425094604,0.14627134799957275
1782858879684357400,1.316357421875,0.6279016733169556,1.5167652368545532,-0.05433417856693268
1782858879694306600,1.326306640625,0.6265183687210083,1.5209163427352905,-0.22415967285633087
1782858879704255500,1.33625537109375,0.6226423978805542,1.4578838348388672,-0.34895777702331543
1782858879714234600,1.346234619140625,0.6132842302322388,1.3521597385406494,-0.42091184854507446
1782858879724183600,1.35618359375,0.5929811000823975,1.2016688585281372,-0.4456470310688019
1782858879734131500,1.36613134765625,0.5633097290992737,1.0182132720947266,-0.4179491102695465
1782858879744080600,1.37608056640625,0.5269479751586914,0.7923370003700256,-0.3501855134963989
1782858879754059500,1.3860595703125,0.49641212821006775,0.5262278318405151,-0.2447752058506012
1782858879764008400,1.396008544921875,0.4798632562160492,0.21456608176231384,-0.10971245169639587
1782858879773957400,1.405957275390625,0.477210134267807,-0.10936972498893738,0.04398070648312569
1782858879783906600,1.415906494140625,0.47110697627067566,-0.44273170828819275,0.21480277180671692
1782858879793885400,1.425885498046875,0.4552079141139984,-0.7750197052955627,0.39623868465423584
1782858879803833600,1.43583349609375,0.42725110054016113,-1.0824878215789795,0.5771205425262451
1782858879813782500,1.445782470703125,0.393473744392395,-1.3387751579284668,0.7538329362869263
1782858879823731500,1.4557314453125,0.3477560579776764,-1.5430084466934204,0.9061111807823181
1782858879833710300,1.46571044921875,0.28249213099479675,-1.7414087057113647,1.0081030130386353
1782858879843659500,1.475659423828125,0.19162213802337646,-1.963608741760254,1.0392593145370483
1782858879853608700,1.485608642578125,0.0703936368227005,-2.1842830181121826,0.988070011138916
1782858879863556600,1.495556640625,-0.06281474977731705,-2.401531934738159,0.8674402236938477
1782858879873536500,1.50553662109375,-0.16980233788490295,-2.59256649017334,0.7031170129776001
1782858879883501000,1.5155009765625,-0.22081148624420166,-2.7374093532562256,0.5398396849632263
1782858879893450000,1.525449951171875,-0.21881602704524994,-2.803879737854004,0.4196208715438843
1782858879903399000,1.53539892578125,-0.19293968379497528,-2.799887180328369,0.360390841960907
1782858879913378000,1.5453779296875,-0.1851595789194107,-2.7815189361572266,0.3610498309135437
1782858879923327000,1.555326904296875,-0.24101325869560242,-2.798124074935913,0.39012008905410767
1782858879933276000,1.56527587890625,-0.4156070649623871,-2.846588134765625,0.435819149017334
1782858879943224000,1.57522412109375,-0.7327054142951965,-2.890761613845825,0.47461819648742676
1782858879953204000,1.585203857421875,-1.1660034656524658,-2.887446165084839,0.5064990520477295
1782858879963152000,1.59515185546875,-1.6587120294570923,-2.8274483680725098,0.5260279774665833
1782858879973100800,1.605100830078125,-2.133329391479492,-2.7204129695892334,0.5192596316337585
1782858879983050000,1.615050048828125,-2.5287632942199707,-2.573871374130249,0.46617591381073
1782858879993028900,1.62502880859375,-2.8382060527801514,-2.40647554397583,0.3470497727394104
1782858880002978000,1.63497802734375,-3.0645899772644043,-2.2125885486602783,0.1648312211036682
1782858880012926000,1.644926025390625,-3.225914239883423,-1.9868402481079102,-0.062236443161964417
1782858880022875100,1.654875244140625,-3.319366216659546,-1.7673848867416382,-0.3211494982242584
1782858880032854000,1.66485400390625,-3.337170124053955,-1.5408475399017334,-0.571631133556366
1782858880042803000,1.674802978515625,-3.302658796310425,-1.3323986530303955,-0.7929179668426514
1782858880052752100,1.684752197265625,-3.2155520915985107,-1.1426068544387817,-0.9702576398849487
1782858880062701000,1.694701171875,-3.0841190814971924,-0.9829812049865723,-1.0893267393112183
1782858880072680000,1.704679931640625,-2.926964521408081,-0.8820185661315918,-1.1422388553619385
1782858880082628900,1.71462890625,-2.7469186782836914,-0.8686220645904541,-1.1307324171066284
1782858880092577000,1.724576904296875,-2.558964729309082,-0.9528937935829163,-1.0531647205352783
1782858880102557000,1.734556884765625,-2.376842737197876,-1.1107348203659058,-0.9274877905845642
1782858880112504800,1.7445048828125,-2.2047104835510254,-1.2896010875701904,-0.763508677482605
1782858880122454000,1.7544541015625,-2.0670838356018066,-1.464768648147583,-0.5683978199958801
1782858880132403000,1.76440283203125,-1.9710257053375244,-1.6447280645370483,-0.3591226041316986
1782858880142381800,1.7743818359375,-1.9175329208374023,-1.8195637464523315,-0.13673774898052216
1782858880152330800,1.784330810546875,-1.8973230123519897,-1.9714666604995728,0.08012180030345917
1782858880162279000,1.79427880859375,-1.9193657636642456,-2.07684588432312,0.28118085861206055
1782858880172227800,1.804227783203125,-1.9926801919937134,-2.15685772895813,0.4617714583873749
1782858880182207000,1.81420703125,-2.1148183345794678,-2.1872832775115967,0.6034218072891235
1782858880192156200,1.82415625,-2.2737419605255127,-2.1712231636047363,0.7124717831611633
1782858880202105000,1.83410498046875,-2.4610064029693604,-2.0818657875061035,0.7883314490318298
1782858880212054000,1.844053955078125,-2.6638145446777344,-1.9375656843185425,0.836273729801178
1782858880222033000,1.854032958984375,-2.860694169998169,-1.7522165775299072,0.8595297336578369
1782858880231982000,1.863982177734375,-3.0185182094573975,-1.5412169694900513,0.8701083064079285
1782858880241930000,1.873929931640625,-3.1323108673095703,-1.3323791027069092,0.8678044080734253
1782858880251879000,1.88387890625,-3.2015037536621094,-1.1337790489196777,0.8424756526947021
1782858880261858000,1.893858154296875,-3.2420520782470703,-0.953773558139801,0.8041452765464783
1782858880271807000,1.903806884765625,-3.2620913982391357,-0.7841559648513794,0.7586933374404907
1782858880281756000,1.913755859375,-3.279863119125366,-0.6203159093856812,0.7157613635063171
1782858880291704000,1.9237041015625,-3.293212890625,-0.47836458683013916,0.6902329921722412
1782858880301684000,1.93368408203125,-3.2840352058410645,-0.35196882486343384,0.6785616874694824
1782858880311632000,1.9436318359375,-3.25270938873291,-0.23048827052116394,0.6910443902015686
1782858880321580800,1.953580810546875,-3.2083964347839355,-0.1223122701048851,0.7341164946556091
1782858880331529700,1.96352978515625,-3.127439022064209,-0.026814017444849014,0.8124216198921204
1782858880341508900,1.9735087890625,-3.016446113586426,0.05860741063952446,0.927219808101654
1782858880351458000,1.9834580078125,-2.889761209487915,0.11056825518608093,1.0733262300491333
1782858880361407000,1.993406982421875,-2.7469027042388916,0.12254741787910461,1.2336411476135254
1782858880371355100,2.003355224609375,-2.59655499458313,0.10717067867517471,1.4008287191390991
1782858880381335000,2.0133349609375,-2.4453060626983643,0.0708685964345932,1.5524883270263672
1782858880391283000,2.023282958984375,-2.291970729827881,0.04297063127160072,1.6943961381912231
1782858880401232100,2.033232177734375,-2.149094581604004,0.029386378824710846,1.822246789932251
1782858880411181000,2.04318115234375,-2.009183645248413,0.020342722535133362,1.934888482093811
1782858880421160000,2.053159912109375,-1.8657139539718628,0.02346980944275856,2.028834104537964
1782858880431108900,2.06310888671875,-1.7223604917526245,0.02801428735256195,2.1138792037963867
1782858880441058000,2.07305810546875,-1.5877264738082886,0.03578246012330055,2.187675714492798
1782858880451006000,2.083005859375,-1.4657126665115356,0.06957769393920898,2.248473882675171
1782858880460985900,2.09298583984375,-1.364098072052002,0.12459461390972137,2.3047547340393066
1782858880470934000,2.10293408203125,-1.2730531692504883,0.1591818481683731,2.3521549701690674
1782858880480883000,2.112883056640625,-1.1878740787506104,0.17013701796531677,2.3904871940612793
1782858880490832000,2.122831787109375,-1.1064389944076538,0.1786726862192154,2.4160566329956055
1782858880500810800,2.132810791015625,-1.0058997869491577,0.2020384669303894,2.4242546558380127
1782858880510760200,2.14276025390625,-0.8730834126472473,0.25166940689086914,2.4286110401153564
1782858880520708000,2.1527080078125,-0.7101839780807495,0.3113442063331604,2.436713218688965
1782858880530657000,2.162656982421875,-0.519517183303833,0.382358193397522,2.459550380706787
1782858880540636200,2.17263623046875,-0.3053947687149048,0.45085230469703674,2.49601674079895
1782858880550585000,2.182585205078125,-0.07558213174343109,0.5044970512390137,2.5295960903167725
1782858880560534000,2.192533935546875,0.16770242154598236,0.5489566326141357,2.546905040740967
1782858880570483000,2.20248291015625,0.4160085618495941,0.5843938589096069,2.521561861038208
1782858880580462000,2.212462158203125,0.6573188900947571,0.6141437292098999,2.424513578414917
1782858880590411000,2.222410888671875,0.8837304711341858,0.6517753005027771,2.25535249710083
1782858880600359000,2.23235888671875,1.1116679906845093,0.7112937569618225,2.0245847702026367
1782858880610307800,2.242307861328125,1.3694846630096436,0.7989978790283203,1.753717064857483
1782858880620287000,2.252286865234375,1.6640771627426147,0.9048529267311096,1.4875937700271606
1782858880630236000,2.26223583984375,1.9946131706237793,1.0239477157592773,1.2609292268753052
1782858880640184800,2.272184814453125,2.322103977203369,1.1255086660385132,1.0967568159103394
1782858880650133000,2.282133056640625,2.6133430004119873,1.2007560729980469,1.0143742561340332
1782858880660113000,2.29211279296875,2.8533859252929688,1.2649497985839844,1.0089925527572632
1782858880670060800,2.302060791015625,3.0206446647644043,1.3118966817855835,1.057022213935852
1782858880680010000,2.312010009765625,3.1190853118896484,1.3225512504577637,1.1549615859985352
1782858880689959200,2.321959228515625,3.1432266235351562,1.2793623208999634,1.286344289779663
1782858880699938000,2.33193798828125,3.095686435699463,1.1649360656738281,1.4659122228622437
1782858880709887000,2.341886962890625,2.9958889484405518,1.0146141052246094,1.668657898902893
1782858880719836000,2.3518359375,2.862417697906494,0.8376750946044922,1.8714243173599243
1782858880729784000,2.3617841796875,2.710441827774048,0.6791720986366272,2.0402510166168213
1782858880739764000,2.371763916015625,2.5495376586914062,0.551184356212616,2.1543421745300293
1782858880749712000,2.3817119140625,2.397242546081543,0.4738321304321289,2.1976494789123535
1782858880759661000,2.3916611328125,2.28421688079834,0.4243450164794922,2.14469051361084
1782858880769610000,2.40160986328125,2.2430875301361084,0.4027981460094452,1.9704153537750244
1782858880779588900,2.4115888671875,2.257187843322754,0.4175565838813782,1.6595145463943481
1782858880789537800,2.421537841796875,2.305328369140625,0.4755871891975403,1.245441198348999
1782858880799486000,2.43148583984375,2.3604326248168945,0.5662091970443726,0.775036096572876
1782858880809435000,2.441434814453125,2.3955979347229004,0.6864725947380066,0.29890358448028564
1782858880819414000,2.4514140625,2.392153024673462,0.8274811506271362,-0.1441047489643097
1782858880829363000,2.461363037109375,2.3586525917053223,0.966354250907898,-0.5284170508384705
1782858880839312100,2.47131201171875,2.3040354251861572,1.087670922279358,-0.8370528817176819
1782858880849261000,2.481260986328125,2.2211389541625977,1.1893033981323242,-1.0590499639511108
1782858880859240000,2.491239990234375,2.1161696910858154,1.2758233547210693,-1.2087368965148926
1782858880869189000,2.501189208984375,1.9977104663848877,1.34502375125885,-1.2991136312484741
1782858880879137000,2.511136962890625,1.8615528345108032,1.4122707843780518,-1.330288052558899
1782858880889099000,2.52109912109375,1.7083828449249268,1.4332656860351562,-1.2961015701293945
1782858880899078000,2.531077880859375,1.5374432802200317,1.4065606594085693,-1.1885828971862793
1782858880909026800,2.54102685546875,1.3458741903305054,1.33925461769104,-1.0252779722213745
1782858880918976000,2.55097607421875,1.1199936866760254,1.236681342124939,-0.8263128995895386
1782858880928925000,2.560925048828125,0.8695929050445557,1.1130110025405884,-0.6201790571212769
1782858880938904000,2.570904052734375,0.614568293094635,0.9630340337753296,-0.4174499213695526
1782858880948853000,2.58085302734375,0.37477463483810425,0.7912973165512085,-0.251530259847641
1782858880958801200,2.59080126953125,0.15672965347766876,0.6022930145263672,-0.14097845554351807
1782858880968750000,2.60075,-0.03316353261470795,0.4270230829715729,-0.09806548058986664
1782858880978729000,2.61072900390625,-0.19305333495140076,0.26564058661460876,-0.11479093134403229
1782858880988678000,2.620677978515625,-0.31845635175704956,0.13284409046173096,-0.18271484971046448
1782858880998627000,2.630626953125,-0.42027246952056885,0.04566790908575058,-0.27085378766059875
1782858881008575000,2.640574951171875,-0.5019792318344116,0.004640448372811079,-0.3620463013648987
1782858881018555000,2.650554931640625,-0.571435272693634,0.020868686959147453,-0.4348864257335663
1782858881028503000,2.6605029296875,-0.6359349489212036,0.07145760208368301,-0.48334965109825134
1782858881038452000,2.670451904296875,-0.6904730200767517,0.12968921661376953,-0.504544198513031
1782858881048401000,2.68040087890625,-0.7256006002426147,0.19832709431648254,-0.4861043393611908
1782858881058379800,2.6903798828125,-0.7484305500984192,0.2548292577266693,-0.42748281359672546
1782858881068329000,2.700328857421875,-0.7663521766662598,0.27708518505096436,-0.32901087403297424
1782858881078278100,2.710278076171875,-0.7878239154815674,0.2626146376132965,-0.20995905995368958
1782858881088226000,2.72022607421875,-0.8125702738761902,0.19958865642547607,-0.07981154322624207
1782858881098206000,2.7302060546875,-0.838661253452301,0.09767773747444153,0.05042902007699013
1782858881108154000,2.740154052734375,-0.8573142290115356,-0.03663111478090286,0.1799447387456894
1782858881118103000,2.75010302734375,-0.8745787143707275,-0.19847753643989563,0.30781054496765137
1782858881128052000,2.760052001953125,-0.8892865180969238,-0.38262036442756653,0.43524858355522156
1782858881138031000,2.770031005859375,-0.8861791491508484,-0.572333812713623,0.5579569339752197
1782858881147980000,2.77997998046875,-0.8539462089538574,-0.7818764448165894,0.665839672088623
1782858881157928000,2.789927978515625,-0.796598494052887,-0.9995246529579163,0.7611736059188843
1782858881167876900,2.799876953125,-0.7242885828018188,-1.2165615558624268,0.8430700898170471
1782858881177856000,2.80985595703125,-0.6349738836288452,-1.4334001541137695,0.9257513880729675
1782858881187805000,2.819804931640625,-0.5346505045890808,-1.6408650875091553,1.0125309228897095
1782858881197753900,2.82975390625,-0.44628575444221497,-1.8302477598190308,1.106440544128418
1782858881207702800,2.839702880859375,-0.3741571307182312,-2.0059974193573,1.2012406587600708
1782858881217682000,2.849681884765625,-0.3299467861652374,-2.1406397819519043,1.2905542850494385
1782858881227630800,2.859630859375,-0.31663596630096436,-2.250387668609619,1.3774278163909912
1782858881237578800,2.869578857421875,-0.3354616165161133,-2.330207586288452,1.4523909091949463
1782858881247528200,2.879528076171875,-0.37272509932518005,-2.388822555541992,1.5137369632720947
1782858881257507000,2.889507080078125,-0.41473886370658875,-2.4249119758605957,1.5650084018707275
1782858881267456000,2.8994560546875,-0.4628629684448242,-2.4429941177368164,1.5981004238128662
1782858881277405000,2.909405029296875,-0.5203694105148315,-2.4384686946868896,1.6149650812149048
1782858881287353000,2.91935302734375,-0.5852102637290955,-2.423736810684204,1.6194992065429688
1782858881297333000,2.9293330078125,-0.6571733951568604,-2.3691701889038086,1.6103662252426147
1782858881307281000,2.939281005859375,-0.7435557842254639,-2.2887651920318604,1.5839499235153198
1782858881317230000,2.94922998046875,-0.8421323895454407,-2.2212047576904297,1.5258359909057617
1782858881327179000,2.959178955078125,-0.9587119221687317,-2.2031545639038086,1.4085278511047363
1782858881337158000,2.969157958984375,-1.0939528942108154,-2.215958833694458,1.2441554069519043
1782858881347106800,2.97910693359375,-1.224800705909729,-2.209451675415039,1.062349557876587
1782858881357056000,2.989055908203125,-1.3200857639312744,-2.151106357574463,0.9166821241378784
1782858881367004000,2.99900390625,-1.3565261363983154,-2.04742693901062,0.8477060794830322
1782858881376983800,3.00898388671875,-1.3222239017486572,-1.9278851747512817,0.8767161965370178
1782858881386932000,3.018931884765625,-1.2359195947647095,-1.8285466432571411,0.9919836521148682
1782858881396881000,3.028880859375,-1.1213881969451904,-1.7709048986434937,1.1675912141799927
1782858881406830000,3.038830078125,-1.020250678062439,-1.7589396238327026,1.376961588859558
1782858881416809000,3.04880908203125,-0.9661794304847717,-1.778326392173767,1.5844513177871704
1782858881426758100,3.058758056640625,-0.9728245735168457,-1.8183846473693848,1.7775285243988037
1782858881436707000,3.06870703125,-1.017730951309204,-1.8694273233413696,1.9441068172454834
1782858881446655000,3.078655029296875,-1.068215012550354,-1.9500198364257812,2.083601236343384
1782858881456634000,3.088634033203125,-1.096596360206604,-2.0684866905212402,2.1799771785736084
1782858881466583000,3.0985830078125,-1.1100549697875977,-2.191448450088501,2.23222279548645
1782858881476532000,3.108531982421875,-1.116363525390625,-2.308274745941162,2.216928720474243
1782858881486511000,3.118510986328125,-1.1318950653076172,-2.3966760635375977,2.119849443435669
1782858881496460000,3.1284599609375,-1.1630055904388428,-2.4574201107025146,1.935854434967041
1782858881506409000,3.138408935546875,-1.201761245727539,-2.481048107147217,1.6820203065872192
1782858881516356900,3.14835693359375,-1.242020606994629,-2.4638421535491943,1.3909653425216675
1782858881526337000,3.1583369140625,-1.274129867553711,-2.395127773284912,1.0868192911148071
1782858881536285000,3.168284912109375,-1.306688904762268,-2.2930355072021484,0.7893100380897522
1782858881546233900,3.17823388671875,-1.3489984273910522,-2.168745756149292,0.5046318769454956
1782858881556182800,3.188182861328125,-1.4159774780273438,-2.0098073482513428,0.22780509293079376
1782858881566162000,3.198161865234375,-1.5119481086730957,-1.8226569890975952,-0.025697041302919388
1782858881576111000,3.208111083984375,-1.6278454065322876,-1.5854889154434204,-0.25386151671409607
1782858881586060000,3.21806005859375,-1.7606149911880493,-1.2911536693572998,-0.4382915496826172
1782858881596008000,3.228008056640625,-1.8975858688354492,-0.9439426064491272,-0.5780826807022095
1782858881605988000,3.237988037109375,-2.017786741256714,-0.573702871799469,-0.6773722171783447
1782858881615936000,3.24793603515625,-2.118561029434204,-0.20311544835567474,-0.7309622168540955
1782858881625885000,3.257885009765625,-2.194390058517456,0.1333252191543579,-0.7549156546592712
1782858881635833900,3.267833740234375,-2.2400145530700684,0.4292266368865967,-0.744234025478363
1782858881645813000,3.27781298828125,-2.2619357109069824,0.6788140535354614,-0.718109130859375
1782858881655762000,3.287761962890625,-2.2703418731689453,0.8798012137413025,-0.6727288365364075
1782858881665710000,3.2977099609375,-2.2677242755889893,1.0329750776290894,-0.6070464253425598
1782858881675659000,3.307658935546875,-2.2524237632751465,1.1495834589004517,-0.5134533643722534
1782858881685638000,3.317637939453125,-2.2120187282562256,1.2305930852890015,-0.39510229229927063
1782858881695586800,3.3275869140625,-2.1455235481262207,1.2658493518829346,-0.2455601990222931
1782858881705536000,3.337535888671875,-2.0550549030303955,1.2540589570999146,-0.0708749070763588
1782858881715485000,3.34748486328125,-1.9422394037246704,1.1855063438415527,0.12476516515016556
1782858881725463800,3.3574638671875,-1.7976943254470825,1.0916343927383423,0.3270249664783478
1782858881735413000,3.3674130859375,-1.6237026453018188,0.9838733077049255,0.5288044214248657
1782858881745361200,3.377361083984375,-1.4293749332427979,0.8627333641052246,0.7302388548851013
1782858881755310000,3.38731005859375,-1.2104415893554688,0.7278493046760559,0.9348673820495605
1782858881765289000,3.3972890625,-0.9644112586975098,0.5846033692359924,1.1386154890060425
1782858881775238100,3.407238037109375,-0.7048531770706177,0.42348480224609375,1.3334728479385376
1782858881785187000,3.41718701171875,-0.43993327021598816,0.246176615357399,1.5211597681045532
1782858881795135000,3.427135009765625,-0.1911093145608902,0.05930473655462265,1.698472499847412
1782858881805115000,3.437114990234375,0.038914114236831665,-0.12433207035064697,1.8748246431350708
1782858881815063000,3.44706298828125,0.2286832332611084,-0.2923026978969574,2.055893898010254
1782858881825012000,3.457011962890625,0.3698033392429352,-0.4404936134815216,2.2551796436309814
1782858881834961000,3.4669609375,0.47564348578453064,-0.5906572937965393,2.4599804878234863
1782858881844940000,3.47693994140625,0.5578346252441406,-0.7255147099494934,2.6793477535247803
1782858881854889000,3.486888916015625,0.622504711151123,-0.8503072261810303,2.9107887744903564
1782858881864838000,3.496837890625,0.6678562760353088,-0.9733356237411499,3.1504945755004883
1782858881874785800,3.506785888671875,0.6805747747421265,-1.0966458320617676,3.3773157596588135
1782858881884775000,3.51677490234375,0.6711994409561157,-1.207200288772583,3.596202850341797
1782858881894722800,3.526722900390625,0.6532582640647888,-1.3075604438781738,3.794400453567505
1782858881904672000,3.536672119140625,0.627310037612915,-1.4026156663894653,3.9639346599578857
1782858881914621000,3.546620849609375,0.6039130687713623,-1.5013039112091064,4.1144819259643555
1782858881924599800,3.556599853515625,0.5851952433586121,-1.596073865890503,4.247123718261719
1782858881934548700,3.566548828125,0.5558586716651917,-1.6726593971252441,4.3529953956604
1782858881944497000,3.576496826171875,0.513322651386261,-1.7380032539367676,4.418962001800537
1782858881954445800,3.58644580078125,0.4566905200481415,-1.8017659187316895,4.434422492980957
1782858881964425000,3.596425048828125,0.3886697590351105,-1.8551753759384155,4.390897274017334
1782858881974374000,3.606373779296875,0.28029879927635193,-1.8759299516677856,4.299646854400635
1782858881984322800,3.61632275390625,0.13575783371925354,-1.8168731927871704,4.1786956787109375
1782858881994271700,3.626271728515625,0.0003305003046989441,-1.6385897397994995,4.022404193878174
1782858882004251000,3.6362509765625,-0.10977993160486221,-1.3702532052993774,3.805351734161377
1782858882014199800,3.64619970703125,-0.19624292850494385,-1.0849181413650513,3.522437334060669
1782858882024147700,3.656147705078125,-0.26132088899612427,-0.7920006513595581,3.198516607284546
1782858882034097000,3.666096923828125,-0.2983476221561432,-0.49986305832862854,2.877227544784546
1782858882044075800,3.67607568359375,-0.3036172688007355,-0.23372173309326172,2.603693962097168
1782858882054025000,3.68602490234375,-0.2901744246482849,-0.012024483643472195,2.3949713706970215
1782858882063974000,3.695973876953125,-0.2735644578933716,0.1538601815700531,2.2369885444641113
1782858882073922800,3.7059228515625,-0.2613120377063751,0.25534844398498535,2.12066388130188
1782858882083902000,3.71590185546875,-0.24709098041057587,0.2747150957584381,2.033703088760376
1782858882093851000,3.725850830078125,-0.22797240316867828,0.2322629690170288,1.9738726615905762
1782858882103798800,3.735798828125,-0.20112653076648712,0.15980152785778046,1.958175778388977
1782858882113747700,3.745747802734375,-0.16971160471439362,0.06816133856773376,1.9837263822555542
1782858882123726800,3.755726806640625,-0.13862377405166626,-0.03599069267511368,2.046504259109497
1782858882133675800,3.76567578125,-0.1220804825425148,-0.16427995264530182,2.120255470275879
1782858882143624700,3.775624755859375,-0.13697759807109833,-0.3469662666320801,2.1676650047302246
1782858882153572900,3.78557275390625,-0.18300074338912964,-0.559479832649231,2.14420747756958
1782858882163552800,3.795552734375,-0.23580323159694672,-0.7644169926643372,2.0401861667633057
1782858882173500700,3.805500732421875,-0.2695569396018982,-0.9172363877296448,1.8959019184112549
1782858882183449900,3.815449951171875,-0.27405256032943726,-1.0054216384887695,1.7611808776855469
1782858882193399000,3.82539892578125,-0.26116660237312317,-1.0474348068237305,1.6692285537719727
1782858882203378000,3.8353779296875,-0.24617624282836914,-1.0553679466247559,1.617796778678894
1782858882213326800,3.845326904296875,-0.2493603229522705,-1.0319077968597412,1.6116400957107544
1782858882223275800,3.85527587890625,-0.28027987480163574,-0.9921675324440002,1.6280511617660522
1782858882233224000,3.865223876953125,-0.3424665629863739,-0.9542121887207031,1.6483790874481201
1782858882243203800,3.875203857421875,-0.4465566873550415,-0.9255869388580322,1.6480668783187866
1782858882253152000,3.885152099609375,-0.5749985575675964,-0.9192230701446533,1.6151193380355835
1782858882263101000,3.895100830078125,-0.692160427570343,-0.9301531910896301,1.559831976890564
1782858882273049900,3.9050498046875,-0.7734230160713196,-0.9580830931663513,1.494687557220459
1782858882283028700,3.91502880859375,-0.8136180639266968,-0.985662043094635,1.4343851804733276
1782858882292978000,3.92497802734375,-0.8176277279853821,-1.0087878704071045,1.3986815214157104
1782858882302925800,3.93492578125,-0.7873626351356506,-1.0093530416488647,1.387467861175537
1782858882312874800,3.944874755859375,-0.7296865582466125,-0.9814633131027222,1.4048031568527222
1782858882322854000,3.95485400390625,-0.6660800576210022,-0.959075927734375,1.4406129121780396
1782858882332802800,3.964802734375,-0.6295977234840393,-0.9568125009536743,1.473908543586731
1782858882342751700,3.974751708984375,-0.6390987634658813,-0.9697363376617432,1.4893711805343628
1782858882352701000,3.984700927734375,-0.6902474761009216,-0.9984481334686279,1.4842650890350342
1782858882362680000,3.99468017578125,-0.7740423083305359,-1.027679204940796,1.4498437643051147
1782858882372629000,4.00462890625,-0.8751622438430786,-1.0418823957443237,1.3915897607803345
1782858882382577000,4.014576904296875,-0.9720761179924011,-1.0294580459594727,1.3157062530517578
1782858882392525800,4.02452587890625,-1.0507756471633911,-1.0065796375274658,1.2315645217895508
1782858882402505000,4.0345048828125,-1.100811243057251,-0.9797467589378357,1.1459945440292358
1782858882412454000,4.044453857421875,-1.1252644062042236,-0.945047914981842,1.0591148138046265
1782858882422402800,4.05440283203125,-1.1425594091415405,-0.8846901655197144,0.9625553488731384
1782858882432351000,4.06435107421875,-1.1559662818908691,-0.8130024075508118,0.8580678105354309
1782858882442331000,4.074330810546875,-1.1774975061416626,-0.7300362586975098,0.7420417070388794
1782858882452278800,4.08427880859375,-1.2000133991241455,-0.6351020336151123,0.6211959719657898
1782858882462227700,4.094227783203125,-1.2161818742752075,-0.5330376029014587,0.4977729916572571
1782858882472177000,4.104177001953125,-1.2143352031707764,-0.4286651313304901,0.37267792224884033
1782858882482155800,4.11415576171875,-1.192071795463562,-0.3358682692050934,0.26545587182044983
1782858882492104700,4.124104736328125,-1.1447714567184448,-0.24355299770832062,0.17909355461597443
1782858882502053600,4.1340537109375,-1.0811227560043335,-0.15903523564338684,0.11851546168327332
1782858882512001800,4.144001708984375,-1.0132750272750854,-0.0904894694685936,0.08382592350244522
1782858882521982000,4.15398193359375,-0.9388525485992432,-0.048663925379514694,0.05208423733711243
1782858882531929900,4.163929931640625,-0.8586599826812744,-0.026655295863747597,0.019463710486888885
1782858882541879000,4.173879150390625,-0.7706186175346375,-0.026216786354780197,-0.01391868107020855
1782858882551828000,4.183827880859375,-0.6746417880058289,-0.03663081303238869,-0.05637612193822861
1782858882561806800,4.193806884765625,-0.5649121999740601,-0.051788121461868286,-0.09622038155794144
1782858882571755800,4.203755859375,-0.44453543424606323,-0.06323012709617615,-0.12939591705799103
1782858882581705000,4.213705078125,-0.30899590253829956,-0.0743725523352623,-0.15537041425704956
1782858882591652900,4.22365283203125,-0.1658424735069275,-0.07301859557628632,-0.17643123865127563
1782858882601632800,4.2336328125,-0.01661917008459568,-0.06729679554700851,-0.19518041610717773
1782858882611581000,4.243580810546875,0.12383434176445007,-0.05584387108683586,-0.2154092639684677
1782858882621529900,4.25352978515625,0.2610621452331543,-0.044583313167095184,-0.23233070969581604
1782858882631478800,4.263478759765625,0.39084383845329285,-0.03744684159755707,-0.23970021307468414
1782858882641458000,4.2734580078125,0.5228023529052734,-0.030202003195881844,-0.2268100082874298
1782858882651406800,4.28340673828125,0.658827543258667,-0.02910398133099079,-0.2047789990901947
1782858882661354800,4.293354736328125,0.7887787222862244,-0.03924323618412018,-0.17614135146141052
1782858882671303700,4.3033037109375,0.9163768887519836,-0.039233382791280746,-0.14161771535873413
1782858882681282800,4.31328271484375,1.027658224105835,-0.04511106759309769,-0.10837733745574951
1782858882691231700,4.323231689453125,1.1301326751708984,-0.06016192212700844,-0.07897737622261047
1782858882701181000,4.333180908203125,1.2270413637161255,-0.07739268988370895,-0.05398750305175781
1782858882711129900,4.3431298828125,1.3153916597366333,-0.08747275173664093,-0.03783037140965462
1782858882721109000,4.35310888671875,1.3969340324401855,-0.08857834339141846,-0.031054656952619553
1782858882731058000,4.363057861328125,1.4671051502227783,-0.08780576288700104,-0.02694486826658249
1782858882741005800,4.373005859375,1.5350881814956665,-0.07072699815034866,-0.018407439813017845
1782858882750954800,4.382954833984375,1.6009894609451294,-0.04163249582052231,-0.017062542960047722
1782858882760934000,4.392933837890625,1.6689088344573975,-0.0019250307232141495,-0.020745161920785904
1782858882770882800,4.4028828125,1.7269377708435059,0.03646763041615486,-0.02895755134522915
1782858882780831700,4.412831787109375,1.775810956954956,0.080101378262043,-0.031140843406319618
1782858882790811000,4.422810791015625,1.8023874759674072,0.13383305072784424,-0.024756448343396187
1782858882800759800,4.432759765625,1.8057712316513062,0.19055165350437164,-0.002189320046454668
1782858882810707700,4.442707763671875,1.7822589874267578,0.250464528799057,0.030477013438940048
1782858882820657000,4.452656982421875,1.747326374053955,0.32349902391433716,0.06285609304904938
1782858882830635800,4.4626357421875,1.6967427730560303,0.4017677307128906,0.09317164868116379
1782858882840584700,4.472584716796875,1.6407196521759033,0.47525647282600403,0.09706419706344604
1782858882850534000,4.482533935546875,1.581565022468567,0.53416907787323,0.08561047911643982
1782858882860482800,4.49248291015625,1.5296862125396729,0.5934402346611023,0.07055066525936127
1782858882870462000,4.5024619140625,1.4997764825820923,0.6512321829795837,0.053086984902620316
1782858882880411000,4.512410888671875,1.4888924360275269,0.7180691957473755,0.031390342861413956
1782858882890396700,4.522396728515625,1.4931707382202148,0.7878949046134949,-0.007803663611412048
1782858882900345600,4.532345703125,1.5047264099121094,0.861950159072876,-0.05171862617135048
1782858882910324500,4.542324462890625,1.5298866033554077,0.9176088571548462,-0.09273476153612137
1782858882920273700,4.552273681640625,1.5583463907241821,0.9440778493881226,-0.12368839234113693
1782858882930222600,4.56222265625,1.5776766538619995,0.9274898171424866,-0.14103221893310547
1782858882940170500,4.57217041015625,1.5754929780960083,0.8850191235542297,-0.13817408680915833
1782858882950150400,4.582150390625,1.545914649963379,0.8338028192520142,-0.12760187685489655
1782858882960098600,4.5920986328125,1.5083063840866089,0.7848061323165894,-0.12162786722183228
1782858882970047700,4.6020478515625,1.4630681276321411,0.6978006362915039,-0.14101754128932953
1782858882979996700,4.61199658203125,1.4033721685409546,0.5519745945930481,-0.20699939131736755
1782858882989975800,4.621975830078125,1.329423427581787,0.39548033475875854,-0.32873648405075073
1782858882999924700,4.6319248046875,1.2738150358200073,0.2529531717300415,-0.49319136142730713
1782858883009873700,4.641873779296875,1.2593437433242798,0.15129579603672028,-0.6649442315101624
1782858883019821600,4.651821533203125,1.2943445444107056,0.09052407741546631,-0.8104546070098877
1782858883029801700,4.6618017578125,1.3717111349105835,0.053206805139780045,-0.8862247467041016
1782858883039749600,4.67174951171875,1.476944923400879,0.02139640972018242,-0.881256639957428
1782858883049698600,4.681698486328125,1.5578887462615967,0.01839103363454342,-0.8215509653091431
1782858883059647500,4.6916474609375,1.542616844177246,0.07598768919706345,-0.7323203682899475
1782858883069626600,4.701626708984375,1.380281925201416,0.18267710506916046,-0.6311026811599731
1782858883079575600,4.711575439453125,1.0611735582351685,0.3262854814529419,-0.5265890955924988
1782858883089524500,4.7215244140625,0.606187105178833,0.4871864914894104,-0.4362128674983978
1782858883099472600,4.73147265625,0.06632281094789505,0.6492416858673096,-0.3575393557548523
1782858883109451500,4.741451416015625,-0.4980319142341614,0.8055772185325623,-0.27553024888038635
1782858883119400400,4.751400390625,-1.0119574069976807,0.9140440225601196,-0.1697273552417755
1782858883129349600,4.761349609375,-1.4083975553512573,0.9959359765052795,-0.029479961842298508
1782858883139298600,4.771298583984375,-1.6715162992477417,1.0310999155044556,0.1124243438243866
1782858883149277700,4.781277587890625,-1.8062701225280762,0.9606795310974121,0.22808091342449188
1782858883159226600,4.7912265625,-1.8309365510940552,0.7650855183601379,0.307735800743103
1782858883169174800,4.8011748046875,-1.7619719505310059,0.4710429906845093,0.34430474042892456
1782858883179123700,4.811123779296875,-1.6347776651382446,0.11452706158161163,0.33232149481773376
1782858883189102600,4.8211025390625,-1.4994195699691772,-0.282562255859375,0.2816082239151001
1782858883199051500,4.831051513671875,-1.4037247896194458,-0.6691093444824219,0.20816904306411743
1782858883209000700,4.841000732421875,-1.3694416284561157,-1.01384437084198,0.13617128133773804
1782858883218949600,4.85094970703125,-1.3820394277572632,-1.2917983531951904,0.0893794447183609
1782858883228928500,4.860928466796875,-1.4283835887908936,-1.5125834941864014,0.07916835695505142
1782858883238877400,4.87087744140625,-1.502768874168396,-1.684078574180603,0.10292275249958038
1782858883248825600,4.88082568359375,-1.5943925380706787,-1.8019500970840454,0.15581020712852478
1782858883258774500,4.8907744140625,-1.6960101127624512,-1.8460721969604492,0.2316661924123764
1782858883268753400,4.90075341796875,-1.8037166595458984,-1.819869041442871,0.31825700402259827
1782858883278702600,4.91070263671875,-1.9248783588409424,-1.7305904626846313,0.40390104055404663
1782858883288651800,4.92065185546875,-2.0456247329711914,-1.591780424118042,0.4811071455478668
1782858883298599400,4.930599365234375,-2.154902219772339,-1.4146614074707031,0.5497323870658875
1782858883308579600,4.94057958984375,-2.245887279510498,-1.213884711265564,0.6042388081550598
1782858883318527700,4.95052783203125,-2.311539888381958,-1.014320731163025,0.6341637372970581
1782858883328476700,4.9604765625,-2.3522284030914307,-0.8221051096916199,0.6279873251914978
1782858883338425600,4.970425537109375,-2.3827123641967773,-0.6515841484069824,0.5856993198394775
1782858883348404700,4.98040478515625,-2.4139044284820557,-0.506973147392273,0.5143436193466187
1782858883358353700,4.990353759765625,-2.451566219329834,-0.384954571723938,0.42849236726760864
1782858883368302600,5.000302490234375,-2.5064871311187744,-0.2781207859516144,0.35675373673439026
1782858883378250500,5.01025048828125,-2.565887928009033,-0.18484482169151306,0.2981141209602356
1782858883388230700,5.020230712890625,-2.618910312652588,-0.11648201942443848,0.26537108421325684
1782858883398178600,5.030178466796875,-2.659961223602295,-0.07155436277389526,0.24097442626953125
1782858883408127500,5.04012744140625,-2.682953357696533,-0.03852957487106323,0.23620976507663727
1782858883418076400,5.050076416015625,-2.6870901584625244,-0.005969654768705368,0.24804210662841797
1782858883428055600,5.0600556640625,-2.6629769802093506,0.025817304849624634,0.26629939675331116
1782858883438004500,5.07000439453125,-2.5951788425445557,0.05148172006011009,0.27682122588157654
1782858883447952400,5.079952392578125,-2.482753038406372,0.068109430372715,0.2642678916454315
1782858883457901600,5.089901611328125,-2.325040340423584,0.06291908025741577,0.22193092107772827
1782858883467880400,5.09988037109375,-2.1372454166412354,0.03657722845673561,0.15639452636241913
1782858883477829600,5.10982958984375,-1.9378947019577026,-0.002518085762858391,0.07724735140800476
1782858883487778600,5.119778564453125,-1.7446829080581665,-0.028315594419836998,-0.005451526492834091
1782858883497727700,5.129727783203125,-1.5593465566635132,-0.04989984631538391,-0.0809074342250824
1782858883507706600,5.13970654296875,-1.3865140676498413,-0.04846413433551788,-0.1344691962003708
1782858883517655600,5.149655517578125,-1.2280421257019043,-0.03437875211238861,-0.1667885184288025
1782858883527603700,5.159603759765625,-1.0735212564468384,0.00016644224524497986,-0.1758967936038971
1782858883537552600,5.169552734375,-0.9188670516014099,0.044537413865327835,-0.158192977309227
1782858883547531500,5.179531494140625,-0.7590901851654053,0.08112578094005585,-0.11226276308298111
1782858883557480400,5.18948046875,-0.5875847935676575,0.10014307498931885,-0.04980477690696716
1782858883567429600,5.1994296875,-0.4075745642185211,0.1033061146736145,0.019988154992461205
1782858883577378600,5.209378662109375,-0.20082037150859833,0.10733025521039963,0.07623398303985596
1782858883587357400,5.219357421875,0.07343754917383194,0.17415961623191833,0.06312723457813263
1782858883597305600,5.2293056640625,0.42562615871429443,0.3485748767852783,-0.044919971376657486
1782858883607254500,5.239254638671875,0.8300184011459351,0.6848809719085693,-0.2617521286010742
1782858883617203700,5.24920361328125,1.278479814529419,1.205104947090149,-0.6153053641319275
1782858883627182600,5.2591826171875,1.7842217683792114,1.9306280612945557,-1.116230845451355
1782858883637131800,5.2691318359375,2.3047773838043213,2.927490472793579,-1.772194743156433
1782858883647080700,5.279080810546875,2.708836078643799,4.177120685577393,-2.543478488922119
1782858883657028600,5.289028564453125,2.9019358158111572,5.253096580505371,-3.3235116004943848
1782858883667008500,5.299008544921875,2.794512987136841,6.131174087524414,-3.916273593902588
1782858883676956700,5.308956787109375,2.395066499710083,6.991473197937012,-4.267532825469971
1782858883686905600,5.318905517578125,1.9161187410354614,7.691603183746338,-4.385435104370117
1782858883696854500,5.3288544921875,1.3675384521484375,8.04001522064209,-4.32869815826416
1782858883706833700,5.338833740234375,0.7150591611862183,7.9398579597473145,-4.142299652099609
1782858883716782600,5.348782470703125,0.045822978019714355,7.481886863708496,-3.8300907611846924
1782858883726731500,5.3587314453125,-0.5041171312332153,6.850027561187744,-3.410181999206543
1782858883736679700,5.3686796875,-0.8146939277648926,6.170501708984375,-2.8821845054626465
1782858883746659600,5.37865966796875,-0.9227713942527771,5.486865043640137,-2.3085904121398926
1782858883756607500,5.388607421875,-0.9078209400177002,4.790607929229736,-1.7366238832473755
1782858883766556400,5.398556396484375,-0.8286526203155518,3.9304022789001465,-1.2367026805877686
1782858883776505600,5.408505615234375,-0.7256991267204285,2.949916124343872,-0.8372090458869934
1782858883786484500,5.418484375,-0.6112910509109497,2.0585525035858154,-0.5230753421783447
1782858883796433700,5.42843359375,-0.5234487056732178,1.40924870967865,-0.29542970657348633
1782858883806381800,5.4383818359375,-0.4852198362350464,0.96775221824646,-0.18707582354545593
1782858883816330800,5.448330810546875,-0.4617152214050293,0.6142388582229614,-0.19225682318210602
1782858883826309600,5.4583095703125,-0.45255792140960693,0.2562945783138275,-0.32874757051467896
1782858883836258600,5.468258544921875,-0.4404137134552002,-0.09819281101226807,-0.574977457523346
1782858883846207700,5.478207763671875,-0.37559080123901367,-0.3443956673145294,-0.8577876091003418
1782858883856156700,5.48815673828125,-0.2391427904367447,-0.43450623750686646,-1.0580699443817139
1782858883866135600,5.498135498046875,-0.08367303758859634,-0.41053059697151184,-1.0947413444519043
1782858883876084500,5.50808447265625,0.03932436555624008,-0.2832087576389313,-0.9636877775192261
1782858883886037500,5.51803759765625,0.1296798288822174,-0.11745331436395645,-0.7143996357917786
1782858883895986400,5.527986328125,0.1609824150800705,0.03588303178548813,-0.41864973306655884
1782858883905965600,5.537965576171875,0.1337238997220993,0.13196375966072083,-0.126102015376091
1782858883915914500,5.54791455078125,0.06563733518123627,0.1784549504518509,0.13932374119758606
1782858883925863400,5.557863525390625,-0.03617557883262634,0.2206258475780487,0.3596806228160858
1782858883935811600,5.5678115234375,-0.17985524237155914,0.26020675897598267,0.5241276621818542
1782858883945791500,5.57779150390625,-0.3780079782009125,0.304155558347702,0.6571160554885864
1782858883955739400,5.587739501953125,-0.6310661435127258,0.37242573499679565,0.7703461647033691
1782858883965688600,5.5976884765625,-0.9094637036323547,0.5449591875076294,0.8764874935150146
1782858883975637500,5.607637451171875,-1.170120358467102,0.8634613752365112,0.9838657975196838
1782858883985616400,5.617616455078125,-1.343561053276062,1.2887448072433472,1.0767840147018433
1782858883995565300,5.6275654296875,-1.429192066192627,1.6126115322113037,1.1103191375732422
1782858884005514500,5.637514404296875,-1.4446243047714233,1.861477255821228,1.0855482816696167
1782858884015462400,5.64746240234375,-1.3896774053573608,2.0469448566436768,1.0152125358581543
1782858884025442300,5.6574423828125,-1.263627529144287,2.199418544769287,0.9486997723579407
1782858884035390500,5.667390380859375,-1.1006759405136108,2.3627257347106934,0.9257042407989502
1782858884045339600,5.677339599609375,-0.9242936968803406,2.5456955432891846,0.9590052366256714
1782858884055288600,5.68728857421875,-0.7609540224075317,2.6971824169158936,1.0617504119873047
1782858884065267500,5.697267333984375,-0.6253988742828369,2.8343029022216797,1.2456414699554443
1782858884075216600,5.707216552734375,-0.5060776472091675,2.9330618381500244,1.486136555671692
1782858884085164500,5.71716455078125,-0.3423022925853729,3.027672052383423,1.7308517694473267
1782858884095113500,5.727113525390625,-0.09784434735774994,3.0918128490448,1.947443962097168
1782858884105092600,5.737092529296875,0.1913784146308899,3.195392370223999,2.1548569202423096
1782858884115041500,5.74704150390625,0.5078331828117371,3.359893798828125,2.347541570663452
1782858884124990500,5.756990478515625,0.8139877915382385,3.563223361968994,2.539402723312378
1782858884134939400,5.766939453125,1.0347814559936523,3.7922351360321045,2.7428040504455566
1782858884144918500,5.77691845703125,1.1579608917236328,3.957486629486084,2.9419937133789062
1782858884154867500,5.786867431640625,1.1882808208465576,3.9871201515197754,3.1245734691619873
1782858884164815400,5.7968154296875,1.1427682638168335,3.8313281536102295,3.283592939376831
1782858884174795300,5.806795166015625,1.0365629196166992,3.443174362182617,3.4209935665130615
1782858884184743400,5.816743408203125,0.9174497127532959,2.8957855701446533,3.558716297149658
1782858884194692400,5.8266923828125,0.8124411106109619,2.2431423664093018,3.638505697250366
1782858884204641500,5.8366416015625,0.7715557217597961,1.6094435453414917,3.5981805324554443
1782858884214620400,5.846620361328125,0.8485949039459229,1.1308056116104126,3.4101364612579346
1782858884224569600,5.856569580078125,1.0561257600784302,0.8022794723510742,3.107944965362549
1782858884234518500,5.8665185546875,1.3654756546020508,0.6436471343040466,2.822366952896118
1782858884244466400,5.876466552734375,1.6954678297042847,0.7221278548240662,2.598022937774658
1782858884254446600,5.886446533203125,1.8472683429718018,1.0833030939102173,2.3765127658843994
1782858884264394500,5.89639453125,1.9298300743103027,1.358656644821167,2.1262614727020264
1782858884274343400,5.906343505859375,1.9990218877792358,1.438032865524292,1.858012318611145
1782858884284292400,5.916292236328125,2.0359833240509033,1.4419171810150146,1.5873593091964722
1782858884294271500,5.926271484375,2.051361560821533,1.4101574420928955,1.3246376514434814
1782858884304220400,5.936220458984375,2.06290864944458,1.3591845035552979,1.0984468460083008
1782858884314168600,5.94616845703125,2.0701096057891846,1.2861963510513306,0.905977189540863
1782858884324117500,5.956117431640625,2.090078353881836,1.2363536357879639,0.7325848937034607
1782858884334096400,5.966096435546875,2.11179780960083,1.2174221277236938,0.5765576958656311
1782858884344045300,5.97604541015625,2.100193738937378,1.1679874658584595,0.45162826776504517
1782858884353994500,5.985994384765625,2.022770643234253,1.1260807514190674,0.37642255425453186
1782858884363943700,5.995943603515625,1.8875575065612793,1.1364781856536865,0.33642667531967163
1782858884373922600,6.005922607421875,1.7332689762115479,1.1622995138168335,0.3486860692501068
1782858884383871500,6.01587158203125,1.606752634048462,1.1554280519485474,0.4004669785499573
1782858884393819600,6.025819580078125,1.5428415536880493,1.1095305681228638,0.47656476497650146
1782858884403768600,6.0357685546875,1.50083589553833,1.0627204179763794,0.5261366367340088
1782858884413747500,6.04574755859375,1.4592485427856445,1.044850468635559,0.5119419097900391
1782858884423696600,6.055696533203125,1.4186660051345825,1.0777308940887451,0.42386847734451294
1782858884433645600,6.0656455078125,1.360514760017395,1.140295386314392,0.2669883370399475
1782858884443593500,6.075593505859375,1.2976465225219727,1.242726445198059,0.06245864927768707
1782858884453573400,6.085573486328125,1.2575346231460571,1.3582134246826172,-0.15680129826068878
1782858884463521500,6.095521484375,1.2763628959655762,1.4586106538772583,-0.35582759976387024
1782858884473470500,6.105470458984375,1.364791989326477,1.5353764295578003,-0.5167784094810486
1782858884483419400,6.11541943359375,1.4785557985305786,1.5353034734725952,-0.6078840494155884
1782858884493398500,6.1253984375,1.563826322555542,1.4527966976165771,-0.6076694130897522
1782858884503347500,6.135347412109375,1.6065226793289185,1.337226152420044,-0.5063400864601135
1782858884513296400,6.14529638671875,1.6032330989837646,1.1825237274169922,-0.3603500425815582
1782858884523244300,6.155244384765625,1.564222812652588,0.9977927207946777,-0.2207183986902237
1782858884533224700,6.165224609375,1.5175979137420654,0.845484733581543,-0.1107976883649826
1782858884543172400,6.17517236328125,1.4773154258728027,0.7430238723754883,-0.040047354996204376
1782858884553121500,6.18512158203125,1.457727074623108,0.6637425422668457,-0.011990586295723915
1782858884563070500,6.195070556640625,1.4821711778640747,0.689871609210968,0.006094674579799175
1782858884573049600,6.205049560546875,1.5377843379974365,0.8627464175224304,0.06984040141105652
1782858884582998500,6.21499853515625,1.5948553085327148,1.0199474096298218,0.13205450773239136
1782858884592946400,6.224946533203125,1.6383098363876343,1.0849390029907227,0.14864389598369598
1782858884602895600,6.2348955078125,1.6743825674057007,1.050931692123413,0.12212573736906052
1782858884612874500,6.24487451171875,1.6866141557693481,0.8550317883491516,0.03586908057332039
1782858884622823400,6.254823486328125,1.6556026935577393,0.5509060025215149,-0.08196301013231277
1782858884632772400,6.2647724609375,1.5727825164794922,0.27827316522598267,-0.17378917336463928
1782858884642721500,6.274721435546875,1.4441560506820679,0.13951873779296875,-0.1857864409685135
1782858884652700400,6.284700439453125,1.3068190813064575,0.15775735676288605,-0.12719550728797913
1782858884662649300,6.2946494140625,1.194286584854126,0.32069140672683716,-0.003401658032089472
1782858884672597500,6.304597412109375,1.1256983280181885,0.5957877039909363,0.17619717121124268
1782858884682546400,6.31454638671875,1.10683274269104,0.9031063914299011,0.35624176263809204
1782858884692525300,6.324525390625,1.145741581916809,1.1497828960418701,0.5018869042396545
1782858884702474200,6.33447412109375,1.2292190790176392,1.2458354234695435,0.592040479183197
1782858884712423700,6.344423583984375,1.313075065612793,1.1621378660202026,0.6375281810760498
1782858884722372600,6.35437255859375,1.387640118598938,0.946071207523346,0.6416515707969666
1782858884732351500,6.3643515625,1.4565495252609253,0.6774791479110718,0.6118274927139282
1782858884742300400,6.374300537109375,1.5106678009033203,0.4369722306728363,0.5516059398651123
1782858884752248600,6.38424853515625,1.520833134651184,0.26566600799560547,0.46740907430648804
1782858884762197500,6.394197509765625,1.5005379915237427,0.18617889285087585,0.3667815327644348
1782858884772176400,6.40417626953125,1.4549752473831177,0.1898648738861084,0.2550409436225891
1782858884782125600,6.41412548828125,1.3900015354156494,0.23488454520702362,0.1494292914867401
1782858884792074500,6.424074462890625,1.3126275539398193,0.3100475072860718,0.06549781560897827
1782858884802022400,6.4340224609375,1.2330275774002075,0.4032554626464844,0.009263569489121437
1782858884812002300,6.444002197265625,1.1580947637557983,0.5090187788009644,-0.02360592409968376
1782858884821950500,6.453950439453125,1.1148484945297241,0.5900249481201172,-0.04729101434350014
1782858884831899400,6.4638994140625,1.097283959388733,0.6286755800247192,-0.06626071035861969
1782858884841848300,6.473848388671875,1.0946990251541138,0.633330762386322,-0.07997146248817444
1782858884851827500,6.483827392578125,1.1004077196121216,0.6429257988929749,-0.07127940654754639
1782858884861776400,6.4937763671875,1.1078568696975708,0.6584696173667908,-0.059003300964832306
1782858884871725600,6.5037255859375,1.1200103759765625,0.6572919487953186,-0.055822618305683136
1782858884881673500,6.513673583984375,1.1299452781677246,0.6190465688705444,-0.07283595949411392
1782858884891680000,6.523679931640625,1.1373443603515625,0.557339608669281,-0.09223385900259018
1782858884901628000,6.5336279296875,1.1348814964294434,0.4598122239112854,-0.10765861719846725
1782858884911577000,6.5435771484375,1.1003963947296143,0.33524271845817566,-0.13862799108028412
1782858884921526300,6.5535263671875,1.032309651374817,0.21345527470111847,-0.16210214793682098
1782858884931505200,6.563505126953125,0.9232919812202454,0.08986210823059082,-0.18476884067058563
1782858884941454000,6.5734541015625,0.754830539226532,-0.06717198342084885,-0.2117895483970642
1782858884951402200,6.58340234375,0.5224565863609314,-0.288329154253006,-0.2619859576225281
1782858884961351200,6.59335107421875,0.23926879465579987,-0.6474271416664124,-0.31780821084976196
1782858884971330000,6.603330078125,-0.07513964176177979,-1.1356239318847656,-0.3217509686946869
1782858884981279200,6.613279296875,-0.4071141183376312,-1.744248628616333,-0.2346019595861435
1782858884991228200,6.623228271484375,-0.7562554478645325,-2.4592037200927734,-0.10464917868375778
1782858885001177000,6.633177001953125,-1.0772761106491089,-3.1176440715789795,0.023611316457390785
1782858885011156000,6.643156005859375,-1.226788878440857,-3.401947021484375,0.2051597386598587
1782858885021105200,6.653105224609375,-1.1565556526184082,-3.276667833328247,0.5203011631965637
1782858885031053000,6.663052978515625,-0.9333866834640503,-2.6964054107666016,0.982295036315918
1782858885041002000,6.673001953125,-0.7376859188079834,-2.006699562072754,1.3270857334136963
1782858885050981000,6.682981201171875,-0.7126609683036804,-1.6441338062286377,1.3024787902832031
1782858885060930000,6.692929931640625,-0.771864116191864,-1.5367745161056519,0.7640413641929626
1782858885070879000,6.70287890625,-0.8735040426254272,-0.9606183767318726,0.07259920239448547
1782858885080827000,6.712826904296875,-0.962744951248169,0.019799910485744476,-0.6095747947692871
1782858885090807300,6.722807373046875,-0.8364724516868591,0.7540629506111145,-1.3573232889175415
1782858885100755200,6.732755126953125,-0.3449767529964447,0.8083440661430359,-2.102804183959961
1782858885110704000,6.7427041015625,0.4237796366214752,0.6802032589912415,-2.7067387104034424
1782858885120653000,6.752653076171875,1.2554453611373901,0.6395354866981506,-2.9988574981689453
1782858885130632200,6.762632080078125,1.9040921926498413,0.7471744418144226,-2.8797199726104736
1782858885140581000,6.7725810546875,2.2858638763427734,0.7928652167320251,-2.44850754737854
1782858885150530000,6.782530029296875,2.4364988803863525,0.6087862849235535,-1.8607666492462158
1782858885160478200,6.792478271484375,2.3807642459869385,0.4941246807575226,-1.185396432876587
1782858885170458000,6.8024580078125,2.1341800689697266,1.0206836462020874,-0.5087826251983643
1782858885180406000,6.812406005859375,1.7949069738388062,0.6007362008094788,0.18713733553886414
1782858885190355000,6.82235498046875,1.4690766334533691,0.31315314769744873,0.9052761197090149
1782858885200304000,6.83230419921875,1.1894716024398804,-0.037052277475595474,1.5807876586914062
1782858885210283000,6.842282958984375,0.9535211324691772,-0.4083060026168823,2.2003116607666016
1782858885220232000,6.85223193359375,0.7693260312080383,-0.7245947122573853,2.7574386596679688
1782858885230180900,6.862180908203125,0.6631001830101013,-1.1395478248596191,3.2464709281921387
1782858885240129000,6.87212890625,0.704076886177063,-1.5854357481002808,3.7527198791503906
1782858885250108000,6.88210791015625,0.875131368637085,-1.969563364982605,4.2634711265563965
1782858885260057000,6.89205712890625,1.0133432149887085,-2.3492884635925293,4.67778205871582
1782858885270006300,6.90200634765625,1.022045373916626,-2.7793352603912354,4.960970878601074
1782858885279955200,6.911955078125,0.9003828167915344,-3.283912181854248,5.1574578285217285
1782858885289934000,6.92193408203125,0.6676064133644104,-3.8738253116607666,5.3302083015441895
1782858885299883000,6.931883056640625,0.32940807938575745,-4.525136470794678,5.465717315673828
1782858885309831200,6.9418310546875,-0.0913303792476654,-5.161220550537109,5.508431434631348
1782858885319780000,6.951780029296875,-0.5401904582977295,-5.598082542419434,5.44404935836792
1782858885329759200,6.96175927734375,-0.9252893328666687,-5.602537155151367,5.294504165649414
1782858885339708200,6.971708251953125,-1.1644444465637207,-5.313145160675049,5.057828903198242
1782858885349657000,6.981656982421875,-1.1927310228347778,-4.898301601409912,4.764945983886719
1782858885359606000,6.99160595703125,-1.053721308708191,-4.4685282707214355,4.464334011077881
1782858885369585200,7.001585205078125,-0.8935799598693848,-4.082756996154785,4.215840816497803
1782858885379534000,7.0115341796875,-0.7656896710395813,-3.7643582820892334,4.010054111480713
1782858885389482000,7.02148193359375,-0.6938234567642212,-3.5455639362335205,3.7775564193725586
1782858885399431000,7.031430908203125,-0.7046798467636108,-3.5093672275543213,3.5191428661346436
1782858885409410000,7.04141015625,-0.7564042806625366,-3.5358757972717285,3.1707980632781982
1782858885419359200,7.051359130859375,-0.7891196012496948,-3.5717034339904785,2.738784074783325
1782858885429308200,7.06130810546875,-0.8490031957626343,-3.592609405517578,2.2736895084381104
1782858885439256000,7.071256103515625,-1.02394437789917,-3.499910593032837,1.7968041896820068
1782858885449236200,7.081236328125,-1.2694822549819946,-3.339158535003662,1.3526597023010254
1782858885459184000,7.09118408203125,-1.495639681816101,-3.228773355484009,0.9861122965812683
1782858885469133000,7.101133056640625,-1.6753491163253784,-3.1256890296936035,0.7607301473617554
1782858885479082000,7.11108203125,-1.8232091665267944,-2.8811631202697754,0.9487570524215698
1782858885489061000,7.12106103515625,-1.9014376401901245,-2.883896589279175,1.2458608150482178
1782858885499010000,7.131010009765625,-1.8817880153656006,-2.7916855812072754,1.6469755172729492
1782858885508959000,7.140958984375,-1.8005926609039307,-2.5468649864196777,2.038794755935669
1782858885518907100,7.1509072265625,-1.7075319290161133,-2.236243724822998,2.3453681468963623
1782858885528887000,7.160886962890625,-1.6167094707489014,-1.909448266029358,2.551828145980835
1782858885538835000,7.1708349609375,-1.5440789461135864,-1.6809340715408325,2.6563069820404053
1782858885548784000,7.1807841796875,-1.475468397140503,-1.4894338846206665,2.658663272857666
1782858885558733000,7.190733154296875,-1.4022717475891113,-1.3604844808578491,2.5642223358154297
1782858885568712000,7.2007119140625,-1.321603775024414,-1.1940031051635742,2.356844425201416
1782858885578661000,7.2106611328125,-1.1948440074920654,-0.9231753945350647,2.052455186843872
1782858885588609000,7.220609130859375,-0.9952730536460876,-0.5627102851867676,1.6920928955078125
1782858885598558200,7.23055810546875,-0.7318491339683533,-0.17504514753818512,1.3226826190948486
1782858885608537000,7.240537109375,-0.4375717043876648,0.2370653748512268,0.9610773921012878
1782858885618486300,7.250486328125,-0.18268032371997833,0.6452925205230713,0.6300914883613586
1782858885628435200,7.260435302734375,0.0023425035178661346,1.0005569458007812,0.34911808371543884
1782858885638384000,7.270384033203125,0.12426547706127167,1.2557058334350586,0.12544183433055878
1782858885648363000,7.280363037109375,0.18863260746002197,1.4330953359603882,-0.02756148763000965
1782858885658312200,7.290312255859375,0.21606022119522095,1.5368664264678955,-0.13406530022621155
1782858885668260000,7.300260009765625,0.22083044052124023,1.5602530241012573,-0.1866472363471985
1782858885678240000,7.310239990234375,0.178592711687088,1.5096592903137207,-0.1987566351890564
1782858885688188200,7.320188232421875,0.08662651479244232,1.4138537645339966,-0.19170010089874268
1782858885698137000,7.33013720703125,-0.019326813519001007,1.305651068687439,-0.18101495504379272
1782858885708086000,7.3400859375,-0.11396157741546631,1.2063308954238892,-0.177359476685524
1782858885718065000,7.35006494140625,-0.20167386531829834,1.1448246240615845,-0.16347135603427887
1782858885728014000,7.36001416015625,-0.2765777111053467,1.1274158954620361,-0.13626450300216675
1782858885737962000,7.3699619140625,-0.3443426489830017,1.1013679504394531,-0.07903290539979935
1782858885747911000,7.379910888671875,-0.4319981336593628,1.0369054079055786,-0.007928896695375443
1782858885757890000,7.38989013671875,-0.554506242275238,0.946838915348053,0.06051807105541229
1782858885767839200,7.399839111328125,-0.6916926503181458,0.8600895404815674,0.12365945428609848
1782858885777788200,7.4097880859375,-0.8333427309989929,0.7907927632331848,0.1678823083639145
1782858885787737000,7.419737060546875,-0.9054317474365234,0.7541079521179199,0.18934188783168793
1782858885797716200,7.42971630859375,-0.9143805503845215,0.7186743021011353,0.2067357897758484
1782858885807665200,7.4396650390625,-0.878799319267273,0.7289538383483887,0.2263990193605423
1782858885817613000,7.449613037109375,-0.8233113288879395,0.8197157382965088,0.2447037249803543
1782858885827562000,7.45956201171875,-0.7835807204246521,0.950759768486023,0.26448509097099304
1782858885837541000,7.469541015625,-0.748625636100769,1.0733821392059326,0.2747441232204437
1782858885847490000,7.479489990234375,-0.698351263999939,1.1598585844039917,0.25855958461761475
1782858885857439000,7.48943896484375,-0.6503507494926453,1.2360857725143433,0.22846639156341553
1782858885867388000,7.499387939453125,-0.6282801628112793,1.2984193563461304,0.2004947066307068
1782858885877367000,7.509366943359375,-0.6419967412948608,1.3192980289459229,0.1626937985420227
1782858885887318300,7.519318359375,-0.6981369256973267,1.313645839691162,0.11757706105709076
1782858885897266400,7.529266357421875,-0.758038341999054,1.2913997173309326,0.0640840083360672
1782858885907215400,7.53921533203125,-0.814204752445221,1.244545578956604,0.008838662877678871
1782858885917194200,7.5491943359375,-0.8967509865760803,1.244273066520691,-0.02957131341099739
1782858885927143700,7.559143798828125,-0.9828510284423828,1.334924340248108,-0.06041531264781952
1782858885937092600,7.569092529296875,-1.0202962160110474,1.4712038040161133,-0.11342952400445938
1782858885947040500,7.57904052734375,-1.0182489156723022,1.6331895589828491,-0.1778010129928589
1782858885957020400,7.5890205078125,-1.0094274282455444,1.7986475229263306,-0.239507794380188
1782858885966968600,7.598968505859375,-0.9694395661354065,1.9284076690673828,-0.300169974565506
1782858885976917500,7.60891748046875,-0.933673620223999,2.018040418624878,-0.3469920754432678
1782858885986866400,7.618866455078125,-0.9454325437545776,2.064837694168091,-0.3777851462364197
1782858885996845600,7.628845458984375,-0.9685705900192261,2.0894229412078857,-0.41858264803886414
1782858886006794500,7.63879443359375,-0.9858793020248413,2.069254159927368,-0.45726045966148376
1782858886016743400,7.648743408203125,-0.9951846599578857,2.020402193069458,-0.46061789989471436
1782858886026691300,7.65869140625,-0.9897475242614746,1.9788342714309692,-0.41922545433044434
1782858886036671500,7.66867138671875,-0.9873594641685486,1.982519507408142,-0.3720845580101013
1782858886046619400,7.678619384765625,-0.9782630801200867,2.034383773803711,-0.3296706974506378
1782858886056568300,7.688568359375,-0.9484748244285583,2.108633041381836,-0.3027198016643524
1782858886066517200,7.698517333984375,-0.8961881995201111,2.186768054962158,-0.2945155203342438
1782858886076496400,7.708496337890625,-0.79981929063797,2.249413013458252,-0.30922284722328186
1782858886086445600,7.718445556640625,-0.7635058760643005,2.2963414192199707,-0.33480438590049744
1782858886096393500,7.7283935546875,-0.7584935426712036,2.337352991104126,-0.3677298426628113
1782858886106342700,7.7383427734375,-0.7143574357032776,2.3276281356811523,-0.3965049088001251
1782858886116321500,7.748321533203125,-0.6462212204933167,2.278871536254883,-0.39491817355155945
1782858886126270500,7.7582705078125,-0.5919100642204285,2.223910331726074,-0.37096935510635376
1782858886136219400,7.768219482421875,-0.5398322343826294,2.17556095123291,-0.3500848412513733
1782858886146168600,7.77816845703125,-0.4877263605594635,2.1415035724639893,-0.3494386076927185
1782858886156147500,7.7881474609375,-0.4530498683452606,2.114901304244995,-0.35644030570983887
1782858886166096400,7.798096435546875,-0.42873191833496094,2.0702178478240967,-0.3301472067832947
1782858886176044500,7.80804443359375,-0.35972005128860474,2.0280449390411377,-0.2655407786369324
1782858886185993500,7.817993408203125,-0.4334687888622284,1.97920560836792,-0.191452756524086
1782858886195972400,7.827972412109375,-0.5233159065246582,1.935862421989441,-0.1191825419664383
1782858886205921500,7.837921630859375,-0.5795890092849731,1.871473789215088,-0.05156173184514046
1782858886215870500,7.847870361328125,-0.6306852698326111,1.8101789951324463,0.0008498118259012699
1782858886225818400,7.857818359375,-0.6673555374145508,1.7717530727386475,0.027085479348897934
1782858886235798300,7.86779833984375,-0.6784787774085999,1.743544578552246,0.03800683468580246
1782858886245746400,7.877746337890625,-0.6867167353630066,1.739411473274231,0.036378443241119385
1782858886255695600,7.887695556640625,-0.6831600666046143,1.7806862592697144,0.017001017928123474
1782858886265644500,7.89764453125,-0.6797057390213013,1.8301702737808228,-0.0004132920876145363
1782858886275623700,7.907623779296875,-0.6821138262748718,1.8988956212997437,-0.014981316402554512
1782858886285572600,7.917572509765625,-0.6518586874008179,1.976771593093872,-0.026149947196245193
1782858886295521500,7.927521484375,-0.6021135449409485,2.048760175704956,-0.05773424357175827
1782858886305469400,7.937469482421875,-0.6123057007789612,2.0583038330078125,-0.11180543154478073
1782858886315449600,7.94744970703125,-0.5935320258140564,1.930335521697998,-0.1742032915353775
1782858886325397500,7.9573974609375,-0.5491471290588379,1.846003532409668,-0.24747171998023987
1782858886335346400,7.967346435546875,-0.5190557837486267,1.851319432258606,-0.2493273913860321
1782858886345295400,7.97729541015625,-0.45688891410827637,1.8294057846069336,-0.23676840960979462
1782858886355274500,7.9872744140625,-0.396024227142334,1.763762354850769,-0.24701306223869324
1782858886365223400,7.997223388671875,-0.34587526321411133,1.6608188152313232,-0.25749555230140686
1782858886375172400,8.00717236328125,-0.31271278858184814,1.56354820728302,-0.2576103210449219
1782858886385120500,8.01712060546875,-0.2962939739227295,1.4855103492736816,-0.23993420600891113
1782858886395100400,8.027100341796874,-0.29762500524520874,1.4304628372192383,-0.2266295850276947
1782858886405048300,8.03704833984375,-0.3179534375667572,1.3996968269348145,-0.23651500046253204
1782858886414997500,8.04699755859375,-0.3460244834423065,1.3665893077850342,-0.23617331683635712
1782858886424946400,8.056946533203124,-0.38881534337997437,1.3452152013778687,-0.2264740914106369
1782858886434925600,8.066925537109375,-0.4369748830795288,1.3065578937530518,-0.2147039771080017
1782858886444874500,8.07687451171875,-0.47995710372924805,1.2691450119018555,-0.20455902814865112
1782858886454822700,8.08682275390625,-0.5224387645721436,1.2248899936676025,-0.19571547210216522
1782858886464771600,8.096771484375,-0.5641254186630249,1.162428379058838,-0.1840088814496994
1782858886474750500,8.10675048828125,-0.5939202904701233,1.1088157892227173,-0.1790625900030136
1782858886484699400,8.116699462890624,-0.6112199425697327,1.0819159746170044,-0.1606135070323944
1782858886494648600,8.126648681640624,-0.6356717348098755,1.0711075067520142,-0.12648457288742065
1782858886504597500,8.136597412109374,-0.6531937718391418,1.0559443235397339,-0.09496426582336426
1782858886514576400,8.146576416015625,-0.6523281931877136,1.0364656448364258,-0.0821177065372467
1782858886524525300,8.156525390625,-0.6484228372573853,1.0274922847747803,-0.07756061106920242
1782858886534473500,8.166473388671875,-0.6442363858222961,1.030256986618042,-0.06357555091381073
1782858886544422400,8.17642236328125,-0.6282286643981934,1.0362248420715332,-0.041461389511823654
1782858886554401300,8.1864013671875,-0.5995131134986877,1.0412803888320923,-0.009913848713040352
1782858886564350500,8.1963505859375,-0.5659815073013306,1.0587233304977417,0.034821562469005585
1782858886574299600,8.206299560546874,-0.5276093482971191,1.0841879844665527,0.08409164100885391
1782858886584247600,8.21624755859375,-0.4960209131240845,1.1155362129211426,0.12881992757320404
1782858886594227500,8.2262275390625,-0.4678683578968048,1.1550276279449463,0.16589753329753876
1782858886604175600,8.236175537109375,-0.442363440990448,1.2076150178909302,0.19473962485790253
1782858886614124500,8.24612451171875,-0.40234625339508057,1.2724744081497192,0.22065484523773193
1782858886624073500,8.256073486328125,-0.3527751863002777,1.3418442010879517,0.24088069796562195
1782858886634052600,8.266052490234374,-0.2986637353897095,1.4105253219604492,0.2586953639984131
1782858886644001500,8.27600146484375,-0.24405039846897125,1.4961529970169067,0.2823663651943207
1782858886653950500,8.285950439453124,-0.20311228930950165,1.6143922805786133,0.30011022090911865
1782858886663898400,8.2958984375,-0.16393524408340454,1.7571463584899902,0.30741819739341736
1782858886673878500,8.30587841796875,-0.06738074868917465,2.0056400299072266,0.25128570199012756
1782858886683826400,8.315826416015625,0.1259240061044693,2.2936646938323975,0.12620730698108673
1782858886693775400,8.325775390625,0.39026114344596863,2.524932622909546,0.000838729552924633
1782858886703724300,8.335724365234375,0.658524215221405,2.671834945678711,-0.07732142508029938
1782858886713703400,8.345703369140624,0.9440984725952148,2.7460596561431885,-0.0954064205288887
1782858886723652400,8.35565234375,1.1810816526412964,2.721318483352661,-0.034076813608407974
1782858886733600300,8.365600341796876,1.320003867149353,2.608208417892456,0.11769434064626694
1782858886743549700,8.3755498046875,1.3625526428222656,2.412198781967163,0.32622602581977844
1782858886753528300,8.3855283203125,1.3479946851730347,2.141148805618286,0.5890268087387085
1782858886763477500,8.3954775390625,1.3229048252105713,1.883008360862732,0.8753843307495117
1782858886773426400,8.405426513671875,1.3360481262207031,1.6698987483978271,1.189395785331726
1782858886783375600,8.415375732421875,1.390215516090393,1.5305217504501343,1.5282437801361084
1782858886793354500,8.4253544921875,1.4206842184066772,1.4217283725738525,1.8843598365783691
1782858886803303400,8.435303466796874,1.3729711771011353,1.3549869060516357,2.2143046855926514
1782858886813251600,8.44525146484375,1.2383524179458618,1.2949917316436768,2.501617431640625
1782858886823200500,8.455200439453124,0.9918586015701294,1.3409857749938965,2.754568576812744
1782858886833179400,8.465179443359375,0.6876838207244873,1.3541339635849,2.989999294281006
1782858886843128300,8.47512841796875,0.3948347568511963,1.2437344789505005,3.2191717624664307
1782858886853077500,8.485077392578125,0.1157253235578537,1.0921627283096313,3.4393036365509033
1782858886863026400,8.4950263671875,-0.14503136277198792,0.9204521179199219,3.651526689529419
1782858886873005300,8.50500537109375,-0.36702659726142883,0.7931119799613953,3.8785054683685303
1782858886882954200,8.514954345703124,-0.4955669641494751,0.7190325856208801,4.15494441986084
1782858886892912000,8.524912109375,-0.5086036920547485,0.6767538785934448,4.464023113250732
1782858886902861000,8.534861083984374,-0.5096340775489807,0.5661718845367432,4.77170467376709
1782858886912840200,8.544840087890625,-0.6312678456306458,0.398445188999176,5.083447456359863
1782858886922789400,8.554789306640625,-0.8354806303977966,0.29677891731262207,5.377970218658447
1782858886932738300,8.56473828125,-1.026351809501648,0.28898942470550537,5.655815601348877
1782858886942686200,8.574686279296875,-1.1366583108901978,0.26566407084465027,5.94631814956665
1782858886952666400,8.584666259765624,-1.1175708770751953,0.3072591722011566,6.230871677398682
1782858886962614300,8.5946142578125,-0.9940111637115479,0.5460517406463623,6.535078048706055
1782858886972563200,8.604563232421874,-0.712617814540863,0.8441556096076965,6.820242881774902
1782858886982512000,8.61451220703125,-0.34194493293762207,1.0192426443099976,7.0323615074157715
1782858886992491300,8.6244912109375,-0.03736959397792816,0.912296712398529,7.1699604988098145
1782858887002440200,8.634440185546875,0.11500607430934906,0.9151308536529541,7.216915130615234
1782858887012389000,8.64438916015625,0.17418791353702545,1.2863261699676514,7.163758277893066
1782858887022337300,8.654337158203125,0.4008820950984955,1.8371152877807617,7.026892185211182
1782858887032317200,8.664317138671874,0.8839877843856812,2.376072883605957,6.828422546386719
1782858887042265000,8.67426513671875,1.4999582767486572,2.8276822566986084,6.562414646148682
1782858887052214300,8.68421435546875,2.0127649307250977,3.197640895843506,6.226512432098389
1782858887062163200,8.6941630859375,2.285106897354126,3.355196714401245,5.865525722503662
1782858887072142000,8.70414208984375,2.2833638191223145,2.731332302093506,5.5553460121154785
1782858887082091300,8.71409130859375,2.0997314453125,1.7987420558929443,5.287824630737305
1782858887092039200,8.7240390625,1.8083122968673706,1.0722562074661255,5.018155574798584
1782858887101988400,8.73398828125,1.4865614175796509,0.7011005282402039,4.674041271209717
1782858887111967200,8.74396728515625,1.237356185913086,0.6399426460266113,4.235922813415527
1782858887121916400,8.75391650390625,1.0850942134857178,0.733443558216095,3.707857131958008
1782858887131865300,8.763865234375,0.982373058795929,0.9558343291282654,3.180013418197632
1782858887141814300,8.773814208984374,0.955918550491333,1.3063198328018188,2.6803300380706787
1782858887151793200,8.783793212890625,0.9663602709770203,1.547491192817688,2.185995578765869
1782858887161742300,8.793742431640625,0.9536142349243164,1.6878451108932495,1.7220470905303955
1782858887171690200,8.803690185546875,0.8950936198234558,1.716286063194275,1.336390733718872
1782858887181639200,8.81363916015625,0.8212971687316895,1.612594723701477,1.0568482875823975
1782858887191618300,8.823618408203124,0.736226499080658,1.4140992164611816,0.8738681077957153
1782858887201567200,8.833567138671874,0.5995749235153198,1.1732181310653687,0.7537824511528015
1782858887211516200,8.84351611328125,0.4008015990257263,0.9451751112937927,0.6496555209159851
1782858887221464000,8.853464111328124,0.19527500867843628,0.7157876491546631,0.5316622257232666
1782858887231444200,8.8634443359375,0.030848247930407524,0.5066483020782471,0.40237030386924744
1782858887241392000,8.87339208984375,-0.08519476652145386,0.3539641499519348,0.2665632367134094
1782858887251341000,8.883341064453125,-0.16404244303703308,0.2745521366596222,0.1386132687330246
1782858887261290200,8.893290283203125,-0.218971386551857,0.2488519251346588,0.025667544454336166
1782858887271269400,8.903269287109374,-0.28097641468048096,0.2445645034313202,-0.07851478457450867
1782858887281218300,8.91321826171875,-0.36381253600120544,0.2557588219642639,-0.16947375237941742
1782858887291167200,8.923167236328124,-0.4669863283634186,0.28795909881591797,-0.25098058581352234
1782858887301115400,8.933115478515624,-0.5622164607048035,0.3324699401855469,-0.3155173659324646
1782858887311095300,8.94309521484375,-0.6447267532348633,0.38561439514160156,-0.377196729183197
1782858887321043200,8.953043212890625,-0.7048912644386292,0.42802709341049194,-0.42544329166412354
1782858887330992000,8.9629921875,-0.7679005861282349,0.4526733160018921,-0.4427943229675293
1782858887340971300,8.97297119140625,-0.8505618572235107,0.48810726404190063,-0.43662595748901367
1782858887350920200,8.982920166015624,-0.9428289532661438,0.5665826797485352,-0.42462679743766785
1782858887360869000,8.992869140625,-1.0496375560760498,0.6663525104522705,-0.4242683947086334
1782858887370818000,9.002818115234374,-1.161834478378296,0.7808353900909424,-0.44857051968574524
1782858887380797200,9.012797119140625,-1.2913899421691895,0.8571527600288391,-0.47343260049819946
1782858887390745000,9.0227451171875,-1.4471896886825562,0.9206396341323853,-0.5239163041114807
1782858887400694000,9.032694091796875,-1.6336941719055176,0.9789484739303589,-0.626714289188385
1782858887410643500,9.0426435546875,-1.8170198202133179,1.0699806213378906,-0.7996921539306641
1782858887420622000,9.0526220703125,-1.9480211734771729,1.2064265012741089,-1.0603432655334473
1782858887430571300,9.0625712890625,-2.0072855949401855,1.4238027334213257,-1.3743499517440796
1782858887440520200,9.072520263671874,-1.9871588945388794,1.666688084602356,-1.7216386795043945
1782858887450468400,9.08246826171875,-1.8998746871948242,1.8132575750350952,-2.0657238960266113
1782858887460448300,9.0924482421875,-1.8205279111862183,1.8919312953948975,-2.381406307220459
1782858887470396200,9.102396240234375,-1.7792891263961792,2.0745251178741455,-2.7058820724487305
1782858887480345300,9.112345458984375,-1.704864501953125,2.391080856323242,-3.0451369285583496
1782858887490294300,9.122294189453125,-1.5943832397460938,2.673819065093994,-3.367877721786499
1782858887500273200,9.132273193359374,-1.5242239236831665,2.920727252960205,-3.6487038135528564
1782858887510222000,9.14222216796875,-1.5668432712554932,3.160151243209839,-3.8730249404907227
1782858887520171300,9.152171142578124,-1.6681150197982788,3.314636707305908,-4.022722244262695
1782858887530119200,9.162119140625,-1.8429780006408691,3.4538049697875977,-4.11314582824707
1782858887540099000,9.17209912109375,-2.075653553009033,3.681852340698242,-4.178379058837891
1782858887550047200,9.182047119140625,-2.2319822311401367,3.8232383728027344,-4.208383560180664
1782858887559996200,9.19199609375,-2.3113515377044678,3.8369321823120117,-4.1774067878723145
1782858887569945300,9.2019453125,-2.3276054859161377,3.7625722885131836,-4.136599540710449
1782858887579924200,9.21192431640625,-2.227356195449829,3.698815107345581,-4.15618896484375
1782858887589873400,9.221873291015624,-2.102381467819214,3.932785987854004,-4.331332683563232
1782858887599821300,9.2318212890625,-1.9923125505447388,4.2868170738220215,-4.689716339111328
1782858887609770200,9.241770263671874,-1.7701084613800049,4.435216426849365,-5.154877185821533
1782858887619749400,9.251749267578125,-1.5226260423660278,4.437758922576904,-5.537309646606445
1782858887629698300,9.2616982421875,-1.38573157787323,4.376980304718018,-5.764082908630371
1782858887639647200,9.271647216796875,-1.4258801937103271,4.237066268920898,-5.862646579742432
1782858887649596200,9.28159619140625,-1.6218584775924683,4.03018856048584,-5.845557689666748
1782858887659575300,9.2915751953125,-1.8637410402297974,3.823972702026367,-5.777508735656738
1782858887669524200,9.301524169921874,-1.9794961214065552,3.673692464828491,-5.717045307159424
1782858887679472000,9.31147216796875,-1.9309771060943604,3.665599822998047,-5.701941013336182
1782858887689421000,9.321421142578124,-1.7277517318725586,3.677419900894165,-5.729723930358887
1782858887699400200,9.331400146484375,-1.4060012102127075,3.71897554397583,-5.779809474945068
1782858887709349000,9.34134912109375,-1.040832757949829,3.786273241043091,-5.777973651885986
1782858887719298000,9.351298095703125,-0.7264775037765503,3.730865001678467,-5.746525764465332
1782858887729246200,9.36124609375,-0.5537238717079163,3.5598859786987305,-5.714266777038574
1782858887739226000,9.37122607421875,-0.5854555368423462,3.537750720977783,-5.6453776359558105
1782858887749174000,9.381174072265624,-0.7870736122131348,3.651758909225464,-5.518259048461914
1782858887759123200,9.391123291015624,-1.0173861980438232,3.81658673286438,-5.3423285484313965
1782858887769072400,9.401072265625,-1.156978964805603,3.9300789833068848,-5.128571510314941
1782858887779051300,9.41105126953125,-1.2034533023834229,3.9711427688598633,-4.9399027824401855
1782858887789000200,9.421000244140625,-1.1721763610839844,3.8755288124084473,-4.833100318908691
1782858887798949000,9.43094921875,-1.1256191730499268,3.6465070247650146,-4.812671661376953
1782858887808897300,9.440897216796875,-1.1092244386672974,3.383894681930542,-4.851836681365967
1782858887818877200,9.450877197265624,-1.1574642658233643,3.08358097076416,-4.876532554626465
1782858887828825300,9.460825439453124,-1.288764238357544,2.7717483043670654,-4.8015923500061035
1782858887838774300,9.470774169921874,-1.4994139671325684,2.453665256500244,-4.623366355895996
1782858887848723200,9.48072314453125,-1.7628304958343506,2.129237413406372,-4.383196830749512
1782858887858702000,9.4907021484375,-2.0470051765441895,1.7474583387374878,-4.101291179656982
1782858887868651300,9.5006513671875,-2.297966241836548,1.332019329071045,-3.7847800254821777
1782858887878599200,9.51059912109375,-2.483417510986328,0.8394420742988586,-3.418455123901367
1782858887888548000,9.520548095703125,-2.5964579582214355,0.35298800468444824,-2.9935083389282227
1782858887898567400,9.5305673828125,-2.5946578979492188,-0.05215979740023613,-2.5261800289154053
1782858887908516400,9.540516357421875,-2.504042625427246,-0.2851184904575348,-2.064650297164917
1782858887918465300,9.55046533203125,-2.3814265727996826,-0.25242558121681213,-1.6625604629516602
1782858887928414500,9.56041455078125,-2.2915124893188477,0.0014754105359315872,-1.3411973714828491
1782858887938393300,9.570393310546875,-2.2598440647125244,0.40566202998161316,-1.0796470642089844
1782858887948342500,9.580342529296875,-2.2815871238708496,0.9005934596061707,-0.8675053119659424
1782858887958290700,9.590290771484375,-2.3213253021240234,1.4093780517578125,-0.6929697394371033
1782858887968239600,9.600239501953125,-2.3470804691314697,1.9430841207504272,-0.5664533376693726
1782858887978218500,9.610218505859375,-2.321312665939331,2.4826250076293945,-0.47172120213508606
1782858887988167400,9.62016748046875,-2.185765266418457,2.907548666000366,-0.3693405091762543
1782858887998116600,9.63011669921875,-1.966427206993103,3.063584804534912,-0.28906023502349854
1782858888008065500,9.6400654296875,-1.7333776950836182,2.534226894378662,-0.41679102182388306
1782858888018044400,9.65004443359375,-1.5488831996917725,1.5911425352096558,-0.8689403533935547
1782858888027993300,9.659993408203125,-1.5755572319030762,1.2234550714492798,-1.319247841835022
1782858888037941500,9.66994140625,-1.7741918563842773,0.9947599172592163,-1.6389838457107544
1782858888047890400,9.679890380859375,-1.9945628643035889,1.0516223907470703,-1.7546473741531372
1782858888057869300,9.689869384765625,-2.1624062061309814,1.1601812839508057,-1.7201809883117676
1782858888067818500,9.699818603515626,-2.2642533779144287,1.2024412155151367,-1.5840539932250977
1782858888077767400,9.709767333984376,-2.2896499633789062,0.9819323420524597,-1.4216101169586182
1782858888087715300,9.71971533203125,-2.1782610416412354,0.4275014102458954,-1.3813718557357788
1782858888097695500,9.729695556640625,-1.9492950439453125,-0.17941907048225403,-1.3996554613113403
1782858888107643400,9.739643310546874,-1.6067304611206055,-0.5637084245681763,-1.4471513032913208
1782858888117592600,9.749592529296875,-1.2477025985717773,-0.7689068913459778,-1.5889781713485718
1782858888127541500,9.75954150390625,-0.971591055393219,-1.076340913772583,-1.819916009902954
1782858888137520600,9.769520751953126,-0.7225139141082764,-1.1872153282165527,-2.010559320449829
1782858888147469600,9.779469482421876,-0.44754520058631897,-0.9372256994247437,-2.127708911895752
1782858888157418500,9.78941845703125,-0.21280188858509064,-0.4278157353401184,-2.2077224254608154
1782858888167366400,9.799366455078125,-0.09165974706411362,0.10746794193983078,-2.2608468532562256
1782858888177346600,9.8093466796875,-0.09151418507099152,0.5032032132148743,-2.265305519104004
1782858888187294500,9.81929443359375,-0.19776099920272827,0.6917715072631836,-2.1747865676879883
1782858888197243400,9.829243408203125,-0.35789963603019714,0.7912813425064087,-1.902163028717041
1782858888207192300,9.8391923828125,-0.49508440494537354,0.9257944226264954,-1.4192358255386353
1782858888217171500,9.84917138671875,-0.5694018006324768,1.0323587656021118,-0.8121181726455688
1782858888227120400,9.859120361328126,-0.6215691566467285,1.0355795621871948,-0.17940860986709595
1782858888237068300,9.869068359375,-0.7967908382415771,0.7447251081466675,0.583942174911499
1782858888247017500,9.879017578125,-0.9874705076217651,0.4074450433254242,1.4275455474853516
1782858888256996400,9.888996337890624,-1.0079463720321655,0.5975905060768127,2.083503484725952
1782858888266945300,9.8989453125,-0.9074205756187439,1.0127538442611694,2.6258349418640137
1782858888276894500,9.90889453125,-0.7776638865470886,1.3483564853668213,3.153298854827881
1782858888286843600,9.91884375,-0.6752475500106812,1.405921459197998,3.7516112327575684
1782858888296822500,9.928822509765626,-0.5879156589508057,1.2630524635314941,4.41488790512085
1782858888306771500,9.938771484375,-0.5116134881973267,1.1576485633850098,5.081112861633301
1782858888316719600,9.9487197265625,-0.458493709564209,1.222448468208313,5.642457962036133
1782858888326668500,9.95866845703125,-0.42055726051330566,0.30887100100517273,5.652657985687256
1782858888336647400,9.9686474609375,-0.4175853431224823,-0.8084024786949158,5.3148345947265625
1782858888346596400,9.978596435546875,-0.3827442526817322,-0.9249381422996521,5.164219379425049
1782858888356545500,9.988545654296875,-0.3837081491947174,-0.5747443437576294,5.157190799713135
1782858888366493400,9.998493408203124,-0.41507166624069214,-0.3055967688560486,5.197670936584473
1782858888376473300,10.008473388671876,-0.4762732982635498,-0.4715392589569092,5.049300670623779
1782858888386421500,10.01842138671875,-0.7992966175079346,-1.0422735214233398,4.627823352813721
1782858888396370400,10.028370361328125,-1.2882192134857178,-1.7585887908935547,4.115992069244385
1782858888406319400,10.0383193359375,-1.5603891611099243,-2.2876548767089844,3.655566453933716
1782858888416298500,10.048298583984375,-1.5960144996643066,-1.807374358177185,3.2062761783599854
1782858888426247400,10.058247314453125,-1.5595890283584595,-0.9163945913314819,2.835878372192383
1782858888436196600,10.068196533203125,-1.476872444152832,-0.196569561958313,2.478774070739746
1782858888446144500,10.07814453125,-1.4291187524795532,0.7365158200263977,2.1109626293182373
1782858888456124700,10.088124755859376,-1.3577462434768677,1.5421388149261475,1.7703022956848145
1782858888466072600,10.098072509765625,-1.249728798866272,2.280837297439575,1.5310324430465698
1782858888476021500,10.108021484375,-1.1084685325622559,2.808881998062134,1.3664953708648682
1782858888485970400,10.117970458984376,-0.8597678542137146,2.707184076309204,1.2038766145706177
1782858888495949600,10.127949462890625,-0.5302948951721191,1.944044589996338,1.098543643951416
1782858888505898500,10.1378984375,-0.24077069759368896,1.2301174402236938,1.1590349674224854
1782858888515847400,10.147847412109375,-0.11553145945072174,0.8914168477058411,1.3869010210037231
1782858888525795600,10.157795654296875,-0.15745174884796143,0.63895583152771,1.6416747570037842
1782858888535775500,10.167775390625,-0.3166617155075073,0.2923984229564667,1.8382173776626587
1782858888545723400,10.177723388671875,-0.5359804630279541,-0.10584321618080139,1.9813486337661743
1782858888555672300,10.18767236328125,-0.7445182204246521,-0.5070288181304932,2.0928921699523926
1782858888565621500,10.19762158203125,-0.8704090714454651,-0.854175865650177,2.1655681133270264
1782858888575600400,10.207600341796875,-0.911662757396698,-1.0957715511322021,2.1267004013061523
1782858888585549300,10.21754931640625,-0.8391792178153992,-1.0882657766342163,1.9574315547943115
1782858888595497500,10.22749755859375,-0.6817666292190552,-0.8586704134941101,1.6736297607421875
1782858888605446700,10.23744677734375,-0.4974071681499481,-0.5238825678825378,1.3087527751922607
1782858888615425500,10.247425537109375,-0.3502652049064636,-0.19519519805908203,0.9211096167564392
1782858888625374500,10.25737451171875,-0.26251721382141113,0.06689873337745667,0.5526497960090637
1782858888635323600,10.26732373046875,-0.24024653434753418,0.20528511703014374,0.23217512667179108
1782858888645272600,10.2772724609375,-0.2823774814605713,0.20448270440101624,-0.0077605172991752625
1782858888655251500,10.28725146484375,-0.3667040765285492,0.08422355353832245,-0.1525772660970688
1782858888665200400,10.297200439453125,-0.46017998456954956,-0.13064266741275787,-0.2266211360692978
1782858888675148500,10.3071484375,-0.5150399804115295,-0.3873176574707031,-0.24358056485652924
1782858888685097500,10.317097412109375,-0.5144391655921936,-0.5834599733352661,-0.21845735609531403
1782858888695076400,10.327076416015625,-0.4626612663269043,-0.6372990012168884,-0.15694934129714966
1782858888705025500,10.337025634765626,-0.40615296363830566,-0.6102908253669739,-0.06660053133964539
1782858888714974500,10.346974365234376,-0.37405961751937866,-0.5922635197639465,0.027707092463970184
1782858888724922400,10.35692236328125,-0.36930423974990845,-0.6169877648353577,0.10082711279392242
1782858888734902300,10.36690234375,-0.35323041677474976,-0.6703892350196838,0.13923299312591553
1782858888744850400,10.376850341796874,-0.32286393642425537,-0.7369241118431091,0.14289963245391846
1782858888754799400,10.38679931640625,-0.28219953179359436,-0.805091381072998,0.10683650523424149
1782858888764748500,10.39674853515625,-0.24706126749515533,-0.8517345190048218,0.048828061670064926
1782858888774727700,10.406727783203126,-0.23454627394676208,-0.8407162427902222,-0.007104711607098579
1782858888784676600,10.416676513671876,-0.24520982801914215,-0.811217725276947,-0.050336603075265884
1782858888794625500,10.42662548828125,-0.26284781098365784,-0.7752587199211121,-0.07545850425958633
1782858888804573400,10.436573486328125,-0.26928067207336426,-0.7311240434646606,-0.10654052346944809
1782858888814553600,10.4465537109375,-0.2487659901380539,-0.6857290863990784,-0.1324126124382019
1782858888824501500,10.45650146484375,-0.2164892703294754,-0.6372912526130676,-0.14560110867023468
1782858888834450400,10.466450439453125,-0.18398411571979523,-0.5828695297241211,-0.1289244294166565
1782858888844399400,10.4763994140625,-0.15079286694526672,-0.5588454008102417,-0.10468007624149323
1782858888854378500,10.48637841796875,-0.12456198036670685,-0.571660041809082,-0.0690532997250557
1782858888864327400,10.496327392578126,-0.09893118590116501,-0.5980420708656311,-0.035127293318510056
1782858888874275300,10.506275390625,-0.0825711339712143,-0.605086624622345,-0.022213958203792572
1782858888884224500,10.516224609375,-0.08729957789182663,-0.5769444704055786,-0.035055190324783325
1782858888894214400,10.52621435546875,-0.11322472244501114,-0.5186364650726318,-0.08005356043577194
1782858888904163300,10.536163330078125,-0.14712196588516235,-0.4279688894748688,-0.13630004227161407
1782858888914112300,10.5461123046875,-0.1801280677318573,-0.31925898790359497,-0.18331380188465118
1782858888924061200,10.556061279296875,-0.2127816081047058,-0.25349941849708557,-0.21013343334197998
1782858888934040300,10.566040283203124,-0.2576623260974884,-0.24789181351661682,-0.2150566428899765
1782858888943989200,10.5759892578125,-0.31943994760513306,-0.28294646739959717,-0.19117207825183868
1782858888953937400,10.5859375,-0.37971043586730957,-0.3332414925098419,-0.1517813801765442
1782858888963886300,10.59588623046875,-0.4264041781425476,-0.3626885712146759,-0.1287277191877365
1782858888973865200,10.605865234375,-0.4410998225212097,-0.3424529731273651,-0.11726933717727661
1782858888983814100,10.615814208984375,-0.4383831322193146,-0.25775086879730225,-0.11311373859643936
1782858888993763300,10.625763427734375,-0.4163835644721985,-0.1672339290380478,-0.11477192491292953
1782858889003712500,10.63571240234375,-0.39323723316192627,-0.09650889039039612,-0.14382700622081757
1782858889013691400,10.64569140625,-0.39397934079170227,-0.05772554129362106,-0.1968454271554947
1782858889023640300,10.655640380859374,-0.4144262969493866,-0.042997196316719055,-0.2421785444021225
1782858889033588500,10.66558837890625,-0.43473029136657715,-0.033445075154304504,-0.2686865031719208
1782858889043537400,10.675537353515624,-0.4438801109790802,-0.03348315879702568,-0.28871214389801025
1782858889053516300,10.685516357421875,-0.4332417845726013,-0.019677437841892242,-0.3017849028110504
1782858889063465500,10.695465576171875,-0.4033922851085663,0.0003023957833647728,-0.31075337529182434
1782858889073414400,10.705414306640625,-0.36301299929618835,0.030063746497035027,-0.3091856837272644
1782858889083393300,10.715393310546874,-0.3089447319507599,0.09025837481021881,-0.2939678430557251
1782858889093342200,10.72534228515625,-0.25180763006210327,0.15450778603553772,-0.2649250626564026
1782858889103290400,10.735290283203126,-0.20818103849887848,0.19384239614009857,-0.23706015944480896
1782858889113239300,10.7452392578125,-0.18637830018997192,0.17928126454353333,-0.21281151473522186
1782858889123218200,10.75521826171875,-0.18463394045829773,0.12075456231832504,-0.20574001967906952
1782858889133167400,10.76516748046875,-0.19352157413959503,0.06704951822757721,-0.21101829409599304
1782858889143116300,10.7751162109375,-0.21007338166236877,0.05391746759414673,-0.22419774532318115
1782858889153065500,10.7850654296875,-0.21728315949440002,0.07035088539123535,-0.248646542429924
1782858889163044400,10.79504443359375,-0.21283568441867828,0.0935153216123581,-0.29109013080596924
1782858889172993500,10.80499365234375,-0.19268064200878143,0.1390777975320816,-0.3460727632045746
1782858889182941400,10.81494140625,-0.17514878511428833,0.20103012025356293,-0.40727487206459045
1782858889192890400,10.824890380859374,-0.1820879429578781,0.28732606768608093,-0.4508228600025177
1782858889202869500,10.834869384765625,-0.21577265858650208,0.4026702344417572,-0.4452078342437744
1782858889212818400,10.844818359375,-0.26642942428588867,0.4739910364151001,-0.3912649154663086
1782858889222767400,10.854767333984375,-0.32549911737442017,0.41013213992118835,-0.3196413516998291
1782858889232715300,10.86471533203125,-0.38467755913734436,0.21227680146694183,-0.2764827013015747
1782858889242695400,10.8746953125,-0.44308868050575256,-0.05878718942403793,-0.2873974144458771
1782858889252643300,10.884643310546876,-0.48232948780059814,-0.31905972957611084,-0.3493901789188385
1782858889262592300,10.89459228515625,-0.4897839426994324,-0.5003195405006409,-0.43507978320121765
1782858889272541200,10.904541259765624,-0.4562380313873291,-0.5766021013259888,-0.511165201663971
1782858889282520300,10.914520263671875,-0.36945971846580505,-0.4981991648674011,-0.5360990762710571
1782858889292469200,10.92446923828125,-0.23784731328487396,-0.3334653973579407,-0.49473369121551514
1782858889302418200,10.934418212890625,-0.07890266180038452,-0.18239624798297882,-0.3883768916130066
1782858889312366300,10.944366455078125,0.09832306206226349,-0.07227322459220886,-0.23112596571445465
1782858889322346500,10.954346435546874,0.2428102046251297,-0.040581874549388885,-0.04438004270195961
1782858889332294400,10.96429443359375,0.3175145089626312,-0.11494824290275574,0.12104935944080353
1782858889342243300,10.974243408203124,0.30626264214515686,-0.2739917039871216,0.2448520064353943
1782858889352192500,10.984192626953124,0.24518702924251556,-0.43754372000694275,0.31628209352493286
1782858889362171400,10.99417138671875,0.1769440472126007,-0.5427843928337097,0.34441250562667847
1782858889372120300,11.004120361328125,0.1222623884677887,-0.5842493772506714,0.341139554977417
1782858889382068500,11.014068359375,0.09170953929424286,-0.5685393810272217,0.31605470180511475
1782858889392017400,11.024017333984375,0.08345505595207214,-0.4916204810142517,0.2819247841835022
1782858889401996300,11.033996337890626,0.0916738361120224,-0.365812748670578,0.25282949209213257
1782858889411945200,11.0439453125,0.08937612175941467,-0.23330412805080414,0.22561565041542053
1782858889421894400,11.053894287109374,0.06507636606693268,-0.11972536891698837,0.20506110787391663
1782858889431843300,11.06384326171875,0.029223022982478142,-0.0625133141875267,0.17958009243011475
1782858889441822200,11.073822265625,-0.013834964483976364,-0.055490024387836456,0.15486036241054535
1782858889451771100,11.083771240234375,-0.05657442659139633,-0.0919073224067688,0.12236595898866653
1782858889461719300,11.09371923828125,-0.09580838680267334,-0.15582717955112457,0.0850345641374588
1782858889471668200,11.103668212890625,-0.12440602481365204,-0.24042664468288422,0.04616076499223709
1782858889481647400,11.1136474609375,-0.13324718177318573,-0.3001592457294464,0.005683116614818573
1782858889491596500,11.123596435546874,-0.13330543041229248,-0.3231949806213379,-0.03233936056494713
1782858889501545500,11.13354541015625,-0.13802242279052734,-0.3372521996498108,-0.061633069068193436
1782858889511494400,11.143494384765624,-0.14561140537261963,-0.3421371281147003,-0.08947601914405823
1782858889521473300,11.153473388671875,-0.1514676958322525,-0.33176010847091675,-0.11082258820533752
1782858889531421400,11.16342138671875,-0.1449814885854721,-0.31570765376091003,-0.12176837772130966
1782858889541370400,11.173370361328125,-0.12237657606601715,-0.28913119435310364,-0.11593019962310791
1782858889551319300,11.1833193359375,-0.09374422580003738,-0.27181658148765564,-0.08938687294721603
1782858889561298400,11.19329833984375,-0.06555972993373871,-0.2987390160560608,-0.04695659130811691
1782858889571247400,11.203247314453124,-0.03496555611491203,-0.34979259967803955,0.006641956977546215
1782858889581196300,11.2131962890625,-0.014442971907556057,-0.3958655595779419,0.07051628082990646
1782858889591144400,11.22314453125,0.0006791185587644577,-0.4030948877334595,0.13307958841323853
1782858889601124400,11.233124267578125,0.0068581849336624146,-0.37508535385131836,0.1763538271188736
1782858889611072300,11.243072265625,0.008883664384484291,-0.3269774615764618,0.180402472615242
1782858889621021200,11.253021240234375,-0.0032369159162044525,-0.2504059970378876,0.15507474541664124
1782858889630970000,11.26297021484375,-0.02391635999083519,-0.159762904047966,0.1347486972808838
1782858889640949200,11.27294921875,-0.03684254735708237,-0.08739842474460602,0.12038812786340714
1782858889650898400,11.2828984375,-0.039613258093595505,-0.05877077579498291,0.10975043475627899
1782858889660847400,11.292847412109374,-0.0278032049536705,-0.04313695430755615,0.0966615304350853
1782858889670795500,11.30279541015625,-0.011304500512778759,-0.042995601892471313,0.08362824469804764
1782858889680775400,11.312775390625,0.009021544829010963,-0.05821503698825836,0.061832670122385025
1782858889690723300,11.322723388671875,0.031762510538101196,-0.077018603682518,0.04072742164134979
1782858889700672500,11.332672607421875,0.05341134965419769,-0.08760520815849304,0.03361384943127632
1782858889710621400,11.342621337890625,0.07353881001472473,-0.10060515254735947,0.04298025742173195
1782858889720600300,11.352600341796874,0.08611372858285904,-0.1035681813955307,0.06291135400533676
1782858889730549200,11.36254931640625,0.09146539121866226,-0.09605833888053894,0.08457380533218384
1782858889740497400,11.372497314453126,0.09155167639255524,-0.0851052850484848,0.09385492652654648
1782858889750446300,11.3824462890625,0.09589598327875137,-0.06867460161447525,0.10383524745702744
1782858889760425200,11.39242529296875,0.10809566080570221,-0.054681017994880676,0.12214687466621399
1782858889770374400,11.40237451171875,0.1222161278128624,-0.06401737034320831,0.14314158260822296
1782858889780323300,11.4123232421875,0.13733647763729095,-0.09410363435745239,0.170425146818161
1782858889790272300,11.422272216796875,0.14330856502056122,-0.14972230792045593,0.21020273864269257
1782858889800251100,11.432251220703124,0.14166325330734253,-0.2406327724456787,0.25437605381011963
1782858889810200600,11.44220068359375,0.14109493792057037,-0.37026941776275635,0.3018086552619934
1782858889820148200,11.452148193359376,0.14337247610092163,-0.5188565254211426,0.3380012810230255
1782858889830097400,11.462097412109374,0.15453855693340302,-0.6363775134086609,0.35415008664131165
1782858889840076500,11.47207666015625,0.16584686934947968,-0.6727948784828186,0.37767964601516724
1782858889850025500,11.482025390625,0.17251332104206085,-0.6428618431091309,0.41257065534591675
1782858889859974400,11.491974365234375,0.170109823346138,-0.5990443229675293,0.4689069092273712
1782858889869922300,11.50192236328125,0.16070932149887085,-0.5768682956695557,0.5254324674606323
1782858889879902500,11.51190234375,0.14432847499847412,-0.557408332824707,0.5567067861557007
1782858889889850400,11.521850341796876,0.13364477455615997,-0.5115149021148682,0.5608561038970947
1782858889899800600,11.531800537109374,0.11595287173986435,-0.4255981147289276,0.5418257117271423
1782858889909749500,11.54174951171875,0.08338398486375809,-0.33803582191467285,0.5154045224189758
1782858889919728600,11.551728759765625,0.05042816698551178,-0.25834178924560547,0.4846910834312439
1782858889929677600,11.561677490234375,0.023802168667316437,-0.17505919933319092,0.4533337652683258
1782858889939626500,11.57162646484375,0.018509402871131897,-0.08468323200941086,0.4137621223926544
1782858889949574400,11.581574462890625,0.025092726573348045,0.0027431845664978027,0.3628116846084595
1782858889959554600,11.591554443359374,0.041942812502384186,0.09532930701971054,0.3110608756542206
1782858889969502500,11.60150244140625,0.0577080063521862,0.19450151920318604,0.2752186954021454
1782858889979451400,11.611451416015624,0.07345074415206909,0.2897486984729767,0.2561083734035492
1782858889989400300,11.621400390625,0.08610102534294128,0.36736518144607544,0.2394827902317047
1782858889999379500,11.63137939453125,0.09408971667289734,0.4405009150505066,0.22566205263137817
1782858890009328400,11.641328369140625,0.094682477414608,0.5316498279571533,0.22267700731754303
1782858890019276300,11.6512763671875,0.09592670202255249,0.6159399747848511,0.23082335293293
1782858890029225500,11.6612255859375,0.09244298189878464,0.659516453742981,0.24045278131961823
1782858890039204400,11.671204345703124,0.06479617208242416,0.6424064636230469,0.2525973320007324
1782858890049153500,11.681153564453124,0.011008016765117645,0.5512480139732361,0.24826094508171082
1782858890059102500,11.6911025390625,-0.05248893424868584,0.376644492149353,0.20834149420261383
1782858890069051400,11.701051513671874,-0.10229909420013428,0.15186156332492828,0.11659228801727295
1782858890079030500,11.711030517578125,-0.11565165221691132,-0.02843790501356125,-0.00822154525667429
1782858890088979500,11.7209794921875,-0.0857144445180893,-0.08628799766302109,-0.141382098197937
1782858890098927600,11.730927734375,-0.03243152052164078,-0.00566692091524601,-0.2598552107810974
1782858890108876500,11.74087646484375,0.03376854956150055,0.1435331553220749,-0.3378370404243469
1782858890118855400,11.75085546875,0.09098976850509644,0.2662316560745239,-0.36172905564308167
1782858890128804400,11.760804443359374,0.1441245824098587,0.32086417078971863,-0.33861860632896423
1782858890138753500,11.77075341796875,0.17996619641780853,0.31187546253204346,-0.29043591022491455
1782858890148702500,11.780702392578124,0.19141757488250732,0.28149646520614624,-0.2290315479040146
1782858890158681300,11.790681396484375,0.1886897087097168,0.2553178668022156,-0.1555994153022766
1782858890168630300,11.80063037109375,0.17391985654830933,0.21733726561069489,-0.08698712289333344
1782858890178578400,11.810578369140625,0.15180522203445435,0.17353439331054688,-0.022362055256962776
1782858890188527600,11.820527587890625,0.1335017830133438,0.11623527854681015,0.04878651723265648
1782858890198506200,11.83050634765625,0.12191464006900787,0.06581871211528778,0.12258563935756683
1782858890208455700,11.84045556640625,0.10600894689559937,0.029957007616758347,0.18877491354942322
1782858890218404600,11.850404541015624,0.08487941324710846,0.034213535487651825,0.24042931199073792
1782858890228352500,11.8603525390625,0.05135894566774368,0.06966591626405716,0.2652253210544586
1782858890238332400,11.87033251953125,0.019229771569371223,0.0967838242650032,0.2565487325191498
1782858890248280600,11.880280517578125,-0.0063783880323171616,0.11037366837263107,0.2200319916009903
1782858890258229500,11.8902294921875,-0.025413330644369125,0.11423498392105103,0.16685399413108826
1782858890268178400,11.900178466796875,-0.04205615445971489,0.1210034042596817,0.0968339741230011
1782858890278157600,11.910157470703124,-0.07473421096801758,0.13680607080459595,0.008000507950782776
1782858890288106500,11.9201064453125,-0.11635040491819382,0.13940271735191345,-0.09659045189619064
1782858890298055400,11.930055419921874,-0.1571737378835678,0.14796984195709229,-0.20293554663658142
1782858890308003300,11.94000341796875,-0.18615053594112396,0.16319186985492706,-0.30600088834762573
1782858890317983500,11.9499833984375,-0.19937340915203094,0.18456241488456726,-0.40076202154159546
1782858890327931400,11.959931396484375,-0.17839676141738892,0.23564760386943817,-0.467395544052124
1782858890337880300,11.96988037109375,-0.1331709623336792,0.3023368716239929,-0.5099749565124512
1782858890347829500,11.97982958984375,-0.06727640330791473,0.38031646609306335,-0.5222442746162415
1782858890357808400,11.989808349609374,0.0007343403995037079,0.4940616488456726,-0.490704745054245
1782858890367757600,11.999757568359374,0.07217240333557129,0.6970160603523254,-0.4022487699985504
1782858890377705500,12.00970556640625,0.14679975807666779,0.8753272294998169,-0.26848697662353516
1782858890387654700,12.019654541015624,0.16331368684768677,0.9455009698867798,0.02935635671019554
1782858890397633500,12.029633544921875,-0.07076166570186615,0.645716667175293,0.5204235315322876
1782858890407582500,12.03958251953125,-0.24458907544612885,-0.4209916293621063,0.712591290473938
1782858890417531400,12.049531494140625,-0.16247795522212982,-1.1312332153320312,0.6788029670715332
1782858890427480600,12.05948046875,0.0013619288802146912,-1.189893364906311,0.5859748721122742
1782858890437459500,12.06945947265625,0.10975337773561478,-0.9828258752822876,0.41672107577323914
1782858890447408400,12.079408447265624,0.1469254195690155,-0.6061152219772339,0.1863161027431488
1782858890457356500,12.0893564453125,0.1862531155347824,-0.06478829681873322,-0.014040151610970497
1782858890467305500,12.099305419921874,0.2489929348230362,0.5415362119674683,-0.17027495801448822
1782858890477284400,12.109284423828125,0.2773880958557129,1.027300477027893,-0.307342529296875
1782858890487233300,12.1192333984375,0.22319941222667694,1.2610912322998047,-0.3769719898700714
1782858890497182500,12.129182373046875,0.1417575627565384,1.2526130676269531,-0.28749752044677734
