time,seconds_elapsed,z,y,x
1782858500369210400,0.26221044921875,-0.001988643780350685,0.0013517113402485847,-0.005079018417745829
1782858500379158300,0.272158203125,0.0007709246128797531,0.0016174940392374992,0.00120204733684659
1782858500389107200,0.282107177734375,-0.0010269004851579666,0.002317219041287899,-0.004540823865681887
1782858500399086300,0.29208642578125,-0.0008721724152565002,-0.0012844400480389595,-0.0016185375861823559
1782858500409035300,0.30203515625,0.00017517432570457458,0.0007884521037340164,-0.001753529068082571
1782858500418984200,0.311984130859375,0.0014713350683450699,0.00002625584602355957,-0.001656056847423315
1782858500428932000,0.32193212890625,-0.00038965046405792236,-0.000023641623556613922,0.0000817989930510521
1782858500438912300,0.331912353515625,-0.00047513656318187714,0.002743915654718876,-0.0024189092218875885
1782858500448860200,0.341860107421875,0.00037472136318683624,0.0008112015202641487,-0.0031493226997554302
1782858500458809300,0.351809326171875,0.000028776004910469055,0.0002125222235918045,-0.0014262567274272442
1782858500468758300,0.36175830078125,-0.0029038358479738235,-0.0005184514448046684,-0.0013601821847259998
1782858500478737400,0.3717373046875,-0.003093453124165535,-0.0006247116252779961,-0.001986557152122259
1782858500488686300,0.381686279296875,-0.000949883833527565,0.001206907443702221,-0.0003739842213690281
1782858500498635300,0.39163525390625,-0.0007346998900175095,-0.000986472237855196,0.0004465361125767231
1782858500508583400,0.40158349609375,0.0003914684057235718,0.001669098623096943,-0.0021039056591689587
1782858500518563300,0.411563232421875,-0.0009619500488042831,0.002687225118279457,-0.0009353109635412693
1782858500528511200,0.42151123046875,0.0002872943878173828,0.0007173456251621246,-0.0016185068525373936
1782858500538460200,0.431460205078125,-0.0004053935408592224,-0.000916503369808197,0.0019517270848155022
1782858500548435000,0.44143505859375,-0.0003338269889354706,0.0008029928430914879,0.001409006305038929
1782858500558383900,0.4513837890625,0.0001495368778705597,-0.00023564044386148453,-0.0006195232272148132
1782858500568363000,0.461363037109375,-0.0011604409664869308,0.0004470944404602051,0.0010861079208552837
1782858500578312000,0.47131201171875,-0.00038546137511730194,0.0022138357162475586,-0.001303279772400856
1782858500588259800,0.481259765625,-0.0009465329349040985,0.001930539496243,-0.0002323891967535019
1782858500598209000,0.491208984375,-0.00137263722717762,0.00025061704218387604,-0.0023139161057770252
1782858500608188000,0.50118798828125,-0.0004805978387594223,0.0014732209965586662,-0.0015336638316512108
1782858500618136800,0.51113671875,-0.0020212363451719284,-0.000020013190805912018,-0.00010993843898177147
1782858500628085800,0.521085693359375,-0.0005862340331077576,0.00122010987251997,-0.00105306226760149
1782858500638034000,0.531033935546875,-0.0003896933048963547,0.0011170459911227226,-0.002347358502447605
1782858500648014000,0.54101416015625,-0.0004592016339302063,-0.0009836559183895588,-0.0028501637279987335
1782858500657962000,0.5509619140625,0.0003882162272930145,0.0006320839747786522,0.00017944863066077232
1782858500667911200,0.5609111328125,0.000865645706653595,0.0005388176068663597,-0.00254780612885952
1782858500677860000,0.570860107421875,0.00005231611430644989,-0.0006082053296267986,-0.0021288907155394554
1782858500687839000,0.5808388671875,-0.0004295744001865387,0.00023176055401563644,0.0001226658932864666
1782858500697788000,0.590787841796875,-0.0006373003125190735,0.0013340432196855545,0.00036980723962187767
1782858500707737000,0.600737060546875,0.002156248316168785,0.0011270996183156967,-0.00035374006256461143
1782858500717685000,0.61068505859375,-0.0011476688086986542,-0.0005480288527905941,-0.0008232551626861095
1782858500727634000,0.620634033203125,0.002128003165125847,0.0005941353738307953,-0.00022368226200342178
1782858500737613000,0.630613037109375,-0.0007298346608877182,0.0005416711792349815,-0.001458589918911457
1782858500747562000,0.64056201171875,-0.00004402175545692444,0.001032685860991478,-0.0025790538638830185
1782858500757511000,0.650510986328125,0.00014985725283622742,-0.00013617519289255142,-0.0012344233691692352
1782858500767458800,0.660458740234375,-0.00042597949504852295,0.0013250811025500298,-0.0002784058451652527
1782858500777439000,0.67043896484375,-0.0019133556634187698,0.00126675795763731,0.0002542263828217983
1782858500787387000,0.680386962890625,-0.0024516843259334564,0.0004103733226656914,-0.0016192211769521236
1782858500797335800,0.690335693359375,-0.0013230368494987488,0.0010186387225985527,0.0000428580678999424
1782858500807285000,0.700284912109375,-0.0007317196577787399,-0.0001526111736893654,-0.00036006420850753784
1782858500817264000,0.71026416015625,-0.001618286594748497,0.0008761677891016006,-0.00018296437337994576
1782858500827213000,0.720213134765625,-0.0011998917907476425,-0.0020293137058615685,0.00046818284317851067
1782858500837162000,0.730161865234375,0.00018388591706752777,0.00036060716956853867,0.0025553023442626
1782858500847110100,0.740110107421875,0.000011317431926727295,0.0007088584825396538,0.0007560430094599724
1782858500857090000,0.750090087890625,-0.0012286491692066193,-0.00014654826372861862,0.0016490011475980282
1782858500867038000,0.760037841796875,0.0016770772635936737,0.003229087218642235,0.0012486730702221394
1782858500876987000,0.76998681640625,-0.00016343221068382263,-0.0008977469988167286,-0.00017159059643745422
1782858500886936000,0.77993603515625,0.0001642182469367981,-0.00023192539811134338,0.0000538327731192112
1782858500896885000,0.789885009765625,0.0014017894864082336,0.0014527896419167519,0.0010173642076551914
1782858500906863900,0.79986376953125,-0.000009085983037948608,0.00023963116109371185,0.0001161801628768444
1782858500916812000,0.80981201171875,0.0009238198399543762,-0.0007337545976042747,0.0006757103838026524
1782858500926761000,0.819760986328125,0.0010377485305070877,0.0013899868354201317,-0.0014185416512191296
1782858500936710000,0.8297099609375,-0.0007724016904830933,0.0021106377243995667,0.002961026504635811
1782858500946688800,0.839688720703125,0.00045386701822280884,-0.0003799041733145714,0.0011979145929217339
1782858500956638000,0.849637939453125,-0.00005426444113254547,-0.00015753041952848434,0.000608290545642376
1782858500966587100,0.859587158203125,0.00092325359582901,0.00014083832502365112,-0.0007550343871116638
1782858500976535000,0.86953515625,0.00046066194772720337,-0.00022667832672595978,-0.0009933877736330032
1782858500986515000,0.879514892578125,-0.000026473775506019592,0.0003365185111761093,0.0004897606559097767
1782858500996463000,0.889463134765625,0.0004488993436098099,0.0005825944244861603,-0.0014708582311868668
1782858501006412000,0.899412109375,-0.00045424140989780426,-0.0011042924597859383,-0.0002705170772969723
1782858501016361000,0.90936083984375,0.0006757378578186035,-0.0004960261285305023,-0.0005552088841795921
1782858501026340000,0.919340087890625,-0.0008269939571619034,-0.001020259689539671,-0.0011227857321500778
1782858501036289000,0.9292890625,0.0005293544381856918,-0.00041519012302160263,0.000004530418664216995
1782858501046238000,0.939238037109375,0.000829402357339859,-0.0016449601389467716,-0.00015245191752910614
1782858501056185900,0.949185791015625,0.0010680202394723892,-0.0021751956082880497,-0.0005364799872040749
1782858501066135000,0.959135009765625,0.0006511695683002472,-0.0018714186735451221,0.00028414279222488403
1782858501076114000,0.969114013671875,-0.0002476479858160019,-0.00045914389193058014,0.0014985441230237484
1782858501086062800,0.979062744140625,-0.00005784071981906891,-0.00038161687552928925,-0.0007961639203131199
1782858501096011800,0.98901171875,0.0018314067274332047,0.0010349182412028313,-0.0003287792205810547
1782858501105960000,0.9989599609375,0.00007301196455955505,-0.0035818666219711304,0.002339398954063654
1782858501115939800,1.00893994140625,0.00002614036202430725,-0.00045771244913339615,-0.00020099012181162834
1782858501125887700,1.0188876953125,-0.000003073364496231079,0.00003410410135984421,-0.00004808185622096062
1782858501135837200,1.028837158203125,0.002089371904730797,0.0004761889576911926,0.0010083941742777824
1782858501145786000,1.0387861328125,-0.00018148869276046753,-0.00010448228567838669,-0.0006573107093572617
1782858501155765000,1.048764892578125,-0.0005055945366621017,0.003573874942958355,-0.0015015332028269768
1782858501165714000,1.0587138671875,0.00021503493189811707,0.0002020774409174919,0.0006911084055900574
1782858501175663000,1.0686630859375,0.00015617907047271729,0.00015174411237239838,0.000995773822069168
1782858501185611000,1.078611083984375,0.00027446262538433075,-0.0014413627795875072,-0.0004345807246863842
1782858501195560000,1.088559814453125,-0.0008877404034137726,-0.002679200377315283,0.001037348061800003
1782858501205539000,1.0985390625,-0.0013326872140169144,0.0000865403562784195,0.0009276592172682285
1782858501215488000,1.108488037109375,-0.0000959150493144989,-0.0007784543558955193,0.003543415805324912
1782858501225437000,1.11843701171875,0.0007563196122646332,0.0010200152173638344,0.0002826731652021408
1782858501235384800,1.128384765625,-0.0011691469699144363,-0.0014106519520282745,0.00005071191117167473
1782858501245365000,1.138364990234375,-0.0006798394024372101,0.0004177819937467575,0.0005067824386060238
1782858501255313000,1.14831298828125,-0.0002745073288679123,0.0011802446097135544,0.0018556737340986729
1782858501265261800,1.15826171875,-0.0008893851190805435,-0.0008212067186832428,0.0001806025393307209
1782858501275210800,1.168210693359375,0.00016043148934841156,-0.002645472064614296,0.004378276877105236
1782858501285190000,1.17818994140625,0.0015271063894033432,-0.0025821314193308353,-0.0003372207283973694
1782858501295139000,1.18813916015625,-0.0003304481506347656,-0.0008518756367266178,0.000023904256522655487
1782858501305088000,1.198087890625,0.0003054402768611908,-0.003481809049844742,0.0013171355240046978
1782858501315036200,1.2080361328125,0.0013161096721887589,-0.0000308845192193985,0.0030146348290145397
1782858501325016000,1.21801611328125,0.00030442699790000916,-0.0001043388620018959,-0.0003803735598921776
1782858501334964000,1.2279638671875,0.0010450519621372223,0.00014759600162506104,-0.0009652036242187023
1782858501344913000,1.237912841796875,-0.0010814238339662552,0.0012504011392593384,-0.0013498775660991669
1782858501354862000,1.247862060546875,-0.001375436782836914,-0.0001983586698770523,0.003275766968727112
1782858501364811000,1.25781103515625,0.00026525743305683136,-0.00010885484516620636,0.0026885541155934334
1782858501374790000,1.267789794921875,0.00018482841551303864,-0.001056141685694456,0.000600901897996664
1782858501384738800,1.27773876953125,-0.0011032521724700928,0.0007078014314174652,-0.000658402219414711
1782858501394687000,1.28768701171875,0.0005348585546016693,0.0021515004336833954,-0.0024384595453739166
1782858501404636000,1.297635986328125,-0.000437883660197258,-0.001294728834182024,-0.000490184873342514
1782858501414615000,1.307614990234375,-0.0004711747169494629,0.000154031440615654,-0.002127230167388916
1782858501424564000,1.31756396484375,0.0005989149212837219,-0.0005087936297059059,0.0008219657465815544
1782858501434513000,1.327512939453125,0.00015017203986644745,-0.0036049848422408104,-0.0013708812184631824
1782858501444460800,1.337460693359375,0.0009580831974744797,-0.0003879731521010399,0.00035046739503741264
1782858501454441000,1.34744091796875,0.0004914961755275726,0.002512741833925247,0.00033528730273246765
1782858501464388900,1.357388916015625,0.00018742680549621582,0.00001623108983039856,0.0004950324073433876
1782858501474338000,1.367338134765625,-0.0004796963185071945,-0.00010387785732746124,-0.0007404079660773277
1782858501484287000,1.377286865234375,-0.0002627503126859665,-0.00022490322589874268,0.0020366227254271507
1782858501494266000,1.38726611328125,-0.0008790064603090286,0.0003285016864538193,-0.0018316186033189297
1782858501504215000,1.397215087890625,-0.0006034020334482193,0.00024032313376665115,0.00038552237674593925
1782858501514164000,1.4071640625,-0.0006300322711467743,-0.00047446973621845245,-0.00009784102439880371
1782858501524112000,1.41711181640625,0.0012533273547887802,-0.00023408513516187668,0.00010564224794507027
1782858501534061000,1.42706103515625,0.002238430082798004,0.0017795311287045479,0.0008204346522688866
1782858501544040000,1.4370400390625,0.0011751484125852585,-0.0013111173175275326,0.0022527948021888733
1782858501553996500,1.44699658203125,0.00024037808179855347,-0.0010847486555576324,0.001211764756590128
1782858501563945500,1.456945556640625,0.00032908469438552856,-0.000896830577403307,-0.0018833247013390064
1782858501573893600,1.4668935546875,-0.00013244152069091797,0.0006723040714859962,-0.00157493120059371
1782858501583873500,1.47687353515625,0.00150250643491745,-0.00027955416589975357,0.00005260203033685684
1782858501593821400,1.486821533203125,-0.00029193051159381866,-0.0012920880690217018,0.0009482232853770256
1782858501603770400,1.496770263671875,-0.0009968560189008713,-0.0009433440864086151,0.0006201276555657387
1782858501613719800,1.5067197265625,-0.0002804659307003021,0.0006875758990645409,-0.0006882832385599613
1782858501623698400,1.516698486328125,-0.0002751089632511139,-0.0014527575112879276,0.0007823756895959377
1782858501633647600,1.526647705078125,0.00020665675401687622,-0.0006096009165048599,0.0018905168399214745
1782858501643596500,1.536596435546875,0.0011815112084150314,-0.0013506049290299416,0.0009993351995944977
1782858501653544700,1.546544677734375,-0.0014321152120828629,-0.0016432860866189003,0.0015442175790667534
1782858501663493600,1.55649365234375,-0.0008939951658248901,-0.0005003064870834351,0.001927520614117384
1782858501673472800,1.56647265625,0.0010413248091936111,0.0010382011532783508,-0.00016066385433077812
1782858501683421700,1.576421630859375,0.0004206877201795578,-0.001165991649031639,0.001054349821060896
1782858501693370600,1.58637060546875,0.0012958012521266937,-0.0002282923087477684,-0.0010229158215224743
1782858501703319600,1.596319580078125,-0.00045329704880714417,0.00025041401386260986,0.001084861345589161
1782858501713298400,1.60629833984375,-0.0004658140242099762,-0.0005040597170591354,-0.001324234064668417
1782858501723246600,1.61624658203125,-0.00011527538299560547,0.00008099619299173355,-0.0009883143939077854
1782858501733195500,1.626195556640625,-0.0006356574594974518,-0.00043645594269037247,0.0005499278195202351
1782858501743144400,1.63614453125,0.000017428770661354065,-0.0019342037849128246,0.0013639004901051521
1782858501753123600,1.64612353515625,-0.0003112051635980606,-0.0015022391453385353,0.0002994351089000702
1782858501763072500,1.656072509765625,-0.0014343522489070892,0.0027396641671657562,-0.00021904194727540016
1782858501773021700,1.666021728515625,-0.0008319448679685593,-0.0026974454522132874,0.0004281061701476574
1782858501782969600,1.675969482421875,0.0001452416181564331,-0.002586021088063717,0.0013877111487090588
1782858501792949800,1.68594970703125,-0.0012814141809940338,-0.00026481039822101593,-0.0008133910596370697
1782858501802897700,1.695897705078125,0.0005408450961112976,0.00020537711679935455,0.00016422802582383156
1782858501812846600,1.7058466796875,0.00036001577973365784,-0.00027132872492074966,-0.0006789285689592361
1782858501822795500,1.71579541015625,-0.00003587640821933746,-0.0013020085170865059,0.0019556619226932526
1782858501832744700,1.72574462890625,0.00021099857985973358,-0.0006814925000071526,0.0009753522463142872
1782858501842723600,1.7357236328125,-0.0002786722034215927,-0.00010707322508096695,0.002063245978206396
1782858501852672500,1.745672607421875,0.0004939120262861252,0.00008254311978816986,-0.0007091043516993523
1782858501862620700,1.75562060546875,-0.00029348768293857574,-0.0011295829899609089,0.0007619247771799564
1782858501872569600,1.765569580078125,-0.0008231904357671738,0.00023555289953947067,-0.0006466209888458252
1782858501882548500,1.775548583984375,-0.0016676783561706543,0.00038876477628946304,0.00041121523827314377
1782858501892497700,1.78549755859375,-0.0011643413454294205,0.0010364456102252007,-0.0018293019384145737
1782858501902446600,1.795446533203125,-0.0001491215080022812,-0.0018605804070830345,0.00012870784848928452
1782858501912394500,1.80539453125,-0.0004833471029996872,0.00013599172234535217,0.00016892189159989357
1782858501922374400,1.81537451171875,-0.001545080915093422,0.0002833511680364609,0.0006285705603659153
1782858501932322600,1.825322509765625,-0.0010848864912986755,0.0004455382004380226,0.0002426784485578537
1782858501942271500,1.835271484375,-0.0009112264961004257,-0.0012036417610943317,0.0007256614044308662
1782858501952220700,1.845220703125,-0.0005229376256465912,-0.0015043127350509167,0.0003922339528799057
1782858501962199800,1.85519970703125,-0.0002261195331811905,0.00374401081353426,-0.0019244411960244179
1782858501972148700,1.865148681640625,0.0005845464766025543,-0.0012467531487345695,0.00001141102984547615
1782858501982097700,1.87509765625,0.00004343874752521515,0.0014417469501495361,0.0002571204677224159
1782858501992045600,1.885045654296875,-0.0021704472601413727,-0.0008182115852832794,0.0005380837246775627
1782858502001994500,1.894994384765625,-0.0008170325309038162,0.0019403258338570595,-0.00008574593812227249
1782858502011973600,1.9049736328125,0.00023464858531951904,-0.0007422761991620064,0.0014831218868494034
1782858502021922600,1.914922607421875,9.12696123123169e-8,-0.002126636914908886,0.003237084485590458
1782858502031871500,1.92487158203125,-0.002075841650366783,0.00009710248559713364,-0.0003826841711997986
1782858502041819600,1.934819580078125,0.0008910913020372391,0.0011107632890343666,-0.0006398623809218407
1782858502051799600,1.944799560546875,0.00013768300414085388,-0.0014762310311198235,0.0019093151204288006
1782858502061747500,1.95474755859375,0.0009071007370948792,-0.000025510787963867188,-0.0012371172197163105
1782858502071696600,1.964696533203125,-0.001410115510225296,-0.0005576098337769508,-0.0009388434700667858
1782858502081645600,1.9746455078125,0.00025274045765399933,-0.000018987804651260376,-0.0008100112900137901
1782858502091624400,1.98462451171875,-0.0025513023138046265,-0.0014392519369721413,0.002023059409111738
1782858502101573600,1.99457373046875,-0.0008129123598337173,0.00002719741314649582,-0.0022775596007704735
1782858502111522600,2.0045224609375,-0.0009244978427886963,0.000023202970623970032,0.0009075812995433807
1782858502121470700,2.014470703125,0.0004748646169900894,-0.00043255556374788284,0.001095328014343977
1782858502131419600,2.024419677734375,0.0013057701289653778,0.000017251819372177124,-0.000234121922403574
1782858502141398800,2.034398681640625,-0.00041514262557029724,0.0009716441854834557,0.00037469249218702316
1782858502151347700,2.04434765625,-0.0010130219161510468,-0.0010496950708329678,0.0009259665384888649
1782858502161296600,2.054296630859375,-0.0012085195630788803,0.0005728630349040031,0.0008281362242996693
1782858502171245600,2.06424560546875,0.0002844482660293579,0.0003078784793615341,-0.0005636317655444145
1782858502181224700,2.074224609375,0.0012464188039302826,-0.00029371771961450577,-0.0013043764047324657
1782858502191173600,2.084173583984375,0.00005731731653213501,0.000595511868596077,-0.0011645597405731678
1782858502201121500,2.09412158203125,-0.00023014843463897705,-0.0009907525964081287,-0.00025316234678030014
1782858502211070500,2.104070556640625,0.0013975761830806732,-0.000661053229123354,0.00015589920803904533
1782858502221049600,2.114049560546875,-0.0006052851676940918,-0.0005751862190663815,-0.0005877809599041939
1782858502230998500,2.12399853515625,0.00032495707273483276,-0.001730198971927166,0.001279094722121954
1782858502240947500,2.133947509765625,-0.000029237940907478333,0.0013089049607515335,0.0007339613512158394
1782858502250895600,2.1438955078125,0.0016855709254741669,-0.00432554492726922,0.0018072151578962803
1782858502260875800,2.153875732421875,-0.0011427197605371475,0.0010994430631399155,-0.0004943767562508583
1782858502270823400,2.163823486328125,-0.00032806023955345154,-0.002052674535661936,0.0018577268347144127
1782858502280772600,2.173772705078125,0.00016360916197299957,-0.0011359220370650291,-0.00030743377283215523
1782858502290721500,2.183721435546875,0.00013138540089130402,-0.0003939652815461159,0.0011301403865218163
1782858502300670700,2.193670654296875,-0.0013391785323619843,0.0006023431196808815,-0.00020592054352164268
1782858502310649600,2.203649658203125,-0.0001471489667892456,0.00044601596891880035,0.0021387264132499695
1782858502320598500,2.2135986328125,-0.000032493844628334045,-0.0016810772940516472,-0.00019623804837465286
1782858502330546700,2.223546630859375,-0.00017870217561721802,-0.0004421742632985115,0.0003694174811244011
1782858502340495600,2.23349560546875,0.001108665019273758,-0.001932011917233467,-0.0009173364378511906
1782858502350474500,2.243474609375,-0.0010375771671533585,0.0007556499913334846,-0.000817734282463789
1782858502360423700,2.253423583984375,-0.00010471418499946594,0.0018807100132107735,0.0032060211524367332
1782858502370372600,2.26337255859375,0.001457497477531433,-0.0014011035673320293,-0.0006465078331530094
1782858502380320500,2.273320556640625,-0.000604020431637764,-0.0007786527276039124,-0.0004896875470876694
1782858502390300400,2.283300537109375,0.00046017952263355255,-0.0011669415980577469,-0.0010492182336747646
1782858502400248600,2.29324853515625,0.0008278246968984604,0.000041564926505088806,-0.0005624224431812763
1782858502410197500,2.303197509765625,0.00027948059141635895,-0.0008420725353062153,0.0010016518644988537
1782858502420146700,2.313146728515625,0.0008661430329084396,0.0014973916113376617,-0.0003435872495174408
1782858502430095600,2.323095703125,0.000525258481502533,-0.001044329721480608,-0.0001888573169708252
1782858502440074800,2.33307470703125,0.0002471562474966049,-0.0010692235082387924,-0.00025916285812854767
1782858502450023700,2.343023681640625,-0.0015052035450935364,-0.0013499208725988865,-0.000035723671317100525
1782858502459971600,2.3529716796875,0.001574937254190445,0.0004217596724629402,0.0018372833728790283
1782858502469920500,2.36292041015625,0.0011325869709253311,0.0019506802782416344,-0.00005702301859855652
1782858502479899600,2.372899658203125,-0.0002987422049045563,-0.0009295176714658737,0.000052648596465587616
1782858502489848600,2.3828486328125,0.00033695437014102936,-0.002205704338848591,0.0007858169265091419
1782858502499797500,2.392797607421875,-0.0015067234635353088,0.00031897053122520447,-0.0005617239512503147
1782858502509746400,2.402746337890625,0.0016850754618644714,0.00037463102489709854,0.00039008958265185356
1782858502519725600,2.4127255859375,0.00017081387341022491,0.002296607941389084,-0.00043225381523370743
1782858502529674500,2.422674560546875,-0.001220155507326126,0.0007916558533906937,0.0019667218439280987
1782858502539622700,2.43262255859375,0.000004783272743225098,-0.0017704772762954235,-0.0009219665080308914
1782858502549576700,2.44257666015625,-0.0013347864151000977,0.0000716308131814003,-0.00037255603820085526
1782858502559555800,2.452555908203125,-0.000302828848361969,0.0018102917820215225,0.0025764652527868748
1782858502569504800,2.4625048828125,0.0005059726536273956,-0.001963140908628702,0.0009183809161186218
1782858502579453700,2.47245361328125,0.00017865002155303955,0.0006111916154623032,-0.001876134891062975
1782858502589401600,2.482401611328125,-0.0006490610539913177,0.0012860363349318504,0.0017731944099068642
1782858502599350800,2.492350830078125,0.000460844486951828,-0.0002416260540485382,0.0008794600144028664
1782858502609329700,2.50232958984375,0.000008638948202133179,-0.0007508224807679653,-0.00022761616855859756
1782858502619278600,2.512278564453125,-0.0011991225183010101,-0.00037841498851776123,-0.0006810259073972702
1782858502629227500,2.5222275390625,0.00235007144510746,-0.0005927993915975094,0.0003139311447739601
1782858502639177000,2.532177001953125,0.00003244727849960327,-0.00024390313774347305,0.0016593001782894135
1782858502649155800,2.54215576171875,-0.00022215023636817932,0.0015143156051635742,-0.0005505909211933613
1782858502659104800,2.552104736328125,0.0003664828836917877,0.0004241578280925751,-0.00016523757949471474
1782858502669053000,2.562052978515625,0.0006088316440582275,-0.0005028885789215565,0.0019477144815027714
1782858502679001900,2.572001953125,-0.0013439394533634186,-0.002236615400761366,-0.0014296416193246841
1782858502688980700,2.581980712890625,-0.0004930589348077774,-0.0010765423066914082,0.00343115977011621
1782858502698929700,2.5919296875,-0.0008155964314937592,-0.0002482924610376358,0.0019055609591305256
1782858502708878800,2.60187890625,0.0010595358908176422,0.0004097744822502136,-0.0028588338755071163
1782858502718826800,2.61182666015625,0.000003773719072341919,-0.0008653067052364349,-0.0004700068384408951
1782858502728806700,2.621806640625,-0.00007319264113903046,-0.00021389685571193695,0.0028128717094659805
1782858502738754800,2.6317548828125,0.00145062617957592,-0.002289279829710722,-0.0021416922099888325
1782858502748703700,2.641703857421875,-0.002169674262404442,0.0005320729687809944,0.00011187465861439705
1782858502758652700,2.651652587890625,-0.000398075208067894,0.00035595986992120743,-0.002872391603887081
1782858502768601600,2.6616015625,0.0014711972326040268,-0.001132747158408165,0.001319157425314188
1782858502778580700,2.671580810546875,-0.001314820721745491,0.0009154044091701508,0.00318519352003932
1782858502788530000,2.681530029296875,0.00010357797145843506,0.0005667963996529579,0.0008493349887430668
1782858502798477600,2.6914775390625,0.0009606480598449707,-0.00012425053864717484,-0.0009064231999218464
1782858502808426800,2.7014267578125,0.0009987317025661469,-0.000013995915651321411,-0.0018451870419085026
1782858502818406000,2.711406005859375,0.0012720245867967606,-0.0003947140648961067,-0.0011284258216619492
1782858502828354800,2.721354736328125,0.0011378023773431778,-0.0014581140130758286,0.0006249989382922649
1782858502838303700,2.7313037109375,0.0016074534505605698,-0.0003698859363794327,-0.0011695162393152714
1782858502848252000,2.741251953125,0.0011730920523405075,-0.0005520465783774853,0.0007516886107623577
1782858502858231800,2.751231689453125,0.00030050426721572876,-0.00043169688433408737,-0.0001644105650484562
1782858502868179700,2.7611796875,-0.00021721422672271729,0.0005419552326202393,0.001925638411194086
1782858502878128600,2.771128662109375,-0.0014193952083587646,0.0006450507789850235,-0.0018388847820460796
1782858502888077800,2.781077880859375,0.0006243139505386353,-0.0006287391297519207,0.0002628816291689873
1782858502898026800,2.79102685546875,0.0005460530519485474,-0.0008701952174305916,-0.0000440855510532856
1782858502908005600,2.801005615234375,0.0009540487080812454,0.0015468895435333252,-0.00006778771057724953
1782858502917954600,2.81095458984375,0.0002206023782491684,0.000247306190431118,0.000028823968023061752
1782858502927902700,2.82090283203125,-0.00013918988406658173,-0.00004138052463531494,0.00026797596365213394
1782858502937851600,2.8308515625,-0.00020949915051460266,-0.0008425246924161911,-0.000680312979966402
1782858502947830800,2.840830810546875,-0.00044279173016548157,-0.0006121615879237652,0.0022592837922275066
1782858502957779700,2.85077978515625,0.0015979800373315811,-0.0005351556465029716,0.00007911492139101028
1782858502967729000,2.86072900390625,0.0006765257567167282,-0.0004443414509296417,-0.0015763058327138424
1782858502977677800,2.870677734375,0.0009315591305494308,0.00036939699202775955,0.0004845741204917431
1782858502987656700,2.88065673828125,0.00005138292908668518,0.0006213318556547165,0.00011492706835269928
1782858502997606000,2.89060595703125,0.0004625767469406128,0.0001238156110048294,0.00035316264256834984
1782858503007553800,2.9005537109375,-0.00001918897032737732,-0.00011160783469676971,0.0007390547543764114
1782858503017502700,2.910502685546875,-0.00022915005683898926,-0.0020974637009203434,-0.0009307526051998138
1782858503027481900,2.92048193359375,-0.0012768376618623734,0.000033863820135593414,-0.0002114325761795044
1782858503037430800,2.9304306640625,0.000532614067196846,0.002570485696196556,0.00026674196124076843
1782858503047379700,2.940379638671875,0.00003779865801334381,-0.0006564659997820854,0.002032151445746422
1782858503057327900,2.950327880859375,0.00102931447327137,-0.0004340223968029022,0.0019699791446328163
1782858503067276800,2.96027685546875,0.000034358352422714233,-0.0005088569596409798,0.0010352092795073986
1782858503077255700,2.970255615234375,0.00015440769493579865,-0.0006620520725846291,-0.0003608735278248787
1782858503087204600,2.98020458984375,-0.0007284302264451981,-0.0026192092336714268,0.00016110623255372047
1782858503097153500,2.990153564453125,-0.0014254003763198853,0.00042603351175785065,-0.0014384514652192593
1782858503107103000,3.00010302734375,-0.0014128834009170532,-0.001171329990029335,0.00119008868932724
1782858503117081600,3.01008154296875,-0.0003786887973546982,-0.0003651576116681099,-0.00007494539022445679
1782858503127030800,3.02003076171875,0.0007321164011955261,0.0013627009466290474,0.0009213434532284737
1782858503136979000,3.02997900390625,0.00017917901277542114,-0.0006085438653826714,0.0003157835453748703
1782858503146927900,3.039927978515625,0.0003613382577896118,-0.00042132381349802017,0.0020676106214523315
1782858503156906800,3.04990673828125,0.0007827747613191605,-0.0005681761540472507,0.0014356416650116444
1782858503166856000,3.05985595703125,0.0009236559271812439,-0.0008920165710151196,0.00035599619150161743
1782858503176804900,3.069804931640625,0.001758413389325142,0.000055392272770404816,-0.00013596564531326294
1782858503186752800,3.079752685546875,0.002361353486776352,-0.0006314367055892944,-0.0010475656017661095
1782858503196732700,3.089732666015625,0.001450948417186737,0.0004080468788743019,-0.0008732965216040611
1782858503206680800,3.099680908203125,-0.0014905128628015518,0.0001909993588924408,0.0018569761887192726
1782858503216629800,3.109629638671875,-0.0001492239534854889,0.0002521071583032608,-0.0003012162633240223
1782858503226578700,3.11957861328125,0.0006734263151884079,0.000771157443523407,-0.0003451583907008171
1782858503236527600,3.129527587890625,-0.0005602054297924042,-0.0019763209857046604,-0.0005697109736502171
1782858503246506800,3.1395068359375,0.002187643200159073,0.00135023333132267,0.00032138265669345856
1782858503256455700,3.14945556640625,0.0007556751370429993,0.0009680325165390968,-0.0004725176841020584
1782858503266403600,3.159403564453125,-0.0006030704826116562,-0.0021606492809951305,0.0003056577406823635
1782858503276352800,3.169352783203125,0.0014317464083433151,0.0001215590164065361,-0.0005170111544430256
1782858503286331600,3.17933154296875,0.00012093782424926758,-0.000880588311702013,0.00032135192304849625
1782858503296280800,3.18928076171875,0.0006529036909341812,0.0015282975509762764,-0.0009111831896007061
1782858503306229800,3.199229736328125,0.00012080371379852295,-0.0009428495541214943,-0.00007974449545145035
1782858503316178700,3.2091787109375,-0.00043902359902858734,-0.0012833410874009132,-0.0007775770500302315
1782858503326157800,3.21915771484375,-0.001014532521367073,-0.0007557687349617481,-0.0006601321510970592
1782858503336106800,3.229106689453125,0.00044574961066246033,-0.0003037136048078537,0.0005387673154473305
1782858503346055000,3.239054931640625,0.0006028767675161362,0.0014449181035161018,-0.00036484329029917717
1782858503356003800,3.24900390625,0.0015385951846837997,-0.0005175648257136345,0.0006598718464374542
1782858503365952800,3.258952880859375,0.00040834955871105194,-0.0009737643413245678,-0.00042030634358525276
1782858503375931600,3.268931640625,-0.0005131177604198456,-0.0011172676458954811,0.0015746424905955791
1782858503385880800,3.278880859375,0.000049874186515808105,-0.0008381684310734272,-0.000059206970036029816
1782858503395828700,3.288828857421875,0.0013159234076738358,0.0012548407539725304,0.0005850004963576794
1782858503405777700,3.298777587890625,0.0008464064449071884,-0.0005095032975077629,0.000921890139579773
1782858503415756800,3.3087568359375,-0.0014377571642398834,0.0005599064752459526,-0.0018440787680447102
1782858503425705700,3.318705810546875,-0.0014353599399328232,-0.0010933838784694672,0.00014903070405125618
1782858503435654700,3.328654541015625,0.0004233531653881073,-0.0012750006280839443,-0.0007732468657195568
1782858503445603800,3.338603759765625,0.00010297633707523346,-0.00010267738252878189,0.001903762575238943
1782858503455583000,3.3485830078125,0.00019909441471099854,-0.001460549421608448,0.0019633471965789795
1782858503465532000,3.358531982421875,0.0004409104585647583,0.00013361871242523193,-0.0004790378734469414
1782858503475479800,3.368479736328125,0.00022268667817115784,-0.0010186019353568554,-0.00045690080150961876
1782858503485428700,3.3784287109375,0.00012494809925556183,-0.0015560276806354523,0.00028345827013254166
1782858503495407900,3.388407958984375,-0.0009704176336526871,-0.00039492733776569366,0.0008853976614773273
1782858503505356800,3.398356689453125,-0.00030728988349437714,0.00027618929743766785,-0.0016065221279859543
1782858503515305700,3.4083056640625,0.0007957015186548233,-0.00040667038410902023,0.0004476560279726982
1782858503525254000,3.41825390625,0.0002359040081501007,0.0008005397394299507,-0.00020082341507077217
1782858503535202800,3.428202880859375,0.0013437755405902863,-0.00036491453647613525,0.00027162861078977585
1782858503545181700,3.438181640625,0.0014969073235988617,0.0011802520602941513,0.0027981698513031006
1782858503555150300,3.448150390625,0.0003756806254386902,0.00045878905802965164,0.0004881424829363823
1782858503565099300,3.458099365234375,0.0020801033824682236,-0.0003116633743047714,0.0003051832318305969
1782858503575048200,3.468048095703125,0.00010584481060504913,0.0003349296748638153,0.0005211126990616322
1782858503585027300,3.47802734375,-0.0003293156623840332,-0.00006401166319847107,-0.0015004933811724186
1782858503594976300,3.487976318359375,0.00017412379384040833,0.000017910264432430267,-0.0009086276404559612
1782858503604924200,3.497924072265625,-0.00000883452594280243,0.0021090246737003326,0.000131336972117424
1782858503614873000,3.507873046875,-0.00026068277657032013,0.00241714995354414,-0.0012600761838257313
1782858503624852200,3.517852294921875,-0.00022526271641254425,-0.0005022073164582253,-0.0008065397851169109
1782858503634801200,3.52780126953125,-0.00018528848886489868,-0.0005440334789454937,0.0013047237880527973
1782858503644750000,3.53775,-0.00008462183177471161,0.003529537469148636,-0.0019288863986730576
1782858503654699300,3.54769921875,-0.000006327405571937561,-0.001817431766539812,0.00044114748015999794
1782858503664678100,3.55767822265625,0.0010829046368598938,-0.0011684196069836617,-0.0020473101176321507
1782858503674626000,3.5676259765625,-0.0010404139757156372,0.0001237308606505394,-0.0003203037194907665
1782858503684575200,3.5775751953125,0.000589173287153244,-0.0003529749810695648,-0.002107018604874611
1782858503694524400,3.5875244140625,0.0018381047993898392,-0.0010271165519952774,-0.0016329777427017689
1782858503704473300,3.597473388671875,0.00042343512177467346,0.0007702503353357315,-0.0013653305359184742
1782858503714452200,3.6074521484375,0.0006807688623666763,-0.0005552927032113075,-0.00015280162915587425
1782858503724401200,3.617401123046875,-0.00024574436247348785,-0.00025834981352090836,0.000033886171877384186
1782858503734349300,3.627349365234375,0.00014315731823444366,-0.00022934004664421082,0.00034559937193989754
1782858503744298200,3.63729833984375,0.0003817752003669739,-0.0002802060917019844,0.000830827746540308
1782858503754277000,3.647277099609375,0.00005944445729255676,-0.00008876528590917587,-0.0010673697106540203
1782858503764226300,3.657226318359375,-0.0003962237387895584,-0.0002642674371600151,-0.0016769678331911564
1782858503774175200,3.66717529296875,-0.000032704323530197144,-0.0012553147971630096,-0.0008376501500606537
1782858503784124200,3.677124267578125,-0.001680135726928711,-0.002802611328661442,0.0005575795657932758
1782858503794103000,3.68710302734375,-0.00010794401168823242,0.0012231171131134033,-0.0001624678261578083
1782858503804052200,3.69705224609375,0.000501653179526329,0.00009979493916034698,0.0016247793100774288
1782858503814000000,3.707000244140625,-0.000522661954164505,-0.0006748740561306477,0.0005838889628648758
1782858503823949000,3.716948974609375,-0.001408962532877922,-0.0017752922140061855,0.0006568594835698605
1782858503833898200,3.726898193359375,0.0006004516035318375,-0.0005978052504360676,0.0013071266002953053
1782858503843877400,3.73687744140625,-0.0013945233076810837,-0.0030604302883148193,-0.00209452910348773
1782858503853826300,3.746826416015625,-0.00035138800740242004,-0.001626390963792801,-0.0018523652106523514
1782858503863774200,3.756774169921875,-0.0004030521959066391,0.0016269264742732048,-0.0005127950571477413
1782858503873723400,3.766723388671875,-0.00029347091913223267,-0.0008635087870061398,0.0007510464638471603
1782858503883702300,3.776702392578125,0.0005225203931331635,-0.002902691252529621,-0.0006598960608243942
1782858503893651200,3.786651123046875,-0.0006779134273529053,-0.0027997144497931004,0.002524066250771284
1782858503903600000,3.79660009765625,0.0002086535096168518,0.0002727741375565529,0.00003933720290660858
1782858503913549300,3.80654931640625,0.000555066391825676,-0.0003257356584072113,0.0011004866100847721
1782858503923528200,3.816528076171875,0.001453084871172905,-0.00090364133939147,-0.0007434859871864319
1782858503933477000,3.82647705078125,-0.00016041472554206848,0.0002737361937761307,0.0007728720083832741
1782858503943425300,3.83642529296875,-0.0004395134747028351,-0.002519120927900076,0.0007164129056036472
1782858503953374200,3.846374267578125,-0.0006723571568727493,-0.0001318296417593956,0.000797731801867485
1782858503963353000,3.85635302734375,-0.00013599731028079987,0.0007523400709033012,0.0004946640692651272
1782858503973302000,3.866302001953125,0.0016349926590919495,0.0015148092061281204,-0.0008474527858197689
1782858503983251500,3.87625146484375,0.0008746590465307236,-0.0008841664530336857,-0.000027997884899377823
1782858503993199000,3.88619921875,0.0004387255758047104,-0.00006048567593097687,-0.0008023129776120186
1782858504003148300,3.896148193359375,0.0013607107102870941,0.001415172591805458,0.001156708225607872
1782858504013127400,3.90612744140625,-0.0013747867196798325,-0.0010841968469321728,0.0006451182998716831
1782858504023076400,3.916076416015625,-0.00033482350409030914,-0.0010146885178983212,0.0005692183040082455
1782858504033025300,3.926025390625,-0.000609247013926506,0.00005439296364784241,0.0010475940071046352
1782858504042974200,3.93597412109375,-0.0005879420787096024,0.00004959944635629654,-0.0004467056132853031
1782858504052953300,3.945953369140625,0.0013095568865537643,-0.0002931132912635803,-0.0009864717721939087
1782858504062902300,3.95590234375,0.0006171353161334991,0.00033965427428483963,-0.00016035931184887886
1782858504072850200,3.96585009765625,0.001482538878917694,-0.003536001779139042,0.0006946059875190258
1782858504082799000,3.975799072265625,-0.000426415354013443,0.00016153044998645782,-0.0030455379746854305
1782858504092778200,3.9857783203125,0.0000764206051826477,-0.0018918639980256557,-0.0017201104201376438
1782858504102727200,3.99572705078125,0.00007189251482486725,-0.0013765422627329826,-0.00012194784358143806
1782858504112676000,4.005676025390625,-0.0010534320026636124,-0.0001303674653172493,0.0007799728773534298
1782858504122625000,4.015625,-0.0017242822796106339,-0.003333351109176874,0.0010239183902740479
1782858504132604200,4.025604248046875,-0.00008076801896095276,0.0004059569910168648,-0.0006049009971320629
1782858504142553300,4.03555322265625,-0.0018163509666919708,0.0004336535930633545,-0.0005311314016580582
1782858504152501000,4.0455009765625,0.0008977074176073074,-0.0007801675237715244,0.001054386142641306
1782858504162450400,4.055450439453125,-0.00047488510608673096,-0.0006371559575200081,-0.0004529631696641445
1782858504172399400,4.0653994140625,0.0004394855350255966,-0.0012065782211720943,-0.0000814502127468586
1782858504182378200,4.075378173828125,0.001368662342429161,0.00018865149468183517,-0.0007347236387431622
1782858504192327200,4.0853271484375,0.00036307424306869507,-0.0019556977786123753,0.0012352471239864826
1782858504202275300,4.095275390625,0.0020672306418418884,-0.0001386227086186409,0.0010136719793081284
1782858504212224300,4.105224365234375,-0.0008929949253797531,0.0003778291866183281,0.0008250470273196697
1782858504222203100,4.115203125,0.0013469904661178589,-0.0007564113475382328,0.0007376954890787601
1782858504232152300,4.12515234375,0.0010716244578361511,0.0005977796390652657,0.0012250393629074097
1782858504242101200,4.135101318359375,-0.0016322825103998184,-0.0010142321698367596,0.0020998879335820675
1782858504252050200,4.14505029296875,0.0005309842526912689,-0.000328797847032547,-0.000901383813470602
1782858504262029000,4.155029052734375,-0.0004253555089235306,-0.00020389631390571594,-0.0028372355736792088
1782858504271978200,4.164978271484375,-0.00017330050468444824,-0.000048726797103881836,-0.0017478428781032562
1782858504281926100,4.174926025390625,-0.00016211532056331635,0.0005973558872938156,0.00038295192644000053
1782858504291875000,4.184875,0.0009727030992507935,0.0005214707925915718,0.0014200219884514809
1782858504301824300,4.19482421875,0.00028960220515727997,-0.0004745512269437313,0.0019779540598392487
1782858504311803100,4.20480322265625,-0.0006421729922294617,-0.0015319585800170898,-0.0019406620413064957
1782858504321752300,4.21475244140625,-0.00007385388016700745,0.0014182915911078453,0.0005997270345687866
1782858504331700200,4.2247001953125,-0.0010986290872097015,-0.0001244833692908287,-0.0008271737024188042
1782858504341649400,4.2346494140625,0.0007080603390932083,0.00024649500846862793,0.0023537063971161842
1782858504351628300,4.244628173828125,0.0008036643266677856,-0.0016716360114514828,0.00007386831566691399
1782858504361577200,4.2545771484375,0.0018518846482038498,0.0014802152290940285,0.0001361863687634468
1782858504371526100,4.264526123046875,0.0004532206803560257,0.0006657494232058525,-0.00008003320544958115
1782858504381475300,4.274475341796875,-0.0010631829500198364,-0.001207517459988594,-0.0003993464633822441
1782858504391454200,4.2844541015625,-0.00017981603741645813,0.0010340381413698196,0.00011667050421237946
1782858504401403100,4.294403076171875,0.0011038277298212051,-0.0013769217766821384,0.00014383485540747643
1782858504411351300,4.304351318359375,-0.0015659034252166748,-0.00028119515627622604,0.0006389347836375237
1782858504421300200,4.31430029296875,0.00004610791802406311,0.0006919242441654205,0.0015244358219206333
1782858504431279000,4.324279052734375,-0.0008270759135484695,-0.0015940247103571892,-0.0009365207515656948
1782858504441228000,4.33422802734375,-0.0015570484101772308,-0.00001769978553056717,0.0026779212057590485
1782858504451177200,4.34417724609375,-0.0006233826279640198,-0.0003483043983578682,0.000748632475733757
1782858504461126400,4.35412646484375,-0.0011397693306207657,-0.0002447068691253662,0.0004554181359708309
1782858504471074000,4.364073974609375,0.00042271241545677185,0.003907050006091595,-0.00167167279869318
1782858504481053200,4.37405322265625,-0.0015400368720293045,0.0006207097321748734,-0.0009582126513123512
1782858504491002400,4.38400244140625,0.0010670926421880722,-0.0010168617591261864,-0.00014919321984052658
1782858504500951300,4.393951416015625,0.0011030454188585281,0.00018821842968463898,-0.0001830155961215496
1782858504510900200,4.403900146484375,-0.0007488727569580078,-0.0008589304052293301,-0.0014830846339464188
1782858504520879400,4.41387939453125,-0.0013720523566007614,-0.0029300707392394543,0.002185951918363571
1782858504530828300,4.423828369140625,-0.00048284605145454407,0.002648402936756611,-0.00034609902650117874
1782858504540776200,4.433776123046875,-0.00051933154463768,-0.0008981288410723209,0.002703486941754818
1782858504550746600,4.44374658203125,-0.0017045717686414719,0.0003947960212826729,-0.000790836289525032
1782858504560725800,4.453725830078125,-0.0013948455452919006,-0.001710698939859867,-0.00019828323274850845
1782858504570674700,4.4636748046875,0.0007029548287391663,0.002818790264427662,-0.0005610170774161816
1782858504580623600,4.47362353515625,-0.0002539195120334625,-0.0015826160088181496,0.0010922732762992382
1782858504590572500,4.483572509765625,-0.00002864748239517212,-0.0018269014544785023,0.0032199257984757423
1782858504600551700,4.4935517578125,-0.0015048384666442871,-0.0009320792742073536,0.0023200437426567078
1782858504610500600,4.50350048828125,-0.00015860609710216522,-0.0010466263629496098,0.0015213340520858765
1782858504620448500,4.513448486328125,-0.000683516263961792,0.0004692450165748596,-0.0009788419120013714
1782858504630397400,4.5233974609375,-0.0010741837322711945,-0.0012094080448150635,-0.0007298490963876247
1782858504640346600,4.5333466796875,-0.000024631619453430176,-0.0010176603682339191,-0.0008406373672187328
1782858504650325500,4.543325439453125,-0.000012444332242012024,-0.001075733918696642,0.0026713949628174305
1782858504660274700,4.553274658203125,-0.0008958149701356888,-0.0005207313224673271,-0.00023118453100323677
1782858504670222600,4.56322265625,0.001221800222992897,-0.00016313046216964722,-0.0002598152495920658
1782858504680171800,4.573171875,-0.00024080835282802582,-0.0007564821280539036,-0.0009072297252714634
1782858504690150700,4.583150634765625,0.00043538399040699005,-0.0008934340439736843,0.0007992731407284737
1782858504700099600,4.593099609375,0.0006127506494522095,-0.0013877167366445065,-0.000986376777291298
1782858504710048800,4.603048828125,-0.0005613267421722412,0.00015023816376924515,0.00131143257021904
1782858504719997700,4.612997802734375,0.0011100731790065765,0.000425875186920166,-0.0003618313930928707
1782858504729976600,4.6229765625,-0.000748656690120697,-0.0012005744501948357,-0.00009263027459383011
1782858504739925500,4.632925537109375,-0.00016835331916809082,-0.0023816865868866444,0.00019099609926342964
1782858504749873700,4.642873779296875,0.00037482939660549164,-0.0001443084329366684,0.001474785152822733
1782858504759822600,4.652822509765625,0.001424647867679596,0.00014863908290863037,0.00017676036804914474
1782858504769771500,4.662771484375,0.0009127426892518997,-0.0010667038150131702,0.0018116221763193607
1782858504779750700,4.672750732421875,-0.0012771748006343842,0.00120603758841753,0.0011064172722399235
1782858504789699600,4.682699462890625,-0.0011386703699827194,-0.0011834558099508286,0.0007964274846017361
1782858504799647500,4.6926474609375,-0.0008646305650472641,-0.0008697351440787315,-0.0007189111784100533
1782858504809596400,4.702596435546875,0.0013873931020498276,-0.0010059974156320095,-0.0008067735470831394
1782858504819575600,4.712575439453125,-0.000601455569267273,-0.0005758968181908131,0.0010803421027958393
1782858504829524500,4.7225244140625,-0.0022056587040424347,-0.002749131992459297,-0.002663201652467251
1782858504839473700,4.7324736328125,-0.002306858077645302,-0.0013648206368088722,0.0014527137391269207
1782858504849422600,4.742422607421875,-0.0012512560933828354,0.0005795955657958984,-0.0008717197924852371
1782858504859401700,4.752401611328125,0.001071285456418991,-0.00037567969411611557,-0.0011609392240643501
1782858504869350700,4.7623505859375,-0.00006442703306674957,-0.0016915546730160713,-0.00019748741760849953
1782858504879298600,4.772298583984375,-0.0015518032014369965,0.0000640014186501503,-0.0011916449293494225
1782858504889247700,4.782247802734375,-0.0010220613330602646,-0.0012104115448892117,0.00018309568986296654
1782858504899226600,4.7922265625,-0.0011602789163589478,-0.0009755203500390053,0.0005490141920745373
1782858504909175600,4.802175537109375,0.0019998662173748016,0.0003274092450737953,0.00047482969239354134
1782858504919124500,4.81212451171875,-0.00046115927398204803,-0.0013415939174592495,0.002129185013473034
1782858504929073700,4.82207373046875,-0.000621376559138298,-0.00028766971081495285,0.0018247123807668686
1782858504939021600,4.832021484375,-0.001458408311009407,0.0006558885797858238,0.00005450937896966934
1782858504949001500,4.84200146484375,0.00033183395862579346,-0.0011877729557454586,0.0005587185733020306
1782858504958949600,4.85194970703125,-0.000128893181681633,-0.0006309058517217636,0.00026816781610250473
1782858504968898600,4.861898681640625,0.0012520868331193924,-0.002258265856653452,0.0004278193227946758
1782858504978847700,4.87184765625,-0.0004067961126565933,-0.0009895358234643936,-0.0006861812435090542
1782858504988826600,4.88182666015625,-0.000003334134817123413,0.0023938603699207306,-0.0018717851489782333
1782858504998775800,4.89177587890625,-0.0013570189476013184,0.00009475275874137878,0.0002435632050037384
1782858505008723700,4.9017236328125,-0.00038366392254829407,-0.0004978496581315994,-0.0003631799481809139
1782858505018672600,4.911672607421875,-0.00031948089599609375,0.00018312036991119385,0.0005606706254184246
1782858505028651800,4.92165185546875,0.0008470900356769562,-0.0009828265756368637,0.00031182123348116875
1782858505038600700,4.9316005859375,0.0008249860256910324,0.0013570263981819153,-0.0010035140439867973
1782858505048549600,4.941549560546875,0.0017112642526626587,-0.0003998158499598503,0.0012750611640512943
1782858505058498600,4.95149853515625,-0.0005649384111166,-0.0006216568872332573,0.00030407262966036797
1782858505068477700,4.961477783203125,-0.00004851631820201874,0.0012509170919656754,-0.0004009990952908993
1782858505078426600,4.971426513671875,-0.0006586462259292603,-0.00045776739716529846,0.0019913185387849808
1782858505088374500,4.98137451171875,0.0010079946368932724,0.0033884113654494286,-0.00002281786873936653
1782858505098323500,4.991323486328125,-0.0008546207100152969,0.0015894463285803795,-0.002083572093397379
1782858505108272600,5.001272705078125,0.0011799708008766174,-0.00035653263330459595,0.00035810330882668495
1782858505118251500,5.01125146484375,-0.0004887674003839493,0.0021870527416467667,0.00034691812470555305
1782858505128200400,5.021200439453125,0.0006622541695833206,0.0006943037733435631,0.0009703212417662144
1782858505138148600,5.031148681640625,0.0005325581878423691,0.0037817060947418213,-0.0012664678506553173
1782858505148097500,5.04109765625,-0.000012937933206558228,-0.00022067595273256302,0.0017644013278186321
1782858505158076400,5.051076416015625,0.0006597768515348434,0.0005585644394159317,0.0013015437871217728
1782858505168025900,5.06102587890625,-0.0021656230092048645,-0.000004950910806655884,0.0020085694268345833
1782858505177974800,5.070974853515625,0.0011058039963245392,-0.00022785738110542297,0.0009140102192759514
1782858505187923700,5.080923828125,0.00001893751323223114,-0.0013908641412854195,0.0008841664530336857
1782858505197902600,5.090902587890625,0.0020288247615098953,0.0007958579808473587,0.0002620522864162922
1782858505207851800,5.100851806640625,-0.0010953638702630997,0.0013289432972669601,0.00007883412763476372
1782858505217799700,5.110799560546875,-0.0014024265110492706,-0.0008625714108347893,-0.0007374249398708344
1782858505227748600,5.12074853515625,0.001332361251115799,0.001632259227335453,0.000736551359295845
1782858505237697500,5.130697509765625,0.0007696356624364853,-0.0006167804822325706,-0.0017734779976308346
1782858505247676700,5.1406767578125,-0.0002482011914253235,0.0014368575066328049,-0.00009776605293154716
1782858505257625600,5.15062548828125,-0.0005909502506256104,0.0011220723390579224,-0.0007315981201827526
1782858505267574500,5.160574462890625,-0.000555720180273056,0.0001035863533616066,0.0006090500392019749
1782858505277522700,5.170522705078125,0.00011646188795566559,0.00029027368873357773,0.0012910855002701283
1782858505287501600,5.18050146484375,0.0004379022866487503,-0.00008094962686300278,0.0006477455608546734
1782858505297450500,5.190450439453125,0.00024375692009925842,0.00020826980471611023,-0.00041379034519195557
1782858505307399700,5.200399658203125,0.00029265880584716797,-0.0006678211502730846,-0.0005222251638770103
1782858505317348600,5.2103486328125,0.000005304813385009766,-0.0009698234498500824,0.00044716522097587585
1782858505327327700,5.22032763671875,-0.002446230500936508,-0.0001437133178114891,0.0008035856299102306
1782858505337276700,5.230276611328125,-0.0007242318242788315,0.0014541829004883766,-0.0019139042124152184
1782858505347224800,5.240224853515625,0.00014436431229114532,-0.001009779516607523,0.0013178801164031029
1782858505357173800,5.250173828125,-0.0007304847240447998,-0.00007607508450746536,0.0013554305769503117
1782858505367152600,5.260152587890625,-0.0007251892238855362,-0.0003279661759734154,0.0008667283691465855
1782858505377101600,5.2701015625,-0.00027058832347393036,-0.0005346275866031647,-0.0010257139801979065
1782858505387050800,5.28005078125,0.0007230527698993683,-0.0022988240234553814,-0.0011626370251178741
1782858505396999700,5.289999755859375,0.0009209252893924713,-0.0012711100280284882,-0.00021455157548189163
1782858505406947600,5.299947509765625,0.0008755773305892944,-0.000971062108874321,-0.0010490436106920242
1782858505416927500,5.309927490234375,0.0015576127916574478,-0.0006895656697452068,-0.00036407820880413055
1782858505426875600,5.319875732421875,0.0010679848492145538,-0.0010650912299752235,0.0008202255703508854
1782858505436824600,5.329824462890625,0.0006264317780733109,-0.002075761090964079,-0.000011213123798370361
1782858505446773500,5.3397734375,0.0005761962383985519,0.0001645255833864212,0.0019327523186802864
1782858505456752600,5.349752685546875,-0.00046962685883045197,0.0005714567378163338,-0.0005114967934787273
1782858505466701800,5.359701904296875,0.0014267712831497192,0.0011203819885849953,-0.00011671055108308792
1782858505476649500,5.3696494140625,-0.001025201752781868,-0.0021598334424197674,0.00020393403246998787
1782858505486598700,5.3795986328125,-0.000016042962670326233,-0.0010066893883049488,-0.0002235211431980133
1782858505496577800,5.389577880859375,0.0005674548447132111,0.000884687528014183,-0.00082006910815835
1782858505506526700,5.399526611328125,-0.0010202638804912567,0.0006392272189259529,-0.0004257350228726864
1782858505516475600,5.4094755859375,-0.0013121459633111954,-0.00204151077196002,-0.001008434221148491
1782858505526424600,5.419424560546875,0.0003315899521112442,-0.001062396913766861,0.00048126885667443275
1782858505536403700,5.42940380859375,-0.00029505230486392975,0.00083963293582201,0.0008373335003852844
1782858505546352600,5.4393525390625,0.00043383799493312836,0.00048478320240974426,0.0006924481131136417
1782858505556313300,5.449313232421875,-0.00030998140573501587,-0.00023293867707252502,0.0012426571920514107
1782858505566262500,5.459262451171875,0.0003735329955816269,0.0013056546449661255,-0.0019966415129601955
1782858505576211500,5.46921142578125,-0.00024112500250339508,-0.002371105831116438,0.0004310961812734604
1782858505586190300,5.4791904296875,0.0007635857909917831,0.0017413357272744179,0.000735999085009098
1782858505596139500,5.489139404296875,0.0016429610550403595,-0.0006392640061676502,-0.0004927832633256912
1782858505606087400,5.49908740234375,0.0006625037640333176,-0.0019309213384985924,0.0014076093211770058
1782858505616036400,5.509036376953125,-0.0007074270397424698,-0.0012536793947219849,0.00015219533815979958
1782858505626015500,5.519015380859375,0.0003936644643545151,0.00008998345583677292,0.000441601499915123
1782858505635964400,5.52896435546875,0.00019712373614311218,0.0015198346227407455,0.0005270889960229397
1782858505645913300,5.538913330078125,-0.0009684264659881592,-0.0011944063007831573,0.0004960745573043823
1782858505655862300,5.5488623046875,-0.0019154474139213562,-0.0001552412286400795,-0.0001904885284602642
1782858505665841400,5.55884130859375,0.0008535981178283691,0.0002929912880063057,-0.0003821542486548424
1782858505675790300,5.568790283203125,-0.0009717326611280441,0.0002636965364217758,0.0012370473705232143
1782858505685738200,5.57873828125,-0.0013574939221143723,-0.00028979312628507614,0.0006428188644349575
1782858505695687200,5.588687255859375,0.001146409660577774,0.00009556673467159271,0.0008630626834928989
1782858505705636400,5.59863623046875,0.0004494469612836838,-0.005466069560497999,-0.0006013470701873302
1782858505715615200,5.608615234375,-0.0006528347730636597,0.001681322231888771,-0.003899938426911831
1782858505725564400,5.618564453125,0.000051330775022506714,-0.0009680455550551414,-0.001160315703600645
1782858505735513300,5.628513427734375,-0.0010581407696008682,-0.0007145125418901443,-0.00015843426808714867
1782858505745461500,5.63846142578125,0.001124238595366478,-0.0020811259746551514,-0.0006796633824706078
1782858505755441400,5.64844140625,-0.0008731316775083542,0.0017383797094225883,-0.0007555633783340454
1782858505765389600,5.6583896484375,-0.0004982706159353256,-0.0006930720992386341,0.0005592103116214275
1782858505775338500,5.66833837890625,0.00008842349052429199,-0.0009617847390472889,0.0010585528798401356
1782858505785287400,5.678287353515625,-0.0010673217475414276,0.004800981841981411,-0.000093875452876091
1782858505795266300,5.688266357421875,-0.00034507177770137787,0.0019870856776833534,-0.0011301115155220032
1782858505805215200,5.69821533203125,0.00026410818099975586,-0.002589006442576647,-0.0006654658354818821
1782858505815163400,5.708163330078125,-0.0012530945241451263,-0.000688841100782156,-0.0019786707125604153
1782858505825112300,5.7181123046875,-0.0005234945565462112,-0.0004977993667125702,-0.0007025985978543758
1782858505835091500,5.728091552734375,-0.0005796868354082108,0.001260153017938137,0.00019195722416043282
1782858505845040400,5.738040283203125,0.0007580965757369995,-0.0015426944009959698,0.0013249455951154232
1782858505854989300,5.7479892578125,-0.001329289749264717,-0.0016185948625206947,0.0003912411630153656
1782858505864938500,5.7579384765625,-0.0013731755316257477,0.0009923102334141731,-0.0029893615283071995
1782858505874886400,5.767886474609375,-0.001105528324842453,-0.00013686995953321457,-0.00010435888543725014
1782858505884866600,5.777866455078125,-0.0016110483556985855,-0.00206767488270998,0.0009536920115351677
1782858505894814500,5.787814453125,-0.0002435147762298584,0.00030866358429193497,-0.0014466149732470512
1782858505904763400,5.797763427734375,-0.0016813408583402634,0.00038389023393392563,0.0008849003352224827
1782858505914712300,5.80771240234375,-0.00012365728616714478,-0.00023795757442712784,-0.00045839790254831314
1782858505924691500,5.81769140625,0.0005232412368059158,-0.0018023336306214333,-0.0013624047860503197
1782858505934640400,5.827640380859375,-0.00023256242275238037,-0.0005895299836993217,0.002181463409215212
1782858505944588500,5.837588623046875,-0.0024201422929763794,0.00043799541890621185,-0.0002226182259619236
1782858505954537500,5.847537353515625,-0.0011894963681697845,-0.0005590920336544514,0.0002935025840997696
1782858505964516400,5.857516357421875,-0.0006229225546121597,0.000022499822080135345,-0.00032905396074056625
1782858505974465300,5.86746533203125,-0.0012572873383760452,-0.0023794048465788364,-0.0010318616405129433
1782858505984414500,5.87741455078125,0.0013934001326560974,0.0021351883187890053,0.000025915447622537613
1782858505994363400,5.88736328125,0.00003864988684654236,-0.00005978904664516449,-0.0008481345139443874
1782858506004342300,5.89734228515625,-0.0011135023087263107,-0.0022877007722854614,-0.0009784209541976452
1782858506014291200,5.907291259765625,-0.00026342086493968964,0.00001992844045162201,0.0019467948004603386
1782858506024239400,5.9172392578125,-0.0012820381671190262,-0.0037353970110416412,0.0019908836111426353
1782858506034188300,5.927188232421875,-0.00007216446101665497,0.0007965043187141418,-0.0011127637699246407
1782858506044137500,5.937137451171875,0.00044341757893562317,-0.0010568979196250439,-0.0015212059952318668
1782858506054116600,5.94711669921875,-0.0008431542664766312,0.001473105512559414,0.0015438259579241276
1782858506064065500,5.9570654296875,-0.00021276064217090607,0.0006231004372239113,0.001861458644270897
1782858506074014500,5.967014404296875,0.0006170812994241714,-0.0003633340820670128,0.0016550635918974876
1782858506083962400,5.97696240234375,-0.0006850138306617737,-0.0017679105512797832,-0.001275674905627966
1782858506093941500,5.98694140625,0.0002026185393333435,-0.0007724212482571602,-0.0005483659915626049
1782858506103890400,5.996890380859375,-0.0016960296779870987,0.0002595745027065277,0.0013953587040305138
1782858506113839400,6.00683935546875,-0.00015805475413799286,-0.00008397269994020462,0.00023715011775493622
1782858506123788300,6.016788330078125,0.0012782737612724304,-0.00033912062644958496,-0.0005348366685211658
1782858506133767400,6.026767333984375,-0.000027475878596305847,0.0003791339695453644,-0.0010901056230068207
1782858506143716400,6.03671630859375,-0.001653900370001793,0.00045169051736593246,-0.0005098404362797737
1782858506153664300,6.046664306640625,0.0014055389910936356,-0.00012461747974157333,-0.0010762945748865604
1782858506163613400,6.056613525390625,-0.0006882194429636002,-0.001582335215061903,-0.00012055877596139908
1782858506173562400,6.066562255859375,-0.0005936771631240845,-0.001619087066501379,-0.0009911456145346165
1782858506183541200,6.076541259765625,-0.001110440120100975,-0.0009054713882505894,0.0009640655480325222
1782858506193490200,6.086490234375,-0.0003535691648721695,-0.00018162373453378677,0.0008056075312197208
1782858506203439400,6.096439453125,0.0014873351901769638,-0.0028590895235538483,0.0015940689481794834
1782858506213387500,6.106387451171875,-0.0013955365866422653,-0.0009298957884311676,0.0001450427807867527
1782858506223367400,6.116367431640625,0.0014257505536079407,0.0009056394919753075,-0.0010658558458089828
1782858506233315600,6.126315673828125,0.00016927160322666168,0.0002981722354888916,0.001123528927564621
1782858506243264500,6.136264404296875,-0.0015635322779417038,0.00004530232399702072,0.0005941567942500114
1782858506253213400,6.14621337890625,0.0001531410962343216,0.0008051022887229919,-0.0003033285029232502
1782858506263192300,6.1561923828125,0.0013110395520925522,-0.00033986475318670273,0.0008940813131630421
1782858506273141500,6.1661416015625,-0.0004991106688976288,-0.0007726284675300121,0.0015204567462205887
1782858506283089400,6.17608935546875,-0.0012820158153772354,0.000231841579079628,-0.0024164756760001183
1782858506293038300,6.186038330078125,0.0005249381065368652,-0.0007053245790302753,0.000425117090344429
1782858506303017500,6.196017578125,0.0009209085255861282,0.0017241761088371277,0.00027741119265556335
1782858506312966400,6.20596630859375,0.0028357207775115967,-0.0012891911901533604,0.0007237573154270649
1782858506322915300,6.215915283203125,-0.0005373526364564896,-0.0017920448444783688,-0.000244904775172472
1782858506332864300,6.2258642578125,-0.000788489356637001,-0.0012594126164913177,-0.0003357185050845146
1782858506342812400,6.2358125,-0.000346185639500618,-0.0019299117848277092,-0.0014892444014549255
1782858506352792300,6.245792236328125,-0.00032141804695129395,0.00025148317217826843,-0.00015952857211232185
1782858506362740200,6.255740234375,-0.00028908997774124146,0.00018780771642923355,-0.0008100057020783424
1782858506372689400,6.265689453125,0.0003825593739748001,0.0009321616962552071,-0.0012462316080927849
1782858506382638300,6.275638427734375,-0.00019859522581100464,0.0005630459636449814,-0.0004890905693173409
1782858506392617500,6.285617431640625,-0.0013589337468147278,-0.0004100734367966652,0.0008800402283668518
1782858506402566400,6.29556640625,-0.0003705564886331558,-0.0016666864976286888,-0.0020151659846305847
1782858506412514600,6.3055146484375,-0.00017880834639072418,0.00016716588288545609,0.0013942131772637367
1782858506422463500,6.31546337890625,0.0013635680079460144,-0.0020333067514002323,0.00022825133055448532
1782858506432442400,6.3254423828125,-0.0011232923716306686,-0.001329699531197548,-0.000824230257421732
1782858506442391300,6.335391357421875,-0.0022777244448661804,-0.0022716224193573,-0.001074469182640314
1782858506452340500,6.345340576171875,0.00021339580416679382,0.0013034045696258545,-0.00012878049165010452
1782858506462289400,6.355289306640625,0.000007536262273788452,0.00002191402018070221,0.0004888325929641724
1782858506472237300,6.3652373046875,0.0007050186395645142,0.0018339287489652634,-0.0019498239271342754
1782858506482217200,6.37521728515625,-0.0007140003144741058,-0.0017790794372558594,0.0019303550943732262
1782858506492165400,6.385165283203125,0.00012755952775478363,0.0009690364822745323,-0.0005242805927991867
1782858506502114300,6.3951142578125,0.0002073589712381363,0.00016979128122329712,0.0007102964445948601
1782858506512063200,6.405063232421875,0.0017711669206619263,-0.00023687351495027542,0.000011216849088668823
1782858506522042400,6.41504248046875,-0.0017050616443157196,-0.003831045236438513,0.0005714981816709042
1782858506531991600,6.424991455078125,-0.0002102293074131012,0.002212999388575554,0.0005126423202455044
1782858506541940500,6.4349404296875,0.00021300464868545532,-0.0013437522575259209,-0.00010541919618844986
1782858506551906300,6.44490625,-0.00043547526001930237,0.00013297051191329956,-0.00018078647553920746
1782858506561886200,6.45488623046875,-0.00002294778823852539,0.0008282624185085297,0.00036192312836647034
1782858506571834400,6.46483447265625,-0.0012091193348169327,0.0000375695526599884,-0.0014855116605758667
1782858506581783300,6.474783203125,0.0006404835730791092,-0.0014413460157811642,-0.00020096777006983757
1782858506591732200,6.484732177734375,-0.000006398186087608337,-0.0005262838676571846,0.0006025079637765884
1782858506601711400,6.49471142578125,0.00042110681533813477,-0.0011913436464965343,0.0008920421823859215
1782858506611660300,6.504660400390625,0.00031617842614650726,0.0005170740187168121,0.00014209607616066933
1782858506621608200,6.514608154296875,-0.0009268857538700104,0.0004985146224498749,-0.0009157308377325535
1782858506631557000,6.52455712890625,-0.00152556411921978,-0.0005148178897798061,-0.00017377454787492752
1782858506641506600,6.534506591796875,-0.0005008485168218613,0.00009221024811267853,0.0008204183541238308
1782858506651485400,6.5444853515625,0.0005966387689113617,0.00011857505887746811,-0.0015005264431238174
1782858506661434400,6.554434326171875,0.0004620179533958435,-0.0006520138122141361,0.0002566738985478878
1782858506671383300,6.56438330078125,0.0013147611171007156,0.0006366902962327003,0.0004633348435163498
1782858506681331500,6.57433154296875,0.0007277317345142365,0.000040304847061634064,-0.00020013703033328056
1782858506691311400,6.584311279296875,-0.0012746993452310562,-0.00024998001754283905,0.0007215826772153378
1782858506701259300,6.59425927734375,0.0025573428720235825,0.0019913921132683754,-0.000735248439013958
1782858506711208400,6.60420849609375,0.0007226914167404175,0.001014544628560543,-0.0008415086194872856
1782858506721157400,6.614157470703125,0.0011238064616918564,-0.0006469842046499252,0.0006591901183128357
1782858506731136300,6.62413623046875,-0.000007236376404762268,0.0005671512335538864,-0.0018098270520567894
1782858506741085200,6.634085205078125,-0.000763947144150734,-0.002990852575749159,0.0003826655447483063
1782858506751033300,6.644033447265625,0.0007697679102420807,0.0014843232929706573,-0.0005899211391806602
1782858506760982300,6.653982177734375,-0.0025680437684059143,-0.001609201543033123,0.00009547080844640732
1782858506770961400,6.66396142578125,0.001301262527704239,-0.0020166654139757156,0.0005585942417383194
1782858506780910300,6.673910400390625,0.001464448869228363,0.001585022546350956,0.0014469865709543228
1782858506790859300,6.683859375,-0.0005387794226408005,-0.0007452433928847313,0.00012153154239058495
1782858506800808400,6.693808349609375,-0.00036359019577503204,-0.0006634783931076527,0.0025998237542808056
1782858506810756400,6.70375634765625,-0.0015729311853647232,-0.0009148810058832169,0.00008047325536608696
1782858506820736500,6.713736572265625,-0.0003082212060689926,0.0010795500129461288,0.0013654283247888088
1782858506830684400,6.723684326171875,0.00021695531904697418,0.00025663338601589203,0.0003957711160182953
1782858506840633300,6.73363330078125,-0.000170975923538208,-0.0011788345873355865,0.001908639445900917
1782858506850582300,6.743582275390625,-0.000970989465713501,0.0018100310117006302,-0.00046903034672141075
1782858506860561400,6.7535615234375,0.0003256984055042267,-0.0004170280881226063,-0.0012650396674871445
1782858506870510300,6.76351025390625,-0.0014538262039422989,-0.0025235884822905064,0.0005131526850163937
1782858506880459300,6.773459228515625,-0.001446915790438652,-0.0007253228686749935,0.0014496133662760258
1782858506890407400,6.783407470703125,0.0012119840830564499,0.00018547847867012024,-0.0023632338270545006
1782858506900386300,6.79338623046875,0.000004548579454421997,-0.0007872493006289005,0.000465896911919117
1782858506910335200,6.803335205078125,-0.0013408791273832321,0.0004564467817544937,0.0019601965323090553
1782858506920284200,6.8132841796875,0.00028683990240097046,-0.0005236044526100159,0.0015375535003840923
1782858506930233300,6.8232333984375,-0.0003256872296333313,-0.0003691413439810276,0.0012555248104035854
1782858506940181200,6.83318115234375,0.0012138783931732178,0.0006353706121444702,-0.0013840403407812119
1782858506950161400,6.843161376953125,-0.0002995971590280533,0.0007815780118107796,0.0013230624608695507
1782858506960109300,6.853109375,-0.002417106181383133,-0.001730015967041254,-0.00031571323052048683
1782858506970058500,6.86305859375,-0.00041760504245758057,-0.00182695547118783,0.0009921649470925331
1782858506980007400,6.87300732421875,0.00030680373311042786,0.0005763564258813858,-0.0018893014639616013
1782858506989986300,6.882986328125,-0.0004359520971775055,0.0005182996392250061,-0.0012586647644639015
1782858506999935500,6.892935546875,-0.0004039183259010315,0.00036035943776369095,-0.002171291969716549
1782858507009884400,6.902884521484375,0.002162570133805275,-0.0004476434551179409,-0.00043757446110248566
1782858507019832300,6.912832275390625,-0.0006410889327526093,0.0007669348269701004,-0.00039156246930360794
1782858507029812200,6.922812255859375,-0.0012426972389221191,-0.0004993979819118977,0.000018564052879810333
1782858507039760400,6.932760498046875,-0.0007437132298946381,-0.002397102303802967,0.0021136323921382427
1782858507049709300,6.942709228515625,0.0005314089357852936,0.0008737919852137566,0.00151016004383564
1782858507059658200,6.952658203125,-0.0008067954331636429,-0.0009964043274521828,-0.0011761984787881374
1782858507069637400,6.962637451171875,0.0008760560303926468,-0.0020768488757312298,0.00166619336232543
1782858507079586300,6.97258642578125,-0.0005146507173776627,0.00029284413903951645,0.0009794547222554684
1782858507089534200,6.9825341796875,0.00017803721129894257,-0.000977217685431242,0.000007667113095521927
1782858507099483100,6.992483154296875,0.0007580965757369995,0.0016239453107118607,0.0015110932290554047
1782858507109432600,7.0024326171875,-0.0015066564083099365,0.0012614885345101357,-0.0019129328429698944
1782858507119411200,7.0124111328125,-0.00003240257501602173,-0.0007899920456111431,-0.0007334551773965359
1782858507129360400,7.0223603515625,-0.0004734210669994354,-0.0005617588758468628,-0.0008857878856360912
1782858507139309300,7.032309326171875,-0.00030152685940265656,-0.0016055074520409107,0.00021497998386621475
1782858507149257500,7.042257568359375,0.0007360391318798065,0.0010624472051858902,0.0013489536941051483
1782858507159237400,7.0522373046875,0.0008257720619440079,-0.0001328941434621811,0.00081233074888587
1782858507169185300,7.062185302734375,-0.000004867091774940491,-0.0004335646517574787,0.0006685201078653336
1782858507179134500,7.072134521484375,0.0004163552075624466,-0.0005454602651298046,-0.0012590177357196808
1782858507189083400,7.08208349609375,-0.002056920900940895,-0.00011429470032453537,-0.001489381305873394
1782858507199062300,7.092062255859375,-0.0010016560554504395,-0.00015993602573871613,-0.0009734677150845528
1782858507209011200,7.10201123046875,0.00048598647117614746,0.00040705129504203796,-0.0029623163864016533
1782858507218959400,7.11195947265625,0.0008592680096626282,-0.00126170227304101,-0.0001803133636713028
1782858507228908300,7.121908203125,-0.00021478347480297089,0.0011631054803729057,0.0008199699223041534
1782858507238887400,7.131887451171875,0.000765213742852211,0.0016287164762616158,-0.0011142548173666
1782858507248836400,7.14183642578125,-0.0007804855704307556,-0.0017846571281552315,0.000997365452349186
1782858507258785300,7.151785400390625,0.0008098296821117401,-0.00036031706258654594,-0.00012135319411754608
1782858507268734500,7.161734375,-0.0015694387257099152,0.0003313058987259865,0.0029407492838799953
1782858507278682000,7.17168212890625,-0.00007141195237636566,0.0018109194934368134,-0.00014465907588601112
1782858507288662500,7.18166259765625,-0.0010197646915912628,0.001658054068684578,-0.0018677245825529099
1782858507298610400,7.1916103515625,0.0008894447237253189,0.00146449264138937,0.00186645844951272
1782858507308559400,7.201559326171875,-0.0011105891317129135,0.00010894425213336945,-0.0001996220089495182
1782858507318508300,7.21150830078125,0.00009896233677864075,-0.000028232112526893616,0.0018077539280056953
1782858507328487400,7.2214873046875,-0.00015244074165821075,-0.0009464905597269535,0.00018908455967903137
1782858507338436400,7.231436279296875,-0.0007033795118331909,0.0005863122642040253,0.0009125103242695332
1782858507348385300,7.24138525390625,0.0012524444609880447,0.00037751998752355576,-0.00019136955961585045
1782858507358333400,7.25133349609375,-0.0015499182045459747,0.0007466264069080353,-0.0011871582828462124
1782858507368313300,7.261313232421875,-0.000261479988694191,0.00005047675222158432,-0.00006889738142490387
1782858507378261200,7.27126123046875,-0.0005143862217664719,0.0005043894052505493,0.0009034150280058384
1782858507388210200,7.281210205078125,-0.00030346401035785675,0.0002282196655869484,0.0019550975412130356
1782858507398159400,7.291159423828125,-0.0008457805961370468,-0.0007836460135877132,0.002196448389440775
1782858507408107300,7.301107177734375,0.000557437539100647,-0.0003476864658296108,-0.00209230650216341
1782858507418087200,7.311087158203125,-0.0010921712964773178,0.0008914945647120476,0.0005221427418291569
1782858507428035300,7.321035400390625,0.0002833511680364609,-0.0004581953398883343,-0.000322878360748291
1782858507437984300,7.330984375,0.0023708082735538483,-0.001909247599542141,0.0000517931766808033
1782858507447933400,7.340933349609375,-0.0007378999143838882,0.0005864007398486137,0.0004246355965733528
1782858507457912300,7.350912353515625,0.00014359690248966217,-0.0015804166905581951,0.0002267458476126194
1782858507467861500,7.360861572265625,0.001472780480980873,-0.00040383171290159225,-0.0009375885128974915
1782858507477810400,7.370810546875,0.00009458698332309723,0.0007894393056631088,0.0009194798767566681
1782858507487758300,7.38075830078125,0.00010417401790618896,0.002019287087023258,-0.0005985219031572342
1782858507497738200,7.39073828125,-0.0004242025315761566,-0.0007517635822296143,-0.00005452055484056473
1782858507507686400,7.400686279296875,-0.00024843402206897736,-0.0003600125201046467,0.0009273868054151535
1782858507517635300,7.41063525390625,-0.0009855534881353378,0.0016944371163845062,-0.002636539749801159
1782858507527584300,7.420584228515625,-0.00012721680104732513,-0.00006884243339300156,0.0014215847477316856
1782858507537563400,7.4305634765625,-0.001443907618522644,-0.0006796526722609997,0.0008535152301192284
1782858507547512300,7.44051220703125,-0.00004628114402294159,-0.0013260017149150372,-0.0005038981325924397
1782858507557474800,7.450474853515625,0.00003441236913204193,0.0012004021555185318,-0.0019912985153496265
1782858507567423700,7.460423828125,0.0024272631853818893,-0.0016624964773654938,0.0018361960537731647
1782858507577372700,7.47037255859375,-0.00011060759425163269,-0.000610114075243473,-0.00026327138766646385
1782858507587351800,7.480351806640625,0.00004731863737106323,-0.00047056470066308975,0.00016762828454375267
1782858507597300700,7.49030078125,0.0003957115113735199,0.0012128371745347977,-0.00045658135786652565
1782858507607249700,7.500249755859375,-0.000242648646235466,0.0009337384253740311,-0.0004134383052587509
1782858507617197800,7.51019775390625,0.001027742400765419,0.0005584172904491425,0.0005300641059875488
1782858507627178000,7.520177978515625,-0.0003925226628780365,-0.0010828888043761253,-0.00047980668023228645
1782858507637125600,7.530125732421875,0.00047380104660987854,-0.000491065438836813,0.000472415704280138
1782858507647074800,7.54007470703125,0.001156901940703392,-0.0006220927461981773,0.0009922650642693043
1782858507657024000,7.55002392578125,0.0008184146136045456,0.00005424395203590393,-0.00034014834091067314
1782858507667003000,7.5600029296875,0.0013811402022838593,-0.0017766794189810753,0.0018313932232558727
1782858507676951800,7.569951904296875,-0.0001558549702167511,-0.00033331476151943207,-0.002020996529608965
1782858507686900700,7.579900634765625,-0.00022749416530132294,0.0007457984611392021,0.0010078167542815208
1782858507696849000,7.589848876953125,-0.001477101817727089,0.0008483622223138809,-0.001474535558372736
1782858507706797800,7.5997978515625,-0.00041742995381355286,-0.0004011932760477066,0.0007896842435002327
1782858507716777000,7.60977685546875,-0.00030223093926906586,0.0005478635430335999,-0.0014529176987707615
1782858507726726000,7.619725830078125,0.0005302727222442627,-0.0006138072349131107,-0.00025928905233740807
1782858507736674800,7.6296748046875,-0.000792723149061203,-0.0007979758083820343,-0.0007537375204265118
1782858507746622700,7.639622802734375,0.0002624206244945526,-0.0028342287987470627,0.0009046127088367939
1782858507756603000,7.649602783203125,0.0014422759413719177,-0.0010197642259299755,0.00009120674803853035
1782858507766550800,7.65955078125,-0.0002514943480491638,-0.0004802076146006584,-0.0034774295054376125
1782858507776499700,7.669499755859375,-0.00001479312777519226,0.0016414495185017586,0.0001024310477077961
1782858507786449000,7.679448974609375,0.00013594143092632294,-0.0009332941845059395,0.0007501114159822464
1782858507796427800,7.689427734375,0.0000224430114030838,-0.0007033976726233959,-0.0007974538020789623
1782858507806377000,7.699376953125,-0.0016526859253644943,-0.0007982063107192516,-0.00045443931594491005
1782858507816326000,7.709325927734375,-0.0004739537835121155,0.00011724978685379028,-0.0002771788276731968
1782858507826273800,7.719273681640625,-0.0015757028013467789,0.0005944883450865746,-0.0005677295848727226
1782858507836254000,7.72925390625,0.0010293275117874146,-0.0006791697815060616,0.0006919777952134609
1782858507846201900,7.739201904296875,0.00178433395922184,0.0015040896832942963,0.00028078584000468254
1782858507856150800,7.74915087890625,-0.0006063263863325119,-0.0027300436049699783,0.0017934166826307774
1782858507866099700,7.759099609375,0.0002570711076259613,0.00044657476246356964,-0.00029077334329485893
1782858507876048000,7.7690478515625,-0.0013969391584396362,-0.0018054898828268051,-0.0010809744708240032
1782858507886027800,7.77902783203125,0.000500829890370369,0.0031314780935645103,0.00012517161667346954
1782858507895976000,7.788975830078125,-0.0002821143716573715,0.00028768088668584824,0.0008181431330740452
1782858507905924900,7.7989248046875,-0.0007657427340745926,0.00015878397971391678,-0.0009355489164590836
1782858507915873800,7.808873779296875,-0.001264285296201706,-0.0008488469757139683,0.000038786791265010834
1782858507925852700,7.818852783203125,0.001135488972067833,-0.0013117045164108276,-0.0010043736547231674
1782858507935801900,7.8288017578125,0.00031745992600917816,-0.0013980008661746979,0.0011052479967474937
1782858507945751000,7.8387509765625,0.0008229278028011322,-0.0014342200011014938,-0.000237251166254282
1782858507955698700,7.84869873046875,0.001129915937781334,0.0004891157150268555,0.0007007578387856483
1782858507965678800,7.858678955078125,-0.000925777480006218,-0.0016251676715910435,0.0008797221817076206
1782858507975627000,7.868626953125,0.000046854838728904724,-0.0007348791696131229,0.0007279687561094761
1782858507985576000,7.878575927734375,-0.0002221241593360901,-0.00016709277406334877,-0.00017457688227295876
1782858507995524900,7.88852490234375,-0.00042296573519706726,-0.00023938249796628952,0.000326656736433506
1782858508005504000,7.89850390625,-0.001428043469786644,-0.0031869690865278244,0.0004132096655666828
1782858508015453000,7.908452880859375,0.0014611966907978058,-0.0008997116237878799,-0.0009829732589423656
1782858508025400800,7.91840087890625,-0.0002778470516204834,-0.0003364528529345989,0.0017992309294641018
1782858508035349800,7.928349853515625,-0.0009195264428853989,-0.0008350713178515434,-0.00004281708970665932
1782858508045298700,7.938298583984375,0.00015399418771266937,0.001898929476737976,0.0013886322267353535
1782858508055277800,7.94827783203125,0.0003026258200407028,-0.0014581535942852497,0.0007936004549264908
1782858508065226800,7.958226806640625,0.0014813393354415894,-0.001096230000257492,0.0005701612681150436
1782858508075175700,7.96817578125,0.00005476735532283783,-0.0009118663147091866,-0.0016734437085688114
1782858508085123800,7.978123779296875,0.0010742247104644775,-0.00048629334196448326,-0.0007405378855764866
1782858508095103700,7.988103759765625,-0.0010837502777576447,-0.0019802809692919254,0.0004911394789814949
1782858508105051600,7.9980517578125,0.000108279287815094,0.0008306857198476791,0.0016916925087571144
1782858508115000800,8.008000732421875,0.0016993377357721329,0.0005844375118613243,-0.00035978714004158974
1782858508124950000,8.017949951171875,0.0002862643450498581,-0.00065979128703475,-0.0007523368112742901
1782858508134929000,8.027928955078124,0.0003241840749979019,0.00034126732498407364,-0.0001692003570497036
1782858508144877800,8.0378779296875,0.0003646649420261383,-0.001076599583029747,-0.0004368480294942856
1782858508154826800,8.04782666015625,0.00144248828291893,-0.0009445436298847198,-0.0028627500869333744
1782858508164775000,8.05777490234375,-0.0014608893543481827,-0.0018140659667551517,0.00021479884162545204
1782858508174723800,8.067723876953124,-0.0012704730033874512,0.0008841902017593384,0.00008029164746403694
1782858508184703000,8.077702880859375,-0.0025437306612730026,-0.0004945280961692333,-0.0004424871876835823
1782858508194652000,8.08765185546875,0.0014658309519290924,0.001622936688363552,0.001703397836536169
1782858508204600800,8.097600830078125,0.00007752515375614166,-0.00218112301081419,0.00019951071590185165
1782858508214548700,8.107548828125,0.0009686946868896484,-0.0010068113915622234,-0.0011374088935554028
1782858508224529000,8.11752880859375,0.0003114268183708191,-0.0015343837440013885,0.001102309674024582
1782858508234476800,8.127476806640624,-0.00003816559910774231,-0.0008054967038333416,0.0005659363232553005
1782858508244425700,8.13742578125,-0.0007449686527252197,-0.0019338778220117092,0.0007800543680787086
1782858508254374700,8.147374755859374,0.0019865911453962326,0.0015255110338330269,-0.0007637119852006435
1782858508264353800,8.157353759765625,-0.0002568550407886505,0.00031989719718694687,-0.0031144837848842144
1782858508274302700,8.167302734375,0.00005063973367214203,0.0014319447800517082,0.0007992335595190525
1782858508284252000,8.177251953125,-0.0024090558290481567,-0.0018400154076516628,-0.0011211722157895565
1782858508294200000,8.187199951171875,0.00010956637561321259,0.0005154358223080635,-0.00024355249479413033
1782858508304180000,8.197179931640624,-0.0003516916185617447,0.0017021400853991508,-0.0007588742300868034
1782858508314128000,8.2071279296875,0.0013425573706626892,-0.00014834851026535034,0.0009880131110548973
1782858508324076800,8.217076904296874,-0.00041646137833595276,-0.0010767262428998947,0.0012814938090741634
1782858508334026000,8.22702587890625,-0.0010373443365097046,0.0003340551629662514,-0.0007262704893946648
1782858508343974000,8.236973876953124,-0.00010683573782444,0.0012507149949669838,-0.00027113640680909157
1782858508353953800,8.246953857421875,-0.00042782537639141083,-0.001750364899635315,-0.0003592269495129585
1782858508363902000,8.25690185546875,0.0015663504600524902,-0.00001931004226207733,0.00022214092314243317
1782858508373851000,8.266850830078125,0.001176144927740097,0.0004451712593436241,-0.0004604705609381199
1782858508383799800,8.2767998046875,-0.0012593157589435577,-0.001964456867426634,0.0007462073117494583
1782858508393778700,8.28677880859375,-0.0010149143636226654,-0.0024982718750834465,0.0005380264483392239
1782858508403728000,8.296727783203124,0.0005456991493701935,-0.0009403228759765625,0.0020301956683397293
1782858508413676800,8.3066767578125,-0.00008348003029823303,-0.0005659358575940132,-0.0018740706145763397
1782858508423624700,8.316624755859374,-0.000008378177881240845,0.0003038523718714714,-0.0005616648122668266
1782858508433604900,8.32660498046875,0.0003985576331615448,0.001653308980166912,0.0000547175295650959
1782858508443552800,8.336552734375,0.0003719273954629898,-0.0011171773076057434,-0.0014310595579445362
1782858508453502000,8.346501953125,-0.00017969496548175812,0.001862071454524994,-0.0013496666215360165
1782858508463451000,8.356450927734375,-0.000005258247256278992,-0.000166991725564003,-0.0014468724839389324
1782858508473430000,8.366429931640624,0.00019578076899051666,0.000004338100552558899,0.000699223019182682
1782858508483379000,8.37637890625,-0.0011520441621541977,-0.0005008634179830551,-0.0011013401672244072
1782858508493328000,8.386327880859374,0.0011413972824811935,0.0003656214103102684,0.0006394037045538425
1782858508503275800,8.39627587890625,-0.00036648474633693695,-0.0010338695719838142,-0.00004209904000163078
1782858508513225000,8.406224853515624,-0.000481531023979187,0.0007510194554924965,0.00010482687503099442
1782858508523203800,8.416203857421875,0.001328885555267334,0.0016487706452608109,-0.00148667860776186
1782858508533152800,8.42615283203125,-0.00018518976867198944,0.001279943622648716,-0.00184352183714509
1782858508543101700,8.436101806640625,-0.000771084800362587,-0.00010143779218196869,0.0008121822029352188
1782858508553057800,8.446057861328125,0.0000793561339378357,-0.0030186004005372524,0.002357653807848692
1782858508563038000,8.456037841796874,-0.00020826607942581177,-0.0011719646863639355,0.0004063555970788002
1782858508572985900,8.46598583984375,-0.0002553332597017288,0.0005652625113725662,0.00021173572167754173
1782858508582934800,8.475934814453124,0.0015279203653335571,-0.0006882869638502598,-0.00013127969577908516
1782858508592883700,8.4858837890625,0.0003427695482969284,-0.0000018347054719924927,0.00007168203592300415
1782858508602862800,8.49586279296875,-0.0014692451804876328,0.00042293965816497803,0.0005766171962022781
1782858508612811800,8.505811767578125,0.00029813870787620544,0.00003611017018556595,-0.0004686773754656315
1782858508622760700,8.5157607421875,0.0012590084224939346,-0.0017274352721869946,-0.002171768806874752
1782858508632708900,8.525708984375,0.0006633084267377853,-0.0016265260055661201,0.0003741607069969177
1782858508642657800,8.53565771484375,0.00010644085705280304,0.0003791004419326782,0.0004881438799202442
1782858508652636700,8.54563671875,-0.00024329498410224915,-0.0010274490341544151,-0.0018569924868643284
1782858508662585900,8.5555859375,0.0004917364567518234,0.0003147842362523079,-0.0016149110160768032
1782858508672535000,8.56553515625,0.0025796182453632355,-0.0009607444517314434,0.0013530263677239418
1782858508682483000,8.57548291015625,0.00008104182779788971,-0.0016030985862016678,0.0006978888995945454
1782858508692462800,8.585462890625,0.0004482138901948929,-0.0015744240954518318,-0.0011581550352275372
1782858508702411000,8.595410888671875,0.0001246389001607895,-0.0019395435228943825,-0.0006556166335940361
1782858508712360000,8.60535986328125,0.0012705139815807343,0.0009872270748019218,-0.0008016112260520458
1782858508722308900,8.615308837890625,-0.00019049644470214844,0.00036005303263664246,-0.0006964164786040783
1782858508732288000,8.6252880859375,0.00004951469600200653,-0.000856032595038414,0.0006686290726065636
1782858508742237000,8.63523681640625,-0.0009339917451143265,0.0008089756593108177,0.00030377600342035294
1782858508752185900,8.645185791015624,0.0008893180638551712,-0.00008704699575901031,0.0009184279479086399
1782858508762133800,8.6551337890625,0.0006642807275056839,-0.0009997128508985043,-0.0005375221371650696
1782858508772114000,8.665114013671875,-0.000026497989892959595,-0.0007938728667795658,-0.0010230648331344128
1782858508782061800,8.675061767578125,-0.001286705955862999,0.0013105571269989014,0.0005319546908140182
1782858508792010800,8.6850107421875,0.0014436114579439163,0.0022154580801725388,0.0016486681997776031
1782858508801959700,8.694959716796875,0.0007109753787517548,-0.0006053620018064976,0.0012491936795413494
1782858508811908600,8.70490869140625,-0.0005701258778572083,-0.00010571535676717758,0.0002086958847939968
1782858508821887700,8.7148876953125,-0.00008569657802581787,-0.0017755175940692425,-0.0008741454221308231
1782858508831835600,8.724835693359376,-0.0010353382676839828,0.000629473477602005,-0.00011341087520122528
1782858508841784800,8.734784912109374,0.0005359277129173279,-0.0007500434294342995,-0.00016188016161322594
1782858508851734000,8.744734130859374,-0.0013418905436992645,0.0008029844611883163,-0.0019272854551672935
1782858508861713000,8.754712890625,-0.00026490725576877594,0.0008293492719531059,-0.000799170695245266
1782858508871661800,8.764661865234375,-0.0005429275333881378,-0.004808911122381687,0.0021205605007708073
1782858508881610800,8.77461083984375,0.0005697421729564667,-0.00046396348625421524,0.003072907216846943
1782858508891559000,8.784558837890625,-0.0009430628269910812,-0.0002065231092274189,0.000924745574593544
1782858508901538800,8.794538818359374,0.0005264692008495331,0.0003026733174920082,0.00023765023797750473
1782858508911487000,8.804487060546874,-0.00018836930394172668,0.00014150980859994888,0.00043212762102484703
1782858508921436000,8.814435791015624,0.00027315691113471985,0.00018625054508447647,-0.0012605772353708744
1782858508931384800,8.824384765625,-0.00015053711831569672,-0.0009877984412014484,-0.001987436320632696
1782858508941363700,8.83436376953125,0.0014191307127475739,-0.00015982147306203842,0.0005460288375616074
1782858508951313000,8.84431298828125,-0.0009615235030651093,-0.00027786334976553917,0.0005901209078729153
1782858508961261800,8.85426171875,0.0013863202184438705,-0.0020624478347599506,0.00012273620814085007
1782858508971209700,8.864209716796875,-0.001272277906537056,0.0018663881346583366,-0.0008370704017579556
1782858508981158700,8.87415869140625,0.00032801553606987,0.0006370730698108673,0.0007179495878517628
1782858508991137800,8.8841376953125,0.0005917586386203766,-0.0008850828744471073,-0.00022667832672595978
1782858509001087000,8.8940869140625,0.0009448938071727753,0.0002891048789024353,-0.00037794560194015503
1782858509011036000,8.904035888671874,0.000013712793588638306,0.000256979838013649,-0.0015879347920417786
1782858509020983800,8.91398388671875,-0.0001908186823129654,-0.0011427775025367737,-0.00038205506280064583
1782858509030964000,8.9239638671875,-0.00005593150854110718,0.0012475522235035896,0.0017523611895740032
1782858509040912000,8.933911865234375,0.0010103974491357803,0.000833430327475071,-0.00007776310667395592
1782858509050860800,8.94386083984375,-0.0004127584397792816,0.00021615996956825256,0.00018884800374507904
1782858509060809700,8.953809814453125,-0.00023405998945236206,-0.0013851984404027462,0.0005502388812601566
1782858509070788900,8.963788818359374,-0.0010364912450313568,-0.0004936936311423779,0.0017460291273891926
1782858509080737800,8.97373779296875,0.00011319480836391449,-0.00016692373901605606,-0.0007118023931980133
1782858509090686700,8.983686767578124,-0.000447666272521019,-0.0009538340382277966,0.0001132315956056118
1782858509100635000,8.993634765625,-0.001321982592344284,-0.0005160104483366013,-0.0014005089178681374
1782858509110583800,9.003583740234374,0.000313829630613327,-0.00025596003979444504,-0.0005072867497801781
1782858509120562700,9.013562744140625,0.00020224228501319885,-0.0028117955662310123,0.00017181923612952232
1782858509130512000,9.023511962890625,0.0015705414116382599,0.00029272865504026413,-0.0009607919491827488
1782858509140460800,9.033460693359375,0.00017824023962020874,-0.0008779973722994328,-0.00013760896399617195
1782858509150408700,9.04340869140625,-0.0003578308969736099,-0.0018751071766018867,-0.0008253315463662148
1782858509160388900,9.053388916015624,0.001783350482583046,-0.0010822839103639126,-0.0009078895673155785
1782858509170336800,9.063336669921876,-0.000341145321726799,0.00007867906242609024,-0.000874074175953865
1782858509180286000,9.073285888671874,0.0021539703011512756,-0.0014310670085251331,0.0018327627331018448
1782858509190235000,9.08323486328125,-0.0009124092757701874,-0.0006626667454838753,0.00044125737622380257
1782858509200214000,9.093214111328125,-0.00036965683102607727,-0.0002506757155060768,-0.0021513300016522408
1782858509210163000,9.103162841796875,-0.001254834234714508,-0.0019578547216951847,0.001649538055062294
1782858509220112000,9.11311181640625,0.0005774199962615967,0.0017806906253099442,0.0001099645160138607
1782858509230059800,9.123059814453125,-0.0004405304789543152,0.0009615039452910423,-0.001511142123490572
1782858509240040000,9.1330400390625,0.00021354109048843384,0.0026472853496670723,0.00009234761819243431
1782858509249987800,9.14298779296875,-0.000038469210267066956,-0.00043324753642082214,-0.0005622622556984425
1782858509259936800,9.152936767578124,0.0006108097732067108,0.00046264007687568665,0.001996236853301525
1782858509269885700,9.1628857421875,0.00004701875150203705,0.0025614751502871513,-0.0019233585335314274
1782858509279834600,9.172834716796874,0.00007844343781471252,0.0006972625851631165,-0.00016034627333283424
1782858509289813800,9.182813720703125,-0.0007274039089679718,-0.000054649077355861664,0.0005473406054079533
1782858509299762700,9.1927626953125,0.0002579670399427414,-0.0014868970029056072,0.003042988944798708
1782858509309710800,9.2027109375,0.00013764575123786926,0.0009432919323444366,-0.0002203444018959999
1782858509319660000,9.212659912109375,-0.00018193386495113373,-0.00014088116586208344,0.002234024927020073
1782858509329639000,9.222638916015624,-0.00005109421908855438,0.0010270271450281143,-0.0001796823926270008
1782858509339587800,9.232587890625,0.0013657081872224808,-0.0005383784882724285,0.00007038842886686325
1782858509349536800,9.242536865234374,-0.0006781108677387238,0.0010202527046203613,-0.00012660864740610123
1782858509359485000,9.25248486328125,-0.0009881015866994858,0.002041308209300041,0.0007074931636452675
1782858509369464800,9.26246484375,0.0003081243485212326,-0.0005547222681343555,0.0019384613260626793
1782858509379413000,9.2724130859375,-0.0016306564211845398,-0.00048361578956246376,0.00003616511821746826
1782858509389362000,9.28236181640625,-0.0008402951061725616,-0.0009415941312909126,0.0008358019404113293
1782858509399310800,9.292310791015625,0.00024893879890441895,0.0019007977098226547,0.0008368673734366894
1782858509409259800,9.302259765625,-0.0003183409571647644,0.0011999672278761864,0.0001896931789815426
1782858509419239000,9.312239013671874,0.0011333487927913666,-0.0003057834692299366,-0.0002997959963977337
1782858509429187800,9.322187744140624,0.002547329291701317,-0.0017116223461925983,-0.0007363106124103069
1782858509439135700,9.3321357421875,0.0003997553139925003,0.0009526042267680168,-0.0011522960849106312
1782858509449084700,9.342084716796874,0.0005168896168470383,-0.001527885440737009,0.002041829749941826
1782858509459063800,9.352063720703125,0.0005832035094499588,-0.0009395931847393513,0.0007816217839717865
1782858509469012700,9.3620126953125,0.0016148071736097336,0.0008051283657550812,-0.0005497448146343231
1782858509478962000,9.3719619140625,0.001286173239350319,0.0017500175163149834,0.0017317854799330235
1782858509488909800,9.381909912109375,0.0003551263362169266,-0.0008834777399897575,-0.0015361499972641468
1782858509498890000,9.391889892578124,-0.0004563387483358383,0.0008113579824566841,-0.0009494558908045292
1782858509508838000,9.401837890625,-0.001513184979557991,-0.0009060464799404144,-0.002099971752613783
1782858509518786800,9.411786865234374,0.00009110383689403534,0.0017227595672011375,0.001115528866648674
1782858509528736000,9.421736083984374,0.0010828934609889984,-0.0024930937215685844,0.00037351250648498535
1782858509538715000,9.43171484375,-0.0006164703518152237,-0.0025570099242031574,0.002628411166369915
1782858509548663800,9.441663818359375,0.00024894997477531433,0.00030054058879613876,-0.001973071601241827
1782858509558611200,9.451611083984375,-0.0008117873221635818,-0.0016840468160808086,0.0012224558740854263
1782858509568559000,9.46155908203125,-0.0011766944080591202,0.0010417457669973373,0.0008970843628048897
1782858509578508000,9.471508056640625,-0.0007857419550418854,-0.0009995675645768642,-0.001069926656782627
1782858509588487200,9.481487060546876,-0.0007160678505897522,-0.002608658280223608,0.0013766773045063019
1782858509598436000,9.49143603515625,0.000018166378140449524,-0.00015375623479485512,-0.0008028540760278702
1782858509608385000,9.501385009765626,0.0025444794446229935,0.002778363414108753,0.0020812437869608402
1782858509618334000,9.511333984375,-0.00018179789185523987,-0.0008864123374223709,-0.0018993830308318138
1782858509628313000,9.52131298828125,0.0008359849452972412,0.0009950203821063042,-0.0008251778781414032
1782858509638261000,9.531260986328125,-0.0013779010623693466,-0.00209744181483984,-0.0008249115198850632
1782858509648210200,9.541210205078125,0.0022640880197286606,-0.0015679914504289627,0.0013444246724247932
1782858509658159000,9.5511591796875,-0.0008462183177471161,0.0004837075248360634,0.0016136704944074154
1782858509668138000,9.561137939453126,-0.00009357929229736328,-0.0015156315639615059,-0.002129653934389353
1782858509678087200,9.571087158203126,0.0022915471345186234,0.0013246294111013412,-0.0007860888727009296
1782858509688036000,9.5810361328125,0.0013804137706756592,0.0019642403349280357,0.0002678954042494297
1782858509697984300,9.590984375,-0.00022041238844394684,0.0008331956341862679,0.000714773777872324
1782858509707964200,9.600964111328125,0.0009875092655420303,-0.00003153271973133087,0.0007789060473442078
1782858509717912300,9.610912353515625,-0.0007512681186199188,-0.0017005354166030884,0.0013890364207327366
1782858509727861200,9.620861328125,0.0011038035154342651,0.00007276143878698349,-0.00010398542508482933
1782858509737810200,9.63081005859375,0.0003346838057041168,0.0014152610674500465,0.0020521096885204315
1782858509747759000,9.640759033203125,0.0022528842091560364,0.0016601551324129105,0.00013301149010658264
1782858509757738200,9.65073828125,0.000980159267783165,-0.000013109296560287476,-0.00022518355399370193
1782858509767687200,9.660687255859376,0.0001569148153066635,0.00004865787923336029,0.0006184126250445843
1782858509777635000,9.670635009765626,-0.0015168823301792145,0.0006966050714254379,0.00018378440290689468
1782858509787584000,9.680583984375,-0.0011098068207502365,0.0015947045758366585,0.0004046899266541004
1782858509797563100,9.690563232421875,0.0009362995624542236,0.001021060161292553,0.001877151895314455
1782858509807512000,9.700511962890625,0.00014772452414035797,-0.000856220256537199,-0.0009687021374702454
1782858509817461000,9.7104609375,-0.0005068797618150711,0.0004726974293589592,-0.001742083579301834
1782858509827409200,9.7204091796875,0.0012369845062494278,0.001239115372300148,-0.0008751256391406059
1782858509837389300,9.730389404296876,0.00041886232793331146,-0.0002485266886651516,-0.0009323833510279655
1782858509847337200,9.740337158203126,-0.0007999278604984283,0.0013991966843605042,-0.0007166829891502857
1782858509857286100,9.7502861328125,0.001259760931134224,-0.00012972392141819,0.0004668259061872959
1782858509867235000,9.760235107421876,0.0006091799587011337,-0.000023033004254102707,0.0005364054813981056
1782858509877184300,9.770184326171876,0.00024992041289806366,-0.00001184782013297081,0.0004719570279121399
1782858509887163100,9.7801630859375,0.0004020780324935913,0.0002160053700208664,-0.0021374481730163097
1782858509897112000,9.790112060546875,-0.0000898074358701706,-0.0014085224829614162,0.0000836281105875969
1782858509907060200,9.800060302734375,0.0002979841083288193,0.0019270367920398712,0.0009699719958007336
1782858509917009200,9.810009033203125,0.000040454789996147156,0.0002987803891301155,-0.0011155493557453156
1782858509926988000,9.819988037109376,0.0008213762193918228,0.00043289316818118095,0.0006621028296649456
1782858509936937200,9.829937255859376,0.0015561413019895554,-0.002147975843399763,0.003008614294230938
1782858509946886100,9.83988623046875,0.0014597531408071518,-0.0001273057423532009,0.0014946055598556995
1782858509956834000,9.849833984375,-0.000887824222445488,-0.0016301274299621582,-0.00187296187505126
1782858509966814000,9.85981396484375,-0.0003937501460313797,0.0010251314379274845,-0.0011098701506853104
1782858509976762000,9.86976220703125,-0.0006590019911527634,0.00020035123452544212,-0.00033382466062903404
1782858509986711000,9.8797109375,0.0003741364926099777,0.0006623808294534683,-0.0011213403195142746
1782858509996660200,9.88966015625,-0.00020590052008628845,-0.0018215496093034744,0.0004978617653250694
1782858510006639400,9.899639404296876,-0.0007885284721851349,-0.0014893743209540844,-0.0010852217674255371
1782858510016588300,9.90958837890625,-0.0002580266445875168,0.0001548617146909237,0.0006847148761153221
1782858510026537200,9.919537109375,-0.00033571943640708923,-0.0009050974622368813,-0.00011735828593373299
1782858510036485000,9.929485107421876,0.0014358144253492355,0.0006664339452981949,0.00020781345665454865
1782858510046434000,9.93943408203125,-0.0002939850091934204,0.0018445495516061783,-0.000990062952041626
1782858510056413200,9.9494130859375,-0.0003927890211343765,0.00010364130139350891,-0.0007788743823766708
1782858510066362000,9.959362060546875,0.00006845779716968536,0.0004880717024207115,-0.0020348108373582363
1782858510076311000,9.96931103515625,0.0024421326816082,0.0012926124036312103,0.0016749724745750427
1782858510086260000,9.979260009765625,0.0006098169833421707,-0.001600631047040224,0.00036859745159745216
1782858510096239000,9.989239013671876,-0.0021880995482206345,-0.00014361552894115448,0.00015474576503038406
1782858510106188000,9.99918798828125,0.00044316425919532776,0.0010330281220376492,0.0008194143883883953
1782858510116136200,10.00913623046875,0.0013901833444833755,-0.0003656637854874134,-0.0019785030744969845
1782858510126085000,10.019085205078126,0.000003259629011154175,0.0002859290689229965,-0.0020361188799142838
1782858510136064000,10.02906396484375,0.0007446836680173874,-0.0006176815368235111,0.0003175828605890274
1782858510146013000,10.039012939453125,-0.0005952809005975723,0.001402007881551981,0.00067512271925807
1782858510155962000,10.048962158203125,0.00182366743683815,-0.00123611930757761,-0.0011126571334898472
1782858510165910300,10.05891015625,-0.002169175073504448,-0.0016374164260923862,0.0003304453566670418
1782858510175890200,10.06889013671875,0.0003909207880496979,-0.0013354136608541012,0.0020913276821374893
1782858510185838300,10.07883837890625,0.000038331374526023865,-0.0013985643163323402,-0.00005682231858372688
1782858510195787300,10.088787353515626,-0.0016343984752893448,0.000457126647233963,-0.00007999176159501076
1782858510205736200,10.098736083984376,-0.00033325329422950745,-0.000506846234202385,0.00017217732965946198
1782858510215685000,10.10868505859375,0.0003402587026357651,-0.00019152788445353508,-0.00018335459753870964
1782858510225664300,10.118664306640625,0.0002862457185983658,-0.0003786594606935978,0.000027831178158521652
1782858510235613200,10.12861328125,-0.0001563727855682373,0.00004504900425672531,0.0008491501212120056
1782858510245561000,10.13856103515625,-0.0012185368686914444,0.0007652710191905499,-0.0004161642864346504
1782858510255510000,10.148510009765625,0.0003777630627155304,-0.0013796393759548664,0.001850718166679144
1782858510265489200,10.1584892578125,0.0009638257324695587,0.0009436020627617836,0.0014456012286245823
1782858510275438000,10.16843798828125,-0.00026522204279899597,0.00302725937217474,0.001047458965331316
1782858510285387000,10.178386962890626,0.000760810449719429,-0.0009247604757547379,-0.0014019585214555264
1782858510295335200,10.188335205078126,0.0006819795817136765,-0.0010014595463871956,-0.0003284378908574581
1782858510305315000,10.198315185546875,0.0008106231689453125,-0.0011812718585133553,-0.000431558582931757
1782858510315263000,10.208262939453125,-0.0002980511635541916,-0.0018097776919603348,-0.0006238389760255814
1782858510325212200,10.218212158203125,-0.00024486519396305084,0.0006580967456102371,0.0006648343987762928
1782858510335161000,10.2281611328125,-0.001453939825296402,0.0006325310096144676,-0.0003879130817949772
1782858510345110300,10.2381103515625,0.0007389113306999207,0.0021760347299277782,0.001418303232640028
1782858510355089200,10.248089111328126,0.00037405826151371,0.003110272344201803,0.00043825991451740265
1782858510365038000,10.2580380859375,0.001076212152838707,0.0004611811600625515,-0.0015827142633497715
1782858510374986200,10.267986328125,-0.0007003825157880783,0.00007608858868479729,-0.001108937431126833
1782858510384935200,10.27793505859375,0.0008267480880022049,-0.00045947451144456863,0.001435738056898117
1782858510394914000,10.2879140625,-0.0000773947685956955,-0.001713024452328682,0.00025249551981687546
1782858510404863200,10.29786328125,-0.00023478642106056213,-0.0007714121602475643,-0.0001563671976327896
1782858510414812200,10.307812255859375,-0.0003514327108860016,0.0005172910168766975,-0.0007292130030691624
1782858510424761000,10.317760986328125,0.0012083277106285095,-0.0016401540488004684,-0.00046892743557691574
1782858510434740000,10.327739990234376,-0.00024735555052757263,-0.00014452263712882996,0.00003946991637349129
1782858510444688100,10.337688232421876,-0.0013630669564008713,-0.0018558814190328121,0.0011084130965173244
1782858510454637000,10.347636962890626,-0.0010384265333414078,-0.0006380178965628147,0.00013635912910103798
1782858510464586000,10.3575859375,0.0010593347251415253,-0.0007922705262899399,-0.0010263281874358654
1782858510474565000,10.367565185546875,-0.0008466895669698715,-0.00040797656401991844,-0.0010510957799851894
1782858510484514300,10.377514404296875,-0.0006081294268369675,0.0006052097305655479,-0.001992815174162388
1782858510494463200,10.387463134765625,-0.0026118922978639603,0.00044941436499357224,0.0022402796894311905
1782858510504411100,10.3974111328125,0.001439591869711876,-0.0050562662072479725,0.02353423833847046
1782858510514360000,10.407360107421875,-0.003298172727227211,0.001131321769207716,0.011675181798636913
1782858510524339200,10.417339111328126,-0.0018146634101867676,0.009705201722681522,0.004286539740860462
1782858510534288100,10.4272880859375,0.0001318417489528656,0.01498598325997591,0.0014502727426588535
1782858510544237000,10.437237060546876,0.00046761706471443176,0.008173364214599133,0.0027183149941265583
1782858510554226000,10.447225830078125,0.00015283189713954926,-0.010716704651713371,0.0024509336799383163
1782858510564205000,10.457205078125,-0.0010906625539064407,-0.012276940047740936,-0.0004237131215631962
1782858510574154000,10.467154052734376,0.0008158944547176361,-0.0014980612322688103,-0.00392337329685688
1782858510584102000,10.477101806640626,0.0003964994102716446,0.001546703279018402,-0.0015999814495444298
1782858510594050800,10.48705078125,-0.0004959274083375931,0.006850655190646648,0.0007787537761032581
1782858510604030000,10.497030029296875,0.00010905973613262177,0.011309443041682243,0.003049970604479313
1782858510613979000,10.506978759765625,0.0005045384168624878,0.012746751308441162,0.0016017435118556023
1782858510623927800,10.516927734375,0.0016084462404251099,0.012720288708806038,0.0030929911881685257
1782858510633876000,10.5268759765625,0.0008566360920667648,0.015789316967129707,0.002174999564886093
1782858510643825000,10.536824951171875,-0.0015445947647094727,0.0137234041467309,0.002524822484701872
1782858510653803800,10.5468037109375,0.001002717763185501,0.010859440080821514,0.005709430668503046
1782858510663752700,10.556752685546876,-0.0004363786429166794,0.01576928421854973,0.004383117891848087
1782858510673702000,10.566701904296876,-0.0005221311002969742,0.013502668589353561,0.0015697549097239971
1782858510683651000,10.576651123046876,-0.0004850868135690689,0.008318073116242886,0.0015791384503245354
1782858510693630000,10.5866298828125,0.0004494171589612961,0.0021965308114886284,0.0008925753645598888
1782858510703579000,10.596578857421875,-0.0012929495424032211,0.003723899833858013,0.003014911897480488
1782858510713527000,10.606527099609375,-0.00015817582607269287,0.006339390762150288,0.0022409972734749317
1782858510723476000,10.61647607421875,-0.0026376470923423767,0.00611313059926033,0.001080892514437437
1782858510733454800,10.626454833984376,0.00020794011652469635,0.002747694030404091,-0.0004419032484292984
1782858510743404000,10.636404052734376,-0.0016395878046751022,-0.00048569729551672935,-0.002301118802279234
1782858510753353000,10.64635302734375,0.0008062589913606644,-0.0023224796168506145,-0.001205760519951582
1782858510763300900,10.65630078125,-0.0008477754890918732,-0.005988711025565863,-0.0009467080235481262
1782858510773280800,10.66628076171875,-0.0007351245731115341,0.0014369813725352287,-0.0014828024432063103
1782858510783229000,10.67622900390625,0.0005448572337627411,-0.0007074270397424698,0.001340190414339304
1782858510793177900,10.686177734375,0.00029691681265830994,0.0003716861829161644,-0.0007288195192813873
1782858510803126800,10.696126708984375,0.001061815768480301,-0.0009143729694187641,0.002781650982797146
1782858510813075700,10.70607568359375,0.000032238662242889404,0.0001682024449110031,0.0017408877611160278
1782858510823054800,10.716054931640626,0.00018380768597126007,-0.003813621122390032,0.00025318097323179245
1782858510833004000,10.726004150390626,0.00023520737886428833,-0.0027936305850744247,0.0006401385180652142
1782858510842951700,10.73595166015625,0.0011939965188503265,-0.00409934064373374,-0.0010478352196514606
1782858510852900900,10.74590087890625,0.0007186233997344971,-0.0005490807816386223,-0.003182625863701105
1782858510862880000,10.7558798828125,-0.0013325829058885574,-0.002245308831334114,-0.002108743879944086
1782858510872829000,10.765828857421875,0.000010449439287185669,-0.006086386274546385,-0.0015625297091901302
1782858510882777900,10.77577783203125,-0.001483110710978508,-0.0036500655114650726,-0.003170641604810953
1782858510892726800,10.785726806640625,-0.0016977619379758835,-0.0028284802101552486,0.0006371466442942619
1782858510902706000,10.795705810546876,0.0006574895232915878,-0.0019260421395301819,-0.0013532680459320545
1782858510912654800,10.80565478515625,-0.0013188421726226807,-0.001661590300500393,0.00053784204646945
1782858510922603000,10.81560302734375,-0.0004912260919809341,-0.001943902112543583,0.002613138873130083
1782858510932552000,10.825552001953126,-0.0010342448949813843,-0.0021295244805514812,0.002100480254739523
1782858510942530800,10.83553076171875,-0.000156305730342865,-0.003026057966053486,-0.0022372431121766567
1782858510952479700,10.845479736328125,-0.00013154000043869019,-0.0007384028285741806,-0.0004702359437942505
1782858510962429000,10.855428955078125,0.0012197494506835938,-0.003279710654169321,-0.001812963280826807
1782858510972376800,10.865376953125,-0.0006623063236474991,-0.0017161685973405838,-0.004253484774380922
1782858510982325800,10.87532568359375,-0.0002880468964576721,-0.006239930633455515,-0.0029078787192702293
1782858510992305000,10.885304931640626,0.0014525949954986572,-0.0071150450967252254,-0.003219734877347946
1782858511002253800,10.89525390625,0.00023682042956352234,-0.002514700870960951,-0.0031134746968746185
1782858511012203000,10.905203125,0.0006253756582736969,-0.005673742387443781,-0.0014167753979563713
1782858511022152000,10.91515185546875,-0.0024596937000751495,-0.004180361516773701,-0.001830709632486105
1782858511032131000,10.925131103515625,-0.00013208948075771332,0.00046738702803850174,-0.00015078764408826828
1782858511042080000,10.935080078125,-0.0002421494573354721,0.003690357320010662,-0.0007166005671024323
1782858511052028000,10.94502783203125,-0.0013585463166236877,0.005141247063875198,-0.0010572192259132862
1782858511061976800,10.954976806640625,0.00039685703814029694,0.003627430647611618,0.0009222980588674545
1782858511071956000,10.9649560546875,-0.0013951845467090607,0.0037302291020751,0.0009151073172688484
1782858511081905000,10.97490478515625,0.0022919028997421265,0.0007714079692959785,-0.00012918421998620033
1782858511091853800,10.984853759765626,-0.0012056268751621246,-0.004712573252618313,-0.0011497074738144875
1782858511101802000,10.994802001953126,0.0009718425571918488,-0.0012218756601214409,-0.002658788114786148
1782858511111751000,11.0047509765625,0.0005009956657886505,-0.0012370552867650986,-0.0021189646795392036
1782858511121729800,11.014729736328125,0.0003620758652687073,-0.003606893587857485,-0.002695839386433363
1782858511131678700,11.0246787109375,-0.0012235697358846664,-0.007270870264619589,-0.002704095561057329
1782858511141628000,11.0346279296875,0.0011245198547840118,-0.006024796050041914,-0.0031071435660123825
1782858511151577000,11.0445771484375,-0.00024993717670440674,-0.0072437250055372715,-0.002328968606889248
1782858511161555700,11.0545556640625,-0.000476982444524765,-0.003315652720630169,-0.0019144341349601746
1782858511171505000,11.0645048828125,0.001135827973484993,-0.003528439439833164,0.0009045219048857689
1782858511181453000,11.074453125,0.0006728451699018478,0.002557416446506977,0.0006533856503665447
1782858511191402000,11.084402099609376,-0.0003780387341976166,0.005536695010960102,0.002727189101278782
1782858511201380900,11.094380859375,0.0011389516294002533,0.006235947832465172,0.003014144953340292
1782858511211330000,11.104330078125,-0.000884518027305603,0.0052899932488799095,0.002188298851251602
1782858511221279000,11.114279052734375,0.0005538016557693481,0.0032317014411091805,0.0017096330411732197
1782858511231228000,11.124227783203125,-0.0004904251545667648,-0.0004535806365311146,0.00033783866092562675
1782858511241206800,11.134206787109376,-0.00035184621810913086,0.0009720791131258011,0.002207675017416477
1782858511251155000,11.144155029296876,0.0014798752963542938,-0.000610903836786747,0.0012478716671466827
1782858511261103900,11.154103759765626,-0.00037191249430179596,0.0003926418721675873,0.00041819456964731216
1782858511271052800,11.164052734375,-0.00045180879533290863,-0.008212298154830933,0.0016757394187152386
1782858511281001700,11.174001708984376,-0.00039121322333812714,-0.011027858592569828,-0.002208378631621599
1782858511290980900,11.18398095703125,-0.0016527529805898666,-0.011538119986653328,-0.0013649552129209042
1782858511300929800,11.1939296875,0.0012027937918901443,-0.007793116383254528,-0.000910190399736166
1782858511310877700,11.203877685546875,-0.0006033629179000854,-0.004922761581838131,0.002943936735391617
1782858511320827000,11.213826904296875,-0.0015665367245674133,-0.0030846293084323406,0.0017541395500302315
1782858511330805800,11.2238056640625,0.000004993751645088196,-0.004246033728122711,0.002476122695952654
1782858511340755000,11.2337548828125,-0.0005060825496912003,-0.006334878504276276,0.0011844201944768429
1782858511350703900,11.243703857421876,-0.0008869152516126633,-0.008183112367987633,-0.0015839356929063797
1782858511360652800,11.25365283203125,0.0001897122710943222,-0.007574560586363077,0.0014574951492249966
1782858511370632000,11.2636318359375,0.00007226690649986267,-0.011887017637491226,-0.002399028744548559
1782858511380580900,11.273580810546875,0.000458763912320137,-0.0111265042796731,-0.003178267739713192
1782858511390529000,11.283529052734375,-0.0001239348202943802,-0.006742408499121666,-0.005269382148981094
1782858511400478000,11.29347802734375,0.0014936253428459167,-0.005814369302242994,-0.003426773939281702
1782858511410456800,11.303456787109376,0.0006320923566818237,-0.0013429219834506512,-0.0007700049318373203
1782858511420405800,11.31340576171875,-0.0004109535366296768,0.0003044474869966507,0.0011422419920563698
1782858511430355000,11.32335498046875,-0.000327330082654953,0.003507697954773903,0.0019108303822577
1782858511440302800,11.333302734375,0.0004294011741876602,0.00700937956571579,0.003443512599915266
1782858511450251800,11.343251708984376,-0.0004057660698890686,0.00809301994740963,0.0027462970465421677
1782858511460231000,11.35323095703125,-0.0013008955866098404,0.010477367788553238,0.0023968638852238655
1782858511470179800,11.363179931640625,0.0014781132340431213,0.008901575580239296,0.002436012029647827
1782858511480128800,11.373128662109375,0.0006889421492815018,0.009291551075875759,-0.0015052068047225475
1782858511490078000,11.383077880859375,-0.00046793557703495026,0.004807853139936924,0.0023467899300158024
1782858511500057000,11.39305712890625,0.0011044368147850037,0.0017527183517813683,0.0014799968339502811
1782858511510006000,11.403006103515626,0.0006000325083732605,0.0010962486267089844,-0.000898206140846014
1782858511519954000,11.412953857421876,-0.0001627560704946518,0.0003315890207886696,-0.003513060975819826
1782858511529902800,11.42290283203125,0.0008015744388103485,-0.001119301188737154,0.0019397609867155552
1782858511539882000,11.432882080078125,-0.0008626785129308701,0.0007058298215270042,0.00023070815950632095
1782858511549831000,11.442830810546875,0.0006694383919239044,0.0017394023016095161,0.0018243435770273209
1782858511559789800,11.452789794921875,0.002286989241838455,0.004657884128391743,0.0013082008808851242
1782858511569738000,11.462738037109375,0.00015432946383953094,0.0030203061178326607,0.0006445408798754215
1782858511579687000,11.47268701171875,0.0012588761746883392,0.0031574591994285583,0.00245549064129591
1782858511589665800,11.482665771484376,-0.0008298400789499283,0.0019079037010669708,0.0027942447923123837
1782858511599615000,11.492614990234374,-0.00007802434265613556,0.005717542953789234,0.003309990046545863
1782858511609564000,11.50256396484375,-0.0004972051829099655,0.005184377543628216,0.001065744087100029
1782858511619512800,11.512512939453124,-0.0002004038542509079,0.002024112269282341,0.002994246780872345
1782858511629491700,11.52249169921875,-0.00009574182331562042,0.0015886854380369186,0.002392638474702835
1782858511639441000,11.53244091796875,0.00020289048552513123,0.00004940386861562729,0.0025602425448596478
1782858511649388800,11.542388916015625,0.00011047907173633575,0.004660400561988354,0.0009154742583632469
1782858511659337700,11.552337646484375,0.002289092168211937,0.004362995736300945,0.0020192540250718594
1782858511669316900,11.56231689453125,0.00010476820170879364,0.00535555649548769,0.0019556046463549137
1782858511679265800,11.572265869140624,-0.000006260350346565247,0.004467295482754707,0.003222745843231678
1782858511689215000,11.582215087890624,0.000054193660616874695,0.005729634314775467,0.004689348861575127
1782858511699164000,11.592163818359374,-0.0008407849818468094,0.0037659592926502228,0.0014456762000918388
1782858511709143000,11.60214306640625,0.0004124976694583893,0.0012167813256382942,0.002727721817791462
1782858511719092000,11.612092041015625,0.00012271665036678314,-0.00028741592541337013,0.0003366689197719097
1782858511729040000,11.622039794921875,-0.00045545585453510284,-0.003549521788954735,-0.002416240982711315
1782858511738988800,11.63198876953125,-0.00032548047602176666,-0.0037446077913045883,-0.0021549114026129246
1782858511748937700,11.641937744140625,0.00013524480164051056,-0.007904998026788235,-0.0011892491020262241
