time,seconds_elapsed,z,y,x
1783169000679491300,0.0974912109375,0.02437111921608448,0.00509808911010623,-0.008402805775403976
1783169000689439200,0.107439208984375,0.026264626532793045,0.004923918284475803,-0.007065898738801479
1783169000699388200,0.11738818359375,0.025971146300435066,0.006216616835445166,-0.00968511775135994
1783169000709337300,0.12733740234375,0.025715216994285583,0.0043295007199049,-0.007752195466309786
1783169000719316200,0.137316162109375,0.025175394490361214,0.006225671619176865,-0.007904262281954288
1783169000729265200,0.14726513671875,0.027708327397704124,0.005037369206547737,-0.008523447439074516
1783169000739213300,0.15721337890625,0.02592773735523224,0.005592904519289732,-0.008801214396953583
1783169000749162200,0.167162353515625,0.026372218504548073,0.003855191869661212,-0.004520449787378311
1783169000759141000,0.17714111328125,0.02538658306002617,0.004156661685556173,-0.009119994938373566
1783169000769090000,0.187090087890625,0.024029701948165894,0.0037942056078463793,-0.009870207868516445
1783169000779040500,0.19704052734375,0.02605690062046051,0.00461579067632556,-0.005030444823205471
1783169000789019600,0.20701953125,0.024162860587239265,0.004748416133224964,-0.008019843138754368
1783169000798968600,0.216968505859375,0.025110412389039993,0.0043902210891246796,-0.008392419666051865
1783169000808917500,0.22691748046875,0.027892883867025375,0.0038128476589918137,-0.004866394214332104
1783169000818865700,0.23686572265625,0.02576315402984619,0.007525826804339886,-0.010321879759430885
1783169000828845600,0.246845458984375,0.025534121319651604,0.005632053129374981,-0.007674165070056915
1783169000838793500,0.25679345703125,0.02592507377266884,0.0048975530080497265,-0.011417504400014877
1783169000848742400,0.266742431640625,0.025545040145516396,0.0065596322529017925,-0.009244631044566631
1783169000858691300,0.27669140625,0.026149312034249306,0.003922303672879934,-0.006114617921411991
1783169000868670500,0.28667041015625,0.025788987055420876,0.004856008104979992,-0.005358546506613493
1783169000878619600,0.29661962890625,0.025066737085580826,0.0037888791412115097,-0.005327919963747263
1783169000888567600,0.306567626953125,0.02510242350399494,0.0063007730059325695,-0.009151686914265156
1783169000898547700,0.316547607421875,0.027660124003887177,0.00552392890676856,-0.010546917095780373
1783169000908495600,0.32649560546875,0.025354625657200813,0.004944957327097654,-0.007005977910012007
1783169000918444500,0.336444580078125,0.02449602261185646,0.0037033918779343367,-0.007474161684513092
1783169000928393700,0.346393798828125,0.023922909051179886,0.003962517250329256,-0.005105812568217516
1783169000938372600,0.35637255859375,0.025140507146716118,0.00558251840993762,-0.008609733544290066
1783169000948321500,0.366321533203125,0.025951439514756203,0.00395825644955039,-0.009088835678994656
1783169000958270500,0.3762705078125,0.024162860587239265,0.004820321686565876,-0.009102950803935528
1783169000968218600,0.386218505859375,0.026075541973114014,0.0054389736615121365,-0.007796670310199261
1783169000978198500,0.396198486328125,0.026157034561038017,0.004960403777658939,-0.010149040259420872
1783169000988146400,0.406146484375,0.025470739230513573,0.0062278020195662975,-0.008627843111753464
1783169000998095600,0.416095703125,0.024222249165177345,0.00392736354842782,-0.006911701988428831
1783169001008044500,0.42604443359375,0.024924790486693382,0.005281048361212015,-0.009179117158055305
1783169001018023400,0.4360234375,0.026265691965818405,0.003753725439310074,-0.00887684803456068
1783169001027972400,0.445972412109375,0.02532639540731907,0.003846936160698533,-0.009080314077436924
1783169001037920500,0.45592041015625,0.02580949291586876,0.005458415020257235,-0.008132494986057281
1783169001047900400,0.465900390625,0.02576501853764057,0.0054570832289755344,-0.008682438172399998
1783169001057848600,0.4758486328125,0.02640630677342415,0.004837099462747574,-0.007918909192085266
1783169001067797800,0.4857978515625,0.025526931509375572,0.005015797447413206,-0.007811584044247866
1783169001077746700,0.49574658203125,0.026091521605849266,0.003757720347493887,-0.009512810967862606
1783169001087725600,0.5057255859375,0.027780499309301376,0.005212338641285896,-0.00897059217095375
1783169001097674500,0.515674560546875,0.02526887133717537,0.005032841581851244,-0.009250756353139877
1783169001107623700,0.525623779296875,0.025070199742913246,0.00472577940672636,-0.007934622466564178
1783169001117571600,0.535571533203125,0.02678634040057659,0.0052136704325675964,-0.008607069961726665
1783169001127551500,0.545551513671875,0.02569630928337574,0.004065048880875111,-0.008214253932237625
1783169001137499600,0.555499755859375,0.02508724294602871,0.00455773388966918,-0.006573746912181377
1783169001147448600,0.565448486328125,0.026875022798776627,0.0062547000125050545,-0.006846454460173845
1783169001157427500,0.575427490234375,0.02774348109960556,0.006199039984494448,-0.00860494002699852
1783169001167376600,0.585376708984375,0.02797570824623108,0.0046818372793495655,-0.008356733247637749
1783169001177325600,0.59532568359375,0.02568991668522358,0.00567066902294755,-0.007299458142369986
1783169001187273500,0.6052734375,0.0249631404876709,0.0038924762047827244,-0.009080580435693264
1783169001197253400,0.61525341796875,0.02497965097427368,0.005294364411383867,-0.005397428758442402
1783169001207201500,0.625201416015625,0.026005234569311142,0.007138070650398731,-0.00743208359926939
1783169001217150500,0.635150390625,0.02624278888106346,0.004750014282763004,-0.006470149848610163
1783169001227099600,0.645099609375,0.025418806821107864,0.005095425993204117,-0.008356999605894089
1783169001237078800,0.655078857421875,0.025376463308930397,0.004354001954197884,-0.006982009392231703
1783169001247027700,0.66502783203125,0.025963157415390015,0.0065345983020961285,-0.004286624025553465
1783169001256976600,0.6749765625,0.02629738487303257,0.005872536450624466,-0.010134126991033554
1783169001266924500,0.684924560546875,0.026816966012120247,0.005113002844154835,-0.005500758998095989
1783169001276904700,0.69490478515625,0.024876853451132774,0.005720470100641251,-0.00788482092320919
1783169001286852600,0.7048525390625,0.02665344811975956,0.005588643718510866,-0.007928763516247272
1783169001296801500,0.714801513671875,0.027003919705748558,0.005350290797650814,-0.007591607049107552
1783169001306780700,0.72478076171875,0.027089674025774002,0.005573729984462261,-0.003400856629014015
1783169001316729600,0.7347294921875,0.024695226922631264,0.0073532541282474995,-0.007525560446083546
1783169001326678500,0.744678466796875,0.02696184255182743,0.0031305458396673203,-0.005888249259442091
1783169001336627500,0.75462744140625,0.025245169177651405,0.006375074852257967,-0.0062642875127494335
1783169001346606600,0.764606689453125,0.026264093816280365,0.0030748858116567135,-0.008167115971446037
1783169001356554500,0.774554443359375,0.02551175095140934,0.006010754499584436,-0.006090116687119007
1783169001366503400,0.78450341796875,0.02563665434718132,0.005988117773085833,-0.009460879489779472
1783169001376452400,0.794452392578125,0.027896879240870476,0.005308479070663452,-0.0070858728140592575
1783169001386431500,0.804431396484375,0.026972761377692223,0.004058923572301865,-0.0089378347620368
1783169001396380700,0.814380615234375,0.026765834540128708,0.006088252644985914,-0.006856841035187244
1783169001406329600,0.82432958984375,0.026261432096362114,0.003870904678478837,-0.007419300265610218
1783169001416308700,0.834308837890625,0.026621224358677864,0.0054850466549396515,-0.01005130261182785
1783169001426257700,0.844257568359375,0.025304824113845825,0.006741792429238558,-0.009854228235781193
1783169001436205600,0.85420556640625,0.02660125121474266,0.003733751829713583,-0.009168198332190514
1783169001446154500,0.864154541015625,0.02503611147403717,0.005153216887265444,-0.011236408725380898
1783169001456133600,0.874133544921875,0.02684253267943859,0.00720678037032485,-0.007306648883968592
1783169001466082600,0.88408251953125,0.025854766368865967,0.006440588738769293,-0.00986434891819954
1783169001476031500,0.894031494140625,0.025287512689828873,0.005293831694871187,-0.008044344373047352
1783169001485980400,0.90398046875,0.026273416355252266,0.003906324505805969,-0.008683769032359123
1783169001495959600,0.91395947265625,0.026383137330412865,0.006650712341070175,-0.008188953623175621
1783169001505908500,0.923908447265625,0.025956498458981514,0.003885285696014762,-0.008582568727433681
1783169001515856400,0.9338564453125,0.02690458483994007,0.004613660275936127,-0.008778044953942299
1783169001525835500,0.94383544921875,0.026384469121694565,0.004258926957845688,-0.009973271749913692
1783169001535784400,0.953784423828125,0.02665824256837368,0.00504136411473155,-0.009266202338039875
1783169001545733400,0.9637333984375,0.026637203991413116,0.005667739547789097,-0.010113886557519436
1783169001555682600,0.9736826171875,0.025977805256843567,0.004836833104491234,-0.006347644608467817
1783169001565661700,0.98366162109375,0.02461160346865654,0.00547386147081852,-0.00914529524743557
1783169001575610600,0.993610595703125,0.02646915800869465,0.008578840643167496,-0.008796420879662037
1783169001585558500,1.00355859375,0.026391394436359406,0.007542072329670191,-0.008775648660957813
1783169001595507700,1.0135078125,0.026443058624863625,0.003683151677250862,-0.008213188499212265
1783169001605486600,1.023486572265625,0.02593625895678997,0.0029667613562196493,-0.007426491007208824
1783169001615435500,1.033435546875,0.024471255019307137,0.0057404437102377415,-0.007816644385457039
1783169001625384400,1.043384521484375,0.02576448582112789,0.004027498420327902,-0.0054765245877206326
1783169001635333600,1.053333740234375,0.026028670370578766,0.006473878398537636,-0.009297627955675125
1783169001645312500,1.0633125,0.026014024391770363,0.004009388852864504,-0.0076240976341068745
1783169001655261400,1.073261474609375,0.026004701852798462,0.003478088416159153,-0.006383330561220646
1783169001665209600,1.083209716796875,0.02617754228413105,0.006589192897081375,-0.007996940053999424
1783169001675189500,1.093189453125,0.026517095044255257,0.004542553797364235,-0.008595352061092854
1783169001685137400,1.103137451171875,0.024625452235341072,0.002883138135075569,-0.006080795545130968
1783169001695086600,1.113086669921875,0.02424115687608719,0.005046956706792116,-0.008666991256177425
1783169001705035500,1.123035400390625,0.025540247559547424,0.005231247283518314,-0.006133526097983122
1783169001715014400,1.133014404296875,0.027088075876235962,0.004797152243554592,-0.006134857889264822
1783169001724963600,1.142963623046875,0.02496473863720894,0.005261607468128204,-0.0051750545389950275
1783169001734911500,1.152911376953125,0.02521827071905136,0.004534830804914236,-0.00863130483776331
1783169001744860700,1.162860595703125,0.026641996577382088,0.005597432143986225,-0.007182545494288206
1783169001754839600,1.172839599609375,0.025959162041544914,0.006943659856915474,-0.006207562051713467
1783169001764788700,1.182788818359375,0.024213461205363274,0.00447064870968461,-0.005927663762122393
1783169001774737700,1.192737548828125,0.02677222527563572,0.005083175376057625,-0.009780459105968475
1783169001784747800,1.202747802734375,0.02599165216088295,0.005864280741661787,-0.007242466323077679
1783169001794696700,1.21269677734375,0.026823891326785088,0.0052107409574091434,-0.009014267474412918
1783169001804646000,1.22264599609375,0.025058481842279434,0.006570551078766584,-0.008076302707195282
1783169001814593800,1.23259375,0.02520921640098095,0.005271460860967636,-0.008043012581765652
1783169001824573700,1.24257373046875,0.024221716448664665,0.0029228192288428545,-0.00698041170835495
1783169001834521900,1.25252197265625,0.024999625980854034,0.0065620290115475655,-0.007872570306062698
1783169001844470800,1.262470703125,0.0261855311691761,0.00484162662178278,-0.007484281435608864
1783169001854419700,1.272419677734375,0.026097115129232407,0.004430701024830341,-0.007840080186724663
1783169001864398600,1.282398681640625,0.026576749980449677,0.005022988189011812,-0.0064802695997059345
1783169001874347800,1.29234765625,0.02683374471962452,0.004486094694584608,-0.0065404572524130344
1783169001884295700,1.302295654296875,0.024953287094831467,0.005074653308838606,-0.00911733228713274
1783169001894244600,1.31224462890625,0.02418363280594349,0.00341603672131896,-0.006373743526637554
1783169001904223700,1.3222236328125,0.025293905287981033,0.006143912672996521,-0.008519718423485756
1783169001914172700,1.332172607421875,0.024869130924344063,0.005195294506847858,-0.007504255045205355
1783169001924121600,1.34212158203125,0.025788454338908195,0.0016479641199111938,-0.007428887765854597
1783169001934100700,1.352100830078125,0.027000725269317627,0.0063092950731515884,-0.006768157705664635
1783169001944050000,1.3620498046875,0.026853717863559723,0.0059865196235477924,-0.0075671058148145676
1783169001953998800,1.371998779296875,0.02641483023762703,0.007864846847951412,-0.006642722524702549
1783169001963946800,1.38194677734375,0.02454901859164238,0.0060238041914999485,-0.008410262875258923
1783169001973926700,1.3919267578125,0.025492843240499496,0.005377721041440964,-0.007652060594409704
1783169001983874800,1.401874755859375,0.025489380583167076,0.00669332267716527,-0.007246194873005152
1783169001993823700,1.41182373046875,0.027663851156830788,0.003816842334344983,-0.008776447735726833
1783169002003772700,1.421772705078125,0.025644643232226372,0.0059809270314872265,-0.008449411019682884
1783169002013751800,1.431751708984375,0.025429459288716316,0.00504083139821887,-0.006959904916584492
1783169002023700700,1.44170068359375,0.02694959193468094,0.006179599091410637,-0.010014817118644714
1783169002033648600,1.451648681640625,0.025139974430203438,0.005843774415552616,-0.007592672016471624
1783169002043597800,1.461597900390625,0.026933612301945686,0.005137237720191479,-0.006263222079724073
1783169002053576700,1.47157666015625,0.02497539110481739,0.006808104924857616,-0.009074188768863678
1783169002063525600,1.481525634765625,0.026863571256399155,0.0046876962296664715,-0.007411310914903879
1783169002073474600,1.491474609375,0.025710688903927803,0.007106379140168428,-0.008281898684799671
1783169002083453700,1.50145361328125,0.025121597573161125,0.004253867082297802,-0.008982576429843903
1783169002093402600,1.511402587890625,0.026335733011364937,0.006080795545130968,-0.007651794236153364
1783169002103351800,1.521351806640625,0.026096049696207047,0.005627791862934828,-0.007254983298480511
1783169002113299700,1.5312998046875,0.024991635233163834,0.0051276502199471,-0.007804127410054207
1783169002123280000,1.54127978515625,0.026920830830931664,0.003555586328729987,-0.0060142166912555695
1783169002133227800,1.551227783203125,0.02737356722354889,0.006445382256060839,-0.007466171868145466
1783169002143176700,1.5611767578125,0.028122713789343834,0.005497563164681196,-0.00817883387207985
1783169002153126000,1.5711259765625,0.02630430832505226,0.00643845833837986,-0.006902114488184452
1783169002163104800,1.581104736328125,0.026521621271967888,0.005259742960333824,-0.007742342073470354
1783169002173053700,1.5910537109375,0.025049427524209023,0.005426190793514252,-0.006642988882958889
1783169002183002600,1.601002685546875,0.02580603025853634,0.004898618441075087,-0.009191367775201797
1783169002192981800,1.610981689453125,0.026254506781697273,0.004070641472935677,-0.006100236903876066
1783169002202929700,1.6209296875,0.024697888642549515,0.002628007438033819,-0.009200156666338444
1783169002212878600,1.630878662109375,0.02503158338367939,0.003916178364306688,-0.006926083005964756
1783169002222827800,1.640827880859375,0.026151709258556366,0.004992361646145582,-0.00836711935698986
1783169002232806700,1.650806640625,0.026853451505303383,0.004764661658555269,-0.007520766928792
1783169002242755600,1.660755615234375,0.024952488020062447,0.005303152836859226,-0.00558065390214324
1783169002252704500,1.67070458984375,0.02581322193145752,0.006380401086062193,-0.007394000422209501
1783169002262652700,1.680652587890625,0.026279274374246597,0.0051686628721654415,-0.007815046235918999
1783169002272632800,1.6906328125,0.02557113952934742,0.004433364141732454,-0.007852330803871155
1783169002282580700,1.700580810546875,0.026419622823596,0.004744687583297491,-0.005598763469606638
1783169002292530000,1.710530029296875,0.026313895359635353,0.006745520513504744,-0.007645668927580118
1783169002302478800,1.720478759765625,0.02731817401945591,0.0038005972746759653,-0.008192149922251701
1783169002312457700,1.730457763671875,0.02424195595085621,0.0034059167373925447,-0.006923153530806303
1783169002322406700,1.74040673828125,0.024235565215349197,0.005238970275968313,-0.005586512852460146
1783169002332355800,1.75035595703125,0.024769794195890427,0.004821120295673609,-0.009209477342665195
1783169002342334700,1.760334716796875,0.024155670776963234,0.007242999039590359,-0.009921872988343239
1783169002352283600,1.77028369140625,0.025678198784589767,0.006127400789409876,-0.008733304217457771
1783169002362231800,1.780231689453125,0.0254526287317276,0.006464557256549597,-0.0070914654061198235
1783169002372180700,1.7901806640625,0.027647607028484344,0.004770254250615835,-0.007573763839900494
1783169002382159600,1.80015966796875,0.025535719469189644,0.006506368983536959,-0.00809094961732626
1783169002392108800,1.81010888671875,0.02636422961950302,0.0060174125246703625,-0.009138370864093304
1783169002402057700,1.8200576171875,0.02406725287437439,0.006622748915106058,-0.008451541885733604
1783169002412005600,1.830005615234375,0.02550908923149109,0.003026682650670409,-0.007528223562985659
1783169002421985500,1.839985595703125,0.026080602779984474,0.0037736992817372084,-0.008362059481441975
1783169002431933700,1.84993359375,0.026824424043297768,0.004746019374579191,-0.006150304339826107
1783169002441882600,1.859882568359375,0.02640923671424389,0.00812184251844883,-0.008319448679685593
1783169002451861500,1.869861572265625,0.025543976575136185,0.004779575392603874,-0.006081860978156328
1783169002461811000,1.87981103515625,0.025496838614344597,0.0051902346312999725,-0.006175604183226824
1783169002471760000,1.889759765625,0.027759458869695663,0.0049766493029892445,-0.00845740083605051
1783169002481708800,1.899708740234375,0.024396419525146484,0.005179582163691521,-0.007496532052755356
1783169002491687700,1.909687744140625,0.026152508333325386,0.007934356108307838,-0.009223858825862408
1783169002501636900,1.919636962890625,0.025839852169156075,0.005247492343187332,-0.008156729862093925
1783169002511584800,1.929584716796875,0.026628147810697556,0.006579073145985603,-0.00752023421227932
1783169002521533700,1.93953369140625,0.024354875087738037,0.005878661759197712,-0.00785552617162466
1783169002531512800,1.949512939453125,0.0254017636179924,0.003951864782720804,-0.009214803576469421
1783169002541461800,1.959461669921875,0.026253974065184593,0.007837949320673943,-0.006341785658150911
1783169002551410700,1.96941064453125,0.02653147652745247,0.0053553506731987,-0.00654551712796092
1783169002561358600,1.979358642578125,0.025176726281642914,0.004328702110797167,-0.007833422161638737
1783169002571338800,1.9893388671875,0.02634611912071705,0.006302104331552982,-0.008904012851417065
1783169002581286700,1.99928662109375,0.02719913050532341,0.006837932392954826,-0.008621451444923878
1783169002591235600,2.009235595703125,0.023724237456917763,0.0008434231276623905,-0.005958556663244963
1783169002601214700,2.019214599609375,0.026019083335995674,0.004266916774213314,-0.007981760427355766
1783169002611163600,2.02916357421875,0.02562706544995308,0.005381183233112097,-0.007967112585902214
1783169002621112800,2.03911279296875,0.026826554909348488,0.005074653308838606,-0.009096026420593262
1783169002631061800,2.049061767578125,0.02496873214840889,0.0054128747433424,-0.006431800313293934
1783169002641041000,2.059041015625,0.027061711996793747,0.00395585922524333,-0.00890640914440155
1783169002650989800,2.06898974609375,0.025137310847640038,0.007382815238088369,-0.009243299253284931
1783169002660937700,2.078937744140625,0.02570136822760105,0.0039880839176476,-0.009090700186789036
1783169002670886700,2.08888671875,0.02526647411286831,0.002740126335993409,-0.008282696828246117
1783169002680865800,2.09886572265625,0.025732528418302536,0.005511944647878408,-0.007286142557859421
1783169002690814700,2.108814697265625,0.025463014841079712,0.00481472909450531,-0.010121343657374382
1783169002700763600,2.118763671875,0.026632143184542656,0.006711165886372328,-0.008839298039674759
1783169002710711800,2.1287119140625,0.02586248889565468,0.0046354979276657104,-0.006189718842506409
1783169002720691700,2.138691650390625,0.027044400572776794,0.005228850524872541,-0.005524993874132633
1783169002730639600,2.1486396484375,0.02562892995774746,0.004824316129088402,-0.007779359817504883
1783169002740588500,2.158588623046875,0.026562901213765144,0.005742840468883514,-0.007958324626088142
1783169002750567700,2.168567626953125,0.026152241975069046,0.006792126223444939,-0.007456052117049694
1783169002760516600,2.1785166015625,0.02580869384109974,0.00464668357744813,-0.008310660719871521
1783169002770465500,2.188465576171875,0.024391092360019684,0.005681587848812342,-0.0051505533047020435
1783169002780423200,2.198423095703125,0.024996429681777954,0.004522846546024084,-0.0062403189949691296
1783169002790402000,2.208402099609375,0.025784192606806755,0.006613694131374359,-0.009206813760101795
1783169002800351200,2.218351318359375,0.025529595091938972,0.004458131734281778,-0.008372978307306767
1783169002810299100,2.228299072265625,0.02630670554935932,0.006511695217341185,-0.006708769127726555
1783169002820248000,2.238248046875,0.026503512635827065,0.006299441214650869,-0.007271228823810816
1783169002830227200,2.248227294921875,0.026224413886666298,0.003194727934896946,-0.007616640534251928
1783169002840176000,2.258176025390625,0.024215856567025185,0.007457649800926447,-0.008825981989502907
1783169002850125300,2.268125244140625,0.02640577405691147,0.006280532572418451,-0.008175904862582684
1783169002860104400,2.2781044921875,0.025841983035206795,0.007769772317260504,-0.009558351710438728
1783169002870053400,2.288053466796875,0.02510135807096958,0.005828594323247671,-0.007794273551553488
1783169002880001300,2.298001220703125,0.025531725957989693,0.0035683694295585155,-0.006612629164010286
1783169002889950200,2.3079501953125,0.0256345234811306,0.0017949705943465233,-0.006914897821843624
1783169002899929300,2.317929443359375,0.02694826014339924,0.005253085400909185,-0.007437676191329956
1783169002909878300,2.327878173828125,0.02510029263794422,0.005175320897251368,-0.009196694009006023
1783169002919827200,2.3378271484375,0.025227857753634453,0.0037936728913336992,-0.006989998742938042
1783169002929776000,2.347776123046875,0.026128273457288742,0.006588927004486322,-0.008954878896474838
1783169002939755300,2.35775537109375,0.02550642564892769,0.006171077024191618,-0.007936219684779644
1783169002949704200,2.3677041015625,0.026557041332125664,0.005967611446976662,-0.008318649604916573
1783169002959652000,2.377652099609375,0.025982065126299858,0.005299157928675413,-0.008299209177494049
1783169002969601300,2.387601318359375,0.0261213481426239,0.005362807307392359,-0.007742075715214014
1783169002979580200,2.397580078125,0.025624670088291168,0.005009139887988567,-0.006600910797715187
1783169002989529000,2.407529052734375,0.02593359537422657,0.005264004226773977,-0.007492803502827883
1783169002999478000,2.41747802734375,0.0254512969404459,0.006382798310369253,-0.0072840116918087006
1783169003009457200,2.42745703125,0.026064623147249222,0.004765726625919342,-0.008011853322386742
1783169003019406300,2.43740625,0.023930367082357407,0.004172374494373798,-0.007062703371047974
1783169003029355300,2.447355224609375,0.02640683948993683,0.0027395938523113728,-0.007094128523021936
1783169003039303400,2.457303466796875,0.02604598179459572,0.005715143866837025,-0.006720753386616707
1783169003049282300,2.4672822265625,0.024841433390975,0.005681854207068682,-0.008094944059848785
1783169003059231200,2.477231201171875,0.02702309563755989,0.007012369576841593,-0.0068152956664562225
1783169003069180200,2.48718017578125,0.025623604655265808,0.005775064695626497,-0.0075692362152040005
1783169003079129300,2.49712939453125,0.025491245090961456,0.005691175349056721,-0.0073468624614179134
1783169003089108200,2.507108154296875,0.026762638241052628,0.004317782819271088,-0.007110639940947294
1783169003099057200,2.51705712890625,0.027060646563768387,0.004723649006336927,-0.007292267866432667
1783169003109005300,2.52700537109375,0.02545822225511074,0.0073564499616622925,-0.007231281138956547
1783169003118985200,2.536985107421875,0.02660205028951168,0.002892725635319948,-0.008132228627800941
1783169003128933000,2.54693310546875,0.025727201253175735,0.00407516909763217,-0.006685866042971611
1783169003138882000,2.556882080078125,0.02617780864238739,0.005423527676612139,-0.0070405988954007626
1783169003148831200,2.566831298828125,0.0265439935028553,0.005160939879715443,-0.007050452753901482
1783169003158810000,2.57681005859375,0.025952771306037903,0.0037092508282512426,-0.008836634457111359
1783169003168759000,2.586759033203125,0.025794578716158867,0.004840561654418707,-0.007564975414425135
1783169003178708200,2.596708251953125,0.027601534500718117,0.005877329967916012,-0.007066431455314159
1783169003188656400,2.606656494140625,0.024573519825935364,0.0010373012628406286,-0.006222742144018412
1783169003198636300,2.61663623046875,0.0256345234811306,0.00615190202370286,-0.008713063783943653
1783169003208584200,2.626584228515625,0.025416409596800804,0.007749265991151333,-0.007452057208865881
1783169003218533400,2.636533447265625,0.024397218599915504,0.0062483083456754684,-0.008297078311443329
1783169003228482300,2.646482421875,0.024933578446507454,0.005626726895570755,-0.006914897821843624
1783169003238461200,2.656461181640625,0.026998594403266907,0.0016466324450448155,-0.010003631934523582
1783169003248410000,2.66641015625,0.026630012318491936,0.0041193775832653046,-0.008724515326321125
1783169003258358300,2.676358154296875,0.025786856189370155,0.006363889668136835,-0.008696552366018295
1783169003268338200,2.686338134765625,0.02558285742998123,0.007003847509622574,-0.007196926511824131
1783169003278286300,2.696286376953125,0.02581748180091381,0.0032418658956885338,-0.007645402569323778
1783169003288235300,2.7062353515625,0.02528511732816696,0.00373028963804245,-0.008655806072056293
1783169003298184200,2.71618408203125,0.026756778359413147,0.0065404572524130344,-0.007213970646262169
1783169003308163000,2.7261630859375,0.02449735254049301,0.005940447095781565,-0.007414773106575012
1783169003318112300,2.7361123046875,0.024954086169600487,0.0048919604159891605,-0.00794394314289093
1783169003328061200,2.746061279296875,0.024083232507109642,0.005386243108659983,-0.008009190671145916
1783169003338009000,2.756009033203125,0.02798582799732685,0.005760950036346912,-0.009064601734280586
1783169003347989200,2.7659892578125,0.0266603734344244,0.006672816351056099,-0.00803422462195158
1783169003357937400,2.7759375,0.025178857147693634,0.007036071736365557,-0.008963401429355145
1783169003367886300,2.78588623046875,0.025600168853998184,0.005160939879715443,-0.008334895595908165
1783169003377865200,2.795865234375,0.02696530520915985,0.005577990785241127,-0.006971090566366911
1783169003387814400,2.805814453125,0.02682815119624138,0.004854676313698292,-0.008505870588123798
1783169003397763300,2.815763427734375,0.02545316144824028,0.005531385540962219,-0.00999164767563343
1783169003407711200,2.825711181640625,0.025905633345246315,0.005950300954282284,-0.008710667490959167
1783169003417691100,2.835691162109375,0.027937358245253563,0.007686415687203407,-0.0065385932102799416
1783169003427639300,2.845639404296875,0.026730414479970932,0.0064387246966362,-0.006918360013514757
1783169003437588200,2.855588134765625,0.022835008800029755,0.004810201469808817,-0.008324508555233479
1783169003447537200,2.865537109375,0.02430320903658867,0.0068235513754189014,-0.009228918701410294
1783169003457516300,2.875516357421875,0.025196699425578117,0.004907939583063126,-0.009189769625663757
1783169003467465200,2.88546533203125,0.026495257392525673,0.005816876422613859,-0.008875783532857895
1783169003477414100,2.8954140625,0.025967951864004135,0.003989148885011673,-0.008677377365529537
1783169003487362000,2.905362060546875,0.02617461234331131,0.004867193289101124,-0.008222243748605251
1783169003497342200,2.91534228515625,0.02593439444899559,0.007660849019885063,-0.007389739155769348
1783169003507290000,2.9252900390625,0.02496527135372162,0.005397162400186062,-0.006607302464544773
1783169003517239300,2.9352392578125,0.026496855542063713,0.006640325766056776,-0.008279501460492611
1783169003527218200,2.94521826171875,0.02557140588760376,0.006642456166446209,-0.007766043767333031
1783169003537167400,2.95516748046875,0.026377279311418533,0.006826214492321014,-0.008417985402047634
1783169003547116300,2.9651162109375,0.026311764493584633,0.006028597708791494,-0.009521067142486572
1783169003557064200,2.975064208984375,0.026579147204756737,0.00896979309618473,-0.006858971435576677
1783169003567044400,2.98504443359375,0.024699220433831215,0.006160157732665539,-0.0075942701660096645
1783169003576992300,2.9949921875,0.023911723867058754,0.004120176658034325,-0.007171892561018467
1783169003586941200,3.004941162109375,0.02665451355278492,0.0038519962690770626,-0.008036887273192406
1783169003596890000,3.01489013671875,0.025886457413434982,0.0065263425931334496,-0.007197192870080471
1783169003606869200,3.024869140625,0.025683792307972908,0.0038035267498344183,-0.00697828084230423
1783169003616818200,3.034818115234375,0.02701776847243309,0.00478516798466444,-0.006936203222721815
1783169003626767000,3.04476708984375,0.02581055834889412,0.004761732183396816,-0.008499212563037872
1783169003636715300,3.05471533203125,0.02611309289932251,0.003966512158513069,-0.006326605565845966
1783169003646695200,3.064695068359375,0.027882497757673264,0.0068118334747850895,-0.007707720622420311
1783169003656643000,3.07464306640625,0.02575596421957016,0.004024568945169449,-0.007340470794588327
1783169003666592000,3.084592041015625,0.02508910745382309,0.0052413675002753735,-0.0073071811348199844
1783169003676571100,3.094571044921875,0.02660551108419895,0.005598497111350298,-0.006684800609946251
1783169003686520300,3.104520263671875,0.026737071573734283,0.006800381932407618,-0.007059773895889521
1783169003696469200,3.11446923828125,0.025676866993308067,0.00711596617475152,-0.008838498964905739
1783169003706417400,3.12441748046875,0.02557380311191082,0.009153018705546856,-0.007287740241736174
1783169003716397300,3.134397216796875,0.02648353949189186,0.007510380353778601,-0.008448345586657524
1783169003726345200,3.14434521484375,0.024634506553411484,0.0037736992817372084,-0.007653392385691404
1783169003736294100,3.154294189453125,0.025563417002558708,0.003765709698200226,-0.0052168662659823895
1783169003746243300,3.164243408203125,0.026753051206469536,0.005378253757953644,-0.008076302707195282
1783169003756222200,3.17422216796875,0.026936542242765427,0.004062119405716658,-0.0070307450369000435
1783169003766171100,3.184171142578125,0.026192720979452133,0.007316235918551683,-0.00726403808221221
1783169003776120000,3.1941201171875,0.026523752138018608,0.009245430119335651,-0.008374043740332127
1783169003786137000,3.20413720703125,0.026373816654086113,0.004977181553840637,-0.007918110117316246
1783169003796086000,3.2140859375,0.025174861773848534,0.007278951816260815,-0.007172425277531147
1783169003806034200,3.2240341796875,0.02646782621741295,0.006049636751413345,-0.007387076038867235
1783169003815983400,3.2339833984375,0.026103772222995758,0.00566880451515317,-0.009127718396484852
1783169003825962000,3.2439619140625,0.024982048198580742,0.00427250936627388,-0.00654551712796092
1783169003835911200,3.2539111328125,0.024443823844194412,0.003512975759804249,-0.008328770287334919
1783169003845860400,3.2638603515625,0.025920281186699867,0.005528456065803766,-0.006645918358117342
1783169003855809300,3.273809326171875,0.026458239182829857,0.006098372396081686,-0.005428853910416365
1783169003865788200,3.2837880859375,0.026379676535725594,0.005757221486419439,-0.007179349660873413
1783169003875736300,3.293736328125,0.025295237079262733,0.005767341703176498,-0.006334328558295965
1783169003885685200,3.303685302734375,0.025832662358880043,0.005060272291302681,-0.0065042381174862385
1783169003895634200,3.31363427734375,0.024150077253580093,0.0046179210767149925,-0.008791094645857811
1783169003905613000,3.323613037109375,0.02731311321258545,0.004268780816346407,-0.006696252152323723
1783169003915562200,3.333562255859375,0.025143170729279518,0.003810983384028077,-0.007907724007964134
1783169003925511200,3.34351123046875,0.026791134849190712,0.007499727886170149,-0.008506136015057564
1783169003935490000,3.353489990234375,0.026389796286821365,0.0046693203039467335,-0.007741010282188654
1783169003945439000,3.36343896484375,0.026753051206469536,0.004592354875057936,-0.007184409536421299
1783169003955387100,3.37338720703125,0.025651833042502403,0.006150304339826107,-0.009038235992193222
1783169003965336000,3.383336181640625,0.026094717904925346,0.005650694947689772,-0.008667523972690105
1783169003975315200,3.393315185546875,0.026823624968528748,0.0017659420846030116,-0.007230748422443867
1783169003985264000,3.40326416015625,0.023968182504177094,0.007477091159671545,-0.007860586047172546
1783169003995213300,3.41321337890625,0.026153573766350746,0.005066663958132267,-0.008406533859670162
1783169004005162200,3.423162353515625,0.026986077427864075,0.004027498420327902,-0.007389739155769348
1783169004015141400,3.433141357421875,0.026506975293159485,0.0064975805580616,-0.009267534129321575
1783169004025090300,3.44309033203125,0.02702362835407257,0.006578806787729263,-0.006441920530050993
1783169004035038200,3.4530380859375,0.025796709582209587,0.00455613574013114,-0.007370830979198217
1783169004045018000,3.46301806640625,0.026556510478258133,0.004204598721116781,-0.005102616734802723
1783169004054966300,3.47296630859375,0.024960210546851158,0.00743234995752573,-0.00714526092633605
1783169004064915200,3.482915283203125,0.027964789420366287,0.00567066902294755,-0.008700015023350716
1783169004074864000,3.492864013671875,0.026454243808984756,0.006940730381757021,-0.009471000172197819
1783169004084843300,3.50284326171875,0.02768835239112377,0.0028533106669783592,-0.00726323900744319
1783169004094792200,3.512792236328125,0.02522226609289646,0.005793973337858915,-0.006826480850577354
1783169004104740000,3.522739990234375,0.027358120307326317,0.0038831550627946854,-0.005813946947455406
1783169004114689000,3.53268896484375,0.02557753212749958,0.005489041097462177,-0.006087986286729574
1783169004124668200,3.542668212890625,0.02593572624027729,0.0059660132974386215,-0.005147890187799931
1783169004134617000,3.5526171875,0.02586781606078148,0.004935636185109615,-0.008611864410340786
1783169004144566300,3.562566162109375,0.027035079896450043,0.006727145053446293,-0.008100803010165691
1783169004154515200,3.57251513671875,0.026208966970443726,0.004742290824651718,-0.0061535001732409
1783169004164494300,3.582494384765625,0.026494991034269333,0.006421147845685482,-0.007214769721031189
1783169004174443300,3.592443359375,0.025138376280665398,0.005970274563878775,-0.00743288267403841
1783169004184391200,3.60239111328125,0.026615897193551064,0.005568137392401695,-0.007694405037909746
1783169004194371300,3.612371337890625,0.025829732418060303,0.00827816966921091,-0.00917432364076376
1783169004204319200,3.6223193359375,0.025071797892451286,0.004210990387946367,-0.008702677674591541
1783169004214268200,3.63226806640625,0.0276822280138731,0.006942860782146454,-0.006465089973062277
1783169004224217000,3.642217041015625,0.025489913299679756,0.005546565633267164,-0.006336458958685398
1783169004234196200,3.6521962890625,0.027957864105701447,0.00410552928224206,-0.007684284821152687
1783169004244145200,3.662145263671875,0.026931749656796455,0.005282646510750055,-0.006571882404386997
1783169004254093000,3.672093017578125,0.025963157415390015,0.005101284943521023,-0.009187906049191952
1783169004264042200,3.682042236328125,0.02659326046705246,0.005329251755028963,-0.006142314523458481
1783169004274021000,3.692021240234375,0.025377528741955757,0.005377454683184624,-0.00815193634480238
1783169004283970000,3.701969970703125,0.02725851908326149,0.003951864782720804,-0.006402239203453064
1783169004293919000,3.7119189453125,0.0266617052257061,0.005903695244342089,-0.008102401159703732
1783169004303898000,3.721898193359375,0.025064073503017426,0.003358778776600957,-0.006717557553201914
1783169004313847000,3.731846923828125,0.026860110461711884,0.005997172556817532,-0.00782782956957817
1783169004323796200,3.741796142578125,0.02702123112976551,0.006416087504476309,-0.00640703272074461
1783169004333744400,3.751744384765625,0.0280393585562706,0.0068326061591506,-0.006148439832031727
1783169004343724300,3.761724365234375,0.026854516938328743,0.005673598498106003,-0.005243764258921146
1783169004353672200,3.771672119140625,0.025768479332327843,0.004936701618134975,-0.007639543619006872
1783169004363621000,3.78162109375,0.027057450264692307,0.004775580484420061,-0.009810819290578365
1783169004373570300,3.7915703125,0.026991937309503555,0.0037790255155414343,-0.007964449934661388
1783169004383549200,3.801549072265625,0.0241953507065773,0.006091714836657047,-0.007198257837444544
1783169004393498000,3.811498046875,0.026913639158010483,0.004323375876992941,-0.007706655655056238
1783169004403446300,3.8214462890625,0.026928819715976715,0.004523911513388157,-0.009104016236960888
1783169004413395200,3.831395263671875,0.025426531210541725,0.00481366366147995,-0.00824780948460102
1783169004423374000,3.8413740234375,0.025920281186699867,0.006424343679100275,-0.007879761047661304
1783169004433323300,3.8513232421875,0.026343191042542458,0.005843241699039936,-0.007623298559337854
1783169004443272200,3.861272216796875,0.027997279539704323,0.003665574826300144,-0.0092347776517272
1783169004453251000,3.8712509765625,0.025907764211297035,0.00780625781044364,-0.00839801225811243
1783169004463200000,3.881199951171875,0.026030801236629486,0.0043686493299901485,-0.008857141248881817
1783169004473149200,3.891149169921875,0.02485794574022293,0.005909820552915335,-0.00869042705744505
1783169004483097000,3.90109716796875,0.02395300380885601,0.006758570205420256,-0.008113852702081203
1783169004493077200,3.9110771484375,0.0258686151355505,0.006652576383203268,-0.009322129189968109
1783169004503025400,3.921025390625,0.02658953331410885,0.005533249583095312,-0.008947421796619892
1783169004512974300,3.930974365234375,0.02587074600160122,0.006168413441628218,-0.007474960293620825
1783169004522923300,3.94092333984375,0.026878219097852707,0.006611830089241266,-0.009571666829288006
1783169004532902100,3.950902099609375,0.026876354590058327,0.003753725439310074,-0.004667189903557301
1783169004542851300,3.960851318359375,0.02672269009053707,0.0035606464371085167,-0.0085439532995224
1783169004552799200,3.97079931640625,0.023897875100374222,0.007231547497212887,-0.006434197071939707
1783169004562748200,3.980748046875,0.02623187005519867,0.005511411931365728,-0.008114385418593884
1783169004572727300,3.990727294921875,0.026459837332367897,0.007191866636276245,-0.007369499187916517
1783169004582676200,4.00067626953125,0.027885427698493004,0.006120210513472557,-0.008954878896474838
1783169004592625200,4.010625244140625,0.026277676224708557,0.001978995045647025,-0.007135141175240278
1783169004602604000,4.02060400390625,0.027483023703098297,0.007465373259037733,-0.005378253757953644
1783169004612553200,4.03055322265625,0.027704864740371704,0.005891178734600544,-0.006370814051479101
1783169004622502100,4.040502197265625,0.026393523439764977,0.009586048312485218,-0.008364456705749035
1783169004632450000,4.050449951171875,0.025121064856648445,0.006205698009580374,-0.00726350536569953
1783169004642430000,4.060429931640625,0.02497033029794693,0.005408880300819874,-0.007877630181610584
1783169004652378000,4.070378173828125,0.02478284388780594,0.006202235817909241,-0.008947954513132572
1783169004662327300,4.080327392578125,0.02526567503809929,0.004895955324172974,-0.0076280920766294
1783169004672276200,4.090276123046875,0.02767317369580269,0.0043651871383190155,-0.0070254188030958176
1783169004682255400,4.10025537109375,0.023929301649332047,0.0059873186983168125,-0.008445949293673038
1783169004692204300,4.110204345703125,0.02605636790394783,0.007799333427101374,-0.0068001155741512775
1783169004702153200,4.1201533203125,0.026865169405937195,0.004954278469085693,-0.007638478651642799
1783169004712132000,4.130132080078125,0.02526274509727955,0.006367085501551628,-0.00743261631578207
1783169004722080300,4.140080322265625,0.023916784673929214,0.007407316006720066,-0.009129848331212997
1783169004732029200,4.150029296875,0.026488065719604492,0.004752677399665117,-0.007151386234909296
1783169004741978000,4.15997802734375,0.027032949030399323,0.004571049474179745,-0.007893609814345837
1783169004751957200,4.169957275390625,0.025043834000825882,0.00646668765693903,-0.007954329252243042
1783169004761906200,4.17990625,0.025847310200333595,0.0068184914998710155,-0.008241950534284115
1783169004771855000,4.189855224609375,0.027888888493180275,0.006584665738046169,-0.008709868416190147
1783169004781823000,4.199822998046875,0.027309119701385498,0.006109823938459158,-0.0073050507344305515
1783169004791803000,4.209802978515625,0.026078471913933754,0.0031427964568138123,-0.006143646314740181
1783169004801750800,4.219750732421875,0.02557007409632206,0.006656837183982134,-0.008585232309997082
1783169004811700000,4.229699951171875,0.026379942893981934,0.005560946650803089,-0.008739429526031017
1783169004821649000,4.23964892578125,0.02449149452149868,0.00498224189504981,-0.006989466026425362
1783169004831627800,4.249627685546875,0.026824157685041428,0.00583764910697937,-0.006795321591198444
1783169004841576700,4.25957666015625,0.026338130235671997,0.0043771713972091675,-0.008429703302681446
1783169004851526100,4.269526123046875,0.025314144790172577,0.0028756812680512667,-0.006613427773118019
1783169004861505000,4.279505126953125,0.026884878054261208,0.00469435378909111,-0.007150054909288883
1783169004871454000,4.289453857421875,0.025117337703704834,0.008873652666807175,-0.00632021389901638
1783169004881402000,4.299402099609375,0.026281138882040977,0.00538304727524519,-0.00791571382433176
1783169004891351000,4.30935107421875,0.02580949291586876,0.006253900937736034,-0.007510113995522261
1783169004901330000,4.319329833984375,0.027005784213542938,0.004797418136149645,-0.008674181997776031
1783169004911278800,4.32927880859375,0.025410551577806473,0.0070584421046078205,-0.007956992834806442
1783169004921228000,4.33922802734375,0.026557307690382004,0.005650694947689772,-0.007276821415871382
1783169004931176000,4.349176025390625,0.026447586715221405,0.006738063879311085,-0.009070727042853832
1783169004941155800,4.35915576171875,0.025685124099254608,0.007488542702049017,-0.008280833251774311
1783169004951104000,4.36910400390625,0.025405490770936012,0.007426491007208824,-0.006115949247032404
1783169004961053000,4.379052978515625,0.025379924103617668,0.00609437795355916,-0.00971814151853323
1783169004971031800,4.38903173828125,0.025667013600468636,0.004781705792993307,-0.007149522192776203
1783169004980981000,4.39898095703125,0.02647288702428341,0.005256547126919031,-0.007214769721031189
1783169004990930000,4.408929931640625,0.026212163269519806,0.008045143447816372,-0.00751970149576664
1783169005000878800,4.41887890625,0.025465944781899452,0.004405667539685965,-0.0075937374494969845
1783169005010857700,4.428857666015625,0.02640737220644951,0.006549512036144733,-0.00845473725348711
1783169005020807000,4.438806884765625,0.026248915120959282,0.0062941149808466434,-0.007327953819185495
1783169005030755000,4.448755126953125,0.025007348507642746,0.004965197294950485,-0.006893059704452753
1783169005040704000,4.4587041015625,0.02497778832912445,0.0048855687491595745,-0.0072928001172840595
1783169005050683100,4.46868310546875,0.02485528215765953,0.006617156323045492,-0.007225422188639641
1783169005060632000,4.478632080078125,0.025970080867409706,0.004355600103735924,-0.006204632576555014
1783169005070581000,4.4885810546875,0.02640843763947487,0.00771890627220273,-0.009238239377737045
1783169005080529000,4.49852880859375,0.02570429816842079,0.0037438718136399984,-0.0073173013515770435
1783169005090509000,4.508509033203125,0.026257170364260674,0.005937517620623112,-0.0059993029572069645
1783169005100457000,4.51845703125,0.025609489530324936,0.006163353566080332,-0.006187055725604296
1783169005110406000,4.528406005859375,0.026705646887421608,0.0073327478021383286,-0.006642456166446209
1783169005120385000,4.538385009765625,0.02629552036523819,0.00609357887879014,-0.007017695810645819
1783169005130334000,4.548333984375,0.02690112218260765,0.004935103934258223,-0.008052866905927658
1783169005140283000,4.558282958984375,0.02557460218667984,0.0032746228389441967,-0.008129299618303776
1783169005150231800,4.568231689453125,0.026075009256601334,0.005875732284039259,-0.008431035093963146
1783169005160211000,4.5782109375,0.025308286771178246,0.006057359743863344,-0.008045942522585392
1783169005170159900,4.588159912109375,0.02491760067641735,0.0051628039218485355,-0.007816111668944359
1783169005180107800,4.598107666015625,0.02557859756052494,0.005637113004922867,-0.009154083207249641
1783169005190057000,4.608056884765625,0.025618810206651688,0.005276521202176809,-0.0062800003215670586
1783169005200035800,4.618035888671875,0.025664350017905235,0.004800081718713045,-0.008840097114443779
1783169005209985000,4.627985107421875,0.025671008974313736,0.006755108013749123,-0.006749249063432217
1783169005219934000,4.637933837890625,0.027457457035779953,0.003763579297810793,-0.007607852108776569
1783169005229913000,4.6479130859375,0.02569178119301796,0.0051833102479577065,-0.006588927004486322
1783169005239862000,4.657862060546875,0.027850806713104248,0.005275189410895109,-0.009237173944711685
1783169005249810000,4.667809814453125,0.026267822831869125,0.00646695401519537,-0.007452057208865881
1783169005259758800,4.6777587890625,0.02671177126467228,0.00999404489994049,-0.009645170532166958
1783169005269738000,4.687738037109375,0.025119202211499214,0.007619037292897701,-0.007440339308232069
1783169005279687000,4.69768701171875,0.026496056467294693,0.005193963181227446,-0.00968405231833458
1783169005289635800,4.7076357421875,0.02550829015672207,0.006403304636478424,-0.009677927009761333
1783169005299584800,4.717584716796875,0.025847842916846275,0.00430180411785841,-0.009952233172953129
1783169005309564000,4.72756396484375,0.023966852575540543,0.006608367897570133,-0.008874185383319855
1783169005319512800,4.737512939453125,0.025830265134572983,0.004765726625919342,-0.010275540873408318
1783169005329460700,4.747460693359375,0.026082200929522514,0.00490181427448988,-0.00887791346758604
1783169005339410000,4.757409912109375,0.027456125244498253,0.004890895448625088,-0.008038219064474106
1783169005349388800,4.767388916015625,0.025983663275837898,0.007693605963140726,-0.006310360040515661
1783169005359338000,4.777337890625,0.026310166344046593,0.006643787957727909,-0.008463792502880096
1783169005369287000,4.787286865234375,0.02570190094411373,0.0051689292304217815,-0.008787899278104305
1783169005379266000,4.79726611328125,0.02509123831987381,0.005362008698284626,-0.006640059407800436
1783169005389215000,4.807215087890625,0.024598553776741028,0.004107926040887833,-0.008646485395729542
1783169005399163000,4.817162841796875,0.025827068835496902,0.005071457475423813,-0.00762889115139842
1783169005409112000,4.827112060546875,0.026312297210097313,0.005775597412139177,-0.007024087477475405
1783169005419091000,4.837091064453125,0.026969831436872482,0.006867227144539356,-0.007420632056891918
1783169005429039900,4.847039794921875,0.02587287686765194,0.004051466938108206,-0.006207828409969807
1783169005438988800,4.85698876953125,0.026398051530122757,0.005810218397527933,-0.006146309431642294
1783169005448938000,4.86693798828125,0.02497592382133007,0.007239803206175566,-0.0067633637227118015
1783169005458916900,4.876916748046875,0.026584738865494728,0.0062674833461642265,-0.008072840049862862
1783169005468865800,4.88686572265625,0.02497698925435543,0.00538464542478323,-0.009158344939351082
1783169005478814000,4.89681396484375,0.025600967928767204,0.006335393991321325,-0.006847253534942865
1783169005488763000,4.906762939453125,0.02430640533566475,0.008672317489981651,-0.00860254280269146
1783169005498741800,4.91674169921875,0.025228656828403473,0.005115665961056948,-0.006988933775573969
1783169005508691000,4.92669091796875,0.026816699653863907,0.004972388036549091,-0.008812399581074715
1783169005518640000,4.93664013671875,0.025320271030068398,0.0035228293854743242,-0.008521582931280136
1783169005528618800,4.94661865234375,0.026100575923919678,0.006244313903152943,-0.006083192303776741
1783169005538568000,4.95656787109375,0.027464380487799644,0.00532445777207613,-0.008352738805115223
1783169005548516900,4.966516845703125,0.025414813309907913,0.006981743033975363,-0.007645402569323778
1783169005558465000,4.976465087890625,0.02401505410671234,0.009949835948646069,-0.009255816228687763
1783169005568444000,4.98644384765625,0.02527579478919506,0.002606169320642948,-0.0067969197407364845
1783169005578393000,4.99639306640625,0.026143187656998634,0.005061870440840721,-0.008407066576182842
1783169005588342000,5.006342041015625,0.027719246223568916,0.0026519757229834795,-0.007951666601002216
1783169005598291000,5.016291015625,0.025558356195688248,0.0043902210891246796,-0.007645935285836458
1783169005608269800,5.026269775390625,0.025056084617972374,0.0057681407779455185,-0.008012119680643082
1783169005618219000,5.036218994140625,0.024103738367557526,0.0054240599274635315,-0.006339388433843851
1783169005628167000,5.0461669921875,0.025411617010831833,0.0026589001063257456,-0.006254167295992374
1783169005638146800,5.056146728515625,0.026510436087846756,0.005360676907002926,-0.007589210290461779
1783169005648095000,5.066094970703125,0.02527233399450779,0.007752994541078806,-0.009007875807583332
1783169005658044000,5.0760439453125,0.026669694110751152,0.006621417589485645,-0.008948753587901592
1783169005667992800,5.085992919921875,0.026971429586410522,0.00481339730322361,-0.010056895203888416
1783169005677971700,5.0959716796875,0.02419082447886467,0.003635747591033578,-0.006972421891987324
1783169005687921200,5.105921142578125,0.027169834822416306,0.0057311225682497025,-0.00532685499638319
1783169005697870000,5.1158701171875,0.02701191045343876,0.005028580781072378,-0.007354851812124252
1783169005707818000,5.12581787109375,0.025656094774603844,0.005024319514632225,-0.006910636555403471
1783169005717798000,5.1357978515625,0.027708593755960464,0.005021922755986452,-0.007150853984057903
1783169005727746000,5.14574609375,0.02809182181954384,0.0027230822015553713,-0.007281614933162928
1783169005737695000,5.155695068359375,0.025735190138220787,0.007650729268789291,-0.008556736633181572
1783169005747644000,5.165643798828125,0.027659591287374496,0.003916711080819368,-0.007903995923697948
1783169005757623000,5.175623046875,0.02660497836768627,0.006352970842272043,-0.008195611648261547
1783169005767572000,5.185572021484375,0.02533544972538948,0.006795321591198444,-0.006886135786771774
1783169005777519900,5.195519775390625,0.025135446339845657,0.006254167295992374,-0.00765978405252099
1783169005787509000,5.205509033203125,0.02630564011633396,0.006536995060741901,-0.0070914654061198235
1783169005797457000,5.215456787109375,0.025485120713710785,0.006785734556615353,-0.0076422072015702724
1783169005807405800,5.22540576171875,0.024894164875149727,0.007185741327702999,-0.009469135664403439
1783169005817355300,5.235355224609375,0.02599724568426609,0.0037590519059449434,-0.0062272693030536175
1783169005827334100,5.245334228515625,0.025180453434586525,0.00683074165135622,-0.008072573691606522
1783169005837283000,5.255282958984375,0.0264169592410326,0.005632053129374981,-0.008901349268853664
1783169005847232000,5.26523193359375,0.025133848190307617,0.005957757588475943,-0.00845393817871809
1783169005857180200,5.27518017578125,0.026823624968528748,0.00493244081735611,-0.008183893747627735
1783169005867160000,5.28516015625,0.025500299409031868,0.005511411931365728,-0.008984440006315708
1783169005877108200,5.295108154296875,0.027116306126117706,0.00546240946277976,-0.006385994143784046
1783169005887057200,5.30505712890625,0.0267178975045681,0.00774686923250556,-0.00788402184844017
1783169005897036000,5.3150361328125,0.025261415168642998,0.0058094197884202,-0.008237157016992569
1783169005906985000,5.32498486328125,0.026702716946601868,0.0046091326512396336,-0.0065196845680475235
1783169005916934000,5.334933837890625,0.025250760838389397,0.0052325790748000145,-0.006488259416073561
1783169005926882000,5.344882080078125,0.025860093533992767,0.003899933071807027,-0.006952181924134493
1783169005936862000,5.354862060546875,0.025546371936798096,0.00544323492795229,-0.00788508728146553
1783169005946810000,5.36481005859375,0.025013741105794907,0.00515801040455699,-0.009369799867272377
1783169005956759000,5.374759033203125,0.025131985545158386,0.003064233111217618,-0.009065666235983372
1783169005966708000,5.3847080078125,0.02676849626004696,0.00606401776894927,-0.009089368395507336
1783169005976686800,5.394686767578125,0.02485022135078907,0.0028160265646874905,-0.008113852702081203
1783169005986636300,5.40463623046875,0.025729065760970116,0.00481419637799263,-0.006346046458929777
1783169005996585200,5.414585205078125,0.025428393855690956,0.00782862864434719,-0.007213171571493149
1783169006006533000,5.424533203125,0.026283269748091698,0.005702094174921513,-0.006098905112594366
1783169006016513000,5.434512939453125,0.026706445962190628,0.002831739140674472,-0.0051771849393844604
1783169006026461200,5.444461181640625,0.02640604041516781,0.008859803900122643,-0.007842476479709148
1783169006036410000,5.45441015625,0.025055019184947014,0.003852795111015439,-0.008771120570600033
1783169006046389000,5.464388916015625,0.026039056479930878,0.006536728702485561,-0.007706389296799898
1783169006056338200,5.474338134765625,0.025358885526657104,0.005603024736046791,-0.00731304008513689
1783169006066287000,5.484287109375,0.02582014538347721,0.00621208967640996,-0.0067998492158949375
1783169006076235000,5.494235107421875,0.025589516386389732,0.007888815365731716,-0.0075814868323504925
1783169006086215000,5.50421484375,0.026503512635827065,0.0052205948159098625,-0.005029379855841398
1783169006096163000,5.5141630859375,0.0258110910654068,0.005899967160075903,-0.006953247357159853
1783169006106112000,5.524112060546875,0.025055818259716034,0.006517554167658091,-0.008123972453176975
1783169006116061000,5.53406103515625,0.027351463213562965,0.007181480061262846,-0.007465106900781393
1783169006126040000,5.5440400390625,0.02502519264817238,0.005340170580893755,-0.007750331424176693
1783169006135989000,5.553989013671875,0.027513382956385612,0.005533782299607992,-0.009471798315644264
1783169006145938200,5.563938232421875,0.025005217641592026,0.005771602503955364,-0.005367601290345192
1783169006155917000,5.5739169921875,0.02437404915690422,0.004334561061114073,-0.0070888022892177105
1783169006165866200,5.5838662109375,0.025795377790927887,0.0059905145317316055,-0.006922887172549963
1783169006175814100,5.593814208984375,0.026619626209139824,0.005918875336647034,-0.007653392385691404
1783169006185763000,5.60376318359375,0.025672607123851776,0.006183327175676823,-0.00695085059851408
1783169006195742200,5.6137421875,0.025782594457268715,0.007742342073470354,-0.007780957501381636
1783169006205691100,5.623691162109375,0.026383403688669205,0.006726345978677273,-0.007964981719851494
1783169006215640000,5.63364013671875,0.02497432567179203,0.00520674604922533,-0.0070770843885838985
1783169006225588000,5.643587890625,0.026075275614857674,0.005911152344197035,-0.007394533138722181
1783169006235568000,5.653568115234375,0.025523202493786812,0.003829625668004155,-0.006898119580000639
1783169006245516000,5.66351611328125,0.024031033739447594,0.005604089703410864,-0.00621075788512826
1783169006255465000,5.67346484375,0.028493426740169525,0.0054725296795368195,-0.005297826137393713
1783169006265414000,5.683413818359375,0.027060113847255707,0.005151885095983744,-0.008249940350651741
1783169006275393000,5.69339306640625,0.025586586445569992,0.00446984963491559,-0.006253368686884642
1783169006285342000,5.703342041015625,0.024160197004675865,0.005386509466916323,-0.008444351144134998
1783169006295291000,5.713290771484375,0.02538898028433323,0.0038192393258213997,-0.009878463111817837
1783169006305270000,5.72327001953125,0.02599751204252243,0.007173757068812847,-0.009366869926452637
1783169006315219200,5.73321923828125,0.026684608310461044,0.005393966566771269,-0.008644620887935162
1783169006325166800,5.743166748046875,0.02774428017437458,0.00367143377661705,-0.008536496199667454
1783169006335116000,5.753115966796875,0.026334933936595917,0.005883455276489258,-0.007552192080765963
1783169006345095200,5.76309521484375,0.025320537388324738,0.005032841581851244,-0.007250988855957985
1783169006355044000,5.773044189453125,0.026395654305815697,0.006611830089241266,-0.005661347880959511
1783169006364993000,5.782992919921875,0.025015870109200478,0.005105279851704836,-0.007991081103682518
1783169006374942000,5.79294189453125,0.02640817128121853,0.005711415316909552,-0.007004113402217627
1783169006384921000,5.802921142578125,0.025466211140155792,0.005767075344920158,-0.008127168752253056
1783169006394870000,5.8128701171875,0.027046265080571175,0.003899666713550687,-0.008594021201133728
1783169006404818200,5.822818115234375,0.025041969493031502,0.005334844347089529,-0.005479986313730478
1783169006414767000,5.83276708984375,0.02611069567501545,0.006329801399260759,-0.008800415322184563
1783169006424746000,5.84274609375,0.025769278407096863,0.0037505298387259245,-0.008167382329702377
1783169006434695000,5.85269482421875,0.026811907067894936,0.0057593523524701595,-0.008047273382544518
1783169006444644000,5.86264404296875,0.026148779317736626,0.004171309061348438,-0.009180448949337006
1783169006454623000,5.872623046875,0.024340227246284485,0.005254416726529598,-0.0065505774691700935
1783169006464572000,5.882572021484375,0.025064872577786446,0.005683718249201775,-0.007926632650196552
1783169006474520000,5.89252001953125,0.026397518813610077,0.008153000846505165,-0.008355667814612389
1783169006484469000,5.902468994140625,0.02707768976688385,0.006157228257507086,-0.00660650385543704
1783169006494447900,5.91244775390625,0.026018284261226654,0.0067545752972364426,-0.007731422781944275
1783169006504397000,5.92239697265625,0.027052655816078186,0.004667456261813641,-0.008888832293450832
1783169006514346200,5.93234619140625,0.027582624927163124,0.004735632799565792,-0.007527957204729319
1783169006524295200,5.942295166015625,0.026067020371556282,0.004917793441563845,-0.008617723360657692
1783169006534274000,5.952274169921875,0.025130920112133026,0.004977447912096977,-0.005252019967883825
1783169006544223000,5.962222900390625,0.02582280896604061,0.004310059826821089,-0.006879744119942188
1783169006554171100,5.972171142578125,0.026096582412719727,0.006072806194424629,-0.006197708658874035
1783169006564151000,5.982151123046875,0.024637170135974884,0.00407463638111949,-0.007832356728613377
1783169006574099000,5.992098876953125,0.025410285219550133,0.006111954804509878,-0.0057444386184215546
1783169006584048000,6.002048095703125,0.025080053135752678,0.004995823837816715,-0.008217982016503811
1783169006593997000,6.0119970703125,0.02418709546327591,0.0041284323669970036,-0.005094094667583704
1783169006603976000,6.021975830078125,0.026808710768818855,0.007891745306551456,-0.007089867256581783
1783169006613924900,6.0319248046875,0.026188461109995842,0.005824599415063858,-0.005605155136436224
1783169006623873000,6.041873046875,0.02570403181016445,0.0043923514895141125,-0.006743656471371651
1783169006633822000,6.051822021484375,0.026067553088068962,0.006376673001796007,-0.00506852800026536
1783169006643801000,6.061801025390625,0.0268918015062809,0.006976949516683817,-0.007725830189883709
1783169006653750000,6.07175,0.02592640556395054,0.003997404593974352,-0.007530354429036379
1783169006663699200,6.08169921875,0.025318140164017677,0.005197425372898579,-0.008352472446858883
1783169006673648000,6.091648193359375,0.02497086301445961,0.003573163179680705,-0.009160208515822887
1783169006683627000,6.101626953125,0.02641536109149456,0.003838414093479514,-0.006016879808157682
1783169006693576200,6.111576171875,0.02599191851913929,0.0052019525319337845,-0.007394266780465841
1783169006703524000,6.121524169921875,0.026674222201108932,0.005759618245065212,-0.008697351440787315
1783169006713504000,6.13150390625,0.025501897558569908,0.005371862091124058,-0.0064927865751087666
1783169006723452200,6.1414521484375,0.026925889775156975,0.007253918331116438,-0.00615163566544652
1783169006733401000,6.151401123046875,0.025111744180321693,0.0040914141573011875,-0.00780572509393096
1783169006743350000,6.16135009765625,0.02696077711880207,0.005017395596951246,-0.007632886059582233
1783169006753329200,6.1713291015625,0.02636156603693962,0.006462692748755217,-0.007654191460460424
1783169006763278000,6.181278076171875,0.02628646418452263,0.007053115870803595,-0.009035573340952396
1783169006773226000,6.19122607421875,0.02448270656168461,0.0030929953791201115,-0.008084557950496674
1783169006783195000,6.20119482421875,0.025231586769223213,0.005218730308115482,-0.008195611648261547
1783169006793173800,6.211173828125,0.025423867627978325,0.005441104527562857,-0.00697774812579155
1783169006803122700,6.221122802734375,0.025962091982364655,0.006101035512983799,-0.008565258234739304
1783169006813071600,6.231071533203125,0.02672455459833145,0.005578789860010147,-0.008224640041589737
1783169006823050800,6.24105078125,0.025623338297009468,0.006039250176399946,-0.007835285738110542
1783169006832999700,6.250999755859375,0.026569558307528496,0.005189169198274612,-0.007841677404940128
1783169006842948600,6.260948486328125,0.026394322514533997,0.005302353762090206,-0.007336742244660854
1783169006852896800,6.270896728515625,0.027886226773262024,0.003876497270539403,-0.004070907831192017
1783169006862876700,6.280876708984375,0.025547970086336136,0.005318332463502884,-0.007692540530115366
1783169006872824600,6.290824462890625,0.025419073179364204,0.0043747746385633945,-0.007435545790940523
1783169006882773800,6.300773681640625,0.025302959606051445,0.007128216791898012,-0.008550611324608326
1783169006892722700,6.31072265625,0.025894714519381523,0.006323409732431173,-0.0075513930059969425
1783169006902701600,6.32070166015625,0.027569841593503952,0.006721019744873047,-0.007232612930238247
1783169006912650500,6.330650390625,0.02653121016919613,0.005094094667583704,-0.008510664105415344
1783169006922598700,6.3405986328125,0.026044383645057678,0.0047260457649827,-0.007250189781188965
1783169006932547600,6.350547607421875,0.02599804475903511,0.004664793144911528,-0.008084557950496674
1783169006942526500,6.3605263671875,0.02534130960702896,0.005337507463991642,-0.005101551301777363
1783169006952476000,6.370475830078125,0.024042485281825066,0.0051923650316894054,-0.008249141275882721
1783169006962424800,6.3804248046875,0.02684785984456539,0.004697815980762243,-0.00806378573179245
1783169006972403700,6.39040380859375,0.024398017674684525,0.0065415226854383945,-0.00806005671620369
1783169006982352600,6.4003525390625,0.025190841406583786,0.00512791657820344,-0.00752129964530468
1783169006992301800,6.4103017578125,0.02574664168059826,0.005276254843920469,-0.009970342740416527
1783169007002249700,6.420249755859375,0.02666197158396244,0.005784652195870876,-0.006711165886372328
1783169007012229600,6.430229736328125,0.026703782379627228,0.004759334959089756,-0.006412359420210123
1783169007022177800,6.440177734375,0.024534637108445168,0.00484402384608984,-0.006464024540036917
1783169007032126700,6.450126708984375,0.026005500927567482,0.0054456316865980625,-0.006332464516162872
1783169007042075600,6.46007568359375,0.027536818757653236,0.005791310220956802,-0.0057340520434081554
1783169007052054500,6.470054443359375,0.02503957226872444,0.005027248989790678,-0.007494934368878603
1783169007062003700,6.480003662109375,0.02594078704714775,0.005535912699997425,-0.008815595880150795
1783169007071951600,6.48995166015625,0.02797091379761696,0.0064373929053545,-0.006881075445562601
1783169007081931500,6.499931640625,0.026067819446325302,0.005489573813974857,-0.005889580585062504
1783169007091879700,6.509879638671875,0.023967118933796883,0.0068270135670900345,-0.006271477788686752
1783169007101828600,6.51982861328125,0.02690165489912033,0.004909005016088486,-0.008045676164329052
1783169007111777800,6.52977783203125,0.025899240747094154,0.004802744835615158,-0.00791544746607542
1783169007121756700,6.539756591796875,0.026978621259331703,0.007271495182067156,-0.009708819910883904
1783169007131705900,6.549705810546875,0.0263045746833086,0.005231247283518314,-0.007191866636276245
1783169007141654800,6.55965478515625,0.026375947520136833,0.0051928977482020855,-0.006187322083860636
1783169007151602700,6.569602783203125,0.026978887617588043,0.0060118199326097965,-0.008592689409852028
1783169007161582600,6.57958251953125,0.026461968198418617,0.0057103498838841915,-0.007413441315293312
1783169007171530800,6.58953076171875,0.02526274509727955,0.006647250149399042,-0.00634977500885725
1783169007181479700,6.599479736328125,0.024114390835165977,0.005844040773808956,-0.007681621704250574
1783169007191428600,6.6094287109375,0.026643328368663788,0.001285241567529738,-0.006102633662521839
1783169007201407700,6.61940771484375,0.024961275979876518,0.00842943787574768,-0.007933290675282478
1783169007211356700,6.629356689453125,0.025537317618727684,0.00890854001045227,-0.005283711478114128
1783169007221305600,6.6393056640625,0.02658873423933983,0.0038570561446249485,-0.007781756576150656
1783169007231284700,6.64928466796875,0.026149312034249306,0.00777669670060277,-0.008154066279530525
1783169007241232600,6.659232666015625,0.027705663815140724,0.0064387246966362,-0.007454986684024334
1783169007251181600,6.669181640625,0.026490729302167892,0.0067990501411259174,-0.0082115912809968
1783169007261130500,6.679130615234375,0.0251583494246006,0.005149221979081631,-0.0041095237247645855
1783169007271109600,6.689109619140625,0.02593759074807167,0.0036338833160698414,-0.006609433330595493
1783169007281058800,6.699058837890625,0.025550633668899536,0.004820588044822216,-0.0071066454984247684
1783169007291007700,6.7090078125,0.0246675293892622,0.006455236114561558,-0.0062096924521028996
1783169007300955600,6.71895556640625,0.02510002627968788,0.006164951715618372,-0.007801730185747147
1783169007310935800,6.728935791015625,0.025550100952386856,0.0043505397625267506,-0.007311975117772818
1783169007320883700,6.7388837890625,0.026983680203557014,0.006823285017162561,-0.007179083302617073
1783169007330832600,6.74883251953125,0.026633474975824356,0.0031409321818500757,-0.005946306046098471
1783169007340781600,6.758781494140625,0.027905933558940887,0.0059756007976830006,-0.009002016857266426
1783169007350760700,6.7687607421875,0.02702256292104721,0.006006493698805571,-0.00911386962980032
1783169007360709600,6.778709716796875,0.026268621906638145,0.005081311333924532,-0.008956210687756538
1783169007370658600,6.788658447265625,0.026459304615855217,0.0049465554766356945,-0.007723167072981596
1783169007380637700,6.7986376953125,0.024351945146918297,0.0026381274219602346,-0.007647799793630838
1783169007390586600,6.808586669921875,0.025896579027175903,0.006417952012270689,-0.007207578979432583
1783169007400534500,6.818534423828125,0.02532506361603737,0.005245628301054239,-0.006262689363211393
1783169007410483700,6.828483642578125,0.02532160095870495,0.007200122345238924,-0.009721336886286736
1783169007420462600,6.838462646484375,0.025022262707352638,0.00529463030397892,-0.007881891913712025
1783169007430411500,6.84841162109375,0.02598552778363228,0.00634977500885725,-0.00800306536257267
1783169007440360700,6.858360595703125,0.025973010808229446,0.006852579768747091,-0.006910902913659811
1783169007450308600,6.86830859375,0.02598952315747738,0.006142580881714821,-0.006981210317462683
1783169007460288800,6.878288818359375,0.026069950312376022,0.005715143866837025,-0.00615323381498456
1783169007470236700,6.888236572265625,0.02660258300602436,0.0068302094005048275,-0.007000918034464121
1783169007480185900,6.898185791015625,0.025720277801156044,0.005603823345154524,-0.0059926449321210384
1783169007490164700,6.908164794921875,0.026676617562770844,0.005932457745075226,-0.008117315359413624
1783169007500113700,6.91811376953125,0.025647839531302452,0.006118080113083124,-0.007167898118495941
1783169007510062600,6.9280625,0.026194052770733833,0.005151618737727404,-0.007577758282423019
1783169007520011800,6.93801171875,0.024836374446749687,0.0076294238679111,-0.01133760903030634
1783169007529990700,6.94799072265625,0.026608973741531372,0.006682670209556818,-0.007719438523054123
1783169007539939600,6.957939697265625,0.02528511732816696,0.005751096177846193,-0.007735684048384428
1783169007549887700,6.9678876953125,0.02563345804810524,0.0049553439021110535,-0.007607585750520229
1783169007559836700,6.977836669921875,0.02429894730448723,0.00618252856656909,-0.007844607345759869
1783169007569815600,6.987815673828125,0.02653493732213974,0.007154049351811409,-0.007638212293386459
1783169007579764500,6.997764404296875,0.028121117502450943,0.006433397997170687,-0.007045126520097256
1783169007589713700,7.007713623046875,0.026219353079795837,0.006157228257507086,-0.007370564620941877
1783169007599661600,7.01766162109375,0.027941087260842323,0.005850432440638542,-0.00920441746711731
1783169007609641700,7.027641845703125,0.02797757275402546,0.0060059609822928905,-0.007509315386414528
1783169007619589600,7.037589599609375,0.027829233556985855,0.004405933897942305,-0.007736749015748501
1783169007629538800,7.047538818359375,0.02454369328916073,0.006585731171071529,-0.0065620290115475655
1783169007639517700,7.057517578125,0.023916784673929214,0.004746019374579191,-0.006475209724158049
1783169007649467000,7.067466796875,0.02538977935910225,0.00512844929471612,-0.008800415322184563
1783169007659415800,7.077415771484375,0.025585254654288292,0.004521781112998724,-0.007869108580052853
1783169007669364700,7.08736474609375,0.025048894807696342,0.006102100946009159,-0.009503756649792194
1783169007679343600,7.097343505859375,0.025377262383699417,0.004984905011951923,-0.009499229490756989
1783169007689292500,7.10729248046875,0.02526940405368805,0.0025771409273147583,-0.0064962487667799
1783169007699240700,7.11724072265625,0.02792350947856903,0.00427277572453022,-0.008482434786856174
1783169007709189600,7.127189697265625,0.026753317564725876,0.008388690650463104,-0.009182579815387726
1783169007719168800,7.137168701171875,0.024563133716583252,0.004381699021905661,-0.006988401059061289
1783169007729117700,7.14711767578125,0.02665025368332863,0.006265618838369846,-0.007420632056891918
1783169007739066600,7.157066650390625,0.025721075013279915,0.006612629164010286,-0.007514641620218754
1783169007749045500,7.16704541015625,0.02599751204252243,0.0063092950731515884,-0.008785235695540905
1783169007758994700,7.17699462890625,0.026486733928322792,0.005919674411416054,-0.007115167565643787
1783169007768942600,7.186942626953125,0.025921611115336418,0.0054674698039889336,-0.004345746245235205
1783169007778891500,7.1968916015625,0.025169268250465393,0.007894141599535942,-0.007860586047172546
1783169007788916500,7.20691650390625,0.026938406750559807,0.005453621037304401,-0.006981476675719023
1783169007798865700,7.21686572265625,0.026753850281238556,0.004530569538474083,-0.006997189484536648
1783169007808814600,7.226814697265625,0.02526887133717537,0.004193413536995649,-0.00917245913296938
1783169007818763500,7.236763427734375,0.026622289791703224,0.0054514906369149685,-0.005364671815186739
1783169007828742400,7.246742431640625,0.026553047820925713,0.004959338344633579,-0.008678709156811237
1783169007838691600,7.256691650390625,0.026880882680416107,0.004013383761048317,-0.008142348378896713
1783169007848639500,7.266639404296875,0.025057682767510414,0.008494950830936432,-0.007640342693775892
1783169007858588700,7.276588623046875,0.026928020641207695,0.004485029727220535,-0.007151119876652956
1783169007868567800,7.28656787109375,0.02550749108195305,0.006622482556849718,-0.00797590147703886
1783169007878516700,7.296516845703125,0.02689606323838234,0.006867493502795696,-0.007677094545215368
1783169007888465700,7.306465576171875,0.02448244020342827,0.00606455048546195,-0.009248625487089157
1783169007898444500,7.316444580078125,0.025961292907595634,0.006612362805753946,-0.00791624654084444
1783169007908393700,7.326393798828125,0.02652801387012005,0.0046690539456903934,-0.006187322083860636
1783169007918341600,7.336341552734375,0.02449309267103672,0.0065353973768651485,-0.009099755436182022
1783169007928290600,7.34629052734375,0.02510135807096958,0.004062385763972998,-0.007181746419519186
1783169007938269700,7.356269775390625,0.025784192606806755,0.005848567932844162,-0.007982558570802212
1783169007948218600,7.366218505859375,0.026256637647747993,0.006286125164479017,-0.005534581374377012
1783169007958167600,7.37616748046875,0.0268316138535738,0.0062515041790902615,-0.008867527358233929
1783169007968116500,7.386116455078125,0.02671070583164692,0.004862132947891951,-0.005619003437459469
1783169007978095600,7.396095703125,0.025176193565130234,0.006202768534421921,-0.0067694890312850475
1783169007988044500,7.40604443359375,0.025647839531302452,0.006596117280423641,-0.008807073347270489
1783169007997992400,7.415992431640625,0.026981016620993614,0.004169711377471685,-0.0076302229426801205
1783169008007941400,7.42594140625,0.026861175894737244,0.006227003410458565,-0.006638195365667343
1783169008017920500,7.43592041015625,0.02586568519473076,0.005110872443765402,-0.008325840346515179
1783169008027869700,7.44586962890625,0.026635339483618736,0.007795338984578848,-0.008893094025552273
1783169008037818600,7.455818603515625,0.025247033685445786,0.002959570847451687,-0.006509032100439072
1783169008047797800,7.4657978515625,0.02689260058104992,0.006213953718543053,-0.008187889121472836
1783169008057746700,7.47574658203125,0.02504037134349346,0.004028830211609602,-0.007197991944849491
1783169008067695600,7.485695556640625,0.02617567777633667,0.005858155433088541,-0.006389988586306572
1783169008077643500,7.4956435546875,0.02569790557026863,0.0044075315818190575,-0.008563394658267498
1783169008087622700,7.50562255859375,0.026155438274145126,0.006345780100673437,-0.009101086296141148
1783169008097571600,7.515571533203125,0.02588113211095333,0.0063092950731515884,-0.00628985371440649
1783169008107520500,7.5255205078125,0.026097645983099937,0.0070336745120584965,-0.010301106609404087
1783169008117469400,7.535469482421875,0.025256088003516197,0.004012318328022957,-0.007656854577362537
1783169008127448600,7.545448486328125,0.025660356506705284,0.0038746329955756664,-0.008123972453176975
1783169008137397500,7.5553974609375,0.02574770711362362,0.005255215801298618,-0.007454986684024334
1783169008147345700,7.565345703125,0.02634745091199875,0.007321562618017197,-0.005905027035623789
1783169008157325600,7.57532568359375,0.02600017562508583,0.00592686515301466,-0.0073479278944432735
1783169008167273500,7.5852734375,0.026066487655043602,0.006470948923379183,-0.0095096156001091
1783169008177222400,7.595222412109375,0.02509416826069355,0.005212871357798576,-0.007026750594377518
1783169008187171600,7.605171630859375,0.027999410405755043,0.006901049055159092,-0.006561229936778545
1783169008197150700,7.615150634765625,0.026763970032334328,0.005173723213374615,-0.007901332341134548
1783169008207099600,7.625099609375,0.026258235797286034,0.00660677021369338,-0.0052376389503479
1783169008217048600,7.635048583984375,0.026747457683086395,0.005503954831510782,-0.008088020607829094
1783169008226996700,7.644996826171875,0.026555178686976433,0.007921306416392326,-0.008249673992395401
1783169008236976600,7.6549765625,0.02533944509923458,0.006357231643050909,-0.008435828611254692
1783169008246924500,7.664924560546875,0.023919980973005295,0.003879693103954196,-0.007652060594409704
1783169008256873700,7.674873779296875,0.02646942436695099,0.007671501953154802,-0.008204933255910873
1783169008266822700,7.68482275390625,0.024952488020062447,0.0035534559283405542,-0.007484547793865204
1783169008276801500,7.694801513671875,0.02526700682938099,0.004201669245958328,-0.005997705273330212
1783169008286750500,7.70475048828125,0.02508937381207943,0.004325772635638714,-0.009350891225039959
1783169008296698600,7.71469873046875,0.026382071897387505,0.0048978193663060665,-0.007459247950464487
1783169008306678500,7.724678466796875,0.026647323742508888,0.005891445092856884,-0.007616906892508268
1783169008316626400,7.73462646484375,0.02503983862698078,0.007734352257102728,-0.007481618318706751
1783169008326575600,7.74457568359375,0.02792750485241413,0.00541260838508606,-0.008276039734482765
1783169008336524500,7.754524658203125,0.025194035843014717,0.006067746318876743,-0.01137036643922329
1783169008346503400,7.76450341796875,0.025684857740998268,0.006822752300649881,-0.009319998323917389
1783169008356452600,7.77445263671875,0.025241173803806305,0.0024253407027572393,-0.00649651512503624
1783169008366401800,7.78440185546875,0.02588086575269699,0.005678924731910229,-0.0075942701660096645
1783169008376349700,7.794349609375,0.026186862960457802,0.007562045939266682,-0.008420382626354694
1783169008386329600,7.80432958984375,0.025138642638921738,0.005321528296917677,-0.006591057404875755
1783169008396277800,7.81427783203125,0.025896845385432243,0.005506884306669235,-0.008437160402536392
1783169008406226700,7.824226806640625,0.026395654305815697,0.0038016624748706818,-0.010068613104522228
1783169008416205600,7.83420556640625,0.027280356734991074,0.004514058120548725,-0.0067423246800899506
1783169008426154500,7.844154541015625,0.025119202211499214,0.0060355220921337605,-0.00809361319988966
1783169008436103700,7.854103759765625,0.024765267968177795,0.00689039658755064,-0.009918144904077053
1783169008446051600,7.864051513671875,0.026863837614655495,0.006707970052957535,-0.00657694274559617
1783169008456031500,7.874031494140625,0.026866767555475235,0.006871754303574562,-0.008414523676037788
1783169008465979600,7.883979736328125,0.025663817301392555,0.006429137196391821,-0.005000350996851921
1783169008475928600,7.893928466796875,0.025197498500347137,0.008550078608095646,-0.0062456452287733555
1783169008485877500,7.90387744140625,0.026514964178204536,0.005067196674644947,-0.008507201448082924
1783169008495856600,7.913856689453125,0.02528351917862892,0.005147890187799931,-0.0065314024686813354
1783169008505805600,7.9238056640625,0.0259261392056942,0.00535508431494236,-0.009530387818813324
1783169008515754800,7.933754638671875,0.025619875639677048,0.006401972845196724,-0.008305867202579975
1783169008525702400,7.943702392578125,0.025169534608721733,0.005548429675400257,-0.006951915565878153
1783169008535682600,7.9536826171875,0.025409486144781113,0.004507932811975479,-0.005063734482973814
1783169008545630700,7.963630615234375,0.02652987837791443,0.0038336203433573246,-0.007120493799448013
1783169008555579600,7.97357958984375,0.024290958419442177,0.0028461201582103968,-0.0073231603018939495
1783169008565558800,7.983558837890625,0.025056617334485054,0.00484322477132082,-0.008195878006517887
1783169008575507700,7.9935078125,0.026269154623150826,0.003471430391073227,-0.007221694104373455
1783169008585456600,8.00345654296875,0.024889903143048286,0.0075516593642532825,-0.007393734063953161
1783169008595404500,8.013404541015625,0.025708027184009552,0.005592638161033392,-0.007250456139445305
1783169008605384700,8.023384765625,0.024949025362730026,0.004772118292748928,-0.008798285387456417
1783169008615332600,8.03333251953125,0.025608690455555916,0.005114334635436535,-0.009403621777892113
1783169008625281500,8.043281494140626,0.02545049786567688,0.005992378573864698,-0.007391070947051048
1783169008635230500,8.05323046875,0.02755253203213215,0.006619020365178585,-0.007910121232271194
1783169008645209600,8.063209716796875,0.023876836523413658,0.0057044909335672855,-0.008703743107616901
1783169008655158500,8.073158447265625,0.026451580226421356,0.007734085898846388,-0.008742092177271843
1783169008665107500,8.083107421875,0.025561552494764328,0.007547931279987097,-0.008157795295119286
1783169008675086600,8.093086669921876,0.024357270449399948,0.004828311037272215,-0.006647250149399042
1783169008685035800,8.103035888671876,0.02436286397278309,0.004540157038718462,-0.007685616612434387
1783169008694983400,8.1129833984375,0.02774561010301113,0.005819006823003292,-0.005431250669062138
1783169008704932600,8.1229326171875,0.026487000286579132,0.007545001804828644,-0.00714579364284873
1783169008714911700,8.132911865234375,0.026799390092492104,0.0073135728016495705,-0.007495732977986336
1783169008724860700,8.142860595703125,0.02726464346051216,0.0028477180749177933,-0.004762797150760889
1783169008734809600,8.1528095703125,0.027034547179937363,0.005345230456441641,-0.008589493110775948
1783169008744757800,8.1627578125,0.025015870109200478,0.007484281435608864,-0.008326373063027859
1783169008754737700,8.172737548828126,0.025961026549339294,0.006582535337656736,-0.007457383442670107
1783169008764685600,8.182685546875,0.026547187939286232,0.006413158029317856,-0.009082444943487644
1783169008774634500,8.192634521484376,0.024464862421154976,0.004054130055010319,-0.0073255570605397224
1783169008784601300,8.202601318359376,0.026490462943911552,0.006612629164010286,-0.006333529483526945
1783169008794580500,8.21258056640625,0.026011627167463303,0.006376673001796007,-0.007715177722275257
1783169008804529400,8.222529296875,0.02593865618109703,0.006296778097748756,-0.007309844717383385
1783169008814478300,8.232478271484375,0.027569042518734932,0.005352154839783907,-0.00842917151749134
1783169008824457500,8.24245751953125,0.026382870972156525,0.007001450285315514,-0.0073045180179178715
1783169008834406400,8.252406494140626,0.024571921676397324,0.005422195885330439,-0.008703743107616901
1783169008844354300,8.262354248046876,0.025861958041787148,0.006783603690564632,-0.007850199937820435
1783169008854303200,8.27230322265625,0.026040388271212578,0.008349542506039143,-0.00917405728250742
1783169008864282400,8.282282470703125,0.02641749195754528,0.0044165863655507565,-0.006332730874419212
1783169008874231300,8.292231201171875,0.026754116639494896,0.00809281412512064,-0.00902491994202137
1783169008884180200,8.30218017578125,0.025057949125766754,0.005247492343187332,-0.007577492389827967
1783169008894129200,8.312129150390625,0.02672535367310047,0.007656055502593517,-0.007185474969446659
1783169008904108300,8.3221083984375,0.02412797324359417,0.00595509447157383,-0.007299724500626326
1783169008914057200,8.33205712890625,0.026135463267564774,0.0051777176558971405,-0.008852081373333931
1783169008924005400,8.34200537109375,0.02576049044728279,0.004093278665095568,-0.009169263765215874
1783169008933954300,8.351954345703126,0.02587500587105751,0.005366269499063492,-0.008804144337773323
1783169008943933200,8.36193310546875,0.026504311710596085,0.0057529606856405735,-0.005313272587954998
1783169008953882400,8.37188232421875,0.026494458317756653,0.007459514308720827,-0.009759685955941677
1783169008963831600,8.38183154296875,0.02551787719130516,0.003945739474147558,-0.008073106408119202
1783169008973810400,8.391810546875,0.0249658040702343,0.0041494714096188545,-0.007848335430026054
1783169008983759400,8.40175927734375,0.026736538857221603,0.0067788101732730865,-0.008834770880639553
1783169008993707500,8.41170751953125,0.02564171329140663,0.007897337898612022,-0.0062674833461642265
1783169009003656400,8.421656494140626,0.02587473951280117,0.007791610434651375,-0.008890696801245213
1783169009013635300,8.43163525390625,0.026979420334100723,0.0062672169879078865,-0.009277653880417347
1783169009023584300,8.441584228515625,0.027637220919132233,0.008021974004805088,-0.0065135592594742775
1783169009033533400,8.451533447265625,0.026126408949494362,0.005797169171273708,-0.008584699593484402
1783169009043482400,8.461482421875,0.02634771727025509,0.006607835181057453,-0.00657561095431447
1783169009053461200,8.471461181640626,0.024521054700016975,0.0065535069443285465,-0.007151119876652956
1783169009063410200,8.48141015625,0.02292821928858757,0.005750563926994801,-0.0062523032538592815
1783169009073358300,8.4913583984375,0.02479376271367073,0.004365986213088036,-0.005212072748690844
1783169009083338200,8.501338134765625,0.02658820152282715,0.006708236411213875,-0.007725563831627369
1783169009093286400,8.511286376953125,0.027881698682904243,0.00729333283379674,-0.007438741624355316
1783169009103235300,8.5212353515625,0.026806047186255455,0.007184143178164959,-0.00839534867554903
1783169009113184500,8.5311845703125,0.024815600365400314,0.007411577273160219,-0.007938883267343044
1783169009123163400,8.541163330078126,0.02610696852207184,0.004107659682631493,-0.005311674904078245
1783169009133112300,8.5511123046875,0.025587385520339012,0.0046629286371171474,-0.007792143151164055
1783169009143060500,8.561060546875,0.026632675901055336,0.006209160201251507,-0.007094128523021936
1783169009153009400,8.571009521484376,0.02425633743405342,0.005684517323970795,-0.008696286007761955
1783169009162988500,8.580988525390625,0.02690005674958229,0.005143629387021065,-0.007148190401494503
1783169009172937500,8.5909375,0.02762390486896038,0.006314354948699474,-0.007254983298480511
1783169009182886400,8.600886474609375,0.025742115452885628,0.0049521480686962605,-0.007511179428547621
1783169009192835300,8.61083544921875,0.023917051032185555,0.001555818715132773,-0.0073537868447601795
1783169009202814500,8.620814453125,0.024961009621620178,0.007848601788282394,-0.0076272934675216675
1783169009212763400,8.630763427734376,0.025651033967733383,0.006929278839379549,-0.007072823122143745
1783169009222711300,8.640711181640626,0.02582653798162937,0.004759601317346096,-0.005210208240896463
1783169009232691200,8.650691162109375,0.025799639523029327,0.006334594916552305,-0.009122658520936966
1783169009242639400,8.660639404296875,0.025141572579741478,0.006314887665212154,-0.010172742418944836
1783169009252588300,8.67058837890625,0.025621740147471428,0.007468569092452526,-0.011660650372505188
1783169009262537200,8.680537109375,0.026553314179182053,0.0060262009501457214,-0.007138070650398731
1783169009272516400,8.690516357421876,0.02701430767774582,0.00723474333062768,-0.008370847441256046
1783169009282465500,8.700465576171876,0.026740267872810364,0.0038932752795517445,-0.005547098349779844
1783169009292413200,8.7104130859375,0.02581774815917015,0.008949552662670612,-0.009118130430579185
1783169009302362400,8.7203623046875,0.0238970760256052,0.007831024937331676,-0.00800226628780365
1783169009312341500,8.730341552734375,0.028055869042873383,0.005940713454037905,-0.007510913070291281
1783169009322290400,8.74029052734375,0.025594841688871384,0.005025118589401245,-0.008287757635116577
1783169009332239400,8.7502392578125,0.026191391050815582,0.003334810258820653,-0.006758836563676596
1783169009342218500,8.760218505859376,0.026668628677725792,0.003308977698907256,-0.008176437579095364
1783169009352167400,8.77016748046875,0.0268329456448555,0.007738613523542881,-0.0064989118836820126
1783169009362116400,8.780116455078126,0.02558072656393051,0.005881857592612505,-0.006564159411936998
1783169009372064300,8.790064208984376,0.026689400896430016,0.0060238041914999485,-0.0070488546043634415
1783169009382044400,8.80004443359375,0.0246100053191185,0.005726861767470837,-0.007309844717383385
1783169009391992300,8.809992431640625,0.025918150320649147,0.005897836294025183,-0.008645419962704182
1783169009401941200,8.819941162109375,0.025661155581474304,0.007708519697189331,-0.008927715010941029
1783169009411890200,8.82989013671875,0.027004718780517578,0.005803826730698347,-0.0057076867669820786
1783169009421869300,8.839869384765626,0.026579413563013077,0.006964432541280985,-0.008576976135373116
1783169009431818200,8.849818359375,0.026044383645057678,0.007191866636276245,-0.009004147723317146
1783169009441766100,8.85976611328125,0.02562520280480385,0.007998271845281124,-0.008200671523809433
1783169009451715300,8.86971533203125,0.026226012036204338,0.005097290500998497,-0.0062275356613099575
1783169009461694200,8.879694091796875,0.02593439444899559,0.0056983656249940395,-0.007468036375939846
1783169009471643400,8.889643310546875,0.025376996025443077,0.004323109518736601,-0.00629091914743185
1783169009481592300,8.89959228515625,0.025555428117513657,0.007764179725199938,-0.007921572774648666
1783169009491571500,8.909571533203126,0.026503778994083405,0.0049705239944159985,-0.006265352945774794
1783169009501520400,8.919520263671876,0.02658953331410885,0.004489556886255741,-0.009621468372642994
1783169009511469300,8.92946923828125,0.02659645676612854,0.005308212712407112,-0.005875732284039259
1783169009521417500,8.93941748046875,0.026017485186457634,0.0060120862908661366,-0.009948504157364368
1783169009531397400,8.9493974609375,0.02696290798485279,0.0054480284452438354,-0.006505303550511599
1783169009541345300,8.95934521484375,0.025046231225132942,0.0065290057100355625,-0.007178550586104393
1783169009551294200,8.969294189453125,0.024328509345650673,0.005251753609627485,-0.007869374938309193
1783169009561243400,8.979243408203125,0.027032149955630302,0.009094428271055222,-0.009862218052148819
1783169009571222300,8.98922216796875,0.026446787640452385,0.006503439508378506,-0.00968644954264164
1783169009581171200,8.999171142578126,0.024097612127661705,0.0062882560305297375,-0.008448345586657524
1783169009591119400,9.009119384765626,0.025953570380806923,0.003975034225732088,-0.006967628374695778
1783169009601068300,9.019068359375,0.025362880900502205,0.0052267201244831085,-0.00920361839234829
1783169009611047200,9.029047119140625,0.027056118473410606,0.005997971165925264,-0.007631287910044193
1783169009620996400,9.038996337890625,0.027035079896450043,0.004975850228220224,-0.00774820102378726
1783169009630945500,9.048945556640625,0.02659912034869194,0.0037268276792019606,-0.006478139199316502
1783169009640924400,9.05892431640625,0.02672375552356243,0.00785605888813734,-0.010263023898005486
1783169009650873300,9.068873291015626,0.02430081181228161,0.004259459674358368,-0.008705873973667622
1783169009660822300,9.078822265625,0.02732802741229534,0.005126052536070347,-0.008171376772224903
1783169009670770400,9.0887705078125,0.025800704956054688,0.005921272095292807,-0.006710633169859648
1783169009680750300,9.098750244140625,0.025411617010831833,0.00541260838508606,-0.008192682638764381
1783169009690698500,9.108698486328125,0.02533225528895855,0.008256332017481327,-0.010204967111349106
1783169009700647400,9.1186474609375,0.02611469104886055,0.00507092522457242,-0.0070648337714374065
1783169009710596400,9.128596435546875,0.026802053675055504,0.006690393202006817,-0.006278402172029018
1783169009720575200,9.1385751953125,0.025235049426555634,0.004584365524351597,-0.009195628575980663
1783169009730524400,9.1485244140625,0.026605777442455292,0.004905542824417353,-0.00729333283379674
1783169009740473300,9.158473388671876,0.025255288928747177,0.003226952161639929,-0.007597998715937138
1783169009750452200,9.1684521484375,0.025590848177671432,0.005007541738450527,-0.006424609571695328
1783169009760400400,9.178400390625,0.0265961904078722,0.005505819339305162,-0.006888266187161207
1783169009770349300,9.188349365234375,0.026011893525719643,0.004779841285198927,-0.006701045669615269
1783169009780298200,9.19829833984375,0.0252760611474514,0.006552441511303186,-0.0075729647651314735
1783169009790274300,9.2082744140625,0.02792457491159439,0.0017976337112486362,-0.007121559232473373
1783169009800223200,9.21822314453125,0.024380706250667572,0.006157760974019766,-0.008933573961257935
1783169009810172400,9.22817236328125,0.02533385157585144,0.0038983351550996304,-0.00791544746607542
1783169009820120300,9.238120361328125,0.02678181231021881,0.007093862164765596,-0.007095193490386009
1783169009830100500,9.2481005859375,0.026807378977537155,0.004743888974189758,-0.00666535971686244
1783169009840048400,9.25804833984375,0.02430374175310135,0.006557767745107412,-0.006975085008889437
1783169009849997600,9.26799755859375,0.023904001340270042,0.006885070353746414,-0.009043562225997448
1783169009859946500,9.277946533203124,0.027636954560875893,0.0029885992407798767,-0.006871754303574562
1783169009869925400,9.28792529296875,0.02592507377266884,0.005805158521980047,-0.007528489921241999
1783169009879874600,9.29787451171875,0.025198830291628838,0.004101268015801907,-0.00806458480656147
1783169009889823500,9.307823486328125,0.026255838572978973,0.008707471191883087,-0.008570319041609764
1783169009899802400,9.31780224609375,0.02570429816842079,0.0068238177336752415,-0.007399326656013727
1783169009909751300,9.327751220703124,0.025915486738085747,0.00187992537394166,-0.006627010181546211
1783169009919699500,9.337699462890624,0.02574584260582924,0.006658168975263834,-0.007782289292663336
1783169009929648400,9.3476484375,0.024295752868056297,0.003742540255188942,-0.008815595880150795
1783169009939627500,9.35762744140625,0.0255783312022686,0.006578007712960243,-0.007213704288005829
1783169009949576400,9.367576416015625,0.026275811716914177,0.006067479960620403,-0.006701312027871609
1783169009959525400,9.377525390625,0.02605050802230835,0.005114600993692875,-0.008534632623195648
1783169009969473300,9.387473388671875,0.024349281564354897,0.0063785370439291,-0.0063798688352108
1783169009979453400,9.397453369140624,0.026912573724985123,0.007774832658469677,-0.007704791147261858
1783169009989401300,9.4074013671875,0.025112543255090714,0.004718322306871414,-0.005181446205824614
1783169009999350300,9.417350341796874,0.024458205327391624,0.005891711451113224,-0.006991064175963402
1783169010009329400,9.427329345703125,0.02720632031559944,0.009136772714555264,-0.006654440425336361
1783169010019278600,9.437278564453125,0.025787921622395515,0.007223824504762888,-0.008019044063985348
1783169010029227500,9.4472275390625,0.02407258003950119,0.005960953421890736,-0.005727127660065889
1783169010039176400,9.457176513671875,0.02586302161216736,0.005583050660789013,-0.006225937977433205
1783169010049155600,9.467155517578124,0.026863837614655495,0.007148190401494503,-0.006885869428515434
1783169010059104500,9.4771044921875,0.024926122277975082,0.0054578823037445545,-0.0070709590800106525
1783169010069052400,9.487052490234374,0.025583390146493912,0.006744455546140671,-0.007675762753933668
1783169010079001300,9.49700146484375,0.02646676078438759,0.006066947244107723,-0.006369482260197401
1783169010088980500,9.50698046875,0.02538764849305153,0.0046304380521178246,-0.007523962762206793
1783169010098929400,9.516929443359375,0.025532789528369904,0.005720470100641251,-0.007292001508176327
1783169010108878300,9.52687841796875,0.02738981321454048,0.011303254403173923,-0.008755141869187355
1783169010118826500,9.536826416015625,0.025141039863228798,0.005101551301777363,-0.00615296745672822
1783169010128806400,9.546806396484374,0.0258097592741251,0.006217948626726866,-0.006417419295758009
1783169010138754300,9.55675439453125,0.02588033303618431,0.003943875432014465,-0.006636597216129303
1783169010148703200,9.566703125,0.025652099400758743,0.005312207154929638,-0.006493319291621447
1783169010158682400,9.576682373046875,0.02515941485762596,0.008317052386701107,-0.008922122418880463
1783169010168631300,9.58663134765625,0.025793513283133507,0.006155097857117653,-0.007456318475306034
1783169010178580500,9.59658056640625,0.024148745462298393,0.0067870658822357655,-0.00851252768188715
1783169010188529400,9.606529296875,0.02552160434424877,0.0070363376289606094,-0.007287740241736174
1783169010198508500,9.616508544921874,0.025359950959682465,0.005918342620134354,-0.007141799200326204
1783169010208457500,9.62645751953125,0.025235049426555634,0.002784601179882884,-0.007000651676207781
1783169010218405400,9.6364052734375,0.0257469080388546,0.008159925229847431,-0.009464075788855553
1783169010228354600,9.6463544921875,0.025403359904885292,0.00373002327978611,-0.005538576282560825
1783169010238333400,9.65633349609375,0.026434004306793213,0.003991013392806053,-0.0062214103527367115
1783169010248282400,9.666282470703125,0.026098977774381638,0.005754292011260986,-0.009690443985164165
1783169010258231300,9.676231201171875,0.027903003618121147,0.010004164651036263,-0.0073324814438819885
1783169010268179500,9.686179443359375,0.025679796934127808,0.007131146267056465,-0.007850732654333115
1783169010278159400,9.696159423828124,0.024989239871501923,0.00600462919101119,-0.007143130525946617
1783169010288107500,9.706107421875,0.02526540867984295,0.00387356779538095,-0.0077471355907619
1783169010298056400,9.716056396484374,0.026933878660202026,0.0054331147111952305,-0.008948753587901592
1783169010308035300,9.726035400390625,0.024650484323501587,0.005571066867560148,-0.006479470990598202
1783169010317984300,9.735984375,0.024711471050977707,0.004034422803670168,-0.007951400242745876
1783169010327933200,9.74593310546875,0.02695811353623867,0.006433397997170687,-0.007650462910532951
1783169010337882600,9.755882568359375,0.025782860815525055,0.006579339504241943,-0.007613711059093475
1783169010347861500,9.765861572265624,0.025433454662561417,0.005803826730698347,-0.007818241603672504
1783169010357810400,9.775810546875,0.02563638798892498,0.007443002425134182,-0.008779643103480339
1783169010367758600,9.785758544921874,0.025254756212234497,0.006810235325247049,-0.008944492787122726
1783169010377707500,9.79570751953125,0.02666330151259899,0.004216849338263273,-0.006627276539802551
1783169010387686400,9.805686279296875,0.025497369468212128,0.00475454144179821,-0.0073439329862594604
1783169010397635600,9.815635498046875,0.027060380205512047,0.006456833798438311,-0.008162322454154491
1783169010407584500,9.82558447265625,0.025953037664294243,0.0049281795509159565,-0.008153000846505165
1783169010417563400,9.8355634765625,0.0258070956915617,0.0049588060937821865,-0.008979113772511482
1783169010427512300,9.84551220703125,0.02580762840807438,0.006195577792823315,-0.007213970646262169
1783169010437460500,9.85546044921875,0.025599902495741844,0.006539125461131334,-0.008273109793663025
1783169010447409400,9.865409423828124,0.023495206609368324,0.005663211923092604,-0.008620918728411198
1783169010457388300,9.87538818359375,0.025951705873012543,0.0027481159195303917,-0.007476824801415205
1783169010467337500,9.88533740234375,0.025116005912423134,0.0057287258096039295,-0.007662447169423103
1783169010477286400,9.895286376953125,0.025288311764597893,0.007623032201081514,-0.007537278346717358
1783169010487235600,9.905235595703125,0.026795927435159683,0.005870406050235033,-0.006571616046130657
1783169010497214200,9.915214111328124,0.027696875855326653,0.006184392608702183,-0.008676579222083092
1783169010507163600,9.92516357421875,0.025114940479397774,0.005498362239450216,-0.007230216171592474
1783169010517111600,9.935111572265624,0.02520602010190487,0.005008873529732227,-0.006524744443595409
1783169010527060500,9.945060546875,0.0255208071321249,0.0051958272233605385,-0.006982275750488043
1783169010537039600,9.95503955078125,0.02576475217938423,0.006173740141093731,-0.008768191561102867
1783169010546988500,9.964988525390625,0.027277426794171333,0.007767641916871071,-0.007507717236876488
1783169010556937500,9.9749375,0.024867000058293343,0.006917560938745737,-0.007485613226890564
1783169010566916400,9.984916259765624,0.024954618886113167,0.004169445019215345,-0.008861402049660683
1783169010576865500,9.994865478515624,0.02671230398118496,0.006339654792100191,-0.006827545817941427
1783169010586814500,10.004814453125,0.025853434577584267,0.005014466121792793,-0.007448861375451088
1783169010596762400,10.014762451171874,0.026640664786100388,0.00398701848462224,-0.007209709845483303
1783169010606741500,10.024741455078125,0.02570456452667713,0.0065047708339989185,-0.008069378323853016
1783169010616690400,10.0346904296875,0.025977805256843567,0.006676811259239912,-0.0075543224811553955
1783169010626639400,10.044639404296875,0.02509123831987381,0.005257878918200731,-0.007246993947774172
1783169010636588300,10.05458837890625,0.02761831134557724,0.007041930686682463,-0.007126352749764919
1783169010646567400,10.0645673828125,0.026446254923939705,0.005489840172231197,-0.008991897106170654
1783169010656516400,10.074516357421874,0.02581295557320118,0.007174556143581867,-0.008560997433960438
1783169010666464300,10.08446435546875,0.02702575922012329,0.006661364808678627,-0.008127701468765736
1783169010676444400,10.0944443359375,0.025352494791150093,0.007708519697189331,-0.0070552462711930275
1783169010686392600,10.104392578125,0.02497645653784275,0.0064776064828038216,-0.007436344865709543
1783169010696341500,10.114341552734375,0.024448351934552193,0.005256014876067638,-0.006760700605809689
1783169010706290400,10.12429052734375,0.025599636137485504,0.006555370986461639,-0.00803076196461916
1783169010716269600,10.13426953125,0.026757843792438507,0.004096208140254021,-0.00797510240226984
1783169010726218500,10.144218505859374,0.024097612127661705,0.003775563556700945,-0.008201736956834793
1783169010736167400,10.15416748046875,0.026195650920271873,0.005347361322492361,-0.006901848129928112
1783169010746115300,10.164115234375,0.027726436033844948,0.006687730085104704,-0.004628307651728392
1783169010756095500,10.174095458984375,0.0252840518951416,0.003838147735223174,-0.00809361319988966
1783169010766043400,10.18404345703125,0.025172198191285133,0.00632048025727272,-0.0065223476849496365
1783169010775992300,10.193992431640625,0.02630244381725788,0.006767891347408295,-0.008100803010165691
1783169010785984000,10.20398388671875,0.02629072591662407,0.002582201035693288,-0.005447762086987495
1783169010795963100,10.213963134765624,0.028086230158805847,0.007153517100960016,-0.0065263425931334496
1783169010805912000,10.223912109375,0.025558888912200928,0.0065042381174862385,-0.007586014457046986
1783169010815860000,10.23385986328125,0.025616679340600967,0.005741775035858154,-0.00765738682821393
1783169010825839900,10.24383984375,0.0264182910323143,0.008642756380140781,-0.008540491573512554
1783169010835788000,10.2537880859375,0.02629498764872551,0.004456799943000078,-0.007180415093898773
1783169010845737000,10.263737060546875,0.025649171322584152,0.005176386330276728,-0.007435279432684183
1783169010855686000,10.273685791015625,0.027586087584495544,0.005869873333722353,-0.008478173054754734
1783169010865665000,10.2836650390625,0.02648087590932846,0.006887999828904867,-0.00842677429318428
1783169010875614000,10.293614013671874,0.02515382319688797,0.003338538808748126,-0.005249356850981712
1783169010885563000,10.30356298828125,0.02628832869231701,0.006463225465267897,-0.006482666824012995
1783169010895510800,10.3135107421875,0.025351162999868393,0.005684250965714455,-0.0062704128213226795
1783169010905491000,10.323490966796875,0.027027888223528862,0.003995007835328579,-0.009444368071854115
1783169010915438800,10.33343896484375,0.025416143238544464,0.006161489523947239,-0.007017163094133139
1783169010925387800,10.3433876953125,0.025554895401000977,0.004363323096185923,-0.004450141917914152
1783169010935337000,10.3533369140625,0.02594451606273651,0.006916761863976717,-0.008768457919359207
1783169010945316000,10.363316162109374,0.025232385843992233,0.004473578184843063,-0.007562578655779362
1783169010955265000,10.37326513671875,0.026023611426353455,0.0054424358531832695,-0.00837031565606594
1783169010965213200,10.383213134765626,0.02556820958852768,0.004956408869475126,-0.008049137890338898
1783169010975193000,10.393193115234375,0.02881992980837822,0.008772452361881733,-0.009236108511686325
1783169010985141000,10.40314111328125,0.027937091886997223,0.00797110702842474,-0.007692008279263973
1783169010995090000,10.41308984375,0.026143986731767654,0.006016613449901342,-0.006895190104842186
1783169011005039000,10.4230390625,0.02539217472076416,0.0028431906830519438,-0.004275438841432333
1783169011015018000,10.43301806640625,0.025021197274327278,0.0057071540504693985,-0.005495699122548103
1783169011024967000,10.442966796875,0.025679796934127808,0.004628574009984732,-0.007754059974104166
1783169011034915800,10.452915771484374,0.025802569463849068,0.006252569612115622,-0.007653925102204084
1783169011044864000,10.462864013671876,0.02611309289932251,0.0039145806804299355,-0.007382548879832029
1783169011054844000,10.472843994140625,0.028134431689977646,0.007573763839900494,-0.007366836071014404
1783169011064791800,10.482791748046875,0.028864670544862747,0.004541222471743822,-0.006302903406322002
1783169011074741000,10.492740966796875,0.026574086397886276,0.007249390706419945,-0.009733321145176888
1783169011084719900,10.502719970703126,0.02586648426949978,0.006629140581935644,-0.009002815932035446
1783169011094668800,10.512668701171876,0.025970613583922386,0.0057260626927018166,-0.006308762356638908
1783169011104618000,10.522617919921874,0.024865934625267982,0.006465089973062277,-0.006599845830351114
1783169011114566100,10.532566162109376,0.024998294189572334,0.006325540132820606,-0.008238488808274269
1783169011124546000,10.542546142578125,0.026101374998688698,0.004098871257156134,-0.006623015273362398
1783169011134494000,10.552493896484375,0.025526132434606552,0.005378520116209984,-0.006395048461854458
1783169011144443100,10.562443115234375,0.026691531762480736,0.006937534548342228,-0.00743155088275671
1783169011154392000,10.57239208984375,0.027278758585453033,0.005102883093059063,-0.009038502350449562
1783169011164371000,10.582370849609376,0.027166906744241714,0.00698041170835495,-0.00791225116699934
1783169011174319900,10.59231982421875,0.026607641950249672,0.003974235150963068,-0.00785366166383028
1783169011184269000,10.60226904296875,0.02605130709707737,0.008471781387925148,-0.009092831052839756
1783169011194217000,10.612217041015626,0.027946146205067635,0.005242166109383106,-0.006137521006166935
1783169011204196900,10.62219677734375,0.02719300426542759,0.005459746345877647,-0.00914316438138485
1783169011214145000,10.63214501953125,0.02635570801794529,0.005404086317867041,-0.009180448949337006
1783169011224094000,10.642093994140625,0.02634824998676777,0.0054301852360367775,-0.00893996562808752
1783169011234072800,10.65207275390625,0.02514982782304287,0.0059902481734752655,-0.006062153726816177
1783169011244022000,10.66202197265625,0.025002822279930115,0.00896686315536499,-0.006359628401696682
1783169011253971000,10.671970947265624,0.02618233487010002,0.004759068600833416,-0.007656321860849857
1783169011263920000,10.681920166015624,0.02564038150012493,0.005646966863423586,-0.008041414432227612
1783169011273899000,10.69189892578125,0.02702602557837963,0.006081594619899988,-0.0065649584867060184
1783169011283847000,10.701846923828125,0.028024177998304367,0.005085306242108345,-0.006577474996447563
1783169011293796000,10.711796142578125,0.02521028183400631,0.005601426586508751,-0.008823585696518421
1783169011303745000,10.7217451171875,0.026079803705215454,0.005055478774011135,-0.006322077941149473
1783169011313724200,10.73172412109375,0.025901105254888535,0.004364388529211283,-0.004059189930558205
1783169011323673000,10.741673095703124,0.02599644660949707,0.005364139098674059,-0.006006227340549231
1783169011333622000,10.7516220703125,0.026685407385230064,0.0084837656468153,-0.006586796138435602
1783169011343601000,10.761600830078125,0.02696557156741619,0.006648315116763115,-0.008676046505570412
1783169011353550000,10.771550048828125,0.025407887995243073,0.006086654495447874,-0.007400125730782747
1783169011363498000,10.781498046875,0.026104038581252098,0.0049763829447329044,-0.008809204213321209
1783169011373447000,10.791447021484375,0.02664812281727791,0.007379086688160896,-0.00803475733846426
1783169011383426000,10.801426025390626,0.02761697955429554,0.005210474599152803,-0.007471764925867319
1783169011393375000,10.811375,0.027230022475123405,0.004848018288612366,-0.006119677796959877
1783169011403324000,10.821323974609374,0.025706695392727852,0.007164169568568468,-0.006302370689809322
1783169011413272800,10.83127294921875,0.02605157345533371,0.004177967086434364,-0.010055829770863056
1783169011423252000,10.841251953125,0.027118969708681107,0.005081311333924532,-0.005914614535868168
1783169011433201200,10.851201171875,0.026493659242987633,0.005376123357564211,-0.005613144487142563
1783169011443148800,10.861148681640625,0.02491147443652153,0.007275223266333342,-0.007045126520097256
1783169011453098000,10.871097900390625,0.027644943445920944,0.004862132947891951,-0.0062397862784564495
1783169011463077000,10.8810771484375,0.025610022246837616,0.00544403400272131,-0.006030195392668247
1783169011473026000,10.891026123046874,0.02791205793619156,0.007771636825054884,-0.0067484499886631966
1783169011482975000,10.90097509765625,0.026732278987765312,0.006120210513472557,-0.009372462518513203
1783169011492954000,10.9109541015625,0.024273116141557693,0.007477889768779278,-0.0076030585914850235
1783169011502903000,10.920903076171875,0.02624385431408882,0.006968693342059851,-0.009199357591569424
1783169011512851000,10.930850830078125,0.026264626532793045,0.003897536313161254,-0.006904511246830225
1783169011522799900,10.9407998046875,0.024284834042191505,0.010266485624015331,-0.00896579772233963
1783169011532779000,10.950779052734376,0.027668911963701248,0.005634716246277094,-0.007986021228134632
1783169011542728000,10.96072802734375,0.025669410824775696,0.00896686315536499,-0.006926615722477436
1783169011552676900,10.9706767578125,0.02683001570403576,0.004503671545535326,-0.006530337035655975
1783169011562625800,10.980625732421874,0.026584206148982048,0.00552339619025588,-0.007123156916350126
1783169011572605000,10.99060498046875,0.02503744326531887,0.005892243701964617,-0.004729507956653833
1783169011582553900,11.000553955078125,0.026214560493826866,0.00395825644955039,-0.008360194973647594
1783169011592501800,11.010501708984375,0.02612188085913658,0.0054941014386713505,-0.007201720029115677
1783169011602482200,11.020482177734374,0.02527819201350212,0.005166532471776009,-0.006190517917275429
1783169011612429800,11.030429931640626,0.02629392221570015,0.003534813644364476,-0.006316485349088907
1783169011622379000,11.04037890625,0.026207368820905685,0.006970824208110571,-0.0059625511057674885
1783169011632328000,11.050327880859374,0.027884894981980324,0.005805424880236387,-0.0054730623960494995
1783169011642307000,11.06030712890625,0.027099793776869774,0.00447011599317193,-0.008202003315091133
1783169011652256000,11.070256103515625,0.02586222253739834,0.00398621940985322,-0.00860520638525486
1783169011662204000,11.080203857421875,0.02701004594564438,0.006191316992044449,-0.00734340026974678
1783169011672153000,11.090153076171875,0.02641456387937069,0.006206230726093054,-0.009813215583562851
1783169011682132000,11.100132080078126,0.027307255193591118,0.005884520709514618,-0.006013417616486549
1783169011692081000,11.110080810546876,0.025842249393463135,0.00839934404939413,-0.004830441437661648
1783169011702029800,11.12002978515625,0.025140773504972458,0.0043896883726119995,-0.007260043174028397
1783169011711979000,11.12997900390625,0.025199096649885178,0.004512992687523365,-0.007138869725167751
1783169011721958000,11.1399580078125,0.026375148445367813,0.003715908620506525,-0.006700779777020216
1783169011731906800,11.14990673828125,0.025541845709085464,0.006734068971127272,-0.01023000106215477
1783169011741855000,11.15985498046875,0.026148512959480286,0.0073561836034059525,-0.00851332675665617
1783169011751835000,11.1698349609375,0.026322949677705765,0.003713778220117092,-0.006377205718308687
1783169011761782800,11.17978271484375,0.024167919531464577,0.006675479467958212,-0.010233462788164616
1783169011771732000,11.18973193359375,0.02616821974515915,0.004697815980762243,-0.004028563853353262
1783169011781681200,11.19968115234375,0.02786864899098873,0.005675728898495436,-0.006203034892678261
1783169011791676700,11.2096767578125,0.024776719510555267,0.005525792948901653,-0.008566323667764664
1783169011801625900,11.2196259765625,0.025595374405384064,0.005009139887988567,-0.008932508528232574
1783169011811573800,11.22957373046875,0.02624198980629444,0.004806472919881344,-0.006462160497903824
1783169011821523000,11.23952294921875,0.02653200924396515,0.004777444526553154,-0.0073505910113453865
1783169011831502000,11.249502197265626,0.024226775392889977,0.005717007908970118,-0.007476025726646185
1783169011841451000,11.259450927734376,0.026452645659446716,0.005034173373132944,-0.0071157002821564674
1783169011851400000,11.26939990234375,0.02653680182993412,0.005906092468649149,-0.00971760880202055
1783169011861348900,11.279348876953126,0.026685673743486404,0.004311391618102789,-0.007694937754422426
1783169011871328000,11.289327880859375,0.024631842970848083,0.00621155695989728,-0.008418784476816654
1783169011881277000,11.29927685546875,0.02538764849305153,0.007225422188639641,-0.007767375558614731
1783169011891224800,11.309224853515625,0.025790052488446236,0.0037081853952258825,-0.006973220966756344
1783169011901204700,11.319204833984376,0.02532852627336979,0.00765898497775197,-0.00800359807908535
1783169011911153000,11.32915283203125,0.025292040780186653,0.005437109619379044,-0.007142065558582544
1783169011921101800,11.339101806640626,0.02683747373521328,0.005356681998819113,-0.006982542108744383
1783169011931050800,11.34905078125,0.025230787694454193,0.0060238041914999485,-0.009108277037739754
1783169011941030000,11.35902978515625,0.025242239236831665,0.00481286458671093,-0.007327155210077763
1783169011950978800,11.368978759765625,0.025080319494009018,0.008773517794907093,-0.00933118350803852
1783169011960926700,11.3789267578125,0.02569231390953064,0.00657614367082715,-0.007765245158225298
1783169011970875600,11.388875732421875,0.0254539605230093,0.004494350403547287,-0.007604656275361776
1783169011980854800,11.398854736328126,0.025163942947983742,0.005825931206345558,-0.007003048434853554
1783169011990804000,11.408803955078126,0.025183916091918945,0.006792126223444939,-0.007011304143816233
1783169012000753000,11.4187529296875,0.025463813915848732,0.006726878695189953,-0.006481867749243975
1783169012010732000,11.42873193359375,0.02754853665828705,0.006609699688851833,-0.007438208907842636
1783169012020681000,11.438680908203125,0.026125343516469002,0.007041131611913443,-0.007841144688427448
1783169012030630000,11.4486298828125,0.02532879263162613,0.007523696403950453,-0.007255516014993191
1783169012040577800,11.458577880859375,0.02671336941421032,0.006554305553436279,-0.008104265667498112
1783169012050558000,11.468557861328126,0.025202559307217598,0.007328220177441835,-0.006269081030040979
1783169012060505900,11.478505859375,0.02534210868179798,0.005939381662756205,-0.005308479070663452
1783169012070454800,11.488454833984376,0.026669960469007492,0.006816094275563955,-0.007412642706185579
1783169012080403700,11.49840380859375,0.024940237402915955,0.004855475388467312,-0.007416637148708105
1783169012090382800,11.5083828125,0.02606196142733097,0.00803076196461916,-0.009030512534081936
1783169012100331800,11.518331787109375,0.02575409971177578,0.0052352421917021275,-0.007424892857670784
1783169012110279700,11.52827978515625,0.026281138882040977,0.0057622818276286125,-0.006788397673517466
1783169012120228900,11.538228759765625,0.027722707018256187,0.005952964071184397,-0.00794127956032753
1783169012130207700,11.548207763671876,0.02472079172730446,0.0038272286765277386,-0.007734085898846388
1783169012140156700,11.55815673828125,0.025560753419995308,0.004742290824651718,-0.008223840966820717
1783169012150105900,11.56810595703125,0.02690644934773445,0.002912699244916439,-0.007543137297034264
1783169012160085000,11.5780849609375,0.025780996307730675,0.0076512619853019714,-0.007808920927345753
1783169012170034000,11.588033935546875,0.02690724842250347,0.004697283264249563,-0.008286425843834877
1783169012179982800,11.59798291015625,0.024387098848819733,0.0062488410621881485,-0.00911466870456934
1783169012189931000,11.607930908203125,0.025195367634296417,0.004024036228656769,-0.006845122668892145
1783169012199911000,11.617910888671876,0.024047812446951866,0.005615807604044676,-0.007141532842069864
1783169012209858800,11.62785888671875,0.025678198784589767,0.005643238313496113,-0.007493602577596903
1783169012219807700,11.637807861328126,0.026878485456109047,0.006850449368357658,-0.006392385344952345
1783169012229757000,11.6477568359375,0.025490978732705116,0.003293531248345971,-0.008592955768108368
1783169012239735800,11.65773583984375,0.02623985894024372,0.007150853984057903,-0.007662713527679443
1783169012249684700,11.667684814453125,0.02425047755241394,0.008475244045257568,-0.010097108781337738
1783169012259633700,11.677633544921875,0.024747157469391823,0.006587328854948282,-0.0057646785862743855
1783169012269612800,11.68761279296875,0.02702522650361061,0.004453870467841625,-0.007648598402738571
1783169012279561700,11.697561767578126,0.023999875411391258,0.006038185209035873,-0.008282430469989777
1783169012289510000,11.707510009765626,0.025604428723454475,0.005042695440351963,-0.008648881688714027
1783169012299458800,11.717458740234376,0.02702309563755989,0.007223558146506548,-0.00865953415632248
1783169012309437700,11.727437744140625,0.0281570702791214,0.0070802802219986916,-0.002070607617497444
1783169012319387000,11.737386962890625,0.026757044717669487,0.008296545594930649,-0.006177468225359917
1783169012329335800,11.747335693359375,0.02713521383702755,0.006235525477677584,-0.006907440721988678
1783169012339284000,11.757283935546875,0.0262443870306015,0.0051628039218485355,-0.007646734360605478
1783169012349264000,11.767263916015626,0.02707449346780777,0.006405168678611517,-0.007829161360859871
1783169012359212000,11.7772119140625,0.027606593444943428,0.0038181741256266832,-0.009224923327565193
1783169012369161000,11.787160888671876,0.02570429816842079,0.0057015614584088326,-0.007035272661596537
1783169012379110000,11.79710986328125,0.025013208389282227,0.00418249424546957,-0.008341819047927856
1783169012389088800,11.8070888671875,0.027539482340216637,0.003023220458999276,-0.009099222719669342
1783169012399038000,11.817037841796875,0.024282170459628105,0.0012865731259807944,-0.01130937971174717
1783169012408987000,11.82698681640625,0.02666330151259899,0.005243231542408466,-0.007930627092719078
1783169012418965800,11.8369658203125,0.02646729350090027,0.00421391986310482,-0.008785502053797245
