time,seconds_elapsed,z,y,x
1783169260385849600,0.253849609375,0.1479787306368351,-0.053176002131402486,0.15368322588875888
1783169260395798500,0.263798583984375,0.12058920392990112,-0.066494917909801,0.182245595767349
1783169260405777400,0.27377734375,0.058009705898165696,-0.07105272734463214,0.2702913973584771
1783169260415726300,0.283726318359375,0.07618132240474224,-0.04273673344254494,0.29229977901633825
1783169260425674500,0.293674560546875,0.13501403512358665,0.019365502466261387,0.16333382841795682
1783169260435653400,0.3036533203125,0.08125789501667022,0.05515402420610189,0.10619155300408602
1783169260445602300,0.313602294921875,-0.026680501654744147,0.0717559071779251,0.08541589147895574
1783169260455551500,0.323551513671875,-0.026927169892191884,0.05920856029391289,0.11395488048195838
1783169260465500400,0.33350048828125,-0.008401333120465279,0.04437251795083284,0.16823515406083314
1783169260475479300,0.343479248046875,-0.05870353338122367,0.08315583759248256,0.15997151237800716
1783169260485428500,0.353428466796875,-0.04951952545046806,0.10498539208471774,0.11365984305813907
1783169260495376400,0.36337646484375,-0.034549335333704946,0.12025924132317303,0.10824600131586193
1783169260505325600,0.37332568359375,-0.02836041756570339,0.13605857574045657,0.09567235094681381
1783169260515304400,0.383304443359375,-0.04926876555979252,0.18097937522381544,0.0952516047840938
1783169260525253600,0.393253662109375,-0.053831543430685996,0.23061726635694502,0.10469196209609508
1783169260535202600,0.40320263671875,-0.06239888076782226,0.26316256839185953,0.051756052330881354
1783169260545181400,0.413181396484375,-0.08648001357913017,0.28418928206861016,-0.008420037820935249
1783169260555130400,0.42313037109375,-0.08519114281237125,0.27869565308839084,-0.0750786218598485
1783169260565079600,0.43307958984375,-0.07969196087419986,0.27836189108937975,-0.11708689489737152
1783169260575027500,0.44302734375,-0.06379062738716602,0.32370676120370623,-0.1297546532906592
1783169260585007400,0.45300732421875,-0.07752280014157295,0.35540158388912674,-0.12726926621571183
1783169260594955500,0.46295556640625,-0.05475041184127331,0.35300913579463955,-0.10920290018189698
1783169260604904400,0.472904541015625,0.0030810148805379867,0.32201661615967747,-0.07929170951023698
1783169260614853400,0.482853271484375,0.039645781689882274,0.28990444484502076,-0.04745616317987442
1783169260624832500,0.49283251953125,0.045050271081924435,0.28044103545099497,-0.05803937038406729
1783169260634781400,0.502781494140625,0.05468143825829029,0.2876987514942884,-0.060926762388646596
1783169260644729300,0.512729248046875,-0.002308276942372322,0.28538492159396406,-0.06566884234920144
1783169260654678300,0.52267822265625,-0.07513736630976199,0.29108576358407734,-0.04980754861161112
1783169260664657400,0.532657470703125,-0.04803951602578163,0.3061944853886962,-0.07545622300058603
1783169260674606600,0.542606689453125,0.08027998989522457,0.3299468246370554,-0.11723770154491066
1783169260684555500,0.552555419921875,0.07005377943515777,0.36213907545059915,-0.10748992225155234
1783169260694534700,0.56253466796875,0.003878887259960174,0.3437181603580713,-0.06293766381964087
1783169260704483600,0.572483642578125,0.020728899773955343,0.33816841727644203,-0.010040917021036147
1783169260714432500,0.5824326171875,0.010573416462540626,0.3639829497516155,-0.0014500526778399943
1783169260724380400,0.59238037109375,0.004160042288899422,0.3884533741414547,-0.011111468861997128
1783169260734360600,0.602360595703125,0.04119651826322079,0.39573476332128044,-0.03412497244179249
1783169260744308500,0.61230859375,0.11206219860315322,0.39549510934650894,-0.03959887380823493
1783169260754257400,0.62225732421875,0.17390987522900103,0.37914252496063705,-0.015238193403184414
1783169260764206300,0.632206298828125,0.24855039793252942,0.3322404885321855,0.0064633507952094075
1783169260774185500,0.642185546875,0.30702070707976814,0.31837621383070946,0.04908727151304483
1783169260784134400,0.652134521484375,0.30280338164567944,0.30467852786779404,0.07085252859741449
1783169260794082300,0.662082275390625,0.3122866647839546,0.3057549249276519,0.07515208895485848
1783169260804062500,0.6720625,0.3361602923244238,0.30803923647254705,0.0946751200703904
1783169260814010400,0.68201025390625,0.3293886062324047,0.3028565731376409,0.10792071488425135
1783169260823959300,0.691959228515625,0.30646190415322777,0.3017044804930687,0.12149199798852205
1783169260833908500,0.701908447265625,0.29558336726427076,0.2888768553629517,0.12010346623957156
1783169260843887600,0.7118876953125,0.2577273916006088,0.2737187414586544,0.10592004258632659
1783169260853836500,0.72183642578125,0.23190905973315237,0.282604350964725,0.07755377980172634
1783169260863785500,0.731785400390625,0.1774935789346695,0.31639643819034097,0.07485416545420885
1783169260873733600,0.741733642578125,0.12414894223809242,0.3188999454438686,0.07150149402543902
1783169260883713500,0.751713623046875,0.09269055865705013,0.30214959391206503,0.06222655640821904
1783169260893661400,0.761661376953125,0.1338134271621704,0.29970395432561636,0.04441807412561029
1783169260903610400,0.7716103515625,0.19121581481695174,0.289945069116354,0.04524769335016608
1783169260913589500,0.781589599609375,0.22362346194684504,0.2544102298766374,0.07470029006674886
1783169260923538400,0.791538330078125,0.23024667947888372,0.21369009695351124,0.08797448992058635
1783169260933487400,0.8014873046875,0.19763971038460731,0.20786212145239114,0.08648030584007502
1783169260943435500,0.811435546875,0.15440204168260097,0.22700112168639897,0.045330987719446415
1783169260953415400,0.82141552734375,0.14675883345305918,0.25576661292165515,0.00547415709476918
1783169260963363300,0.83136328125,0.12997078025937078,0.2653694307863712,-0.051380497016757724
1783169260973312300,0.841312255859375,0.09000000439882277,0.27508827624619003,-0.08514072779938578
1783169260983261400,0.851261474609375,0.06541793632805347,0.3047410717099905,-0.07824395402297377
1783169260993263600,0.861263671875,-0.01990823104083538,0.3508832296818495,-0.06944441536515951
1783169261003212800,0.871212890625,-0.055769233494997024,0.33432869298309087,-0.0892021320194006
1783169261013162000,0.881161865234375,-0.05515723907649517,0.31067016949802634,-0.11939301641527562
1783169261023140900,0.891140869140625,-0.0604582680940628,0.29284780482053757,-0.12472542695179581
1783169261033089800,0.90108984375,-0.07692892590165137,0.28650866492688654,-0.10873849754054099
1783169261043038000,0.911037841796875,-0.13438275148272513,0.278217806443572,-0.080632602725178
1783169261052987000,0.92098681640625,-0.15338322002887725,0.26546353881061074,-0.07188231003656984
1783169261062965800,0.9309658203125,-0.18023615564107895,0.26389526658058166,-0.0655180357016623
1783169261072915000,0.9409150390625,-0.21079086838066577,0.21213088481277226,-0.06652271923217921
1783169261082863900,0.95086376953125,-0.1869037968367338,0.16979104173332452,-0.06232435422688722
1783169261092812800,0.960812744140625,-0.13183774317502975,0.16526391969770193,-0.05923340247422457
1783169261102791700,0.970791748046875,-0.06940379109382629,0.17267185786664485,-0.026344839959591627
1783169261112739800,0.98073974609375,-0.040840544432401656,0.15485826101750136,0.0035497649034485217
1783169261122688800,0.990688720703125,-0.054416649842262264,0.13001228131353854,0.035908202596753834
1783169261132637700,1.0006376953125,-0.018797054928541182,0.11174421869516372,0.06722922353371977
1783169261142616800,1.010616943359375,-0.013767244067788124,0.13758622369915247,0.08645224878937005
1783169261152565800,1.020565673828125,-0.010250760379433631,0.16649229244887828,0.09593655484095215
1783169261162514700,1.0305146484375,-0.0005967968493700027,0.1603241252079606,0.10823197279050946
1783169261172493800,1.040493896484375,-0.012301263168454169,0.1322141752719879,0.1285660280279815
1783169261182443000,1.050443115234375,-0.04012918129265308,0.11021773978024721,0.14457403675988315
1783169261192390700,1.060390625,-0.07841887219846248,0.10952069742679596,0.17572072404325007
1783169261202339800,1.07033984375,-0.09752221659719944,0.09377952293753623,0.17762948027402162
1783169261212319000,1.080319091796875,-0.08068681713044643,0.11313918018490075,0.12605017274953423
1783169261222268000,1.090267822265625,-0.08835515980124473,0.1320730132356286,0.10983867733478546
1783169261232216800,1.100216796875,-0.10088614007234573,0.11519289784431457,0.11110694370493292
1783169261242165800,1.110165771484375,-0.06997545350193977,0.12372107221484184,0.09754771636463701
1783169261252145000,1.120144775390625,-0.08850245931744576,0.15559797346889973,0.08772416842132806
1783169261262093800,1.13009375,-0.1470195302158594,0.15715923143625257,0.09204670779556036
1783169261272041700,1.140041748046875,-0.1641992130756378,0.1412880008265376,0.07153064705468713
1783169261282020900,1.150020751953125,-0.13628303214609622,0.1561798650100827,0.030305998675525185
1783169261291969800,1.1599697265625,-0.08870821102261543,0.18155600606799124,0.02122128640078008
1783169261301918700,1.169918701171875,-0.05191723424196243,0.17683862215727567,0.030377821802720424
1783169261311867600,1.17986767578125,-0.04690320547223091,0.17513064919561147,0.04250329001285136
1783169261321846800,1.1898466796875,-0.07586275797486305,0.15935761826336384,0.0625071634478867
1783169261331795700,1.199795654296875,-0.07974222975671291,0.13236381287574767,0.052940914733894166
1783169261341743600,1.20974365234375,-0.0006166705936193465,0.1485652983531356,0.026724231198616326
1783169261351692800,1.21969287109375,0.06618833617866039,0.16723405072689054,0.012086524439230561
1783169261361671700,1.229671630859375,0.053069326886534686,0.14906272648125887,0.005755823580361902
1783169261371620900,1.239620849609375,0.0424245987534523,0.10919248838573693,0.025673589634522796
1783169261381569800,1.24956982421875,0.08109247532188892,0.100189974501729,0.03918196357041597
1783169261391549000,1.259548828125,0.10491291137039661,0.11451046853810548,0.03166044549178332
1783169261401497900,1.269497802734375,0.10888298404514789,0.10722294187843799,0.009350267875753342
1783169261411446800,1.27944677734375,0.08084346899688244,0.0926829598724842,-0.004641688326001167
1783169261421395000,1.28939501953125,0.07922025170922278,0.08880962557047604,-0.037048202944733204
1783169261431374800,1.299374755859375,0.05000467861890793,0.08017126882374286,-0.048660424403101206
1783169261441322800,1.30932275390625,0.016226327657699584,0.0722574269592762,-0.04656067564487457
1783169261451271700,1.319271728515625,-0.015439561194181441,0.0912146408855915,-0.05477423110827803
1783169261461220900,1.329220947265625,-0.022458500045537948,0.11128536901175975,-0.07437704946175218
1783169261471199700,1.33919970703125,-0.030648820763826367,0.115831780269742,-0.07791063041538
1783169261481148700,1.349148681640625,-0.039375732576847074,0.10834726973325014,-0.07272226799204945
1783169261491096800,1.359096923828125,-0.020552958685159682,0.11807079136818646,-0.0778518859654665
1783169261501045800,1.369045654296875,0.012437456768751144,0.14256751924306155,-0.08095248232930898
1783169261511024600,1.379024658203125,0.029082886621356007,0.1434329039007425,-0.09186419083550572
1783169261520973600,1.3889736328125,-0.012784078249335288,0.12151771695166826,-0.0958404009900987
1783169261530923000,1.398923095703125,0.001626139897108078,0.11126023457050323,-0.12306659036148339
1783169261540902000,1.40890185546875,0.04514554814994335,0.13418722891062498,-0.1374313619310036
1783169261550850800,1.418850830078125,0.024740473502874373,0.12299597281068562,-0.11986030513346195
1783169261560799700,1.4287998046875,0.0024584990680217743,0.10187076719552278,-0.10658201362639665
1783169261570748000,1.438747802734375,0.03212532305717468,0.11969839257001876,-0.10010141943544149
1783169261580727800,1.448727783203125,0.042110710498690605,0.12687047615647315,-0.10986337338462471
1783169261590675700,1.45867578125,0.06144494104385376,0.12588467998951672,-0.11146014105677604
1783169261600625000,1.468625,0.08553601072728634,0.09041296911388635,-0.08970116758272051
1783169261610573800,1.47857373046875,0.10916238550841807,0.08987667028009891,-0.05729176688715815
1783169261620552700,1.488552734375,0.1168476793140173,0.10982289524376392,-0.050988428959250445
1783169261630501600,1.498501708984375,0.13580781584978102,0.09616612581312656,-0.04923953946530819
1783169261640449800,1.50844970703125,0.13269172965586185,0.08202244964838028,-0.0114002226755023
1783169261650429700,1.5184296875,0.0775116942256689,0.0899514890819788,0.016152531769126652
1783169261660377900,1.5283779296875,0.04557517173886299,0.11865472873598336,0.010879523269645868
1783169261670326800,1.538326904296875,0.048074002817273136,0.13027151677161455,-0.026512597741931675
1783169261680275700,1.548275634765625,0.031105916881561276,0.15372896472662687,-0.06869330473691225
1783169261690254600,1.558254638671875,0.03938566944897175,0.1946463737875223,-0.10387450823336838
1783169261700203800,1.568203857421875,0.08938333380520343,0.2280240349933505,-0.15208839444536715
1783169261710153000,1.578153076171875,0.14453238957524298,0.229589676874876,-0.18150851366445422
1783169261720100900,1.588100830078125,0.2284130343109369,0.20556641173064708,-0.19069836681410668
1783169261730080800,1.598080810546875,0.32578385973870755,0.170519356007874,-0.14643851545751094
1783169261740029000,1.60802880859375,0.34038755463063713,0.13450754690617323,-0.0810936443656683
1783169261749977900,1.617977783203125,0.34657062717974185,0.11321516803056,-0.07831895548794418
1783169261759956700,1.627956787109375,0.35836043369472026,0.1089957967698574,-0.07153086625039577
1783169261769906000,1.637906005859375,0.34238778853714463,0.08958324029147624,-0.03597966039776802
1783169261779854800,1.647854736328125,0.3416787634849548,0.03712240069210529,0.006318097105622291
1783169261789802800,1.657802734375,0.373105582883954,0.01005699137300253,0.00758968794401735
1783169261799782700,1.66778271484375,0.4131032467514276,0.03699205231070518,-0.02086962341889739
1783169261809730800,1.677730712890625,0.39058161834180355,0.03626549160182476,-0.01654810695797205
1783169261819679700,1.6876796875,0.32219197272658345,-0.0004717091649770736,0.008634265093505383
1783169261829628700,1.697628662109375,0.2668903567433357,-0.028732758009433746,-0.004415039963275194
1783169261839607800,1.70760791015625,0.24761340934336185,-0.04768471123874187,-0.038677228918671605
1783169261849556700,1.717556640625,0.21510522444844243,-0.06779986302852631,-0.04247895928919315
1783169261859506000,1.727505859375,0.17808336152136325,-0.09997399366348982,-0.04665584311503917
1783169261869453800,1.737453857421875,0.18111995273828504,-0.09951163684874773,-0.08132018313053994
1783169261879434000,1.74743408203125,0.1694230852037668,-0.09489362165927887,-0.0953049789391458
1783169261889382000,1.7573818359375,0.1252823301821947,-0.10563479590415954,-0.09957038129866122
1783169261899330800,1.767330810546875,0.05892156004607677,-0.1306599315673113,-0.10545333839002996
1783169261909310000,1.77731005859375,-0.01925239748060703,-0.13260668172091244,-0.1455728385388851
1783169261919259000,1.7872587890625,-0.08310556870996952,-0.11149755045771598,-0.18617537296433
1783169261929207800,1.797207763671875,-0.14411562546789644,-0.08005027279257775,-0.2010556563079357
1783169261939156700,1.80715673828125,-0.16424889743626117,-0.051159401611983776,-0.23214042080361394
1783169261949136000,1.817135986328125,-0.13823708882331848,-0.03704758189022541,-0.23207652525454758
1783169261959083800,1.827083740234375,-0.09250643426179886,-0.03018441812247038,-0.22815189915671943
1783169261969032700,1.83703271484375,-0.05186930344700813,-0.012693477356433868,-0.18995675466656683
1783169261978981600,1.846981689453125,-0.06754676505029202,-0.01509936945438385,-0.16221843278827144
1783169261988960800,1.856960693359375,-0.03709551268517971,-0.0291354935914278,-0.1442846984244883
1783169261998932700,1.8669326171875,0.044646366456151006,-0.029229893876612185,-0.11296104713901876
1783169262008882000,1.8768818359375,0.10025836356282233,-0.0018958967491984366,-0.08352395851882174
1783169262018860800,1.88686083984375,0.13123042493164538,0.002834638904035091,-0.06687005309881643
1783169262028810000,1.89681005859375,0.15268179376125335,0.00038490766435861584,-0.03482216092571616
1783169262038758000,1.9067578125,0.1781383065789938,0.011878361581265926,-0.017044658303260803
1783169262048707000,1.91670703125,0.21258651962578295,0.021347616194188592,0.003129530197381973
1783169262058686000,1.92668603515625,0.23763562068641184,0.025878829883038995,0.05033347218185663
1783169262068635000,1.936634765625,0.24810265416502952,0.040431671370565886,0.06413810738427564
1783169262078584000,1.946583984375,0.25420564721524713,0.06962707845568657,0.06702098761051893
1783169262088533000,1.956532958984375,0.2583767954200506,0.0844441238373518,0.06949936042279005
1783169262098512000,1.966511962890625,0.268805250453949,0.08348843054771422,0.08303336199028417
1783169262108460800,1.976460693359375,0.26520225752592086,0.08741787895113229,0.11234861432909965
1783169262118409000,1.986408935546875,0.2727121947646141,0.07951192813217639,0.11738690075725317
1783169262128387800,1.996387939453125,0.2495411625355482,0.11159545787423848,0.10836305182427167
1783169262138337000,2.0063369140625,0.21065350573658942,0.12859686155766248,0.1041462926457636
1783169262148286000,2.016285888671875,0.17292437132298946,0.14176760103702543,0.10814867842122912
1783169262158235000,2.02623486328125,0.1557598860323429,0.17831161731928585,0.0723189478881657
1783169262168213800,2.0362138671875,0.16447101575434206,0.22217121731191872,0.04289658191306516
1783169262178162700,2.04616259765625,0.1471288358092308,0.24394085831046103,0.045330987719446415
1783169262188110800,2.05611083984375,0.10147183100581168,0.22435879048407076,0.037124592649191615
1783169262198060000,2.06606005859375,0.10125263529717922,0.20001900673657655,0.02328178086085245
1783169262208039000,2.076038818359375,0.10257833094298839,0.20207652378827332,0.009377630806714296
1783169262217988000,2.085988037109375,0.09529869532883167,0.19803835431337355,0.0032335568274371325
1783169262227937000,2.09593701171875,0.06760463271737098,0.18620412413477896,0.007655337058752775
1783169262237886000,2.105885986328125,0.05594692814946174,0.1630757620036602,0.00026128128468990325
1783169262247865000,2.115864990234375,0.06384674148857593,0.17979981005042792,-0.03080227602617815
1783169262257814000,2.12581396484375,0.03448445340394973,0.18500088582485913,-0.034659243715275075
1783169262267762000,2.135761962890625,0.04227437662780285,0.1655412753343582,-0.02723976123901084
1783169262277741800,2.145741943359375,0.07768471270501613,0.13466449103355407,-0.011752981635928153
1783169262287690000,2.15568994140625,0.08289338726401328,0.1398974232509732,-0.009332038099318742
1783169262297639000,2.165638916015625,0.06921265243589877,0.13241086688786743,-0.004946954882889986
1783169262307587800,2.175587890625,0.05051321266293526,0.10141571690440178,-0.02604001179412007
1783169262317567000,2.18556689453125,0.06829144593775271,0.08893792812526226,-0.043079555530846116
1783169262327516000,2.195515869140625,0.09477671728134154,0.10355272893309593,-0.05088365341052413
1783169262337463800,2.2054638671875,0.11458850221037864,0.08774287312179803,-0.04279913115426898
1783169262347412700,2.215412841796875,0.15184475841522216,0.044990942110121245,-0.03725742524862289
1783169262357392000,2.225391845703125,0.15609890872836113,0.019952362443506715,-0.01877805796712637
1783169262367340800,2.2353408203125,0.09688450321555137,0.013570260190963744,0.001743774927407503
1783169262377290000,2.2452900390625,0.058979427713155744,0.020605565655231476,-0.008040390853583813
1783169262387269000,2.25526904296875,0.059817632102966305,0.015870353826880453,-0.04971769663738086
1783169262397218000,2.265218017578125,0.03488426637649536,0.020700550462305546,-0.08548954123705625
1783169262407167000,2.2751669921875,-0.016722002220153808,0.021644553314149377,-0.09304026714386418
1783169262417115000,2.285114990234375,-0.04127893584966659,0.047183483718335625,-0.06178602783279493
1783169262427095000,2.295094970703125,-0.044912908437848086,0.06948387059271335,-0.08696502061709761
1783169262437043000,2.30504296875,-0.07009118883609772,0.04929916069805622,-0.11972981062158941
1783169262446992000,2.314991943359375,-0.07122808391153812,0.045969724014401435,-0.11920227961614727
1783169262456940800,2.32494091796875,-0.08140402548909187,0.0609638795286417,-0.1066748064763844
1783169262466920000,2.334919921875,-0.04908347212076187,0.056769934970140455,-0.10512494668588042
1783169262476868900,2.344868896484375,-0.003729834178090095,0.07480155848413705,-0.1204663082025945
1783169262486816800,2.354816650390625,0.012374328404664993,0.09225479758828878,-0.10860007545053958
1783169262496797000,2.364796875,0.012116554251313208,0.07933423347771168,-0.09610241292715072
1783169262506744800,2.374744873046875,0.052477790734171866,0.07915829238891602,-0.097439232755173
1783169262516693800,2.38469384765625,0.1105424416899681,0.07305413029491901,-0.07549772405475377
1783169262526643000,2.394642822265625,0.09219722218215465,0.07610036612302064,-0.0480126462851651
1783169262536621800,2.404621826171875,0.03332826910614967,0.08705284503102302,-0.04289060883000493
1783169262546571000,2.414571044921875,0.06741349405944347,0.09803425777256489,-0.07671762123852968
1783169262556520000,2.42452001953125,0.12024024436175823,0.12926087842434644,-0.0897723513890989
1783169262566468000,2.434468017578125,0.12339490900039672,0.15619681614488362,-0.07566637688623741
1783169262576448000,2.444447998046875,0.0755552994608879,0.13348171098977327,-0.04184168429896235
1783169262586396000,2.45439599609375,0.07778583499193191,0.11397270839959382,-0.030420272704958912
1783169262596344800,2.4643447265625,0.10494447555243969,0.13423632874935865,-0.02851663104072213
1783169262606294000,2.4742939453125,0.07831541182398796,0.13929653474837542,-0.004521715208142996
1783169262616273000,2.48427294921875,0.06493161411583423,0.11347849514186381,0.0006738076083362102
1783169262626221800,2.494221923828125,0.10535831705033778,0.08227496310472487,-0.032198388293385505
1783169262636170000,2.504169921875,0.14357435819804668,0.09488660739660262,-0.038087154071033
1783169262646150000,2.51414990234375,0.13968027336895464,0.10175444733947515,-0.018730565563589333
1783169262656097800,2.524097900390625,0.14150982688367367,0.09613777650147676,-0.0008265139520168304
1783169262666047000,2.534046875,0.13551204777359963,0.0668392013028264,0.013377952489256857
1783169262675996000,2.543995849609375,0.1872574325799942,0.07572188819944858,0.010694412493705749
1783169262685974800,2.553974853515625,0.21662556588351725,0.10899462772607803,0.007673018845915794
1783169262695923700,2.563923828125,0.1867687722802162,0.10961626675575971,0.062275254388153546
1783169262705873000,2.573872802734375,0.18462416146695612,0.07539338689744472,0.05882292197719216
1783169262715821000,2.583821044921875,0.1930482909411192,0.07804536271095275,0.0561775220349431
1783169262725801000,2.593801025390625,0.1619464657127857,0.08482873924076556,0.061897945508360856
1783169262735749000,2.6037490234375,0.1490589270889759,0.08651157776117324,0.07652955132052303
1783169262745698000,2.613697998046875,0.1484323196232319,0.06355477280467749,0.07569105466976761
1783169262755677000,2.623677001953125,0.1574421400308609,0.04649520919322967,0.04738806637972593
1783169262765625900,2.6336259765625,0.14930851793587208,0.030078619660437105,0.022429255684744565
1783169262775575000,2.643574951171875,0.13360066119432448,0.04072159422785043,0.035988263829331846
1783169262785523000,2.65352294921875,0.11916297051906585,0.05510287854075432,0.029679391209781168
1783169262795502800,2.6635029296875,0.1096317565858364,0.04954290632605552,-0.018499679417163132
1783169262805451000,2.673450927734375,0.09338204805254936,0.027630934247374533,-0.03726239368468523
1783169262815400000,2.68339990234375,0.07397182966172695,0.03598755144327879,-0.05409413988962769
1783169262825348900,2.693348876953125,0.044941550010442734,0.05760755483806133,-0.06193287069126963
1783169262835327700,2.70332763671875,0.04473638282716274,0.06174772338271141,-0.06003931202962994
1783169262845277000,2.71327685546875,0.0503542227089405,0.036896190720796584,-0.0635953970760107
1783169262855225900,2.723225830078125,0.054418987929821014,0.0202756030485034,-0.06630304859951137
1783169262865204700,2.733204833984375,0.0524240147203207,0.022051088288426397,-0.07765316678928211
1783169262875154000,2.74315380859375,0.07226794835329055,0.047042906203866,-0.08357377074360847
1783169262885102000,2.75310205078125,0.10848960081338882,0.04441723387539386,-0.07207637130394577
1783169262895051000,2.763051025390625,0.11005728852152824,0.02913374002575874,-0.06417568118199705
1783169262905030000,2.77302978515625,0.08460369831323623,0.01993570356965065,-0.05523994892388582
1783169262914979000,2.78297900390625,0.08972411006689071,0.02168108593225479,-0.0570369153432548
1783169262924928000,2.792927978515625,0.07250058806538581,0.023451602736115455,-0.06520122483745217
1783169262934877000,2.802876953125,0.053829789865016936,0.017788462407886983,-0.07978447972955181
1783169262944855800,2.812855712890625,0.0806751266926527,0.010827391223609447,-0.09991831795349716
1783169262954805000,2.822804931640625,0.12564064210057257,-0.0018874211817979812,-0.10079904631078243
1783169262964753000,2.8327529296875,0.14029168326556682,-0.022860651105642317,-0.06429770012646913
1783169262974701800,2.842701904296875,0.12731003661751747,-0.04049626103937626,-0.05022533563226461
1783169262984681000,2.852680908203125,0.08646423148810863,-0.03682604809403419,-0.019903408735245466
1783169262994630000,2.8626298828125,0.05939385373294353,-0.028178923518955706,-0.026898254324961453
1783169263004618800,2.87261865234375,0.0543453381717205,-0.02407265724390745,-0.02543430098593235
1783169263014597600,2.88259765625,0.038519992530345916,-0.02538227853775024,-0.02520809101462364
1783169263024546600,2.892546630859375,0.023120763346552848,-0.017420213617384432,-0.021928649218846113
1783169263034494700,2.90249462890625,0.012457330513000488,-0.006114098966121673,-0.033075609519332645
1783169263044443600,2.912443603515625,0.00933013840317726,0.018919220003485678,-0.028665099600702522
1783169263054422500,2.922422607421875,0.007189034721255302,0.0478401940613985,-0.013596125284582376
1783169263064371700,2.932371826171875,0.021379472637176513,0.05456161127090454,0.005394844780862331
1783169263074320600,2.942320556640625,0.03871113118827343,0.04106587762087583,0.028180951079260556
1783169263084269600,2.95226953125,0.04062602489888668,0.04389905522018671,0.04058479783935472
1783169263094248400,2.96224853515625,0.03442833930253982,0.04302899438738823,0.039462826338410376
1783169263104197400,2.972197265625,0.044886020430922505,0.05907032086700201,0.03503726498112082
1783169263114145500,2.9821455078125,0.0844002846956253,0.07026099244505167,0.02843421345427632
1783169263124125400,2.99212548828125,0.11945815407335758,0.08393062135726213,0.03157790004117414
1783169263134073600,3.002073486328125,0.10824410161972045,0.08062748815864323,0.050541689838748426
1783169263144022800,3.012022705078125,0.050232642155885694,0.059657765366137025,0.0696678488574922
1783169263153971700,3.0219716796875,0.018952537751197814,0.04155015400648117,0.06609510493725537
1783169263163950600,3.03195068359375,0.05311608863770961,0.05780278514921665,0.03426960507687181
1783169263173899800,3.041899658203125,0.08988543810844421,0.05546586663424968,0.026494623693823813
1783169263183847700,3.05184765625,0.10218377866744995,0.039110359638929365,0.04070858861580491
1783169263193796600,3.061796630859375,0.10372750097811222,0.03833528361320496,0.029681729297339914
1783169263203775700,3.071775634765625,0.11268296085000037,0.03730331021696329,0.02968479803726077
1783169263213724700,3.081724609375,0.12343757909834384,0.03853519009947776,0.024214988324046133
1783169263223673600,3.091673583984375,0.1428448748797178,0.05131722252219915,0.015382972168736159
1783169263233652500,3.101652587890625,0.13581190750300884,0.06719546739459037,0.021128712746500966
1783169263243601700,3.1116015625,0.1381751295030117,0.07916939830482006,0.005885550907254219
1783169263253550600,3.121550537109375,0.14446926121115683,0.09719371529519558,-0.0010309504829347134
1783169263263498500,3.13149853515625,0.1501654270261526,0.09479980589598416,0.0024405250199139115
1783169263273478400,3.141478515625,0.14697861368358134,0.09532499881386756,-0.0007509644977748394
1783169263283426600,3.151426513671875,0.13283026134371756,0.10434709418117999,-0.006330664326250552
1783169263293375500,3.16137548828125,0.12752747876048087,0.09614917467832565,-0.00595408609881997
1783169263303324700,3.17132470703125,0.1333867261826992,0.08795037839263677,-0.019366963770985603
1783169263313303600,3.181303466796875,0.12192483644783496,0.11324322508126497,-0.032472821320593356
1783169263323252700,3.191252685546875,0.12752046449780463,0.130069272197783,-0.040720461716689166
1783169263333200600,3.20120068359375,0.13086743683815003,0.11441548373103141,-0.03255933056026697
1783169263343180500,3.2111806640625,0.10768588321506976,0.10197919600605965,-0.03333002267181873
1783169263353128700,3.221128662109375,0.08980477408766746,0.11041238556951284,-0.02597147660255432
1783169263363077600,3.23107763671875,0.11638766058683395,0.11852379583269357,-0.009383914417028426
1783169263373026600,3.241026611328125,0.1584177070647478,0.08822861081212759,-0.0007654679471626877
1783169263383005700,3.251005615234375,0.17939912029504776,0.09020078766793012,0.024724399150907992
1783169263392954600,3.26095458984375,0.18533669365048408,0.08684124810695648,0.021846505627036092
1783169263402903600,3.270903564453125,0.1631102487951517,0.08715981253683566,0.02530482938736677
1783169263412851500,3.2808515625,0.14603636439740658,0.05781535236984491,0.04792213672380894
1783169263422831600,3.29083154296875,0.12543255230784414,0.05623802005052566,0.037896015413105485
1783169263432779500,3.300779541015625,0.09926935252547263,0.0689259444490075,0.020272680439054964
1783169263442728400,3.310728515625,0.06171849728822708,0.04070084370076656,-0.017736768753267823
1783169263452677400,3.320677490234375,0.05036474410295486,0.037924364724755286,-0.049070612639188764
1783169263462656500,3.330656494140625,0.07779810995161533,0.07778817307949065,-0.06806366506386548
1783169263472605700,3.340605712890625,0.07142565231025219,0.07904109575003385,-0.06407313412297516
1783169263482553600,3.3505537109375,0.07995499572455883,0.07364040575027465,-0.048637774179875845
1783169263492533800,3.36053369140625,0.10849778411984443,0.07762012303620576,-0.031697599164396524
1783169263502481700,3.370481689453125,0.11195640014111995,0.08023848884105682,-0.0113185357414186
1783169263512430600,3.3804306640625,0.11552607532143593,0.0860690946906805,-0.005880874732136726
1783169263522379500,3.390379638671875,0.10723229422867298,0.0894175283357501,0.0025587445721030233
1783169263532358700,3.400358642578125,0.10646773959696293,0.0771153883844614,0.0063892261130735276
1783169263542307600,3.4103076171875,0.08232406294345855,0.08273089017868042,0.006615764877945184
1783169263552256500,3.420256591796875,0.04994739547371864,0.1162239944577217,-0.008226268814504147
1783169263562204700,3.43020458984375,0.043377369433641434,0.1329708388581872,-0.031787469404935834
1783169263572184600,3.4401845703125,0.04348901311457157,0.1289028587669134,-0.05272825836390257
1783169263582132500,3.450132568359375,0.022663082706928253,0.1133373331055045,-0.0498607401035726
1783169263592081700,3.46008154296875,0.042625674283504486,0.10746084228754042,-0.03135024703145027
1783169263602060500,3.470060546875,0.061220484638214105,0.11510288147330283,-0.006690474081970751
1783169263612009500,3.480009521484375,0.06269406432211398,0.12012538581043482,-0.0024538228929042814
1783169263621958400,3.48995849609375,0.0350958633005619,0.13006079663038253,-0.009767506907135248
1783169263631906600,3.499906494140625,0.021409867775440215,0.1257385495170951,0.006456190402060746
1783169263641886500,3.509886474609375,0.04387362851798534,0.09990969625562429,0.014541881702095269
1783169263651834400,3.51983447265625,0.039841596522927285,0.10279168143272399,0.0018114333361387252
1783169263661783800,3.52978369140625,0.016543723043799398,0.125423492218554,-0.007142565231025219
1783169263671732700,3.539732666015625,-0.0065390463799238204,0.12633593088835476,0.003321362975053489
1783169263681711600,3.549711669921875,-0.039164135652780534,0.10745061315447091,-0.0011569149501621722
1783169263691660500,3.55966064453125,-0.03946691799163818,0.1068827501386404,-0.009518938973546028
1783169263701609700,3.569609619140625,-0.05851297924518585,0.13190583997517824,-0.018876257644593716
1783169263711588600,3.579588623046875,-0.052232876062393185,0.11881021155864,-0.021033435678482055
1783169263721537500,3.58953759765625,-0.014981880554556846,0.0916176687285304,-0.039348552308976645
1783169263731485700,3.599485595703125,0.006522095245122909,0.09055091627985239,-0.07277330405954271
1783169263741434600,3.6094345703125,0.020817747101187705,0.11024287422150372,-0.07981397981867194
1783169263751413500,3.61941357421875,0.06494739620685577,0.11258037725836038,-0.06683426939938217
1783169263761362400,3.629362548828125,0.13050854039788246,0.08885083436369895,-0.05698664646074175
1783169263771311600,3.6393115234375,0.14198679674565792,0.0861433289706707,-0.03893792568147182
1783169263781260500,3.649260498046875,0.19018354915976524,0.08131547042280435,-0.027063801883906124
1783169263791239400,3.659239501953125,0.21776246095895765,0.062135553656518454,0.006139379537850618
1783169263801187600,3.6691875,0.24425357752144336,0.0428667895630002,0.03757467450425028
1783169263811136500,3.679136474609375,0.2581207748323679,0.04342383892387151,0.062305612993799143
1783169263821115400,3.689115478515625,0.24696459004580973,0.036112346866726874,0.07798906594645232
1783169263831064600,3.699064697265625,0.19677870964109898,0.03737988258451223,0.10250877283811569
1783169263841013800,3.709013671875,0.14438275197148323,0.028069033403694627,0.10594970707222819
1783169263850962700,3.718962646484375,0.11138006155788897,0.02856996866315603,0.06842745687495917
1783169263860941600,3.728941650390625,0.10059212556183338,0.042699324041604994,0.024787673645466565
1783169263870890500,3.738890380859375,0.10683657290935515,0.059603404830396174,-0.01293327746167779
1783169263880838700,3.748838623046875,0.11947685877382755,0.02837561513483524,-0.03658142568320036
1783169263890787600,3.75878759765625,0.15104688603579997,0.0005368833556771278,-0.05275660767555237
1783169263900766700,3.7687666015625,0.16270868225693702,-0.022654314878582955,-0.02614201086387038
1783169263910715600,3.778715576171875,0.167462598785758,-0.06177344234585762,-0.01481105403229594
1783169263920664600,3.78866455078125,0.1961281367778778,-0.08834960684329271,-0.00816986245214939
1783169263930613500,3.798613525390625,0.16765315292179583,-0.09460925175994635,-0.000867138223350048
1783169263940592600,3.808592529296875,0.0955804348796606,-0.05747720645666122,-0.012007248657941817
1783169263950541600,3.81854150390625,0.06045534548461437,-0.047046413335204124,-0.05057078806906938
1783169263960489500,3.828489501953125,0.13482348098754882,-0.03216244019716978,-0.10113310057073831
1783169263970469400,3.838469482421875,0.2143102746784687,-0.015530162087082862,-0.12156754744276403
1783169263980417500,3.84841748046875,0.2164233213096857,-0.040190556091070175,-0.0871357010088861
1783169263990366700,3.85836669921875,0.2118184578627348,-0.08161269980370998,-0.053924628541618586
1783169264000335000,3.868335205078125,0.2267880634576082,-0.12625614365041254,-0.008744301339238881
1783169264010314000,3.87831396484375,0.21945056017637252,-0.13364157772660254,0.02501169165968895
1783169264020263000,3.888262939453125,0.2016875244706869,-0.15014876815229652,0.021713380766659972
1783169264030211000,3.898211181640625,0.22510580945909023,-0.12010346623957156,-0.006732230864465236
1783169264040160000,3.908159912109375,0.23035306246280668,-0.06341361076831817,-0.02478562781885266
1783169264050139000,3.918138916015625,0.2720119375407696,-0.06116115566641092,-0.01818359920531511
1783169264060087800,3.928087890625,0.2411702245533466,-0.06561492020487784,0.008538841895014047
1783169264070037000,3.938037109375,0.14820260252058506,-0.050882922758162016,0.056071102518402034
1783169264080016000,3.948015869140625,0.10211422056257724,-0.012865619052946567,0.11979893033504485
1783169264089964800,3.95796484375,0.016876315999031066,0.005301613539457321,0.15217472102195023
1783169264099914000,3.9679140625,0.08272972113490104,-0.04301145873069763,0.004577098657190799
1783169264109862000,3.97786181640625,0.14979250206053257,0.0027019524350762364,-0.24426179736051706
1783169264119842000,3.987842041015625,0.007089081478118896,0.04849076692461967,-0.3032347588002682
1783169264129790000,3.9977900390625,-0.040409751799702645,-0.04740618655830622,-0.09782967511117457
1783169264139739100,4.0077392578125,0.0469470446139574,-0.1537871246546507,0.1413034906566143
1783169264149688000,4.01768798828125,0.1353127258092165,-0.15601356853246687,0.20531389827430246
1783169264159667000,4.0276669921875,0.2869084778994322,-0.09246317964196205,0.06841931010112166
1783169264169616000,4.037615966796875,0.29272096357047556,-0.017016308991611002,-0.19999679490476846
1783169264179564000,4.04756396484375,0.07948328655958176,0.03287935629487038,-0.28326369165629145
1783169264189544000,4.0575439453125,-0.012306523865461348,0.05478986706882715,-0.15920695774629712
1783169264199492000,4.0674921875,0.015803133809566498,0.030142624807357785,-0.024175094705075024
1783169264209441000,4.07744091796875,0.11190262412726878,-0.016087211447954178,-0.04274140961766243
1783169264219390000,4.087389892578125,0.24251871655285356,0.008728665378689765,-0.06748992029651998
1783169264229368800,4.097368896484375,0.2426619244158268,0.041084582321345806,-0.07764818008691073
1783169264239318000,4.107318115234375,0.2183271091043949,0.03087707656174898,-0.07393471252173185
1783169264249267000,4.117266845703125,0.1791401770979166,0.02518675596565008,0.019566139604896306
1783169264259214800,4.12721484375,0.0538356350839138,0.045752281871438025,0.04127528258785605
1783169264269195000,4.137195068359375,0.07359189043343067,0.04375964674949646,0.011423457420617341
1783169264279143000,4.147142822265625,0.03739128076136112,0.03700082013905048,-0.011285948646068572
1783169264289092000,4.157092041015625,-0.03853519009947776,0.04987228441089391,-0.020010668502002952
1783169264299071000,4.167071044921875,0.01833528263568878,0.06860270384401082,0.001698766741901636
1783169264309020200,4.177020263671875,0.08761690865457057,0.08981997165679931,0.00701309363245964
1783169264318969000,4.186968994140625,0.0654991848707199,0.09442629640847444,0.001620733069628477
1783169264328917000,4.1969169921875,0.011579963156580924,0.06477233190089464,-0.020650719971209763
1783169264338897000,4.20689697265625,-0.022699907585978507,0.05570727417469024,-0.03503594980686903
1783169264348845000,4.216844970703125,-0.03217500741779804,0.07606880194097757,0.010436346079409122
1783169264358794000,4.2267939453125,0.06191548116505146,0.06292904212176799,0.003974310458451509
1783169264368743000,4.236742919921875,0.1592284389257431,0.06841244196891784,-0.043211072956025595
1783169264378722000,4.24672216796875,0.12259177592396736,0.06915332346409558,-0.07576824809182435
1783169264388671000,4.2566708984375,0.0898158800035715,0.04624912547767162,-0.03166753281969577
1783169264398620000,4.266619873046875,0.1473380946457386,-0.004845686465501785,0.022074176903069016
1783169264408598800,4.276598876953125,0.25938509567976,-0.013690379439294338,0.029511195036023855
1783169264418548000,4.2865478515625,0.2850017674952745,0.01705956361144781,0.008258709779381751
1783169264428496000,4.296495849609375,0.2383960836648941,0.007362637722492218,0.011261690987646579
1783169264438444800,4.30644482421875,0.21788462603390216,-0.02704991948902607,0.044095600705593825
1783169264448424000,4.316423828125,0.22569676108956335,-0.04397387402206659,0.06518277586530893
1783169264458373000,4.326373046875,0.21273966436088085,-0.04808393968939781,0.06175017106812447
1783169264468322000,4.336322021484375,0.1347065766096115,-0.050583647550642485,0.03992280853297561
1783169264478270000,4.34627001953125,0.0917985782533884,-0.04370470169186592,0.010314911656826733
1783169264488250000,4.35625,0.027951252242922782,-0.043213411043584345,-0.009049860157072544
1783169264498198000,4.366197998046875,-0.02290799737870693,-0.05773410382717847,-0.018916772318072615
1783169264508147000,4.37614697265625,-0.08303484156131744,-0.07142857491970062,0.005323679240792989
1783169264518126000,4.3861259765625,-0.18704934278726576,-0.033518530981242654,0.016304653590917588
1783169264528075000,4.396074951171875,-0.25489246043562885,-0.018260756094753743,0.02732362186387181
1783169264538024000,4.40602392578125,-0.2635480605781078,0.007242226213216781,0.013532120137661694
1783169264547972900,4.415972900390625,-0.28300211811065673,0.042081776665151116,0.005636982973664999
1783169264557952000,4.425951904296875,-0.29103987861573694,0.05702011033892631,-0.034618053188361225
1783169264567901000,4.43590087890625,-0.25055823062360283,0.08683277253955603,-0.07966536512821912
1783169264577848800,4.445848876953125,-0.20097966846227644,0.10037848281115293,-0.08593786952644586
1783169264587797800,4.4557978515625,-0.14315817861258984,0.12152853060662745,-0.10606894953772425
1783169264597777000,4.46577685546875,-0.09620178164839745,0.12615268327593804,-0.11431304626986384
1783169264607725800,4.475725830078125,-0.003155249160528183,0.10849164664000271,-0.12045797876566648
1783169264617675000,4.485675048828125,0.08835866693258285,0.08872077824324369,-0.11582286631092428
1783169264627624000,4.4956240234375,0.13785013533234594,0.0869648744866252,-0.09386519192699343
1783169264637603000,4.50560302734375,0.18417583317756653,0.08055003900825977,-0.0918073460817337
1783169264647551000,4.515551025390625,0.2622890004277229,0.06810790606439113,-0.09817293559089302
1783169264657500000,4.5255,0.32975685502290725,0.04894640173763037,-0.08712225700542331
1783169264667479000,4.53547900390625,0.35759821715056894,0.046859950852394104,-0.09891893165260553
1783169264677428000,4.545427978515625,0.3459738303303718,0.03788344819247722,-0.11987038813605903
1783169264687377000,4.555376953125,0.31573359036743637,0.040624563594162465,-0.1040183006182313
1783169264697325800,4.565325927734375,0.3069265990555286,0.01803980682045221,-0.09852730198651552
1783169264707305000,4.575304931640625,0.2993862666785717,0.02859656440913677,-0.09844488440006971
1783169264717254000,4.58525390625,0.28327918148636816,0.02809592141062021,-0.11962357376813888
1783169264727202000,4.5952021484375,0.26112463282346726,0.008315700663626193,-0.1532904271788895
1783169264737151000,4.60515087890625,0.22159634003341197,-0.012122983992099762,-0.15181787040829658
1783169264747129900,4.6151298828125,0.18994740231633186,-0.013019932831823825,-0.16495821474939584
1783169264757078800,4.625078857421875,0.21383096672892568,0.0137029466599226,-0.16929726686701177
1783169264767028000,4.635028076171875,0.2008031428515911,0.017864157992601392,-0.1590090970866382
1783169264777006800,4.6450068359375,0.13383680803775785,0.023296412174403668,-0.13840882866103202
1783169264786956000,4.6549560546875,0.11444938600063323,0.007380173379182815,-0.10610913541764021
1783169264796905000,4.664905029296875,0.14117548036277294,0.0025508535265922547,-0.08156666870489716
1783169264806853000,4.67485302734375,0.14659049114882944,-0.023144728744029997,-0.05353986700773239
1783169264816832000,4.68483203125,0.07060849070847033,-0.008598316997289657,-0.019340514155477283
1783169264826781000,4.694781005859375,0.03799684543907642,0.008986147271096706,-0.017760551487654447
1783169264836730000,4.704730224609375,0.031606267619132995,0.01837269203662872,-0.012196926011145115
1783169264846679000,4.714678955078125,-0.008875964894890785,0.021550445289909837,0.014860153871029614
1783169264856658000,4.724657958984375,-0.029556349352002142,0.0162932554140687,0.028437410058360545
1783169264866606800,4.73460693359375,-0.0493564438432455,0.03552168749719858,0.040671014818083495
1783169264876555000,4.744554931640625,-0.05205050523281097,0.06405073962807654,0.04661898170337081
1783169264886535000,4.754534912109375,-0.020014029502868652,0.10741495731920003,0.03925398762701079
1783169264896483000,4.764483154296875,-0.022333412361145017,0.12189385678768157,0.0507028717498295
1783169264906432000,4.774431884765625,0.012339841613173485,0.1300228027075529,0.05475479575544595
1783169264916381000,4.784380859375,0.07317863345742225,0.14992664983421564,0.05189339670864865
1783169264926359800,4.79435986328125,0.08145429437160491,0.1699178829833865,0.06644231093972922
1783169264936308700,4.804308837890625,0.0891495250493288,0.18407675671726464,0.08823473002566024
1783169264946258200,4.814258056640625,0.08163081998229026,0.1784948649317026,0.0910026055701077
1783169264956205800,4.824205810546875,0.08588555481731891,0.18659166214764117,0.06760960115343331
1783169264966186000,4.83418603515625,0.09682137485146522,0.20855741024017332,0.06291472133547067
1783169264976134100,4.844134033203125,0.04586801720559597,0.21201018104255198,0.06894757175892591
1783169264986083000,4.8540830078125,0.00473871895968914,0.19980302589833734,0.06722045570537448
1783169264996062000,4.86406201171875,0.011593991681933402,0.18212386908382178,0.05493042631698772
1783169265006037200,4.874037353515625,0.04673486316800117,0.1786293049663305,0.0453416552439332
1783169265015986200,4.883986083984375,0.032952421531081195,0.17676818726956844,0.045844490199536084
1783169265025934300,4.893934326171875,-0.03610299451649189,0.14595570037662983,0.09080764925358817
1783169265035914200,4.903914306640625,-0.07657996633350848,0.1523249431475997,0.09674113095579669
1783169265045862100,4.913862060546875,-0.09138765936493873,0.1982601803705096,0.0460235000282526
1783169265055811300,4.923811279296875,-0.06650456252098083,0.24436375989764927,-0.016050532699376344
1783169265065760300,4.93376025390625,0.03504500989615917,0.25580489910542964,-0.04407148917764425
1783169265075739400,4.943739501953125,0.11271277146637439,0.2803650476053357,-0.0675973261937499
1783169265085688300,4.953688232421875,0.13885551298260687,0.29241029018610715,-0.074230042206496
1783169265095637200,4.96363720703125,0.17560323514342308,0.26721885804533957,-0.05027677355855703
1783169265105616400,4.973616455078125,0.2030734258711338,0.24924159506708382,-0.0227208042435348
1783169265115565300,4.9835654296875,0.22617080834209918,0.25203531743884083,-0.0012893091581761837
1783169265125513200,4.99351318359375,0.29095278485417364,0.2565814364358783,0.005161017758678645
1783169265135462400,5.00346240234375,0.44204175646603105,0.20624416486173866,-0.0026918876987881957
1783169265145441300,5.013441162109375,0.554259437891841,0.1481549639865756,0.05071721080243587
1783169265155390200,5.02339013671875,0.5542863258987665,0.0992494787812233,0.107002869386971
1783169265165339100,5.033339111328125,0.5405559067100286,0.03477203817367554,0.1521393574476242
1783169265175287300,5.043287353515625,0.5150467869222164,-0.005071019653975963,0.16435820302963255
1783169265185267200,5.05326708984375,0.39492636954784394,-0.04442103326767683,0.16256693569868802
1783169265195215000,5.063215087890625,0.2881868272721767,-0.07000935577154159,0.17230638555511832
1783169265205164300,5.073164306640625,0.21966391066610813,-0.05764964041411876,0.10993848444744944
1783169265215113500,5.083113525390625,0.22799042498469352,-0.03997954368889332,0.038026363794505594
1783169265225092400,5.09309228515625,0.22540391562283038,-0.01757540417909622,0.008156710709631443
1783169265235041300,5.103041259765625,0.18454349744617937,-0.02863572737574577,0.021447715567797423
1783169265244990500,5.112990478515625,0.1309732353001833,-0.054961716504395006,0.04240397609053179
1783169265254969300,5.12296923828125,0.06982055520117282,-0.0623775457188487,0.05133271235227584
1783169265264918300,5.132918212890625,0.03988134401142597,-0.05628975023776293,0.039021804572641844
1783169265274866400,5.142866455078125,0.05123100554347038,-0.05049363117963075,0.013712006749212741
1783169265284815400,5.1528154296875,0.04333762194514274,-0.04464928906559944,-0.002798562943655997
1783169265294794200,5.162794189453125,0.013444003462791442,-0.03261778274923563,-0.01235898470506072
1783169265304743200,5.1727431640625,-0.040895489490032196,-0.029097791929543017,-0.03942220206707716
1783169265314692400,5.1826923828125,-0.015550620353221892,-0.008426467561721801,-0.0826268452823162
1783169265324640300,5.19264013671875,-0.029092238971590995,0.031362229730188845,-0.0787791020792909
1783169265334620200,5.2026201171875,-0.09416822999417782,0.036655659963190555,-0.044607934141904115
1783169265344568300,5.212568359375,-0.08206161261498927,0.036706805628538126,-0.03468510880889371
1783169265354517200,5.222517333984375,-0.00046411038041114806,0.0317757789671421,-0.03373918799459934
1783169265364496100,5.23249609375,0.07472937003076076,0.026490532040596006,-0.021229688902944324
1783169265374445300,5.2424453125,0.12428162870705127,0.0075695584714412685,-0.0031128713235259054
1783169265384394500,5.25239453125,0.1377566118299961,0.014340075519680976,0.014202566745132207
1783169265394343400,5.262343505859375,0.13870996703207492,0.02417904022783041,0.04835996188549325
1783169265404322300,5.272322265625,0.12404606638550758,0.005687982508540153,0.042167847513407464
1783169265414271200,5.282271240234375,0.1390630182534456,0.0012657821521162985,0.01505785013390705
1783169265424219400,5.292219482421875,0.16299802059233187,0.04416998111605644,-0.004569646003097295
1783169265434168300,5.302168212890625,0.16362287449240684,0.0784331929847598,-0.010628379786480218
1783169265444147500,5.3121474609375,0.14290917228758335,0.0936854149132967,-0.01278071724846959
1783169265454096400,5.322096435546875,0.1250730713456869,0.09195932177305222,-0.01995455440059304
1783169265464045300,5.33204541015625,0.1182633913308382,0.07708762359470128,-0.02634863935187459
1783169265474024200,5.342024169921875,0.1303846217572689,0.06212766261100769,-0.002324789685755968
1783169265483973400,5.351973388671875,0.14816343955397604,0.034405542948842044,0.0055846682645380495
1783169265493921300,5.36192138671875,0.1529103418201208,0.0014426000237464905,-0.014902970099449157
1783169265503870200,5.3718701171875,0.15200725550055502,-0.011235972024500369,-0.019779069969523697
1783169265513849300,5.381849365234375,0.12916530909538268,-0.005465571929514408,-0.006683569417148828
1783169265523798300,5.39179833984375,0.10717501108348369,0.00426642527282238,-0.011459405516833067
1783169265533747200,5.401747314453125,0.0787356830626726,-0.005680968245863914,-0.028761399582028387
1783169265543696400,5.4116962890625,0.04598024540841579,0.00001052139401435852,-0.02089358881637454
1783169265553675500,5.421675537109375,0.037521044620871545,0.01575344944894314,-0.019328239195793864
1783169265563624400,5.43162451171875,0.0420627797037363,0.022448563173413275,-0.0258504805713892
1783169265573572400,5.441572265625,0.049499651706218714,0.024018296708166596,-0.02966888808207586
1783169265583552300,5.45155224609375,0.03227612970471382,0.026730770537257195,-0.03200973385348916
1783169265593500400,5.46150048828125,0.019459318229556082,0.0506397616520524,-0.0018067571610212326
1783169265603449300,5.471449462890625,0.01609013405740261,0.0659676791653037,0.005181055899709463
1783169265613398300,5.481398193359375,0.024207389539480206,0.07300766080468893,0.01342164550051093
1783169265623377400,5.49137744140625,0.023285598519444464,0.10121727172285318,0.027068185798078775
1783169265633326300,5.501326416015625,0.05111994638442993,0.11281301697045563,0.026805863333772866
1783169265643275300,5.511275146484375,0.09072305797636508,0.12763590757101773,0.018253285174351184
1783169265653223200,5.52122314453125,0.06290040054917335,0.15301555576026438,0.03246376123130321
1783169265663202300,5.531202392578125,0.03545709782838821,0.1547445715099573,0.027883009312301872
1783169265673151200,5.541151123046875,0.08970540536642074,0.13838818773180245,0.011523556794226168
1783169265683100200,5.55110009765625,0.11216916610896586,0.14335253214091062,0.002015559339802712
1783169265693079300,5.561079345703125,0.12489128503799438,0.1481698692947626,0.014005710732471198
1783169265703028200,5.5710283203125,0.14134382266700268,0.13753186316341162,0.00419392629219219
1783169265712977400,5.580977294921875,0.14648469268679618,0.12312719797492026,0.0014643734641373158
1783169265722925300,5.59092529296875,0.16326105544269084,0.13058832763582467,0.004023994819074869
1783169265732905500,5.600905517578125,0.17421616469919682,0.14234803127348422,0.008312047401815653
1783169265742853400,5.610853271484375,0.16663783839941024,0.13391893336325883,0.0012137414376251399
1783169265752802300,5.62080224609375,0.1638198583692312,0.11772300084382295,-0.02305602754727006
1783169265762751200,5.630751220703125,0.16990473124086855,0.09928104296326637,-0.044754503005743025
1783169265772730400,5.64073046875,0.1542056423276663,0.10181143822371959,-0.06579526347415521
1783169265782679300,5.65067919921875,0.15604805532395838,0.11553308958411217,-0.06873305222541093
1783169265792628200,5.660628173828125,0.18380290821194648,0.10385784935951232,-0.08455503686591982
1783169265802607400,5.670607421875,0.20330255845189094,0.06212240191400051,-0.09911503874659537
1783169265812556300,5.680556396484375,0.23268238219320772,0.05134703313857317,-0.1018216673567891
1783169265822504200,5.690504150390625,0.25529461149573324,0.051287119644880294,-0.1038159099139273
1783169265832453400,5.700453369140625,0.24441432104110716,0.03231646171510219,-0.08702186537086963
1783169265842432300,5.710432373046875,0.2300561253428459,0.01603781934827566,-0.07453094311552122
1783169265852381200,5.720381103515625,0.2643675602674484,-0.007127367661893367,-0.06842851632088423
1783169265862330000,5.730330078125,0.27557050680518147,-0.0011614449948072433,-0.0744663351804018
1783169265872278300,5.7402783203125,0.2807937944114208,0.011781330947577953,-0.07703766523944214
1783169265882258200,5.750258056640625,0.2962830399662256,-0.0009422492861747741,-0.06442819463834167
1783169265892206000,5.7602060546875,0.30439094309806825,-0.02760930693745613,-0.06251841549426317
1783169265902155500,5.770155517578125,0.30622634183168407,-0.03053600803911686,-0.05787906525582075
1783169265912104400,5.7801044921875,0.2784299878895283,-0.0352180283755064,-0.041551469180732964
1783169265922083300,5.790083251953125,0.22948913910984992,-0.029336276860535145,-0.04057197489039972
1783169265932032300,5.8000322265625,0.12773030785620212,-0.015947802977263927,-0.04140594149651006
1783169265941981400,5.8099814453125,0.05066285026669502,0.0023299042522907255,-0.054925476147234434
1783169265951960300,5.819960205078125,0.041809097203612325,0.01907470282614231,-0.09153466662019491
1783169265961909200,5.8299091796875,0.05108779768049717,0.03436053476333618,-0.09946414444521069
1783169265971857400,5.839857421875,0.06221943254768848,0.03712064712643623,-0.08801189932152628
1783169265981806300,5.849806396484375,0.04767302080094814,0.04209697423428297,-0.04930325235128402
1783169265991785200,5.85978515625,0.0529249499797821,0.058635144320130346,0.0008883271418511867
1783169266001763800,5.869763916015625,0.08584463828504085,0.075655837225914,0.033754531694203616
1783169266011712800,5.879712646484375,0.12826222277581692,0.0973646879479289,0.015672493167221545
1783169266021661000,5.889660888671875,0.19713585251569746,0.13165946399867534,0.006854249808937311
1783169266031640800,5.899640869140625,0.2716051103055477,0.14273089311122894,0.018534458469599484
1783169266041588700,5.909588623046875,0.311819631794095,0.11801321596205235,0.02875526210218668
1783169266051537700,5.91953759765625,0.30287820044755936,0.10501286461353301,0.028433482801914215
1783169266061516800,5.929516845703125,0.22549217842817304,0.09532382977008819,0.04244929480329156
1783169266071465700,5.9394658203125,0.15356500633656978,0.08970365180075168,0.058712301209568975
1783169266081414700,5.94941455078125,0.11668985840380192,0.09774521169811487,0.046832313926797355
1783169266091363800,5.95936376953125,0.11005378139019012,0.10724778405874967,0.014491758950054645
1783169266101342700,5.9693427734375,0.08929390195608139,0.10702508121877909,-0.029699575481284407
1783169266111292000,5.9792919921875,0.11582067435383796,0.08578852418363093,-0.0536678955678828
1783169266121239800,5.98923974609375,0.1365226861208677,0.055200493696331975,-0.05199760600179434
1783169266131189000,5.99918896484375,0.09274141206145287,0.012422551460564136,-0.024738135415315627
1783169266141167900,6.00916796875,0.04584405180811882,-0.029496143597364424,0.01973404351770878
1783169266151116800,6.01911669921875,-0.01891688191592693,-0.04371288499832153,0.05309256163164973
1783169266161065700,6.029065673828125,-0.09833119489252566,-0.017869418689608573,0.02021189016252756
1783169266171044900,6.039044921875,-0.14656769479513168,0.03845364929586649,-0.034968875920027495
1783169266180993800,6.048993896484375,-0.16868541857898234,0.08051467543393373,-0.09269479644075035
1783169266190941700,6.058941650390625,-0.17782091119289398,0.0834308551415801,-0.12737550306916237
1783169266200891000,6.068890869140625,-0.16059855823516844,0.0895087137505412,-0.12505904282033442
1783169266210869800,6.078869873046875,-0.1225637188732624,0.08607026373445988,-0.10565101638659834
1783169266220818700,6.088818603515625,-0.13052023083567618,0.06390782402604818,-0.07694647982465103
1783169266230767600,6.098767578125,-0.11395721856951713,0.02446311786621809,-0.05132131417542696
1783169266240716800,6.108716796875,-0.03701484866440296,0.0014671499431133269,-0.0323468568533659
1783169266250695700,6.11869580078125,-0.0186567696750164,0.018240882350504396,-0.038858284574002026
1783169266260644900,6.128644775390625,0.01916764180660248,0.04876256960332393,-0.07811214433684945
1783169266270592800,6.1385927734375,0.07324585347473621,0.05317863247990608,-0.09966291842032224
1783169266280573000,6.148572998046875,0.08346154254078865,0.04052840974330902,-0.11011413327530026
1783169266290520800,6.158520751953125,0.10269289723336696,0.056448740191757676,-0.08793620373681187
1783169266300469800,6.1684697265625,0.10940437757074832,0.08645312557220458,-0.08401566929221153
1783169266310419000,6.1784189453125,0.12582067484259604,0.088798519654572,-0.07112597524393349
1783169266320397800,6.188397705078125,0.15047639267146587,0.08480214349478482,-0.037584026854485274
1783169266330346800,6.1983466796875,0.1558037251740694,0.07679390134513378,-0.00621770547106862
1783169266340295000,6.208294921875,0.16456746186614035,0.07776070055067538,-0.015011398909986018
1783169266350243800,6.218243896484375,0.19884908617436883,0.08954407732486724,-0.03910495281144977
1783169266360222700,6.22822265625,0.1675116986244917,0.09999912810474633,-0.06396368239913136
1783169266370172000,6.238171875,0.1118237136721611,0.10653554413616656,-0.07820625236108898
1783169266380120800,6.248120849609375,0.08102291721701621,0.12495587470680475,-0.07720657379925251
1783169266390099700,6.258099609375,0.07911679133474826,0.12971739002019167,-0.09824848504513502
1783169266400048600,6.268048583984375,0.01895195322930813,0.13354279352724552,-0.09840835178196429
1783169266409997800,6.277997802734375,-0.02978255932331085,0.10373188489228487,-0.07035963051393627
1783169266419945700,6.28794580078125,0.018267478096485136,0.08201952703893184,-0.06439023724813014
1783169266429925600,6.297925537109375,0.09642799161970615,0.0894087605074048,-0.03121536860540509
1783169266439873800,6.307873779296875,0.12503683098852633,0.08694704656898974,-0.00965133318156004
1783169266449823000,6.317822998046875,0.10192425094842911,0.07589227633029222,0.022318945444375276
1783169266459772000,6.32777197265625,0.07438157950639725,0.06467120961397886,0.043122956281155346
1783169266469750800,6.337750732421875,0.07186229016184806,0.08147884429097176,0.06283508022800087
1783169266479700000,6.347699951171875,0.04788169511556625,0.11138502999395132,0.07750058830976486
1783169266489649000,6.35764892578125,0.010243746116757392,0.1207119535267353,0.07387085350528359
1783169266499596800,6.3675966796875,-0.05119476518630981,0.13351473647654055,0.07364113640263677
1783169266509576000,6.377575927734375,-0.09455284539759158,0.18318273048698902,0.054594782888144254
1783169266519524900,6.38752490234375,-0.10771686287522315,0.2116363792940974,0.03360109469816089
1783169266529473800,6.397473876953125,-0.09484919799566269,0.19869974083155392,0.011668079831451177
1783169266539452700,6.40745263671875,-0.06984101346731185,0.1765951687902212,0.021614413904212412
1783169266549401900,6.41740185546875,-0.035414427730441095,0.16990326993614435,0.03586801671683788
1783169266559350800,6.427350830078125,-0.019292729490995406,0.14419862757623195,0.038961452687531706
1783169266569298700,6.437298583984375,0.01707563796341419,0.12312193727791308,0.045228367595188314
1783169266579278600,6.447278564453125,0.02928630023896694,0.11223872421383857,0.04682571978922933
1783169266589226800,6.457226806640625,0.05116086291670799,0.11834902378767728,0.0312788988282904
1783169266599175700,6.46717578125,0.04917231944799423,0.11233400128185748,0.04092687100898474
1783169266609124900,6.477124755859375,0.03341594738960266,0.12221300573945044,0.0282052270039916
1783169266619104000,6.48710400390625,0.043382045608758926,0.1355678696140647,0.016922602826170623
1783169266629053000,6.497052978515625,0.016843582773208618,0.14769786786884068,0.003997983594983816
1783169266639001900,6.507001953125,0.01512158128619194,0.15547522387206553,-0.01165014231596142
1783169266648980700,6.516980712890625,0.04204232143759727,0.16531477310210466,0.00017535656690597534
1783169266658930000,6.526929931640625,0.03495791613459587,0.16837766780406235,-0.0008823723251000046
1783169266668877800,6.5368779296875,0.007706921115517616,0.1640823086977005,-0.010871120767481625
1783169266678826800,6.54682666015625,0.02624853997826576,0.15878507907241582,0.011182342141121624
1783169266688806000,6.556805908203125,0.0595610269933939,0.15562310791015624,0.02055409119632095
1783169266698754800,6.5667548828125,0.08518412854969501,0.16176292583942412,0.016736907528340814
1783169266708703700,6.576703857421875,0.07020750869214534,0.15764555364847183,0.005655395413190126
1783169266718651600,6.586651611328125,0.07945639855265617,0.16043459984511135,0.003848930513113737
1783169266728631800,6.5966318359375,0.09626607905626297,0.1618625868216157,0.004929273095726967
1783169266738579700,6.606579833984375,0.09946808996796608,0.14808306779414415,-0.0029638182416558264
1783169266748528600,6.616528564453125,0.10320376936495304,0.12524755112975836,-0.0057991877980530255
1783169266758507800,6.6265078125,0.1177232931047678,0.1176186636865139,-0.00627002018019557
1783169266768456700,6.636456787109375,0.1399357094347477,0.10579816977232694,0.0057211541257798666
1783169266778406000,6.646406005859375,0.15378127943575381,0.0899514890819788,0.02662712749969214
1783169266788354800,6.656354736328125,0.15544365969002247,0.06776742206364869,0.05607815331369638
1783169266798334000,6.666333984375,0.1571013637691736,0.05629617997854948,0.07117558653932064
1783169266808283000,6.676282958984375,0.15127426505088806,0.07200929741710424,0.0727799529960379
1783169266818230800,6.686230712890625,0.14362287351489067,0.08226385718882083,0.061680795626342294
1783169266828179700,6.6961796875,0.12445406266450881,0.09066665161401033,0.04360913236290216
1783169266838158800,6.706158935546875,0.12194529471397399,0.09090221393555402,0.03169376323949545
1783169266848107800,6.716107666015625,0.10804244156777858,0.09554740939289331,0.024977460596524177
1783169266858056700,6.726056640625,0.06515840860903263,0.11824468663036823,0.038971645287983116
1783169266868035800,6.736035888671875,0.05097381591200828,0.12533259906470776,0.04840381929352879
1783169266877984800,6.74598486328125,0.06010872400403022,0.12548925093114374,0.027214608531445264
1783169266887932700,6.7559326171875,0.0638134237408638,0.1254652855336666,0.02966375524923205
1783169266897881900,6.7658818359375,0.09457330366373061,0.13167056991457937,0.05360241084992885
1783169266907860700,6.77586083984375,0.09891863939166068,0.15166998637020587,0.060425388737767934
1783169266917809700,6.7858095703125,0.08591711899936198,0.15847119081765412,0.06211641056463122
1783169266927758600,6.795758544921875,0.04738894316256046,0.17158084775954485,0.03386822120174766
1783169266937707800,6.805707763671875,0.020362989071011542,0.18708850575387476,0.01944149031192064
1783169266947687000,6.81568701171875,0.05596680189371109,0.18632804277539253,-0.0035990474052727222
1783169266957635800,6.8256357421875,0.07265139471292495,0.17356091566085816,-0.020886282292753456
1783169266967584000,6.835583984375,0.11031038649976253,0.1575745342388749,-0.024937347781844435
1783169266977564000,6.84556396484375,0.11078501827418803,0.14297054708600043,-0.022658406531810758
1783169266987511800,6.85551171875,0.050772740381956095,0.12218290286213158,-0.00017228782698512076
1783169266997460700,6.865460693359375,0.06514671817123889,0.09786591546833515,-0.007950959004461765
1783169267007437600,6.8754375,0.10780395663678645,0.07889175040721892,-0.02481412326097488
1783169267017416400,6.88541650390625,0.1151999121069908,0.07524433381557465,-0.025466011298447847
1783169267027365400,6.895365478515625,0.09377309319674969,0.07671323732435703,-0.04728917258251458
1783169267037313500,6.9053134765625,0.12583821049928665,0.0782785869449377,-0.06855696500614285
1783169267047262500,6.915262451171875,0.13897533996999262,0.10268792879730462,-0.07556991250813007
1783169267057241300,6.925241455078125,0.13083587265610694,0.10213701691627503,-0.07336290398314595
1783169267067190500,6.9351904296875,0.14379296938478947,0.09315086964517831,-0.07657689759358763
1783169267077139500,6.945139404296875,0.18656769675016402,0.08299304824620485,-0.0831594908542931
1783169267087118300,6.955118408203125,0.1888636987328529,0.09299041838645934,-0.0642901013419032
1783169267097067300,6.9650673828125,0.2054126824736595,0.09055003949701786,-0.06140797003433108
1783169267107016400,6.975016357421875,0.24053309569358824,0.09850509015470743,-0.06722820062041282
1783169267116964400,6.98496435546875,0.2249316219359636,0.09616407998651265,-0.0513303742647171
1783169267126944300,6.9949443359375,0.18880173941254616,0.09790098678171634,-0.04872837507277727
1783169267136892400,7.004892333984375,0.1886427494585514,0.0944300958007574,-0.06106017950996756
1783169267146841600,7.014841552734375,0.20886954492926596,0.08021393892168999,-0.043968028803169724
1783169267156790500,7.02479052734375,0.21046353612244129,0.07312748779207467,-0.026428024731017647
1783169267166769400,7.034769287109375,0.17472002256810665,0.06229279004484415,-0.028438889629393813
1783169267176718600,7.044718505859375,0.17647183467149732,0.04412438840866088,-0.04550722106918692
1783169267186666500,7.05466650390625,0.17173486927747725,0.04790741407871246,-0.051085021201521155
1783169267196646400,7.064646484375,0.1606704544275999,0.05437865591943264,-0.05711100349277257
1783169267206594600,7.074594482421875,0.17635843742489812,0.03556874150931835,-0.07062416320163756
1783169267216543500,7.08454345703125,0.15547463935017586,0.03922843306064606,-0.07702011131644249
1783169267226492400,7.094492431640625,0.11536825441122055,0.04060761245936155,-0.06774345666617154
1783169267236471300,7.10447119140625,0.1326151572883129,0.033359248766303064,-0.05479162063449621
1783169267246420500,7.11442041015625,0.16094634875953195,0.04338672178387642,-0.040296939074993134
1783169267256369400,7.124369384765625,0.1763163518488407,0.05871697738468647,-0.04216273294687271
1783169267266317300,7.1343173828125,0.1559469330370426,0.05837737016677856,-0.022931378254294393
1783169267276297200,7.144297119140625,0.13606325191557406,0.04555675929933786,-0.020851649370789527
1783169267286245400,7.154245361328125,0.12945347838699817,0.03472352285683155,-0.0016615034714341163
1783169267296194300,7.1641943359375,0.13370529061257838,0.03846972364783287,0.017183336121588944
1783169267306173400,7.17417333984375,0.13142974689602852,0.04296118984818458,0.019191461073607204
1783169267316122600,7.18412255859375,0.11596212865114211,0.039886312447488304,0.013270400461554527
1783169267326071600,7.194071533203125,0.10490180545449257,0.025506489439308642,0.016639292372763157
1783169267336020500,7.2040205078125,0.0743137749671936,0.014916121841967105,0.002992898205667734
1783169267345999400,7.213999267578125,0.06818214034438133,0.014943009848892687,-0.008698270240426064
1783169267355947500,7.223947509765625,0.06533610326349736,0.05350947186946869,-0.007813742490857839
1783169267365896400,7.233896484375,0.06259177299141884,0.058792672969400876,0.0028531974740326404
1783169267375845400,7.243845458984375,0.058465632972121234,0.031717326778173446,0.003008972557634115
1783169267385824500,7.253824462890625,0.043593058010935784,0.028667876079678533,0.01782148789465427
1783169267395773400,7.2637734375,0.06212941617667675,0.025953356423974037,0.008272884435206651
1783169267405722400,7.273722412109375,0.06969371395111083,0.0444680872797966,0.0021795359961688516
1783169267415701500,7.283701416015625,0.04840893386006355,0.046024669072031975,0.008979717530310153
1783169267425650400,7.293650390625,0.06121580846309661,0.049018005669116974,0.02009644708931446
1783169267435598300,7.303598388671875,0.07539747855067253,0.06940203752815723,0.008124415875226259
1783169267445547300,7.31354736328125,0.04097498446702957,0.07639993359148502,-0.000957154594361782
1783169267455526400,7.3235263671875,0.038954876816272736,0.07186579729318618,-0.030437808361649513
1783169267465475300,7.333475341796875,0.10244447543025016,0.06803045691400766,-0.04441725214170292
1783169267475424500,7.343424560546875,0.14750234529674053,0.062198389759659765,-0.013605185373872519
1783169267485373400,7.35337353515625,0.1562210738033056,0.035680969712138175,-0.0014690496392548084
1783169267495352600,7.3633525390625,0.14113631739616392,0.03852116157412529,0.0027449147939682004
1783169267505301500,7.373301513671875,0.16260639092624188,0.05894786353111267,-0.002883008090406656
1783169267515249400,7.38324951171875,0.18826514831781385,0.05632891320437192,-0.020170681369304656
1783169267525198300,7.3931982421875,0.17060557298660278,0.04328501497507095,-0.024376608626544474
1783169267535177500,7.403177490234375,0.15583528935611246,0.024252397724986077,-0.038993893652409316
1783169267545126400,7.41312646484375,0.1257271513402462,0.03521276767849922,-0.048579906512796873
1783169267555075300,7.423075439453125,0.10279460404217243,0.04705868829488754,-0.059158729802817105
1783169267565054500,7.433054443359375,0.1085387006521225,0.05005085584819317,-0.0789586964298971
1783169267575003400,7.44300341796875,0.0983949077785015,0.04863368252664804,-0.07418505228729919
1783169267584951300,7.452951416015625,0.10147884526848792,0.047805122748017306,-0.07631970796212553
1783169267594900500,7.462900390625,0.11833821013271809,0.03934972135275602,-0.08528673040764406
1783169267604879400,7.47287939453125,0.13864800771176813,0.031005963638424873,-0.08052417391464113
1783169267614828300,7.482828369140625,0.14270283606052397,0.02517974170297384,-0.06547185847237706
1783169267624777200,7.492777099609375,0.13617898724973201,0.021311083576083183,-0.06261705356314778
1783169267634726400,7.502726318359375,0.13721417551636694,0.032497371239960195,-0.057210226083546874
1783169267644705500,7.51270556640625,0.11918810496032237,0.04493102861642837,-0.04853710855068639
1783169267654654500,7.522654541015625,0.11578034234344958,0.043402503874897955,-0.04569865198805928
1783169267664602600,7.5326025390625,0.1357131233036518,0.04088818296641111,-0.06128436192097142
1783169267674582500,7.54258251953125,0.13623042517602443,0.04419686912298202,-0.06690042997077107
1783169267684530400,7.552530517578125,0.13327683606743812,0.048666708013415334,-0.05036079858019948
1783169267694479400,7.562479248046875,0.1556558411359787,0.04544248526990413,-0.04330255063176155
1783169267704428500,7.572428466796875,0.1577121891438961,0.04223346009552478,-0.04220131139159202
1783169267714407400,7.582407470703125,0.16969021170735357,0.045405368129909036,-0.0333608562014997
1783169267724356400,7.5923564453125,0.1713894168406725,0.05133680400550365,-0.023286475302278994
1783169267734304500,7.602304443359375,0.13232932608425615,0.04596417105644941,-0.018797803847212344
1783169267744253400,7.61225341796875,0.10830430737435817,0.04369125768840313,-0.04345116532221436
1783169267754232300,7.622232421875,0.12346972780227661,0.06650222443342209,-0.0558987050935626
1783169267764181200,7.63218115234375,0.12849603153169153,0.07652794388532638,-0.04920490654334426
1783169267774130400,7.64213037109375,0.10514613560438156,0.05536679017394781,-0.024719741242099552
1783169267784109300,7.652109375,0.1340530811369419,0.0415314493060112,-0.0318891762137413
1783169267794058200,7.662058349609375,0.14544073659181594,0.04873451255261898,-0.0342965296164155
1783169267804007400,7.67200732421875,0.12646890961825846,0.0289329567566514,-0.007366290984302758
1783169267813955300,7.681955322265625,0.13089900102019308,0.003967734587192536,0.0031949966490268707
1783169267823935500,7.691935546875,0.14905600447952747,-0.012056056235730648,-0.016576017878204584
1783169267833883600,7.701883544921875,0.1088689555197954,0.003084522011876106,-0.035745705511420964
1783169267843832600,7.71183251953125,0.07933540252149104,0.02672521757930517,-0.029171441687643525
1783169267853781500,7.721781494140625,0.08114625133574009,0.037753099811077113,-0.03076981679499149
1783169267863760400,7.731760498046875,0.09058511081039905,0.04358692053109407,-0.040765287239104504
1783169267873709600,7.74170947265625,0.0834855079382658,0.06745470285266637,-0.04319750108839944
1783169267883657500,7.751657470703125,0.07989128283858299,0.07592559407800435,-0.02075507539482787
1783169267893637400,7.761637451171875,0.08367723111808299,0.055908934226632116,-0.01277896368280053
1783169267903585500,7.77158544921875,0.09220365192294121,0.06749883425533772,-0.02352656766846776
1783169267913534500,7.781534423828125,0.09676818335950374,0.06912322058677672,-0.02476414663940668
1783169267923483400,7.7914833984375,0.09610182840526103,0.07719400657862424,-0.02023673234283924
1783169267933462300,7.801462158203125,0.10066285271048546,0.07825579059123992,-0.020969887189287693
1783169267943411500,7.811411376953125,0.1279401512145996,0.08862550117522477,-0.023560031546652316
1783169267953360400,7.8213603515625,0.10684884786903857,0.11965630699396133,-0.009555508124269545
1783169267963308300,7.831308349609375,0.07967676330506801,0.12171207047998904,-0.014276947155594825
1783169267973288400,7.841288330078125,0.12482815667390823,0.10730272911638021,-0.03355243325084448
1783169267983236400,7.851236328125,0.18855214856564997,0.1024623033478856,-0.04123787318691611
1783169267993185500,7.861185546875,0.24190087691545484,0.0846399386703968,-0.024093407770991324
1783169268003195400,7.8711953125,0.27493513151109217,0.0658136576473713,-0.003136252199113369
1783169268013144300,7.881144287109375,0.2538596102565527,0.04713759874999523,0.02251461414694786
1783169268023093200,7.89109326171875,0.1914051999092102,0.03348521323353052,0.023278438126295802
1783169268033041200,7.901041259765625,0.14358955576717852,0.024705986711382865,0.0379791636519134
1783169268043021300,7.911021240234375,0.1477478444904089,0.03061433397233486,0.01699760429114103
1783169268052969200,7.92096923828125,0.1343359897315502,0.05859831944108009,-0.02970978634804487
1783169268062918100,7.930918212890625,0.07881576256155967,0.08801526032239199,-0.05136529944762587
1783169268072867000,7.9408671875,0.000993102690577507,0.10183335779458284,-0.051373336623609066
1783169268082846200,7.95084619140625,-0.06670329996347427,0.09253741392195224,-0.040399522666633124
1783169268092795100,7.960795166015625,-0.051343233746290205,0.0852305980399251,-0.024306173738837242
1783169268102744000,7.970744140625,-0.014650456643104553,0.07543284212499857,-0.03247139654848724
1783169268112723200,7.98072314453125,0.016205869391560553,0.07938537914305925,-0.025032478719390926
1783169268122672400,7.99067236328125,0.0010725976675748825,0.08245528810769319,-0.01915434393361211
1783169268132620000,8.0006201171875,0.02310848838686943,0.06622165392637253,-0.005372925209999084
1783169268142569200,8.0105693359375,0.057603463184833524,0.04758008182048797,-0.011949965512752533
1783169268152548400,8.02054833984375,0.05994973405003547,0.04430120628029108,-0.01783712385520339
1783169268162497300,8.030497314453125,0.049397944897413254,0.04412672649621963,-0.023940555296838282
1783169268172446200,8.0404462890625,0.05720949543118477,0.029236323617398738,-0.016304653590917588
1783169268182394400,8.050394287109375,0.11646072582304477,0.024058044196665285,-0.02884162521138787
1783169268192374300,8.060374267578124,0.17161679585576056,0.03299859876036644,-0.02881663690060377
1783169268202322200,8.070322265625,0.16155834317803383,0.03891191445738077,-0.012500439002364873
1783169268212271000,8.08027099609375,0.14893559297025202,0.03201952459514141,0.005384323386847973
1783169268222250200,8.090250244140625,0.15095160896778106,0.032198388293385505,0.009104951345175505
1783169268232199200,8.10019921875,0.176961079493165,0.04331277976483106,0.003741524615883827
1783169268242148000,8.110148193359375,0.1799456482619047,0.072442428137362,-0.0006055646777153015
1783169268252097000,8.120096923828125,0.1582914503365755,0.09866729497909546,-0.005191613826341927
1783169268262076200,8.130076171875,0.14839724830985068,0.11457622725069522,-0.009233400030434132
1783169268272025000,8.140025146484374,0.1582213077098131,0.113396077555418,-0.005485153412818908
1783169268281973200,8.14997314453125,0.13360533736944197,0.12187222947776317,0.00862798148319125
1783169268291922400,8.15992236328125,0.14396364977657794,0.137812725931406,0.02514072486683726
1783169268301901000,8.169901123046875,0.1489800166338682,0.12442892822325229,0.0324393574424088
1783169268311850200,8.179850341796875,0.13679039714634417,0.11578969469368457,0.03021934330537915
1783169268321799200,8.189799072265625,0.137038818949461,0.11960574585050343,0.02893485645279288
1783169268331778300,8.1997783203125,0.1406499951839447,0.11706395241320132,0.04066314203888178
1783169268341727200,8.209727294921874,0.12923136006891728,0.11552958245277405,0.05050488322600722
1783169268351676200,8.21967626953125,0.1432388426333666,0.1063292079091072,0.062309120125137264
1783169268361624300,8.229624267578124,0.13937398389875888,0.10536007061600684,0.05984978080689907
1783169268371603200,8.239603271484375,0.13458148892521857,0.10469926861971617,0.049584516978077586
1783169268381552000,8.24955224609375,0.11846095972955226,0.10180997691899538,0.047027672102116044
1783169268391501300,8.259501220703125,0.12289631182849406,0.10388736771494149,0.028550533310323954
1783169268401450200,8.2694501953125,0.12685235597789288,0.11863310142606497,0.032796061925590037
1783169268411429000,8.27942919921875,0.10744096854329109,0.12490034512728453,0.026546061620116232
1783169268421378000,8.2893779296875,0.10059855530261992,0.10506459480077028,0.020562018774449825
1783169268431326200,8.299326171875,0.0921335092961788,0.10071692098528146,0.022793284957855937
1783169268441306000,8.30930615234375,0.08268997364640235,0.10149521188139915,0.016666034249216317
1783169268451254000,8.31925390625,0.09588204817473887,0.09511632449924945,-0.005002192201465368
1783169268461203200,8.329203125,0.09958090269267558,0.0897381385922432,-0.0270811914101243
1783169268471152400,8.33915234375,0.10008592960536479,0.0823635181710124,-0.04100874060615897
1783169268481131300,8.34913134765625,0.10989186882674694,0.09296499168425798,-0.050369310680218035
1783169268491080200,8.359080078125,0.10791384675204753,0.09789923321604728,-0.060639031488448375
1783169268501029400,8.369029296875,0.09069967710077761,0.10201192923188208,-0.0740787971675396
1783169268510977300,8.378977294921874,0.11845452998876571,0.11381430296748876,-0.09421908339858054
1783169268520957200,8.388957275390625,0.1457780057221651,0.10783902795016764,-0.09510364768076687
1783169268530905300,8.3989052734375,0.1962503018528223,0.0869488001346588,-0.06047858022972941
1783169268540854300,8.408854248046875,0.2409142039656639,0.0668675506144762,-0.02252893493324518
1783169268550833200,8.418833251953124,0.23947511107325553,0.06443886216282844,-0.008567629598081111
1783169268560782000,8.428781982421874,0.20839666672050952,0.06662409724742174,0.0013243804715573787
1783169268570731300,8.438731201171874,0.17874562482237816,0.05975538052171468,-0.001141461652703583
1783169268580679200,8.44867919921875,0.16277122609913347,0.07520370954424142,0.001720503649674356
1783169268590659000,8.4586591796875,0.15749299343526363,0.09380465737879276,0.009736819507926701
1783169268600607200,8.468607177734375,0.19539339276254175,0.14387363340556622,-0.02311579491049051
1783169268610556200,8.47855615234375,0.118228320017457,0.16323825908899306,-0.029262480971962213
1783169268620505000,8.488505126953125,0.08949263939857482,0.1362991064980626,-0.005300006104260683
1783169268630484200,8.498484130859374,0.10030512531399727,0.11911445520222186,-0.007455868963897228
1783169268640433400,8.508433349609374,0.08172785061597823,0.13783259967565537,-0.02421995676010847
1783169268650382300,8.51838232421875,0.024392682978510855,0.13134499122202395,-0.025086802722513676
1783169268660361200,8.528361328125,0.014528876090049743,0.09737608612477779,-0.02582490773871541
1783169268670310100,8.53831005859375,0.02956219457089901,0.09155717071294785,-0.03651274436116218
1783169268680258300,8.54825830078125,0.051752399069070816,0.09956775095015763,-0.046778702309727666
1783169268690207200,8.558207275390625,0.07601590270996093,0.12233107916116714,-0.04296557376235723
1783169268700186400,8.568186279296874,0.04327157097160816,0.1120417403370142,-0.04350523359701037
1783169268710135300,8.57813525390625,0.022578327032923697,0.09994447530806064,-0.03012874241247773
1783169268720084200,8.588084228515624,0.043432899013161656,0.10734189208298921,-0.019217508830316362
1783169268730032000,8.5980322265625,0.09141162476241588,0.11532324622571467,-0.024307927304506302
1783169268740012300,8.60801220703125,0.13207213645279406,0.10450111569911241,-0.02904609827492386
1783169268749960200,8.617960205078125,0.09809095639586449,0.09215630564987659,-0.009059943159669638
1783169268759909000,8.6279091796875,0.07651157727241516,0.07682838813662529,0.014873159483075141
1783169268769888300,8.63788818359375,0.12182546772658824,0.08555179281830787,-0.0014877543397247791
1783169268779837200,8.647837158203124,0.16440613382458685,0.09058774115890264,-0.020541889301873742
1783169268789786000,8.6577861328125,0.15027590166330337,0.10099895279705524,-0.014353519523143768
1783169268799735300,8.6677353515625,0.1530196474134922,0.10486848770678042,0.010513174175284802
1783169268809714400,8.67771435546875,0.1868167030751705,0.10154957241714001,0.01306917880102992
1783169268819663400,8.687663330078125,0.18807693226933478,0.09624825113862752,0.0024067688807845114
1783169268829611300,8.697611328125,0.17599661837518213,0.08850304383933544,-0.00026478841602802275
1783169268839591200,8.707591064453124,0.19466507848799228,0.08767769893109797,-0.00897051131054759
1783169268849539300,8.717539306640624,0.19705343492925165,0.10337152714729309,0.0043175709381699555
1783169268859488300,8.72748828125,0.17570903360545634,0.09870821151137352,0.012612374944239854
1783169268869437200,8.737437255859374,0.16874503981173036,0.08042349001914262,0.001167728605121374
1783169268879416300,8.747416259765625,0.15508768585920332,0.08404489538669585,-0.01158843872398138
1783169268889365200,8.757365234375,0.12509119152426718,0.08357844691872596,-0.004222878392040729
1783169268899313200,8.767313232421875,0.11222761829793453,0.08766600849330425,-0.006574994476139545
1783169268909262000,8.777261962890625,0.10320669197440147,0.09529168106615543,-0.013735113630164414
1783169268919241200,8.7872412109375,0.08508125269711017,0.09861439574807881,-0.020256624353397635
1783169268929190100,8.797190185546874,0.06672317370772361,0.09844663796573877,-0.016261563367862254
1783169268939139000,8.80713916015625,0.04044482311308384,0.09645312606096267,-0.02053222642438486
1783169268949118200,8.8171181640625,0.04530979880094528,0.09353314696103333,-0.04481368584707379
1783169268959067100,8.827067138671875,0.05569792182445526,0.09711714292764663,-0.045894923478830604
1783169268969016300,8.837016357421875,0.0874111569494009,0.08874737398922443,-0.05817702528908848
1783169268978964200,8.846964111328125,0.11247487105727196,0.0832721574485302,-0.0329284743999131
1783169268988944400,8.8569443359375,0.13247311846911908,0.08456716569513081,-0.028049890311807393
1783169268998892300,8.866892333984374,0.11566986770629882,0.07651596118658781,-0.049828737530112265
1783169269008864500,8.876864501953126,0.12443185083270072,0.07675093898624182,-0.04553849299028515
1783169269018813400,8.8868134765625,0.13991174403727052,0.08788958811610936,-0.050923693159967656
1783169269028792300,8.896792236328125,0.11152502298653125,0.09722644852101803,-0.05387742839902639
1783169269038741200,8.9067412109375,0.11314531766474246,0.09395166463404893,-0.0822298087887466
1783169269048689400,8.916689453125,0.14848551111519337,0.11139350556135177,-0.09085998222902417
1783169269058669300,8.92666943359375,0.12683423579931258,0.12897533948123455,-0.10119228341206908
1783169269068617200,8.9366171875,0.11012509306073189,0.1280927114278078,-0.08460647479221224
1783169269078566400,8.94656640625,0.1616501131147146,0.12334668594449757,-0.07565949048772454
1783169269088515300,8.956515380859376,0.20124387235641478,0.13607786496281624,-0.09044981225924566
1783169269098494200,8.966494140625,0.24025661683976648,0.1261146893531084,-0.0785040662638843
1783169269108443100,8.976443115234375,0.3163806560993194,0.0962576034888625,-0.03521395498858765
1783169269118392300,8.986392333984375,0.32518414027988907,0.083707041734457,0.013329711167048662
1783169269128340200,8.99634033203125,0.2704541867047548,0.07343933022022246,0.018930764310806987
1783169269138320400,9.0063203125,0.2401040566265583,0.06113719026893377,0.026968963207304478
1783169269148268300,9.016268310546875,0.20586568693816662,0.04412088127732277,0.022687340365350243
1783169269158217500,9.026217529296876,0.17495675393342972,0.04710808039456606,0.01843918140158057
1783169269168196400,9.0361962890625,0.14164718952775002,0.07349193719029426,-0.00019216157123446464
1783169269178145500,9.0461455078125,0.08063654824793338,0.08745382704734801,-0.020111206267029044
1783169269188094500,9.056094482421875,0.00923953751027584,0.08900164101123809,-0.010190846885740757
1783169269198042400,9.06604248046875,-0.010678045880794525,0.0704556382343173,0.019670915153622626
1783169269208022300,9.076022216796876,-0.011516250270605087,0.06167641171216964,0.030200346343964336
1783169269217970400,9.085970458984375,0.011856442010402679,0.06857786166369914,0.01953442929238081
1783169269227919400,9.09591943359375,0.033119010269641876,0.07018646590411663,0.009673252752423285
1783169269237868300,9.105868408203126,0.003505377772450447,0.06966331881284714,0.020723931337893006
1783169269247847400,9.115847412109375,0.013469137904047966,0.05394172580689192,0.02378697217032313
1783169269257796400,9.12579638671875,0.038788288077712056,0.04822919337898492,0.03566197275072336
1783169269267745300,9.135745361328125,0.02608253576159477,0.059764440611004825,0.027181436914205548
1783169269277724200,9.14572412109375,-0.0010404489636421203,0.05829641388505697,0.028996523512154815
1783169269287673300,9.15567333984375,-0.016882161217927932,0.057660161808133124,0.02353299740925431
1783169269297621200,9.165621337890625,0.01878945614397526,0.06007248364686966,0.001722732139378786
1783169269307570200,9.175570068359375,0.03829670516848564,0.06298661752790212,-0.01470174843892455
1783169269317549300,9.18554931640625,0.053230654928088185,0.06368395214229822,-0.011940193037409334
1783169269327498500,9.19549853515625,0.09383972869217395,0.06890928557515144,-0.006290788973588496
1783169269337447400,9.205447509765625,0.11606325093805789,0.0575675150886178,-0.006009615678340196
1783169269347396400,9.215396240234375,0.11517127053439616,0.053933542500436304,-0.018363047425448892
1783169269357375500,9.22537548828125,0.14373334815204142,0.055986091116070745,-0.028818974988162514
1783169269367324400,9.235324462890626,0.17307985414564608,0.07080225971490145,-0.06383579996945336
1783169269377272300,9.245272216796875,0.18551380378305912,0.08455138360410928,-0.07309373165294528
1783169269387251500,9.25525146484375,0.17951660919487475,0.0759063048556447,-0.07586526045920326
1783169269397200400,9.265200439453125,0.19358955821096896,0.06594254472404718,-0.07101926346644759
1783169269407149300,9.2751494140625,0.20712766969799995,0.04843757543265819,-0.06847060189694165
1783169269417098200,9.28509814453125,0.20012977363467216,0.04872779055088758,-0.054986266423761844
1783169269427077400,9.295077392578126,0.2063110926181078,0.046340310892462724,-0.029154636683315038
1783169269437026300,9.3050263671875,0.2199742917895317,0.03250613906830549,-0.01826674744412303
1783169269446974200,9.31497412109375,0.22319150027036666,0.03618862697333097,-0.01711713901758194
1783169269456923100,9.324923095703125,0.20537410402894019,0.04516571415513754,-0.005285977578908205
1783169269466902300,9.33490234375,0.19271452894210814,0.04863631287515163,0.013733780189603566
1783169269476851200,9.344851318359375,0.19301848032474517,0.06454173801541328,0.029954262628406284
1783169269486800400,9.35480029296875,0.17982523675262926,0.08658581204116345,0.02502791214212775
1783169269496779500,9.364779541015626,0.19227146134972573,0.10820873804539441,0.033749563258141276
1783169269506728400,9.374728515625,0.17501345255672932,0.1301809158787131,0.05195654333904385
1783169269516677400,9.384677490234376,0.1558732832789421,0.13437836756855248,0.07321706577166914
1783169269526625300,9.394625244140625,0.11031038649976253,0.13642507096529005,0.07217179450243712
1783169269536605400,9.40460546875,0.06262742882668972,0.15870499957352877,0.10674874849542974
1783169269546553300,9.41455322265625,0.08146481576561927,0.18067980775535106,0.10041559995114803
1783169269556502300,9.424502197265625,0.07897299894988537,0.17928981470167635,0.0698186372387223
1783169269566451200,9.434451171875,0.038757892939448355,0.180409466381371,0.0676661536462605
1783169269576430300,9.444430419921876,0.029711832174658774,0.1647445719987154,0.07279504096731543
1783169269586379300,9.454379150390626,0.04688976146876812,0.12863017930537463,0.06614961160346865
1783169269596327400,9.464327392578125,0.053554480054974554,0.1176423368230462,0.07897957482114434
1783169269606307300,9.474307373046875,0.07052198146879672,0.11230068353414535,0.04958981420770287
1783169269616255200,9.484255126953125,0.07440846751332282,0.09220452870577574,0.018045944300293923
1783169269626204200,9.4942041015625,0.06708440823554992,0.07532178296595811,-0.007532149070501327
1783169269636153300,9.5041533203125,0.0837380213946104,0.06604600509852171,-0.03557780159860849
1783169269646132200,9.51413232421875,0.10842413436174392,0.06727028619647026,-0.06710004419609904
1783169269656081400,9.524081298828126,0.1079419038027525,0.058306643018126485,-0.06708776923641561
1783169269666030300,9.5340302734375,0.10916238550841807,0.05586129569262266,-0.0753790661111474
1783169269676009500,9.544009521484375,0.14556757784187793,0.05945055235624313,-0.0877956444886513
1783169269685958400,9.55395849609375,0.15964812564253805,0.06360445716530085,-0.0786458128221333
1783169269695906300,9.56390625,0.14422142392992973,0.05416472090780735,-0.08661489200517535
1783169269705855500,9.57385546875,0.15830197173058985,0.05203209279328584,-0.10558511154353618
1783169269715834400,9.58383447265625,0.1482785903662443,0.06435644457638263,-0.12103154086992143
1783169269725783300,9.593783203125,0.11589783124327659,0.0659784928202629,-0.11251491080671548
1783169269735732200,9.603732177734376,0.13913608348965645,0.061892392550408834,-0.12225070740133523
1783169269745680400,9.613680419921875,0.13730477640926836,0.061038990591466426,-0.14592459285231307
1783169269755660300,9.623660400390625,0.09279284998774529,0.0847188491255045,-0.1561892173603177
1783169269765608200,9.633608154296875,0.0854325503528118,0.10185352379977702,-0.1541816769301891
1783169269775557400,9.643557373046875,0.1264759238809347,0.11378741496056317,-0.18430165151432157
1783169269785536300,9.653536376953125,0.18426935667991637,0.13176117080748082,-0.17348960399031638
1783169269795485200,9.663485107421875,0.23377368456125258,0.12750789727717637,-0.1427846691250801
1783169269805434000,9.67343408203125,0.27141981686651706,0.10808160453438759,-0.09803688812106848
1783169269815383600,9.683383544921876,0.2776391297727823,0.10163549713492392,-0.05837883147150278
1783169269825362400,9.693362548828125,0.24841128172278404,0.11910422606915234,-0.02849792634025216
1783169269835311400,9.703311279296875,0.20078794528245925,0.111723175907135,-0.005663140328228474
1783169269845259500,9.713259521484375,0.16499766997694967,0.08747896148860454,0.014396189621090889
1783169269855208400,9.72320849609375,0.1487713423192501,0.07573533220291137,-0.005114566534757614
1783169269865187300,9.733187255859375,0.10532967547774315,0.08748246861994266,-0.02162804057076573
1783169269875136300,9.74313623046875,0.05394377163350582,0.10919862586557864,-0.030606004535406826
1783169269885085400,9.75308544921875,0.056335635206103324,0.09730243636667728,-0.021152239752560854
1783169269895064300,9.763064208984375,0.06908464214205741,0.09339256944656371,0.005360796380788088
1783169269905013200,9.77301318359375,0.06441781937479972,0.08285013264417648,0.018598463616520164
1783169269914961400,9.78296142578125,0.06783084268867969,0.06877747588902712,0.029331746815890073
1783169269924910300,9.792910400390625,0.10407879863381385,0.05959785187244415,0.03625336277261376
1783169269934889200,9.80288916015625,0.12083236503601073,0.08868599919080734,0.04285873412070795
1783169269944838400,9.81283837890625,0.10712766481041908,0.10136486349999904,0.043793695149570704
1783169269954787300,9.822787353515626,0.11569792475700377,0.0965370049521327,0.054093701498210425
1783169269964736300,9.832736328125,0.10804711774289608,0.08433160337358712,0.0584215015694499
1783169269974715100,9.842715087890625,0.1009656350493431,0.12038082187622785,0.06007029168978333
1783169269984664300,9.852664306640625,0.0668546911329031,0.1774558772727847,0.047675066627562046
1783169269994612500,9.862612548828125,-0.001007131215929985,0.19055384377688167,0.025326584561448543
1783169270004612400,9.8726123046875,-0.015244915404915809,0.17487988930493592,-0.03316664880365133
1783169270014560500,9.882560546875,0.045967970448732375,0.18700521138459442,-0.0894610934828408
1783169270024509400,9.892509521484374,0.13512801689207554,0.20576251882463692,-0.12020036900909617
1783169270034458400,9.902458251953124,0.20237199960350988,0.20687924789488316,-0.12351824311912059
1783169270044437500,9.9124375,0.25529051984250545,0.18508418019413947,-0.11831616269769146
1783169270054386400,9.922386474609375,0.3270703924179077,0.15138152481764555,-0.10369739810079336
1783169270064334300,9.932334228515625,0.38611353301703927,0.11954349426925182,-0.058901101779937744
1783169270074314200,9.942314208984374,0.3977753292381763,0.08344517592787742,-0.016465981632471084
1783169270084262400,9.952262451171874,0.3781383163541555,0.0666717357814312,0.0019378179284743964
1783169270094211300,9.96221142578125,0.3295183700919151,0.0657914458155632,0.007734101383388042
1783169270104160300,9.97216015625,0.26501871765255924,0.046912265561521053,-0.006658434975892305
1783169270114139400,9.982139404296875,0.2031254483193159,0.038702947881817815,-0.03898614873737097
1783169270124088600,9.992088623046875,0.13019815927445888,0.03266659032702446,-0.054065059925615784
1783169270134037500,10.00203759765625,0.07318447867631912,-0.0020581015735864636,-0.05732334933551028
1783169270143985400,10.0119853515625,0.06351414853334426,-0.0329740488409996,-0.06570464431494474
1783169270153965600,10.021965576171874,0.029824644899368286,-0.04388151956349611,-0.06234088523657992
1783169270163913500,10.03191357421875,0.008615852653980254,-0.03612842121869325,-0.05120689401552081
1783169270173862400,10.0418623046875,-0.01163549273610115,-0.04041413571387529,-0.04910524556115269
1783169270183841500,10.051841552734375,-0.03964636621177196,-0.031070845568180083,-0.08740662690475583
1783169270193790500,10.06179052734375,-0.07746727056205273,0.016571780094504357,-0.10337269619107246
1783169270203739400,10.071739501953125,-0.1117494793921709,0.04931085113584995,-0.11871493449062108
1783169270213687300,10.081687255859375,-0.1639461150974035,0.061847676625847815,-0.12621509925397112
1783169270223667500,10.09166748046875,-0.21486673951745033,0.07836626522839069,-0.14478855629339812
1783169270233615400,10.101615478515624,-0.2283393845528364,0.09640227265655994,-0.16499065571427343
1783169270243564300,10.111564208984374,-0.19827040950357913,0.11961655950546264,-0.17739070308208466
1783169270253513200,10.12151318359375,-0.1594242537587881,0.11787789914458989,-0.167601568865031
1783169270263492400,10.131492431640625,-0.10819617082476615,0.10593582467734813,-0.16797332478687166
1783169270273441300,10.141441162109375,-0.0553214897274971,0.10380816499888897,-0.13949412141339854
1783169270283390500,10.151390380859375,0.022734394377470015,0.09007891485393046,-0.10193258038535713
1783169270293369600,10.16136962890625,0.11712824982106684,0.07206453473567963,-0.06480930291041731
1783169270303318500,10.171318603515624,0.1483522401243448,0.06803659439384938,-0.03323182299435139
1783169270313266400,10.181266357421874,0.18871113851964472,0.08621580968499183,-0.007210534167010336
1783169270323215400,10.19121533203125,0.25699732376039025,0.12884762144833803,0.013829641779512167
1783169270333194500,10.201194580078125,0.3136807494908571,0.15931787077486514,0.0350708749897778
1783169270343143400,10.211143310546875,0.3197504247933626,0.15464198791831732,0.06429390073418617
1783169270353092400,10.22109228515625,0.31333354348838327,0.1482055251300335,0.10230886635184287
1783169270363041300,10.231041259765625,0.33321079486906524,0.14524579854160546,0.13812281479388475
1783169270373020400,10.2410205078125,0.34859658004939553,0.14509879128634928,0.18249430983141063
1783169270382969300,10.25096923828125,0.33370062421262264,0.14497078099250793,0.22452961700633167
1783169270392917500,10.26091748046875,0.2930161471247673,0.1516594649761915,0.2556073307067156
1783169270402896400,10.270896484375,0.21963176196217535,0.14651567234694957,0.2750001595713198
1783169270412845300,10.28084521484375,0.1530710853397846,0.1750073150768876,0.2717566293391399
1783169270422794200,10.290794189453125,0.12379355292916297,0.20653847163319586,0.25091581188961865
1783169270432743400,10.300743408203125,0.0740957483023405,0.23843612341433762,0.21483254498690366
1783169270442722300,10.310722412109374,0.027771804022789,0.22785803077667952,0.1592002357445657
1783169270452671500,10.32067138671875,0.012407646152377128,0.2328463405832648,0.09673776995493098
1783169270462619400,10.330619384765624,0.015105799195170402,0.21433891625106333,0.044670916375517844
1783169270472599600,10.340599609375,-0.039457565641403194,0.17710779448747635,-0.0115298404045403
1783169270482547500,10.35054736328125,-0.10098667783737182,0.14550620304346085,-0.07332564071267843
1783169270492496400,10.360496337890625,-0.1102116023004055,0.13847849636375903,-0.12321896791160106
1783169270502445600,10.370445556640625,-0.07075228309333324,0.11124620604515074,-0.17541196862133218
1783169270512424400,10.380424560546874,0.003981763112545013,0.0824438899308443,-0.19945611215680836
1783169270522373400,10.390373291015624,0.07886310883462429,0.04084726643413305,-0.16792891938956453
1783169270532322300,10.400322265625,0.1924818892300129,0.008861936369538307,-0.13177242285385726
1783169270542270500,10.4102705078125,0.30532384003400803,-0.024712416452169417,-0.05404299422428012
1783169270552250400,10.42025048828125,0.3676204294711351,-0.07961158911436796,0.06834814456105232
1783169270562198500,10.430198486328125,0.4031827412396669,-0.15542933890372515,0.17169322209283708
1783169270572147500,10.4401474609375,0.3687093937516212,-0.15095628514289855,0.24889891910925507
1783169270582126300,10.450126220703124,0.29838556520342824,-0.11863690081834792,0.26235680496692654
1783169270592075300,10.4600751953125,0.21387363682687283,-0.07795096242576838,0.23584449948593972
1783169270602024200,10.470024169921874,0.13041209428608416,-0.0648132484331727,0.1939443629980087
1783169270611972400,10.479972412109374,0.10007949986457824,-0.03448620696961879,0.1614751949392259
1783169270621952500,10.489952392578125,0.06686988870203495,0.008712591026723384,0.14129455843148753
1783169270631900400,10.499900390625,0.004436521142721176,0.04039367744773626,0.1835170587415807
1783169270641849600,10.509849609375,-0.11257482430040835,0.05272796610295772,0.2187428502984345
1783169270651798500,10.519798583984375,-0.23985388125777243,0.02436842532008886,0.22247546095550058
1783169270661777400,10.52977734375,-0.27258710708022116,0.04631050027608871,0.22130977817699313
1783169270671726600,10.5397265625,-0.24609599051773548,0.0852042945548892,0.2026421948470175
1783169270681675500,10.549675537109374,-0.24584230801761148,0.1201259703323245,0.18297639425992965
1783169270691654400,10.559654296875,-0.2860971615165472,0.14152619349658488,0.1283862875469029
1783169270701603300,10.569603271484375,-0.2536766549050808,0.16153496230244635,0.07404328746274114
1783169270711551500,10.579551513671875,-0.20321897182166576,0.20476035604476928,0.05118205183520913
1783169270721500400,10.58950048828125,-0.15620704527795315,0.2403890110477805,0.034540129113942386
1783169270731479300,10.599479248046874,-0.10812076750099658,0.25681086127758024,0.035932012730604035
1783169270741428500,10.609428466796874,-0.07132102289199829,0.26818565725088117,0.04855360302776098
1783169270751377400,10.61937744140625,-0.08324176231026649,0.25284429573416706,0.06279197173863649
1783169270761325300,10.6293251953125,-0.13567980555593967,0.2488473350524902,0.05368614361062646
1783169270771305200,10.63930517578125,-0.20752046840786934,0.2431345103636384,0.009599749124795198
1783169270781253400,10.64925341796875,-0.25241525666713716,0.25530747097730633,-0.08238733743801713
1783169270791202300,10.659202392578125,-0.24243746801018715,0.26678368149846793,-0.1573962550625205
1783169270801181400,10.669181396484374,-0.17794424531161784,0.2702288535162806,-0.1998894072738476
1783169270811130600,10.679130615234374,-0.12607903351783753,0.27781770121008154,-0.25557079808861016
1783169270821079600,10.68907958984375,0.01200841770172119,0.29730332292467354,-0.30784605198800563
1783169270831028500,10.699028564453124,0.14753507852256298,0.294764159835875,-0.3347030792534351
1783169270841007400,10.70900732421875,0.24667232910096643,0.2467456865981221,-0.3379050901651382
1783169270850956500,10.71895654296875,0.3275742502868175,0.2043000450566411,-0.3200876939237118
1783169270860904400,10.728904541015625,0.37761750735044475,0.15515402909368275,-0.3180409905269742
1783169270870884400,10.73888427734375,0.436092492672801,0.1207464403182268,-0.34515316159725185
1783169270880832500,10.74883251953125,0.5311357519358396,0.12484481554776429,-0.36034926942437884
1783169270890781400,10.758781494140624,0.5596820474624633,0.1325996674582362,-0.3700274906128645
1783169270900730400,10.76873046875,0.5407365239739418,0.14318360531479118,-0.3425963167212903
1783169270910709500,10.77870947265625,0.5266863713115454,0.12701631436794997,-0.2930985647112131
1783169270920658400,10.788658447265625,0.525678071051836,0.10625935754328966,-0.24876594037935137
1783169270930606300,10.7986064453125,0.5090320566773414,0.09603080899566412,-0.18812647049948572
1783169270940555300,10.80855517578125,0.5028057295084,0.08085019099861383,-0.12446283049285412
1783169270950534400,10.818534423828124,0.5148761065304279,0.09994505982995033,-0.07288520346879959
1783169270960483300,10.8284833984375,0.5092804784804582,0.1384384566143155,-0.022028310201037675
1783169270970432500,10.8384326171875,0.46896775731444357,0.14791414096802472,0.017265753708034754
1783169270980411600,10.84841162109375,0.400730087390542,0.16315438019782305,0.06288810732318088
1783169270990360600,10.858360595703125,0.33007074327766894,0.17918664658814668,0.10107523290365934
1783169271000309500,10.8683095703125,0.2881131775140762,0.1856339230313897,0.11004223708286881
1783169271010293200,10.878293212890625,0.24857728593945502,0.1969295162886381,0.12596768209785222
1783169271020273200,10.888273193359375,0.18097323774397372,0.19314882870614528,0.15662921621277928
1783169271030221300,10.89822119140625,0.09139934980273247,0.18036475045681,0.16100158607810736
1783169271040170200,10.908170166015625,0.035004677885770795,0.16259353144466876,0.16703838202431798
1783169271050119200,10.918119140625,0.014937456890940665,0.15736381409764288,0.18036942663192748
1783169271060098000,10.92809814453125,0.025492753174901007,0.1441147486850619,0.20057181831374762
1783169271070047200,10.938047119140625,0.014655132818222045,0.11452157445400953,0.21904402520209548
1783169271079995100,10.9479951171875,-0.003760813838243484,0.09187339705526829,0.20859072798788547
1783169271089975000,10.95797509765625,0.027016017219424246,0.07827975598871707,0.19291297412365674
1783169271099923200,10.967923095703124,0.044862639555335045,0.055330257555842394,0.17857143729925154
1783169271109872000,10.9778720703125,0.06126607734560966,0.01948211458325386,0.1876949472144246
1783169271119821000,10.987821044921875,0.10467033478617667,-0.004511632205545902,0.1849628919020295
1783169271129800200,10.99780029296875,0.15778116272687912,0.0035708442240953444,0.16977569803372025
1783169271139749400,11.007749267578125,0.20159809262156486,-0.0021276596784591674,0.1438018833436072
1783169271149698300,11.0176982421875,0.21827800926566124,-0.012974047863483428,0.11918109069764614
1783169271159677200,11.02767724609375,0.22354864314496517,-0.010298106652498244,0.07196691958010196
1783169271169626000,11.037626220703125,0.19660861377120017,-0.017646131327748296,0.027426936107873914
1783169271179574300,11.04757421875,0.19311434191465376,-0.00992927334010601,-0.02533580904752016
1783169271189523200,11.057523193359375,0.19959025993049143,-0.013170154957473278,-0.06779518685340881
1783169271199502300,11.06750244140625,0.1765162583351135,-0.00857727420926094,-0.08750584949553013
1783169271209451300,11.077451171875,0.15560674129724503,-0.0060953942656517025,-0.10457768806666135
1783169271219400200,11.087400146484375,0.17569909673333167,0.010523439840972423,-0.14622136557549237
1783169271229348000,11.09734814453125,0.19595219568908212,0.01661941862851381,-0.15666326461285351
1783169271239328300,11.107328369140625,0.24910627824962137,0.01586363182514906,-0.15764979143217206
1783169271249276200,11.117276123046874,0.27865327525138855,-0.014480945295095443,-0.13031126426011322
1783169271259225000,11.12722509765625,0.27418168279528615,-0.045481648236513135,-0.11346914279162883
1783169271269204200,11.137204345703125,0.2841530417114496,-0.04582914649993181,-0.11396686318069696
1783169271279153200,11.147153076171875,0.24379122070670126,-0.02762275094091892,-0.10927870536446571
1783169271289102000,11.15710205078125,0.18700725721120834,-0.021481179445981977,-0.10654431196451186
1783169271299051300,11.16705126953125,0.17787293364107606,-0.025047055234014987,-0.11634060657471418
1783169271309030100,11.177030029296875,0.19453882175981999,-0.020330255845189094,-0.12357260365486145
1783169271318979300,11.186979248046875,0.20796879669725893,-0.008477613227069377,-0.10788681261464952
1783169271328927200,11.19692724609375,0.19958616827726364,0.018048866909742355,-0.09006649376377462
1783169271338876200,11.206876220703125,0.15476444525420666,0.01656242774426937,-0.057768006096780296
1783169271348855300,11.216855224609375,0.11248831506073474,-0.0025268881291151046,-0.025996611043810843
1783169271358804200,11.22680419921875,0.09491174183785915,-0.003781272104382515,-0.005528115771710872
1783169271368753200,11.236753173828125,0.10594751511514186,0.029895372048020362,0.012842530438303947
1783169271378732300,11.246732177734375,0.12564122662246227,0.07185586042106151,0.012855828311294316
1783169271388681200,11.25668115234375,0.1312906306862831,0.08488105394989251,0.009302958135306835
1783169271398630100,11.266630126953125,0.16598317388296127,0.08688625629246234,0.03083352968096733
1783169271408578000,11.276578125,0.1646229914456606,0.0955365957379341,0.06409151002988218
1783169271418557200,11.28655712890625,0.1586269659012556,0.11518909845203161,0.09714856097921729
1783169271428506000,11.296506103515625,0.15609890872836113,0.11825579254627228,0.10975567522644997
1783169271438455000,11.306455078125,0.1263543433278799,0.11858049445599317,0.09902399946227669
1783169271448434200,11.31643408203125,0.09604045360684395,0.1282525781646371,0.09406228540167212
1783169271458383000,11.326383056640625,0.05751636942327022,0.11287380724698304,0.10099763762280345
1783169271468332000,11.33633203125,0.031098318096995353,0.1284390406474471,0.09683861824721098
1783169271478280200,11.3462802734375,0.01654898374080658,0.14495090724825857,0.0912234087139368
1783169271488260400,11.35626025390625,-0.006219312906265258,0.14469430213868617,0.07770546323210001
1783169271498208300,11.366208251953125,-0.013096212938427925,0.13375234462469815,0.04807970190569758
1783169271508157200,11.3761572265625,-0.01920095955431461,0.14206453815698622,0.0016305238112807273
1783169271518106000,11.386106201171875,-0.021253800430893897,0.14408552259057758,-0.044442222186177965
1783169271528085200,11.396085205078125,-0.008061725902557373,0.1336938924357295,-0.09374927392974496
1783169271538034200,11.4060341796875,0.018948446097970008,0.12232289585471152,-0.1405035724505782
1783169271547983000,11.415983154296875,0.04315349754989147,0.11021394038796424,-0.15553601414859294
1783169271557962200,11.425962158203125,0.06220891115367412,0.0831499923735857,-0.15765841313004492
1783169271567911200,11.4359111328125,0.06400748500823975,0.04107727579772472,-0.1537844943061471
1783169271577859000,11.445859130859375,0.09905366394817829,0.028531097957491872,-0.16405775877833365
1783169271587808300,11.455808349609375,0.14464344873428345,0.027396833230555057,-0.16784385318830608
1783169271597787100,11.465787109375,0.16094108806252477,0.025861878748238084,-0.17383417964428663
1783169271607736000,11.475736083984375,0.16773206337690352,0.01158580837547779,-0.19109978722184895
1783169271617685000,11.48568505859375,0.17887655772566793,0.011121990256011485,-0.1874804276809096
1783169271627664100,11.4956640625,0.17901275132596492,0.0030889059260487553,-0.18911489701494574
1783169271637613000,11.505613037109375,0.19605857867300508,-0.000018120178580284118,-0.18513912525177
1783169271647561000,11.51556103515625,0.20788637911081312,-0.004894786304235458,-0.17633038037419319
1783169271657510400,11.525510498046875,0.22763445115387437,-0.004728489826619625,-0.18250512348636982
1783169271667489000,11.535489013671874,0.20399112523794172,0.022148118922114372,-0.1777116055995226
1783169271677438200,11.545438232421875,0.18290975876450538,0.03558335455656052,-0.18307035615369677
1783169271687387100,11.55538720703125,0.18840075739622114,0.043487844070792196,-0.1917313631236553
1783169271697336300,11.56533642578125,0.15766951904594897,0.05461947893798351,-0.181736477201432
1783169271707315200,11.575315185546875,0.1482090322613716,0.049585868684947486,-0.16533830010816453
1783169271717264100,11.58526416015625,0.13813070583939552,0.051830725002288816,-0.1504495046645403
1783169271727212300,11.59521240234375,0.12444354127049445,0.06749240451455116,-0.13998159440308808
1783169271737192200,11.605192138671875,0.13596972841322422,0.08677285904586314,-0.11834332469925284
1783169271747140000,11.61514013671875,0.12899521322548388,0.0906482391744852,-0.09986191159114241
1783169271757089000,11.625089111328125,0.11193126569986343,0.09004676614999771,-0.08264350415617228
1783169271767038200,11.6350380859375,0.08308744853138923,0.09235387404859065,-0.07362929983437061
1783169271777017000,11.64501708984375,0.07054360877871513,0.10683774195313453,-0.06880889394059776
1783169271786966000,11.654966064453125,0.11634732857644557,0.13522621656954287,-0.07976005767434835
1783169271796914200,11.6649140625,0.13512626332640648,0.15009703796505927,-0.08405965456441045
1783169271806863000,11.674863037109375,0.09372223979234695,0.13459551745057105,-0.06122092302963137
1783169271816842000,11.684842041015624,0.08465396719574927,0.11328414161354303,-0.018813859932869673
1783169271826791200,11.694791259765625,0.12539397386312484,0.10105682046413421,0.014935702183627289
1783169271836740400,11.704740234375,0.16503157224655152,0.07128010635972022,0.04739727259948849
1783169271846719200,11.71471923828125,0.17573884422183036,0.04677139578610658,0.08230331241637467
1783169271856668200,11.724668212890625,0.14702537543475627,0.04201894056200981,0.11289514229595661
1783169271866617000,11.7346171875,0.1023988827228546,0.053253743542730804,0.1398778417676687
1783169271876565200,11.744565185546875,0.06644611033201217,0.05791092169880867,0.1475596284419298
1783169271886545200,11.754545166015625,0.05766425346136093,0.05306026679724454,0.14589607914388178
1783169271896493300,11.764493408203125,0.042915597140789026,0.055853989169001576,0.14238134902119637
1783169271906442200,11.774442138671875,0.013468553382158278,0.08879764287173747,0.14988076486587523
1783169271916421000,11.784421142578125,0.004707154777646065,0.10772913783490658,0.16136486643254755
1783169271926370000,11.7943701171875,-0.011332125875353812,0.12324994757175445,0.15950184903964398
1783169271936319200,11.8043193359375,-0.02116086145043373,0.14137480232715605,0.15106164521351456
1783169271946267100,11.81426708984375,0.011166121658682823,0.15416092640310525,0.1472429637081921
1783169271956247000,11.8242470703125,0.028081016102433205,0.15064824210703373,0.14378814707919954
1783169271966195200,11.8341953125,0.05356032527387142,0.1355868665754795,0.12061930680721998
1783169271976144100,11.84414404296875,0.07752806083858013,0.13272095575034618,0.12084595516994595
1783169271986093300,11.85409326171875,0.11239829868972301,0.1336067986741662,0.09644172788411379
1783169271996072000,11.864072021484375,0.13463935659229756,0.10805413200557232,0.07982888512685894
1783169272006065000,11.87406494140625,0.13674714252650738,0.07979103733450174,0.07544745517224073
1783169272016013800,11.884013916015626,0.1462058757454157,0.08929214839041233,0.054260290236771105
1783169272025993000,11.893992919921875,0.14182839131355285,0.08082125716507435,0.02343786647170782
1783169272035942000,11.90394189453125,0.1390472361624241,0.061270168998837464,0.007929770085960627
1783169272045889800,11.913889892578124,0.13690379439294337,0.05494768797904253,-0.021604956522700374
1783169272055838700,11.923838623046874,0.14927520018815993,0.06515636278241872,-0.05387172931060195
1783169272065817900,11.93381787109375,0.14179682713150976,0.07732815435230732,-0.06774404118806124
1783169272075766800,11.943766845703125,0.1235445466041565,0.07154694060236215,-0.07171908229887484
1783169272085716000,11.953716064453126,0.0852542711764574,0.061250295254588125,-0.08079349237531423
1783169272095695000,11.963695068359375,0.07504676541686058,0.058174248810112475,-0.08973930763602256
1783169272105644000,11.97364404296875,0.08181962055265903,0.08863573030829429,-0.10536620809584855
1783169272115592000,11.983592041015624,0.10865092885494232,0.10849719959795474,-0.10884425946995616
1783169272125540900,11.993540771484374,0.1074316161930561,0.10515578021556138,-0.07750935613811015
1783169272135520000,12.00352001953125,0.09383680608272552,0.0787234081029892,-0.060294163573533295
1783169272145469000,12.013468994140625,0.10149462735950947,0.06484452035427093,-0.05759133892219979
1783169272155417900,12.02341796875,0.13295301094055176,0.06649316434413194,-0.0499950340077281
1783169272165366800,12.03336669921875,0.14081716844439507,0.05649462516009807,-0.04076601789146662
1783169272175346000,12.043345947265625,0.16634148580133915,0.05500730921179056,-0.046950697875767944
1783169272185294800,12.053294921875,0.18899346259236335,0.06624269671440124,-0.04950930088397581
1783169272195243000,12.063242919921874,0.19048750054240227,0.07075345213711261,-0.04941840316355228
1783169272205223000,12.073222900390626,0.20948972265422344,0.053066696538031095,-0.0485233540199697
1783169272215170800,12.0831708984375,0.23354747458994388,0.04956862528920173,-0.04647124379575252
1783169272225119700,12.09311962890625,0.23385201049447057,0.04811608839333057,-0.04205824965909123
1783169272235069000,12.10306884765625,0.23775369410812852,0.05462561641782522,-0.03356763081997633
1783169272245047800,12.1130478515625,0.24320319168567656,0.0672536273226142,-0.03342588426172733
1783169272254997000,12.1229970703125,0.2525976274967193,0.06481178712844848,-0.02858852723315358
1783169272264945200,12.132945068359374,0.2198696623712778,0.051508361180126666,-0.0018064694666536524
1783169272274925000,12.142925048828126,0.19073942947685718,0.047044952030479904,0.030051434825989418
1783169272284873000,12.152873046875,0.1573240666091442,0.04149696251451969,0.04621214990157168
1783169272294822000,12.16282177734375,0.09213643190562724,0.03951134165525436,0.032523674724996086
1783169272304771000,12.17277099609375,0.042649055159091946,0.051825172044336794,0.01256765901967883
1783169272314750000,12.18275,-0.0012695815443992614,0.06784311764836311,0.004018587991595268
1783169272324699000,12.192698974609375,-0.06778992615640163,0.06925181540250777,-0.016832622987776994
1783169272334647800,12.202647705078125,-0.10801847617030143,0.061821080879867076,-0.05378010550439358
1783169272344596000,12.212595947265624,-0.09354629870355129,0.06094108317494392,-0.07517550636306404
1783169272354576000,12.222575927734376,-0.08397124562859534,0.05723024595826864,-0.07868935970291495
1783169272364523800,12.232523681640625,-0.08616261819303035,0.0460235000282526,-0.10357289493829011
1783169272374473000,12.242472900390625,-0.04227028497457504,0.04975801038146019,-0.1244167993940413
1783169272384451800,12.252451904296874,0.03890226984620094,0.05675736774951219,-0.13712021362259982
1783169272394400800,12.26240087890625,0.16401508868038653,0.056711482781171794,-0.12402619264125823
1783169272404349700,12.272349609375,0.28001988742947576,0.02085457198023796,-0.10000000488758086
1783169272414299100,12.282299072265625,0.3038379853904247,-0.010654665005207061,-0.08596008135825395
1783169272424278000,12.292278076171876,0.2780845354527235,-0.03026712796986103,-0.0755931472532451
1783169272434226000,12.302225830078125,0.295053205910325,-0.02678746916055679,-0.06994827323406934
1783169272444175000,12.312175048828125,0.2898299183040857,-0.012558452799916266,-0.06724675919041037
1783169272454124000,12.3221240234375,0.2889420295536518,-0.016507774947583674,-0.07172697334438562
1783169272464103000,12.33210302734375,0.27955460800528525,-0.018473814323544502,-0.11112813262343406
1783169272474051800,12.3420517578125,0.2342868947803974,-0.0008937339693307876,-0.14030731922611595
1783169272484001000,12.3520009765625,0.1926291887462139,0.0114960842654109,-0.14093918738886713
1783169272493980000,12.36197998046875,0.15897534094750881,-0.002325228077173233,-0.1394321438267827
1783169272503928800,12.3719287109375,0.11964286299049853,-0.01804740560501814,-0.1223382395543158
1783169272513877000,12.381876953125,0.09267945274114608,-0.00544715948998928,-0.11624576789811253
1783169272523826000,12.391825927734375,0.0955979705363512,-0.0047314124360680575,-0.09978329339697957
