time,seconds_elapsed,z,y,x
1783169357915039700,0.119039794921875,0.17228724246323107,0.07331424253582954,-0.05366926554106176
1783169357924988700,0.12898876953125,0.18692367058098316,0.09712941788733005,-0.01258278352357447
1783169357934937900,0.138937744140625,0.19945055919885635,0.12672639151066542,0.025030980882048606
1783169357944887000,0.148886962890625,0.19802081865668295,0.15521043545603752,0.04894545188955962
1783169357954866000,0.158865966796875,0.2568435945034027,0.18018939388990401,0.06492598809264599
1783169357964814800,0.16881494140625,0.2707850260943174,0.2206008992552757,0.0854486247047782
1783169357974763000,0.178762939453125,0.23357377807497978,0.22252982149124145,0.14113653659187256
1783169357984743000,0.188742919921875,0.16132336537837982,0.19526713603436946,0.17310783813111483
1783169357994690800,0.19869091796875,0.05853402203321457,0.18362872068881989,0.17723076328001916
1783169358004639700,0.2086396484375,0.006125789403915405,0.189320502589643,0.1738718813061714
1783169358014589000,0.2185888671875,-0.05527472797632217,0.20180998180657625,0.09951587463244795
1783169358024567800,0.22856787109375,-0.15569968027770517,0.24121990891396997,0.012836831349879502
1783169358034516700,0.238516845703125,-0.16296879449784754,0.2538490888625383,-0.04751505376026034
1783169358044465700,0.248465576171875,-0.07499591201245784,0.27872955535799265,-0.08806012237742543
1783169358054413800,0.258413818359375,0.020685645154118536,0.27798487447053194,-0.0845305600117892
1783169358064393700,0.268393798828125,0.08829904569983482,0.23019904094487428,-0.04306698831021785
1783169358074370600,0.27837060546875,0.10296762252151966,0.1799631839185953,0.025699308597669005
1783169358084319700,0.28831982421875,0.11778116077184676,0.1284787881359458,0.06244082021340727
1783169358094298600,0.298298583984375,0.13342004393041132,0.08314239358901977,0.05633578133657574
1783169358104247800,0.308247802734375,0.13640052104592323,0.06933189490139484,0.050999681005626914
1783169358114196700,0.31819677734375,0.16146423515379427,0.05592559310048818,0.03563318504765629
1783169358124145000,0.328144775390625,0.13898644588589668,0.054225803445279594,0.03201652892045676
1783169358134124800,0.338124755859375,0.11334697771668434,0.051479135085642336,0.006735518800094723
1783169358144072700,0.34807275390625,0.13367080382108687,0.053847617782652374,-0.023497195443511008
1783169358154021600,0.358021728515625,0.12054068861305713,0.054526539957523344,-0.014600406956300138
1783169358163970800,0.367970703125,0.13954057263731956,0.033795594356954096,-0.01223031682409346
1783169358173949700,0.37794970703125,0.15352233623862266,0.03703852180093527,0.0026248686108738184
1783169358183898600,0.387898681640625,0.12591770547628403,0.016342062991857528,0.019119418750703332
1783169358193847600,0.39784765625,0.1067477255821228,-0.024617431645095347,0.027331878235563635
1783169358203826700,0.40782666015625,0.048425300472974775,-0.021595453475415704,0.02261566336862743
1783169358213775600,0.417775634765625,0.014352350479364393,0.0039621816292405125,-0.03066036507114768
1783169358223723800,0.427723876953125,0.005506780722737312,0.05994505787491798,-0.0699601828675717
1783169358233672700,0.437672607421875,-0.07775660889744758,0.09211918850988149,-0.1048088664740324
1783169358243651600,0.447651611328125,-0.08487257838249206,0.09170037857592106,-0.160669796840474
1783169358253600800,0.457600830078125,-0.03896832081973552,0.12132920864224433,-0.18285342546738684
1783169358263549700,0.4675498046875,-0.018322423154115676,0.1673781353726983,-0.18255422332510352
1783169358273497900,0.477497802734375,0.05146832143068313,0.16147300298213957,-0.18569551702551543
1783169358283477800,0.487477783203125,0.0975759926110506,0.12551701572090387,-0.1812337153110653
1783169358293426000,0.497426025390625,0.1546791050583124,0.10894231301695108,-0.1713598254200071
1783169358303374800,0.507374755859375,0.19823007749319074,0.1238423605069518,-0.15829196179322896
1783169358313353700,0.517353759765625,0.2549976743757725,0.12084347095191478,-0.1633802248429507
1783169358323302700,0.527302734375,0.29398996059298516,0.10077069699913263,-0.16536131565757095
1783169358333251800,0.537251953125,0.3217588420063257,0.06616027912795543,-0.15107399323843418
1783169358343200800,0.54720068359375,0.329436537027359,0.04762129061371088,-0.14310842118673026
1783169358353179600,0.5571796875,0.31735973026454445,0.051179859878122805,-0.15350195103771982
1783169358363128600,0.567128662109375,0.32065818728804585,0.052751054717600346,-0.14334149929024279
1783169358373076700,0.57707666015625,0.268159938287735,0.034117081396281716,-0.15040814974084496
1783169358383025700,0.587025634765625,0.27418285183906554,0.006296177534759044,-0.15445654834881423
1783169358393004500,0.597004638671875,0.24716625009775162,0.03049976768195629,-0.12746668848395346
1783169358402953700,0.60695361328125,0.20397709671258926,0.030361820515990255,-0.11618190888166427
1783169358412903000,0.61690283203125,0.15766542739272116,-0.003321545638144016,-0.11643953690454363
1783169358422881500,0.626881591796875,0.10526654711365699,-0.00222907422631979,-0.11140461147725582
1783169358432830700,0.636830810546875,0.08416063072085381,0.012284604294598102,-0.12186039290949702
1783169358442779000,0.64677880859375,0.04779752396345138,0.03218231394141912,-0.09759608555100857
1783169358452727800,0.656727783203125,0.02078618291914463,0.04650017762929201,-0.09389956912063062
1783169358462706700,0.666706787109375,-0.02227496017217636,0.04023030357956886,-0.07632233831062912
1783169358472656000,0.67665576171875,-0.013884732967615127,0.03758388072401285,-0.03820807703696191
1783169358482604800,0.686604736328125,-0.033172201761603355,0.057840779072046274,-0.011412205374240874
1783169358492583700,0.696583740234375,-0.05845101992487907,0.07201338907033204,0.0065966948512941595
1783169358502532600,0.70653271484375,-0.04058277027904987,0.07067687976956367,0.02957585777007043
1783169358512481800,0.716481689453125,-0.028009119910001753,0.09605389761030673,0.0508173101760447
1783169358522429700,0.7264296875,0.0018108488142490385,0.1297656130760908,0.07322846394851804
1783169358532409600,0.73640966796875,-0.011644845086336135,0.13926321700066327,0.08462064944803714
1783169358542357800,0.746357666015625,-0.05438099400699138,0.13669512007832527,0.11421930357180535
1783169358552306700,0.756306640625,-0.027322306689620015,0.1431146317318082,0.11149996161051094
1783169358562255600,0.766255615234375,-0.011323942568898201,0.17106120779961348,0.10709631982408463
1783169358572234800,0.77623486328125,-0.06578852320611477,0.1730859916254878,0.13326288060732186
1783169358582183700,0.78618359375,-0.0961947673857212,0.1439540051653981,0.13770342033803462
1783169358592131600,0.796131591796875,-0.08854922106862068,0.1449354174181819,0.09363485376983881
1783169358602111700,0.80611181640625,-0.057016603207588196,0.17534604551196098,0.0633388650316745
1783169358612060000,0.816059814453125,-0.036703883019089695,0.20196341880261898,0.04387150962613523
1783169358622008800,0.8260087890625,0.010778583645820617,0.17922230242341755,0.03131028034724295
1783169358631957800,0.835957763671875,0.03853051392436027,0.16595862396359443,0.025236805652454494
1783169358641937000,0.84593701171875,0.037056349718570705,0.15542320142388344,0.041713089483231304
1783169358651885800,0.8558857421875,0.11166413919627666,0.12148176885545253,0.05377805967777967
1783169358661834800,0.865834716796875,0.15143968474566935,0.10364449886977672,0.020889058771729467
1783169358671782700,0.87578271484375,0.19191607204079628,0.10638619879335165,-0.01251622109338641
1783169358681762800,0.8857626953125,0.20697803209424018,0.08901713084131478,-0.008549290223792194
1783169358691710700,0.895710693359375,0.18183423848748206,0.05963993744850158,-0.0052775020115077495
1783169358701659600,0.90565966796875,0.21643851887881754,0.052312663300335405,-0.030099370187520978
1783169358711638800,0.915638671875,0.222653740131855,0.07733049243986606,-0.04715111581869423
1783169358721587700,0.925587646484375,0.18627894293665884,0.0872390152528882,-0.045924496633186936
1783169358731536600,0.93553662109375,0.14768003995120524,0.045457390578091145,-0.03649477031305432
1783169358741485800,0.94548583984375,0.10471358940601348,0.044781975534558295,-0.04900711894892156
1783169358751464700,0.955464599609375,0.07641688472628592,0.07216799511015415,-0.06925897579565644
1783169358761412600,0.96541259765625,0.06875789440572261,0.10374299080818891,-0.0975388754710555
1783169358771361800,0.97536181640625,0.013895254361629486,0.13493044849336147,-0.08794745578318834
1783169358781310700,0.985310791015625,-0.012149287477135657,0.14371172084212303,-0.06478877157904207
1783169358791289900,0.995289794921875,-0.0006879822641611098,0.13808423634916542,-0.07248539049625397
1783169358801238800,1.00523876953125,-0.007038228073716163,0.16277093383818864,-0.09871522577404976
1783169358811187700,1.015187744140625,-0.011315759262442588,0.1727653813689947,-0.12436404629349708
1783169358821166800,1.025166748046875,-0.015806640940904615,0.1575400474473834,-0.12452077122516929
1783169358831115800,1.03511572265625,0.0018587796092033385,0.1150344924122095,-0.08710501360967755
1783169358841063700,1.045063720703125,0.028948446586728096,0.08148410498797894,-0.07370199974440038
1783169358851012600,1.0550126953125,0.05428571693897247,0.0876703924074769,-0.09528379002064466
1783169358860991700,1.06499169921875,0.0805050308227539,0.11644055981785058,-0.10013502944409847
1783169358870940700,1.074940673828125,0.06110241121649742,0.13452274447530507,-0.09348989234119653
1783169358880889600,1.0848896484375,0.013148819908499717,0.08544628661721944,-0.06764211518354714
1783169358890838500,1.094838623046875,-0.0048550388157367706,0.028577567447721955,-0.06080854283645749
1783169358900817700,1.104817626953125,-0.0029459903240203855,0.06085808106660843,-0.08496296007968485
1783169358910766600,1.1147666015625,-0.018245266264677047,0.04938157828450203,-0.10794891806542872
1783169358920714500,1.124714599609375,0.014971943682432173,0.01940495769381523,-0.09911715763844549
1783169358930693600,1.134693603515625,0.03144260149002075,0.014083178149163721,-0.07957162243016064
1783169358940642800,1.144642822265625,0.029198621955513954,0.011283610558509826,-0.07059899222776293
1783169358950591700,1.154591796875,0.05199848278462887,0.00004763853400945663,-0.06740947547145187
1783169358960540700,1.164540771484375,0.05926584343910217,0.0029492051944136617,-0.06131364281438291
1783169358970519800,1.174519775390625,0.05413432576954364,0.02244096438884735,-0.02914272704981267
1783169358980468700,1.18446875,0.023980595046281812,0.02055968068689108,0.005031272165477276
1783169358990416600,1.194416748046875,0.022453239348530767,0.007604922045767307,0.03262012083679437
1783169359000365800,1.20436572265625,-0.01101765309870243,0.022337504014372823,0.04778488367758691
1783169359010344700,1.2143447265625,-0.052660746085643764,0.05088467632383108,0.047545668094232676
1783169359020293600,1.224293701171875,-0.03627718203961849,0.06273147372305393,0.040751916300877926
1783169359030242600,1.23424267578125,-0.04476151726841926,0.09912526787966489,0.05221322151385247
1783169359040221700,1.2442216796875,-0.06566226647794246,0.10361819538474082,0.05288396038226783
1783169359050170600,1.254170654296875,-0.03479892618060112,0.08968933101445437,0.04509644831120967
1783169359060119600,1.26411962890625,-0.016235095486044883,0.12309271118342875,0.023977964697778225
1783169359070077400,1.274077392578125,0.015969138026237485,0.1533525326296687,0.014473419575765728
1783169359080057300,1.284057373046875,0.05252630605101585,0.15422347024530172,0.012572773586213589
1783169359090005500,1.294005615234375,0.0659305620253086,0.15023556965291499,0.015069778033718466
1783169359099954400,1.303954345703125,0.09114858991205692,0.13669365877360104,0.02073854438513517
1783169359109903400,1.3139033203125,0.10865852763950824,0.1433057703897357,0.039502427696436644
1783169359119882200,1.32388232421875,0.11461597473919391,0.14488631757944823,0.03885105111561715
1783169359129831400,1.33383154296875,0.10712883385419845,0.1453203250825405,0.019277897248044608
1783169359139779300,1.343779296875,0.11133797598183154,0.14069763371795416,-0.021975319638475776
1783169359149759200,1.35375927734375,0.12429741079807281,0.14739391648620367,-0.05862243096902966
1783169359159707400,1.363707275390625,0.14462649759948254,0.1500607976078987,-0.07309614280574023
1783169359169656300,1.37365625,0.17225626280307768,0.14951368511915206,-0.0875218507822603
1783169359179605200,1.383605224609375,0.14802081621289254,0.13484043212234972,-0.09441979360245167
1783169359189584100,1.393584228515625,0.1529798999249935,0.10584200891405343,-0.10368833801150322
1783169359199533300,1.403533203125,0.1980629042327404,0.08499094406515359,-0.09917276028320193
1783169359209482500,1.413482421875,0.2024585088431835,0.10115502014160156,-0.08276018933840096
1783169359219430400,1.423430419921875,0.20232699141800403,0.08158084336072206,-0.05142462841942906
1783169359229410300,1.433410400390625,0.20609481951892375,0.06438567067086697,-0.04323182348310947
1783169359239358500,1.4433583984375,0.1582224767535925,0.06393237394541501,-0.039754721957072615
1783169359249307400,1.453307373046875,0.14370529110133648,0.06362959160655736,-0.030021847971901296
1783169359259286500,1.46328662109375,0.07611468690931797,0.08734919762909411,-0.016202581455931068
1783169359269235500,1.4732353515625,0.050937575554847715,0.10381897865384816,-0.03239288795217871
1783169359279184400,1.483184326171875,0.036026422148942944,0.11297551405578851,-0.04398242265470326
1783169359289132300,1.49313232421875,-0.021418051081895827,0.10773849018514156,-0.03666092066019773
1783169359299112200,1.5031123046875,-0.011225158369541167,0.1151546116605401,-0.03027984132096171
1783169359309060400,1.513060302734375,-0.045810149538516996,0.11498831518292427,0.013687602960318327
1783169359319009300,1.52300927734375,-0.07141162378489971,0.10322685797959566,0.042940950777754186
1783169359328958200,1.532958251953125,-0.028441666108369824,0.10397504599839448,0.04764386777170002
1783169359338937300,1.542937255859375,-0.05688157865107059,0.12350772172510623,0.0494604156743735
1783169359348886300,1.55288623046875,-0.06821428904831409,0.10714607724994421,0.0608477788683027
1783169359358835500,1.56283544921875,-0.04784720832407474,0.08495236562043428,0.06175766025483608
1783169359368814300,1.572814453125,-0.07847966247498989,0.07728226938396691,0.07493709449730813
1783169359378763500,1.582763427734375,-0.05370820931196212,0.078664079131186,0.0656705959148705
1783169359388711400,1.59271142578125,-0.023761399337649345,0.0789691995576024,0.05456343790180981
1783169359398660400,1.602660400390625,-0.05210895742177963,0.0615606763780117,0.059954410225152965
1783169359408639500,1.612639404296875,-0.0597001432031393,0.020418518650531767,0.07556107161454856
1783169359418588400,1.62258837890625,-0.11420856298208236,-0.02149286988377571,0.05328180059343576
1783169359428537300,1.632537353515625,-0.09747428580224514,-0.043778351449966425,0.019366963770985603
1783169359438485500,1.642485595703125,-0.07694003181755542,-0.03619973288923502,0.03376088836975395
1783169359448465400,1.65246533203125,-0.11325520778000354,-0.06359013637900351,0.027211466726288196
1783169359458413300,1.662413330078125,-0.14384616087675095,-0.13625760544389484,0.019743688128888607
1783169359468362200,1.6723623046875,-0.17548925337493418,-0.15135609811544418,-0.005895780040323734
1783169359478341400,1.68234130859375,-0.20470541098713874,-0.1252545653924346,-0.06505450984314083
1783169359488290300,1.692290283203125,-0.2283656880378723,-0.10594108537435531,-0.09390300318673253
1783169359498239200,1.7022392578125,-0.26245617368817326,-0.08105974209606646,-0.10948423787392675
1783169359508188200,1.712188232421875,-0.31164953592419625,-0.05048953952640295,-0.15168343037366866
1783169359518167300,1.722167236328125,-0.33264322411417957,-0.0036953473865985868,-0.16958529002815484
1783169359528116200,1.7321162109375,-0.2590396432429552,0.03437222520112991,-0.17787885192520916
1783169359538064100,1.742064208984375,-0.1898451109856367,0.11413432870209217,-0.17549495246335864
1783169359548013600,1.752013671875,-0.13301087860763072,0.17786475033462046,-0.14626440099962054
1783169359557992400,1.761992431640625,-0.09494973576068877,0.18197218565344808,-0.10141476705633103
1783169359567941400,1.77194140625,-0.058874213773012156,0.17314298250973223,-0.0729298463281244
1783169359577890300,1.781890380859375,0.03600011866390705,0.2279384025365114,-0.05473974431678653
1783169359587838500,1.79183837890625,0.10721300500631331,0.28904315184056756,-0.045991351324319835
1783169359597818400,1.801818359375,0.13714987810850143,0.3348556394666433,-0.028815394791588185
1783169359607766300,1.811766357421875,0.16506372095048427,0.3497656238287687,-0.02201952410638332
1783169359617715500,1.821715576171875,0.22479425929188726,0.3501932015910744,-0.03954151759780943
1783169359627694300,1.8316943359375,0.3279156110703945,0.36089345930367706,-0.05312376048751175
1783169359637643300,1.841643310546875,0.39812311976253983,0.39156536868214603,-0.039654549518227576
1783169359647592200,1.85159228515625,0.4098416146069765,0.3764323892191052,-0.023952318799868224
1783169359657541400,1.861541259765625,0.3921721024036407,0.3257710002571344,-0.03015723785459995
1783169359667520300,1.871520263671875,0.4054536087810993,0.3200117060780525,-0.04917589964456856
1783169359677469200,1.88146923828125,0.38540509248673915,0.33869507149904965,-0.04277355832159519
1783169359687417300,1.891417236328125,0.33571722473204135,0.3007996406078338,-0.025460969797149298
1783169359697366300,1.9013662109375,0.282824423456192,0.24184943898916242,-0.04298603202849626
1783169359707345200,1.91134521484375,0.24187808056175708,0.21651567576825617,-0.0791494514953345
1783169359717294300,1.92129443359375,0.2278559849500656,0.19593758264183997,-0.08335873975344002
1783169359727243500,1.931243408203125,0.21890286316573618,0.15664455991238355,-0.11062062149271368
1783169359737222400,1.941222412109375,0.2168897697776556,0.11018266846686602,-0.12209011001214384
1783169359747171300,1.95117138671875,0.17599135767817498,0.050989598003029823,-0.10525653717629611
1783169359757120300,1.961120361328125,0.14753624756634234,-0.0273404268682003,-0.11082856515496968
1783169359767068400,1.971068359375,0.1505529650390148,-0.06423690984994172,-0.10079648902751505
1783169359777047300,1.98104736328125,0.12214637024402618,-0.04705751925110817,-0.09977598687335848
1783169359786996500,1.99099658203125,0.08009820358753204,-0.04066635690927505,-0.10020151880905032
1783169359796945400,2.0009453125,0.051639001822471615,-0.050449499776959415,-0.10800042905695736
1783169359806894300,2.010894287109375,-0.014612462720274924,-0.06629384237974882,-0.11175612832866609
1783169359816873200,2.020873291015625,-0.01606733770370483,-0.09101882605254649,-0.07360584589354693
1783169359826822400,2.030822509765625,0.06882452990114689,-0.09188304166644812,-0.04330079706609249
1783169359836770300,2.040770263671875,0.09561901332437991,-0.07125497191846371,-0.01815656506791711
1783169359846750200,2.050750244140625,0.09165361682474613,-0.08630787188261747,0.01822699995562434
1783169359856698400,2.060698486328125,0.08359247544407844,-0.11083557941764592,0.032715105643868446
1783169359866647300,2.070647216796875,0.04056055844724178,-0.1006482396632433,0.04061097346022725
1783169359876596500,2.080596435546875,0.00914192235469818,-0.059922553782165044,0.05846081066653132
1783169359886575400,2.090575439453125,0.005016366857290268,-0.0014355857610702514,0.04392798905372619
1783169359896524500,2.100524658203125,-0.018138883280754088,0.037217093238234515,0.038388475105166436
1783169359906473500,2.110473388671875,-0.0674076488405466,0.048699441239237785,0.057326034482941025
1783169359916421400,2.12042138671875,-0.056333881640434263,0.0571340921074152,0.07249518123790621
1783169359926401300,2.1304013671875,-0.022885201025009155,0.07212824762165546,0.10783201368749142
1783169359936349400,2.140349365234375,0.024373978278040883,0.08140724035948514,0.11053184723071753
1783169359946298400,2.15029833984375,0.056101241928339,0.09567483516484498,0.11706833632737397
1783169359956277200,2.16027734375,0.04440846604704857,0.08329349249750376,0.12024499360211192
1783169359966226400,2.170226318359375,-0.007893968120217323,0.09590338322371243,0.11977752222083508
1783169359976175400,2.18017529296875,-0.03364098831713199,0.11189064142853021,0.09891345175988972
1783169359986123300,2.190123291015625,0.0050075990289449685,0.14717325947284698,0.06729089059308171
1783169359996103200,2.200103271484375,-0.009596680384874344,0.18927812475264072,0.020864289656654
1783169360006051300,2.21005126953125,-0.008873042285442351,0.2001753663420677,0.00728562696352601
1783169360016000300,2.220000244140625,0.02607961315214634,0.1900935327887535,0.013283479138836264
1783169360025949200,2.22994921875,0.048638650962710375,0.1847314212337136,-0.015522271041572094
1783169360035928300,2.23992822265625,0.09047288260757923,0.1840373014897108,-0.004867021514475345
1783169360045877500,2.24987744140625,0.09163257403671742,0.19704466710090637,0.07282799338884652
1783169360055826400,2.259826416015625,0.07847147916853428,0.18743454271256924,0.055030909283086654
1783169360065805300,2.269805419921875,0.01543137788772583,0.13286474813520907,-0.039897710624337196
1783169360075803400,2.279803466796875,-0.0753729286313057,0.0800824214965105,-0.12537899548970163
1783169360085751300,2.289751220703125,-0.01528407837152481,0.09214403069019317,-0.09695479197278618
1783169360095700200,2.2997001953125,0.02727554493844509,0.14412585460096597,-0.024077187288552522
1783169360105679400,2.309679443359375,0.1036842463582754,0.1499737038463354,-0.023637261501327157
1783169360115628300,2.319628173828125,0.13881576549410818,0.12028992872238159,-0.016924392924457788
1783169360125577500,2.329577392578125,0.08531681501865386,0.06396364586651325,-0.0017456746235489844
1783169360135525000,2.339525146484375,0.05089665902256965,-0.019205051207542418,0.024126214062049983
1783169360145505500,2.349505615234375,-0.0014916998624801634,-0.06255319454669953,0.014867606525123119
1783169360155453400,2.359453369140625,-0.07543079629838466,-0.045911271825432774,-0.07442709914855658
1783169360165402400,2.36940234375,-0.10305822341442107,-0.005881459254026412,-0.11569456375613808
1783169360175381500,2.379381591796875,-0.07803074966371058,0.04039484649151563,-0.09671016956195234
1783169360185330400,2.389330322265625,-0.014441782328486441,0.06605009675174951,-0.04625058678239584
1783169360195279400,2.399279296875,0.007414075648784637,0.06591273410767316,-0.003859963363781571
1783169360205228300,2.409228271484375,0.0371568874835968,0.033326807801425454,-0.014562120772525668
1783169360215207400,2.41920751953125,0.10441256063282489,0.03263531840592623,-0.008110971871763467
1783169360225156400,2.42915625,0.1251426294505596,0.01435819569826126,-0.00023468553870916364
1783169360235104300,2.439104248046875,0.15071955377757548,0.01806377221792936,-0.03680288641415536
1783169360245053200,2.44905322265625,0.19195757309496403,0.05750029507130384,-0.01708082559518516
1783169360255032300,2.4590322265625,0.1315308691829443,0.09344342285096645,0.040705885202065105
1783169360264981200,2.468981201171875,0.15719079561829566,0.06976765597015619,0.041237434795498844
1783169360274930200,2.47893017578125,0.18048340840041635,0.08501841659396886,0.006324015389755368
1783169360284909300,2.488909423828125,0.17045827347040177,0.13389613700956104,0.016030805085599422
1783169360294858500,2.4988583984375,0.2158750397771597,0.1265346683308482,0.03560395895317196
1783169360304806100,2.50880615234375,0.24132044667899608,0.12739566907435654,0.039878275271505115
1783169360314755300,2.51875537109375,0.24010639471411704,0.11022826117426156,0.025965485253185032
1783169360324734500,2.528734375,0.25257600018680093,0.08945698356330395,0.04481397810801863
1783169360334683400,2.538683349609375,0.21375030270814893,0.05396715250909328,0.05688866597898304
1783169360344632300,2.54863232421875,0.1379442433565855,0.04159048601686954,0.06493921290040015
1783169360354581200,2.558581298828125,0.13472878844141958,0.03927987098693848,0.05684877236001193
1783169360364560400,2.568560302734375,0.14910744240581988,0.05820581299215555,0.03578245732523501
1783169360374509300,2.57850927734375,0.12890811946392058,0.06409867042303084,0.01698233365677297
1783169360384457500,2.58845751953125,0.13538462200164794,0.039921091499924656,0.0024323417134582996
1783169360394437400,2.598437255859375,0.10607610993087291,0.019145137713849545,0.005901844454929232
1783169360404385300,2.60838525390625,0.11048340497910976,0.0029725860700011253,0.02090593684129417
1783169360414334200,2.618334228515625,0.0982774188786745,0.003378536522388458,0.018743278914690017
1783169360424283400,2.628283447265625,0.07071312012672423,0.021742752991616723,0.00018522037379443645
1783169360434262300,2.63826220703125,0.04120937774479389,0.027413784365355968,-0.025386224060505627
1783169360444211200,2.648211181640625,0.01665478220283985,0.024760931769013405,-0.032509280873462554
1783169360454159400,2.658159423828125,0.035955110478401185,0.04798018705397844,-0.01223923078291118
1783169360464108300,2.6681083984375,0.01688742191493511,0.07916063047647476,-0.012386091907694935
1783169360474087200,2.678087158203125,-0.04053308591842651,0.09748948337137699,-0.024602234075963497
1783169360484036400,2.688036376953125,-0.04017652756571769,0.07123977434933185,-0.017274740732088685
1783169360493985500,2.697985595703125,-0.015693243694305418,0.08530541684180498,-0.03550773203708231
1783169360503964400,2.70796435546875,-0.0039151276171207425,0.09876403335183859,-0.03571450665555894
1783169360513913300,2.717913330078125,0.01075403372645378,0.09248129982054233,-0.02909801112525165
1783169360523862300,2.7278623046875,0.025470541343092918,0.06428747099339961,-0.031823125240206716
1783169360533810400,2.737810546875,0.07435527602136134,0.06615852556228638,-0.03165346776172519
1783169360543790300,2.747790283203125,0.09770575647056103,0.09515227259546517,-0.02435410453379154
1783169360553738200,2.75773828125,0.09910451735258102,0.10224164633452892,-0.02172200246453285
1783169360563687400,2.7676875,0.143417121809721,0.09500877247154713,-0.020860271068662405
1783169360573636400,2.77763623046875,0.13316694595217704,0.11568243492692708,-0.02165975088328123
1783169360583615200,2.787615234375,0.11198737980127334,0.12678250561207532,-0.026130831882730125
1783169360593564200,2.797564208984375,0.12175006440281867,0.09901537776440382,-0.024510975595936176
1783169360603512300,2.80751220703125,0.12454057190418243,0.0837158095628023,-0.05528400726132095
1783169360613492200,2.8174921875,0.09321253670454024,0.08030629338026046,-0.09831628958433866
1783169360623440400,2.8274404296875,0.09363105437755584,0.09370411961376666,-0.09414024600870907
1783169360633389300,2.837389404296875,0.12159984227716922,0.08345335923433303,-0.07445968624390661
1783169360643338500,2.84733837890625,0.07888999684154988,0.04908873281776905,-0.08784713721387087
1783169360653317400,2.8573173828125,0.05075929637849331,0.027922902931272982,-0.07289382516667246
1783169360663266300,2.867266357421875,0.030521394991874694,0.012808043646812439,-0.05495251028463244
1783169360673215500,2.877215576171875,0.006452537140250206,0.01576777023524046,-0.05834536759331822
1783169360683163400,2.887163330078125,-0.01054360584616661,0.024911446155607697,-0.07851838705018162
1783169360693143300,2.897143310546875,0.00703355189859867,0.01048135426491499,-0.09515486641135067
1783169360703091500,2.907091552734375,0.015554712006449698,0.031685178074240684,-0.09832798002213239
1783169360713040400,2.917040283203125,0.0094809450507164,0.0412850733295083,-0.09698993635140359
1783169360723019300,2.927019287109375,0.0670154346525669,0.036632571348547936,-0.08618154208920896
1783169360732968400,2.936968505859375,0.055821840465068814,0.05924363160729408,-0.06452580979391932
1783169360742917400,2.94691748046875,0.01148293252289295,0.09603256256133318,-0.05933653405513614
1783169360752866300,2.9568662109375,0.021878654330968854,0.08220131334662437,-0.07033281557224691
1783169360762845200,2.96684521484375,0.03940729675889015,0.07216156536936759,-0.07577047658152877
1783169360772794400,2.97679443359375,0.017948329144716262,0.091454294860363,-0.07770180997028947
1783169360782742300,2.9867421875,0.0522755461603403,0.09803659586012363,-0.07593348512351512
1783169360792691200,2.996691162109375,0.10888298404514789,0.11060293970555067,-0.06708776923641561
1783169360802670300,3.00667041015625,0.07511807708740234,0.1405190622806549,-0.04037190400734544
1783169360812619500,3.01661962890625,0.030628947019577024,0.11413315965831279,-0.03063574208654463
1783169360822568400,3.026568359375,0.026593407893180845,0.08611644096374511,-0.03681961835324764
1783169360832547300,3.03654736328125,0.035498014360666276,0.09016454731076955,-0.006467661644145846
1783169360842496500,3.04649658203125,0.047723289683461186,0.118355161267519,0.012156155609339475
1783169360852444400,3.0564443359375,0.024055413848161695,0.13634849859774112,0.00636142479069531
1783169360862393300,3.066393310546875,0.02784896091222763,0.10882453185617923,0.0026619857508689165
1783169360872372500,3.07637255859375,0.05602876121401786,0.10582242743074893,0.004607493795454502
1783169360882321400,3.0863212890625,0.022498247534036633,0.11299684910476207,0.015887158831208944
1783169360892270300,3.096270263671875,0.012698738053441046,0.10400748696327208,0.029729660092294215
1783169360902219300,3.10621923828125,0.03801555013954639,0.09242577024102211,0.03953684142269194
1783169360912198400,3.116198486328125,0.005670446851849555,0.1116711534589529,0.041736470358818764
1783169360922147300,3.126147216796875,0.0076566522330045695,0.12149959677308797,0.060904039100185034
1783169360932095200,3.13609521484375,0.061736617466807364,0.13359919988960026,0.06407718924358487
1783169360942075100,3.1460751953125,0.05983925941288471,0.1539642347872257,0.05489391196519136
1783169360952023300,3.156023193359375,0.05749240402579307,0.15224983208477497,0.03480813240036368
1783169360961972200,3.16597216796875,0.06876783127784729,0.13844400957226752,0.010889350543916225
1783169360971921400,3.17592138671875,0.06648468877673148,0.12572890490591526,0.010711582824215292
1783169360981900500,3.185900634765625,0.11079144801497459,0.14167057040333747,-0.011728650912269949
1783169360991849500,3.195849365234375,0.09578034136593341,0.17837240759581327,-0.036198344649747013
1783169361001797400,3.20579736328125,0.07917699708938598,0.16264087771773336,-0.024423151182010768
1783169361011746300,3.215746337890625,0.13282383160293101,0.1317827981173992,-0.04219955782592296
1783169361021725400,3.225725341796875,0.15074118108749388,0.14302812249213456,-0.046877121182903644
1783169361031674400,3.23567431640625,0.14221709837019442,0.1692871838644147,-0.0381189009161666
1783169361041623300,3.245623291015625,0.12158639827370643,0.14408873746097087,-0.05199139545671642
1783169361051602400,3.2556025390625,0.12234335412085055,0.11294950283169745,-0.07613054206557572
1783169361061551400,3.26555126953125,0.09557926583588122,0.12018179217278957,-0.09360438556633889
1783169361071502600,3.275502685546875,0.0295277077794075,0.11735182944387197,-0.08551547939591109
1783169361081450800,3.28545068359375,0.049267596516013146,0.08248334515839814,-0.059916927758976814
1783169361091430700,3.2954306640625,0.04860124156177044,0.07362170104980469,-0.06724661305993795
1783169361101378600,3.305378662109375,0.003977671459317207,0.07915770786702632,-0.06683810532428323
1783169361111327700,3.31532763671875,-0.022886370068788527,0.0684054277062416,-0.06760251382552086
1783169361121276700,3.325276611328125,0.0020785598397254942,0.08691723595261573,-0.07147087969146669
1783169361131255600,3.335255615234375,-0.015313304466009139,0.10116963318884373,-0.07313895903415978
1783169361141204500,3.34520458984375,-0.024061843588948247,0.09530600185245275,-0.07282470545321702
1783169361151152600,3.355152587890625,0.006161445239186287,0.07120733338445424,-0.05884805641844868
1783169361161132500,3.365132568359375,0.021206454157829284,0.07271306177228688,-0.0538761132247746
1783169361171080700,3.375080810546875,0.031024083817005155,0.07770517097115516,-0.06299041692018509
1783169361181029600,3.385029541015625,0.0038432314246892928,0.08401450024843216,-0.0514458173379302
1783169361190978600,3.394978515625,-0.006376549294590949,0.08314882332980632,-0.035153000315278765
1783169361200957400,3.40495751953125,0.03969078987538814,0.08640694834291934,-0.024717384888231754
1783169361210906600,3.41490673828125,0.019140753799676894,0.1265326225042343,-0.007611717112734913
1783169361220855600,3.42485546875,-0.007042904248833656,0.13604279364943503,0.011903422957286238
1783169361230803500,3.434803466796875,0.0005295768320560455,0.11886661792099475,0.026066096083447336
1783169361240783600,3.44478369140625,0.00035363574326038356,0.13299305068999528,0.04389905522018671
1783169361250731800,3.454731689453125,-0.02355506311058998,0.1529711320966482,0.03527604217305779
1783169361260680700,3.4646806640625,-0.008703530937433243,0.14586568400561808,0.008771554672345519
1783169361270659600,3.47465966796875,0.04631751453876495,0.160355104868114,0.02390409574396908
1783169361280608800,3.48460888671875,0.07395020235180855,0.16373042652010916,0.058161316263303155
1783169361290557700,3.4945576171875,0.12542553804516793,0.1256301207065582,0.09175766172111034
1783169361300505600,3.504505615234375,0.12256021174192427,0.09445756832957267,0.11005889595672487
1783169361310485500,3.514485595703125,0.09984393754303454,0.09952069693803786,0.12733677849397063
1783169361320433700,3.52443359375,0.1203589023053646,0.1293038407832384,0.10705445344373583
1783169361330382600,3.534382568359375,0.12124971366524695,0.14055442585498093,0.08333389757312834
1783169361340331500,3.54433154296875,0.09396130924522876,0.14894640662521122,0.1211352204401046
1783169361350310700,3.554310546875,0.0725794985204935,0.14409545946270227,0.13922807262204587
1783169361360259600,3.564259521484375,0.07251812372207642,0.16169336773455142,0.1110507565382868
1783169361370208500,3.57420849609375,0.02489361823797226,0.18269494697004557,0.09466792314462363
1783169361380187400,3.5841875,-0.06444470738172531,0.1901712742000818,0.07093034307397901
1783169361390136600,3.594136474609375,-0.09046820643246173,0.20567717862874269,0.05663805221877992
1783169361400084500,3.60408447265625,-0.1138239475786686,0.21334435225576162,0.04517177856974303
1783169361410033700,3.61403369140625,-0.09312836555242537,0.22492168506383894,0.013033888291940092
1783169361420012500,3.624012451171875,-0.08955109158754349,0.21292846493124962,-0.0058110243663191796
1783169361429961700,3.633961669921875,-0.12615502136349677,0.1635194141179323,-0.0006353022288531064
1783169361439910700,3.64391064453125,-0.0931798034787178,0.10177315203994512,0.006545403055474162
1783169361449858600,3.653858642578125,-0.05844809731543064,0.10444763194620608,-0.03127294401153922
1783169361459838700,3.663838623046875,-0.036196518018841745,0.12105068396180868,-0.05878598750028759
1783169361469786600,3.67378662109375,-0.034601942303776737,0.11973638649284839,-0.053208114302717144
1783169361479735600,3.683735595703125,-0.027938977283239363,0.10229220747798681,-0.07630279335994274
1783169361489714700,3.693714599609375,-0.01915185971558094,0.07307488082200288,-0.11407426907792687
1783169361499663600,3.70366357421875,-0.061005380582809444,0.05882569845616817,-0.12134162973240017
1783169361509612500,3.713612548828125,-0.046998482540249825,0.05167933383285999,-0.0997598394561559
1783169361519561500,3.7235615234375,0.017499416333436966,0.07074673013538121,-0.10379789933320134
1783169361529540600,3.73354052734375,0.04355623313188552,0.10002601611167192,-0.12057437168695032
1783169361539489500,3.743489501953125,0.0411304672896862,0.0914238997220993,-0.11144596640095114
1783169361549437400,3.7534375,0.05002630592882633,0.054985974162816996,-0.10483933467753231
1783169361559386400,3.763386474609375,0.13314473412036895,0.055011693125963206,-0.10524623497799038
1783169361569365500,3.773365478515625,0.1316869365274906,0.07305500707775354,-0.1038368065714836
1783169361579314700,3.783314697265625,0.11034896494448185,0.07581219683140515,-0.10717519374657422
1783169361589263600,3.793263671875,0.16270166799426078,0.0633294396162033,-0.09606116760130971
1783169361599242800,3.80324267578125,0.12928455156087876,0.08034545634686946,-0.10218531303741037
1783169361609191700,3.813191650390625,0.09807634334862232,0.09136573979407549,-0.10448332431409507
1783169361619139600,3.8231396484375,0.10992869370579719,0.094926939406991,-0.0812496386449784
1783169361629088800,3.8330888671875,0.1172001460134983,0.10533172130435704,-0.05896130753457546
1783169361639067600,3.843067626953125,0.13690028726160525,0.11730565221458673,-0.05464527096636593
1783169361649016600,3.8530166015625,0.11562544404268264,0.08899901066273451,-0.061365007675439114
1783169361658965500,3.862965576171875,0.10066577531993388,0.054314650772511956,-0.08050693051889539
1783169361668914400,3.87291455078125,0.1072358013600111,0.042507893122732635,-0.06701817459892481
1783169361678893600,3.8828935546875,0.1073573819130659,0.03207476191371679,-0.02689845525436103
1783169361688842500,3.892842529296875,0.09646247841119766,0.016544307565689087,0.0027403116840869187
1783169361698790700,3.902790771484375,0.04859948799610138,-0.005796119058132172,-0.007905000970885158
1783169361708770600,3.9127705078125,0.03898936360776424,-0.01604044969677925,-0.008982128683105111
1783169361718718500,3.922718505859375,0.04079144459366798,0.008722235637903213,0.021188333979248998
1783169361728667400,3.93266748046875,0.03371814520657063,0.013648586124181747,0.04606916580088436
1783169361738616800,3.942616943359375,0.011890928801894187,0.01762684210538864,0.03413739353194833
1783169361748595500,3.952595458984375,-0.009992401704192161,0.025013152964413164,0.0022813889354467392
1783169361758544600,3.962544677734375,0.016761165186762808,0.02979483428299427,0.006246493174135685
1783169361768493600,3.97249365234375,0.030150808113813397,0.06259820273220539,0.03328092283308506
1783169361778441700,3.982441650390625,0.0007575403690338134,0.07100099715739489,0.0409589831802994
1783169361788421600,3.992421630859375,0.02149286988377571,0.07247983753830194,0.03836450970768928
1783169361798369500,4.00236962890625,0.029046061742305753,0.08492460083067417,0.046657267887145276
1783169361808318700,4.012318603515625,0.024315526089072226,0.1024345385581255,0.05994893033243715
1783169361818297600,4.022297607421875,0.02052256354689598,0.10044073439240456,0.048659145761467515
1783169361828246500,4.03224658203125,0.025694413226842877,0.10575170028209685,0.028254692168906328
1783169361838195500,4.042195556640625,0.04359714966416359,0.10920885499864816,0.024118103820830582
1783169361848143600,4.0521435546875,0.07394669522047043,0.11020546482056379,0.014605521522834897
1783169361858123500,4.06212353515625,0.06878302884697914,0.10922025317549705,0.013903949124738572
1783169361868071700,4.07207177734375,0.05551672003865242,0.0859083511710167,0.004946297295764088
1783169361878020600,4.0820205078125,0.08985679653584956,0.09137918379753827,-0.024350926196016368
1783169361887969500,4.091969482421875,0.11570201641023159,0.12303455125540494,-0.02573598734624684
1783169361897948400,4.101948486328125,0.07880757925510407,0.1091024720147252,-0.010914996441826223
1783169361907897600,4.111897705078125,0.03787818749547005,0.06348638374358415,-0.0075463967915624375
1783169361917846800,4.1218466796875,0.037142274436354636,0.03504150276482105,-0.032544644447788595
1783169361927825700,4.13182568359375,0.09399754960238933,0.085467621666193,-0.07667889666333794
1783169361937774600,4.141774658203125,0.05016016144156456,0.10453180309832096,-0.09137158501297235
1783169361947722800,4.15172265625,0.005983750584721565,0.06652969696223736,-0.06266235400959849
1783169361957671700,4.161671630859375,0.03679623747766018,-0.001450198808312416,-0.08036887375507504
1783169361967650600,4.171650634765625,0.06309679990410805,-0.008492810796201228,-0.07805844138823449
1783169361977599700,4.181599853515625,0.07470540463328361,0.014921674799919127,-0.07835530544295907
1783169361987548700,4.191548583984375,0.10060206243395804,0.01942716952562332,-0.09951653221957385
1783169361997496600,4.20149658203125,0.1108563299447298,-0.0012014847442507743,-0.10210939825698732
1783169362007476500,4.2114765625,0.1009311482578516,0.009663608141243457,-0.08906053159162401
1783169362017424600,4.221424560546875,0.08405249417126179,0.0039034371793270108,-0.06348707786332816
1783169362027373600,4.23137353515625,0.05605857183039188,0.002902443443238735,-0.03814933258704841
1783169362037352400,4.2413525390625,0.052608139115571974,0.009908522813022137,-0.03237831143755465
1783169362047301600,4.251301513671875,0.035306291180849075,0.06617839930653571,-0.008889189702644944
1783169362057250600,4.26125048828125,-0.02331540913581848,0.10178571926057338,-0.02480970281418413
1783169362067199700,4.27119970703125,0.00339022696018219,0.08335603633970022,-0.025463782808743417
1783169362077225000,4.281224853515625,0.04312544049918651,0.09160393246412277,-0.004860080317035317
1783169362087174000,4.291173828125,0.05036065244972705,0.13167290800213813,-0.012135076288692653
1783169362097122000,4.3011220703125,0.10563713399171828,0.13679916497468947,-0.0004816460371017456
1783169362107071000,4.311071044921875,0.1305553021490574,0.08820522993654012,0.02964337004832923
1783169362117049900,4.3210498046875,0.13018296170532703,0.08696341318190097,0.05571684572063386
1783169362126998800,4.330998779296875,0.09870821151137352,0.10232815557420254,0.05411401363387704
1783169362136948000,4.340947998046875,0.059924015086889264,0.11323182690441608,0.04348535985276103
1783169362146926800,4.3509267578125,0.041783962762355804,0.09087737175524234,0.054120881766080854
1783169362156875800,4.360875732421875,0.03831950152218341,0.10349778387546539,0.052668637131154536
1783169362166824000,4.370823974609375,0.005134440279006958,0.1251034664839506,0.039134617297351355
1783169362176772900,4.38077294921875,0.03100947076976299,0.11815057860612868,0.026369280281104145
1783169362186751700,4.390751708984375,0.06699556090831756,0.1107557921797037,0.03259381735175848
1783169362196701000,4.400700927734375,0.06579086129367351,0.10382219352424144,0.045448915010690684
1783169362206649900,4.41064990234375,0.07914192577600479,0.07691255928874015,0.05938698560073971
1783169362216599000,4.42059912109375,0.1217056407392025,0.05700257468223571,0.05184891824610531
1783169362226578000,4.430577880859375,0.11589607767760753,0.055175943776965136,0.020447671679779886
1783169362236526800,4.44052685546875,0.09855565129816532,0.0603536386758089,-0.01773775513395667
1783169362246475000,4.45047509765625,0.09038578884601592,0.07055763730406761,-0.017342326075583694
1783169362256455000,4.460454833984375,0.044162382331490516,0.06086100367605686,-0.004634747128561139
1783169362266403000,4.470403076171875,0.042128830677270884,0.05127192207574844,-0.006318681627511978
1783169362276352000,4.48035205078125,0.024485037437081334,0.04230477176606655,-0.024893325977027415
1783169362286301000,4.490301025390625,0.026873978400230408,0.05924363160729408,-0.03811389594748616
1783169362296279800,4.50027978515625,0.04390811530947685,0.060413844430446624,-0.03667261109799146
1783169362306229000,4.51022900390625,-0.0045008185505867005,0.06769172647893429,-0.03923025969155133
1783169362316177000,4.520177001953125,-0.023242343899607658,0.07817629561424255,-0.0760662811903283
1783169362326125800,4.530125732421875,0.008704699981212616,0.09251227948069572,-0.0982125369489193
1783169362336105000,4.54010498046875,0.014914660537242889,0.10084580806195735,-0.10560220880880951
1783169362346054000,4.550053955078125,0.046131052055954934,0.1045510923206806,-0.09998623209055513
1783169362356002800,4.5600029296875,0.05583469994664192,0.07887772188186645,-0.10146182106845081
1783169362365981700,4.569981689453125,0.07591594946682453,0.041839492341876026,-0.0921030410926789
1783169362375931000,4.579930908203125,0.08461012805402278,0.02952420064806938,-0.0897362388961017
1783169362385880000,4.589880126953125,0.0668938540995121,0.0367693494707346,-0.0914238997220993
1783169362395827700,4.59982763671875,0.11884148347973823,0.046126375880837435,-0.09587927169576287
1783169362405807900,4.609807861328125,0.13999533066749573,0.06699731447398662,-0.10237272536829113
1783169362415756000,4.619756103515625,0.10279051238894461,0.0834200414866209,-0.09916823023855685
1783169362425705000,4.629705078125,0.11117781698405742,0.06578969224989414,-0.1048162460628897
1783169362435654000,4.63965380859375,0.1226683482915163,0.07400865454077721,-0.07191811200231313
1783169362445633000,4.649633056640625,0.10209726942777633,0.11267945371866225,-0.02537124568708241
1783169362455582000,4.65958203125,0.10985972012281417,0.09289747940599918,-0.021314663772657512
1783169362465529900,4.66952978515625,0.1157709899932146,0.07860182754993439,-0.041580403014272446
1783169362475509800,4.679509765625,0.07854571344852447,0.10370704271197319,-0.017498174224421383
1783169362485458000,4.6894580078125,0.054283378851413724,0.11678981164693832,0.0073443714134395115
1783169362495406800,4.69940673828125,0.06613456016480922,0.12599836949706078,0.004130158607289195
1783169362505355800,4.709355712890625,0.062140522092580794,0.14034955093264578,-0.011476137455925345
1783169362515335000,4.7193349609375,0.04817278701663017,0.12909107481539248,-0.0265762375626713
1783169362525283800,4.729283935546875,0.033551556468009947,0.09068681761920451,-0.004862783730775117
1783169362535232800,4.739232666015625,0.055123921328783035,0.07278992640078068,0.025313158824294805
1783169362545180700,4.7491806640625,0.06585749678909779,0.09547522093951702,0.04609393491595983
1783169362555161000,4.7591611328125,0.02127718130648136,0.10211714317202568,0.03787716458216309
1783169362565108700,4.769108642578125,-0.013460370075702666,0.1028220765709877,0.025845000678673385
1783169362575058000,4.779057861328125,0.0012356792747974395,0.12190496270358561,0.031429011356085536
1783169362585037000,4.789037109375,-0.02553016257584095,0.148562668004632,0.0306031184585765
1783169362594986000,4.798986083984375,-0.02099135010242462,0.1413818165898323,0.036741365485265846
1783169362604935000,4.808934814453125,0.025440730726718902,0.10419044231474399,0.035706688675284384
1783169362614883800,4.8188837890625,0.05788520273566246,0.0830582224369049,0.05157916139401495
1783169362624863000,4.828863037109375,0.07805646862685679,0.08488134621083736,0.05207180374916642
1783169362634811000,4.838810791015625,0.09836159003078937,0.07483516849279404,0.019035503326915202
1783169362644759800,4.848759765625,0.12674538847208022,0.04986906954050064,0.008046747529134153
1783169362654708700,4.858708740234375,0.129399702373147,0.03496376135349274,0.003679090371541679
1783169362664687900,4.86868798828125,0.13136544948816298,0.05063537773787975,-0.008007073105871678
1783169362674636800,4.87863671875,0.14668226108551025,0.05786357542574405,-0.022774068800732492
1783169362684585700,4.888585693359375,0.14807576127052308,0.03744388773143291,-0.009582359598577022
1783169362694564900,4.89856494140625,0.16794424482285975,0.01438216109573841,0.01805193564966321
1783169362704513800,4.908513671875,0.1666395919650793,0.030191724646091458,0.0054994741991162294
1783169362714461700,4.918461669921875,0.14116262088119982,0.05066051217913627,-0.0012825871564447879
1783169362724411000,4.928410888671875,0.10878478436768055,0.05696750336885452,0.0023683365665376184
1783169362734389800,4.9383896484375,0.0767839644730091,0.04398410315513611,-0.007030629289150238
1783169362744339000,4.9483388671875,0.06732756934165954,0.04655658399164676,-0.012450754641741514
1783169362754287900,4.958287841796875,0.04865384853184223,0.08135317208468913,-0.01443286836966872
1783169362764236800,4.96823681640625,0.0174544081479311,0.10527414589822291,-0.012421711210347712
1783169362774216000,4.9782158203125,0.022301263657212255,0.09133855952620505,-0.012544826133362948
1783169362784164900,4.988164794921875,0.0388864877551794,0.09984861371815204,-0.015436528986878693
1783169362794113000,4.998113037109375,0.0044482115805149075,0.11695347777605056,-0.031868425686657424
1783169362804093000,5.008093017578125,-0.016407529443502426,0.10194704730212688,-0.06602350100576877
1783169362814040800,5.018040771484375,0.027349779218435285,0.07794540946781635,-0.0771308782145381
1783169362823989800,5.02798974609375,0.025291093122959137,0.07200199089348316,-0.07694543864503503
1783169362833939000,5.03793896484375,0.04770575402677059,0.05163140303790569,-0.08177344332337379
1783169362843917800,5.047917724609375,0.08690496099293231,0.04713584518432617,-0.07823120413925498
1783169362853866800,5.05786669921875,0.11396364831030369,0.07616495579183101,-0.06112349053714424
1783169362863815000,5.06781494140625,0.09872983882129192,0.07206921091079711,-0.11061360723003745
1783169362873763800,5.077763916015625,0.09420447035133839,0.04295709819495678,-0.11562416540104895
1783169362883742700,5.08774267578125,0.12336685194969177,0.0433393755108118,-0.06802724204361438
1783169362893692000,5.09769189453125,0.0924438904196024,0.07157938156723975,-0.07169416705332696
1783169362903641000,5.10764111328125,0.09428805698156356,0.08450374507009982,-0.1013970122039318
1783169362913620000,5.117619873046875,0.11253624585568904,0.09501754029989241,-0.08435498424917459
1783169362923569000,5.12756884765625,0.08069616948068141,0.08916355357468128,-0.05219692796617746
1783169362933517800,5.137517822265625,0.07174889291524887,0.05846095679700374,-0.041010201910883184
1783169362943466000,5.147466064453125,0.1126338610112667,0.06013444296717643,-0.046208720402047036
1783169362953446000,5.15744580078125,0.1166775834441185,0.06511983016431332,-0.046712797466665505
1783169362963394000,5.16739404296875,0.1014016883790493,0.07168225741982459,-0.03254574042633176
1783169362973343000,5.177343017578125,0.07491875512301921,0.03097030780315399,-0.014907646274566649
1783169362983292000,5.1872919921875,0.04355915574133396,0.0029845687687397003,-0.010760390402004123
1783169362993270800,5.197270751953125,0.06037058981060981,0.02346621578335762,-0.025898849757760762
1783169363003220000,5.207219970703125,0.06303717867136001,0.049596097818017,-0.009289660262316465
1783169363013167900,5.21716796875,0.026048048970103262,0.04406418265402317,0.012931450830772519
1783169363023147800,5.227147705078125,0.025648820519447325,0.03009235592484474,0.026395181907340883
1783169363033096000,5.237095947265625,-0.008062894946336746,0.03177928609848022,0.022919980077445504
1783169363043044900,5.247044921875,0.022553192591667173,0.025911855369806287,0.013917612323909997
1783169363052993800,5.256993896484375,0.024870237362384796,0.01968377463519573,0.019219737320020795
1783169363062972700,5.26697265625,-0.004618307450413704,0.032797523230314256,0.0043611178189516065
1783169363072942000,5.276942138671875,0.031493454894423484,0.01934825907051563,-0.000019070026651024817
1783169363082891000,5.28689111328125,0.0739998867124319,0.009863222366571426,-0.007010609414428472
1783169363092839000,5.2968388671875,0.07883914343714714,0.027820319339632988,0.0002984714899212122
1783169363102819300,5.3068193359375,0.015440145716071128,0.02791851901710033,0.02816496805883944
1783169363112767000,5.31676708984375,0.03809329155087471,0.03159574622511863,0.022167773470655083
1783169363122716200,5.326716064453125,0.04289689244031906,0.08932020544111728,0.008291954461857676
1783169363132695300,5.3366953125,0.012446224597096442,0.12290098800361156,0.019616883411444724
1783169363142644200,5.346644287109375,0.03896422916650772,0.09254968888163566,0.055557125114277
1783169363152593200,5.35659326171875,0.028280922588706014,0.07317161919474602,0.07233823711052537
1783169363162541000,5.366541015625,0.03248363497555256,0.07727437833845614,0.050589492769539356
1783169363172521200,5.376521240234375,0.10348258630633353,0.11586743610501289,0.0383950144438073
1783169363182469000,5.38646923828125,0.12246201206445693,0.1375216340303421,0.05282916145510971
1783169363192418000,5.39641796875,0.10301730688214301,0.10816285307705402,0.07323240947127342
1783169363202367000,5.406366943359375,0.0853846195578575,0.07816460517644881,0.0627427257694304
1783169363212346000,5.41634619140625,0.08559154030680656,0.09153495888113974,0.03392228947654366
1783169363222295000,5.426294921875,0.0760305157572031,0.10260171181857586,0.03783789201769978
1783169363232244000,5.436243896484375,0.039890111839771265,0.09909867213368415,0.030474304447136818
1783169363242223000,5.44622314453125,0.015393383964896201,0.06600654987096786,-0.00419237365592271
1783169363252172000,5.456172119140625,0.022680033841729164,0.0678173986852169,-0.01218494331240654
1783169363262120000,5.466119873046875,0.05009118785858154,0.10561784476935863,0.020778511069342493
1783169363272068900,5.47606884765625,0.02678571559488773,0.1300795013308525,-0.08308938476014882
1783169363282048000,5.486048095703125,0.013407763105630873,0.0907441007643938,-0.0676492755766958
1783169363291997200,5.4959970703125,0.04982172326743602,0.0390916549384594,0.02510843003243208
1783169363301946000,5.505946044921875,0.08869827415049075,0.05884323411285877,0.0023609569776803256
1783169363311894300,5.515894287109375,0.1131657759308815,0.09718085581362247,-0.03982997915036976
1783169363321874200,5.525874267578125,0.08564473179876804,0.08656009307801724,-0.05034830442480743
1783169363331822000,5.535822021484375,0.05989245090484619,0.05489829587936401,-0.02869242599904537
1783169363341771000,5.54577099609375,0.08215805872678757,0.04335515760183334,-0.017463102911040185
1783169363351750100,5.555750244140625,0.08225333579480648,0.06388531993329524,-0.030058892046660183
1783169363361699000,5.565698974609375,0.06795943750441073,0.05875146417617798,-0.02990530892014503
1783169363371648000,5.57564794921875,0.08421966743171215,0.03447685461938381,-0.01671042138021439
1783169363381597000,5.585596923828125,0.055959787631034846,0.05135667774975299,-0.013035787988081573
1783169363391576000,5.595576171875,0.0669417848944664,0.061067339903116226,-0.003528101060912013
1783169363401525000,5.60552490234375,0.06616787791252136,0.06502221500873566,-0.013593202675133942
1783169363411473200,5.61547314453125,0.07099427515566349,0.0691851799070835,-0.01171001927703619
1783169363421422000,5.625422119140625,0.01887596538364887,0.04779343231022358,-0.0038783758033066984
1783169363431401000,5.63540087890625,-0.03420797455012798,0.025431962898373604,-0.0051394087150692935
1783169363441350000,5.645349853515625,0.008221884900331497,0.026287118422985076,-0.009017273061722517
1783169363451299000,5.655299072265625,0.008898176726698875,0.06575403641462325,-0.02470847092941403
1783169363461278200,5.6652783203125,0.007048164945840835,0.08222294065654277,-0.018720774821937083
1783169363471227100,5.67522705078125,-0.012054010409116744,0.09228548498749732,-0.02040960469171405
1783169363481175300,5.68517529296875,-0.02076689369678497,0.08925123185813426,-0.046657048691436644
1783169363491124200,5.695124267578125,-0.00990881507396698,0.07901274643838405,-0.044559564955532545
1783169363501103000,5.70510302734375,-0.01291208854317665,0.09026888446807861,-0.04677198030799627
1783169363511052000,5.715052001953125,0.011769348248839377,0.1051525653451681,-0.04631627242974937
1783169363521001200,5.725001220703125,0.024336568877100943,0.1270961016058922,-0.04776983223892748
1783169363530950100,5.7349501953125,0.01709434266388416,0.1340618489652872,-0.0659426177892834
1783169363540929000,5.744928955078125,0.05301087469756603,0.14351765957474708,-0.0580657469343394
1783169363550878000,5.7548779296875,0.07851531831026076,0.14797697707116603,-0.046521366547793146
1783169363560826000,5.764826171875,0.06691255879998206,0.145960961073637,-0.06670132720209658
1783169363570806000,5.774805908203125,0.09050795392096042,0.12215046189725398,-0.08802318790052086
1783169363580754000,5.78475390625,0.10779986498355865,0.10305413176119327,-0.06751176680214703
1783169363590703000,5.794703125,0.18218261353373527,0.10482990926206111,-0.04492196852713823
1783169363600652000,5.804652099609375,0.20296704288721085,0.1150607958972454,-0.04671645072847604
1783169363610631000,5.814630859375,0.17693185339868067,0.08707973303794861,-0.06064210022836923
1783169363620580000,5.824580078125,0.185314481818676,0.06778641902506351,-0.0656415890160948
1783169363630529300,5.834529296875,0.17139000136256216,0.07928864077031612,-0.06034625908695161
1783169363640477200,5.844477294921875,0.14762217228412627,0.07944295454919338,-0.07905512427538633
1783169363650456000,5.8544560546875,0.14262041847407816,0.0783697723597288,-0.0961629840079695
1783169363660405200,5.8644052734375,0.12296937706470489,0.07977554750442505,-0.0987661887763068
1783169363670354200,5.874354248046875,0.11741934172213077,0.07075871283411979,-0.08728117389418184
1783169363680333000,5.8843330078125,0.07805237697362899,0.07392857504189014,-0.08356631808951497
1783169363690282000,5.894281982421875,0.03753799575567245,0.060168345236778255,-0.08494060211740434
1783169363700231200,5.904231201171875,0.020374094986915586,0.0670154346525669,-0.10297573276273905
1783169363710179000,5.914178955078125,0.028722236615419387,0.0800695620149374,-0.11688041253983973
1783169363720159000,5.924158935546875,0.03684007661938667,0.08562076640129089,-0.08657046834155917
1783169363730107100,5.934107177734375,0.057224693000316615,0.08393091361820697,-0.05910773026794195
1783169363740056000,5.94405615234375,0.06464169125854968,0.07875555680692195,-0.07255005323030055
1783169363750005000,5.9540048828125,0.04746610005199909,0.06487842262387275,-0.0712677948674187
1783169363759984000,5.963984130859375,0.03221300134062767,0.04201426438689232,-0.05215944550000131
1783169363769933000,5.97393310546875,0.06121990011632442,0.04879764091670513,-0.04919993810728192
1783169363779882200,5.98388232421875,0.05910977609455585,0.08352057925164699,-0.062142275658249854
1783169363789861000,5.993861083984375,0.04606441656053066,0.07401274619400501,-0.04928378046583384
1783169363799810000,6.00381005859375,0.05186462727189064,0.05472060122489929,-0.023001009424403307
1783169363809758200,6.01375830078125,0.030087095227837563,0.06185001471340656,-0.0084561685802415
1783169363819707100,6.02370703125,0.02506663671731949,0.0670639499694109,-0.020913608691096305
1783169363829686300,6.033686279296875,0.0502671289473772,0.05637304460704326,-0.0400597693182528
1783169363839635200,6.04363525390625,0.06963175463080405,0.07026712992489338,-0.04282411946505308
1783169363849584000,6.053584228515625,0.08578209444284439,0.07338730777204036,-0.04489318082407116
1783169363859532000,6.063531982421875,0.08076397401988505,0.05580255124270916,-0.042087110427394506
1783169363869512200,6.07351220703125,0.07601473366618156,0.02794306893646717,-0.030095205469056963
1783169363879460000,6.083460205078125,0.08596329622864722,0.011498714613914489,-0.02161167395785451
1783169363889409000,6.093408935546875,0.11591361333429813,0.041055648487806316,-0.02388875204436481
1783169363899388200,6.10338818359375,0.07921499101221562,0.06395078638494014,-0.006937690308690071
1783169363909337000,6.113337158203125,0.060495092973113056,0.05952069498300552,0.010804156478494404
1783169363919286000,6.1232861328125,0.03752630531787872,0.049943303820490836,0.023678178033605217
1783169363929235000,6.13323486328125,0.01936754829287529,0.07448854701220989,0.006204480663314462
1783169363939214000,6.143214111328125,0.012763619983196257,0.10094459226131439,0.022089337939582763
1783169363949163300,6.153163330078125,0.0033270985960960385,0.08627659996151923,0.03866148336026817
1783169363959111000,6.16311083984375,0.018031915774941443,0.07065232985019683,0.03514843373801559
1783169363969060000,6.17306005859375,0.0189922852396965,0.0783130737364292,0.03889423267021775
1783169363979039200,6.183039306640625,0.035494507229328155,0.07764496521651744,0.044285643384978174
1783169363988988200,6.19298828125,0.03688566932678222,0.079480948472023,0.0554686431132257
1783169363998937000,6.20293701171875,0.019285130706429482,0.091053312844038,0.048744084098562596
1783169364008916200,6.212916259765625,0.005701426512002944,0.08189853100776671,0.03438402523677796
1783169364018865200,6.222865234375,0.020172434934973716,0.09574117839932442,0.037510815487802024
1783169364028813000,6.23281298828125,0.010913608202338217,0.11272212381660937,0.04024601260535419
1783169364038762000,6.242761962890625,0.026177228307723996,0.11229308474957943,0.03947722018994391
1783169364048741000,6.2527412109375,0.029884266132116317,0.09747428580224514,0.03102525286078453
1783169364058690000,6.26268994140625,0.04848433718383312,0.10119944380521774,0.02875891536399722
1783169364068639000,6.272638916015625,0.0887356835514307,0.11225099917352199,0.0357952437415719
1783169364078586600,6.282586669921875,0.09225742793679237,0.10589666171073912,0.023679493207857012
1783169364088565200,6.292565185546875,0.04527765009701252,0.08180266941785812,0.011654708893224596
1783169364098514400,6.302514404296875,0.09368716847896576,0.07269640289843082,0.007363003048673272
1783169364108462600,6.312462646484375,0.11235738215744495,0.0944125601440668,0.015250760623812674
1783169364118411500,6.32241162109375,0.10274141255021095,0.10024784216880797,0.016452756824716926
1783169364128390700,6.332390625,0.08192600353658198,0.07895195616185664,0.010424582576379179
1783169364138339600,6.342339599609375,0.037309447696805,0.060091188347339626,-0.0007543254986405372
1783169364148288500,6.35228857421875,0.01814063684642315,0.07081950311064719,0.006149973997101188
1783169364158267400,6.362267333984375,0.04577215561568737,0.10079437013566493,0.01088182482458651
1783169364168216600,6.372216552734375,0.030952772146463393,0.1123901153832674,0.025409312675148246
1783169364178164500,6.38216455078125,-0.003017301994562149,0.10087912580966948,0.03753127375394106
1783169364188113400,6.392113525390625,0.02314414422214031,0.1045253733575344,0.055767479929327964
1783169364198092500,6.402092529296875,0.025723054799437522,0.1270820730805397,0.08627506559155881
1783169364208041500,6.41204150390625,-0.005605564922094345,0.11952478956878185,0.0853561971809715
1783169364217990400,6.421990478515625,-0.009877250891923903,0.10312135177850723,0.04716682484447956
1783169364227939300,6.431939208984375,-0.022737901508808136,0.11541326259672641,0.036885596261546014
1783169364237918500,6.44191845703125,-0.04587152433693409,0.10396247877776622,0.0124850953027606
1783169364247867600,6.45186767578125,0.002209492743015289,0.08243804471194743,-0.018165259831026195
1783169364257815300,6.461815185546875,0.021206454157829284,0.08655658594667912,-0.02862052980661392
1783169364267795500,6.47179541015625,0.0454179353505373,0.07939619279801845,-0.0334567177914083
1783169364277743600,6.48174365234375,0.058013797551393506,0.05912614270746708,-0.03203574507758021
1783169364287692500,6.491692626953125,0.02905366052687168,0.05427870267629623,-0.019336276371777057
1783169364297641500,6.501641357421875,-0.013229483929276465,0.06465513526201248,-0.04364084267541766
1783169364307620600,6.51162060546875,-0.0019371055424213409,0.06284136383831501,-0.09091010498106479
1783169364317569500,6.521569580078125,-0.01125555350780487,0.08373334521949291,-0.12232998318262397
1783169364327517400,6.531517333984375,-0.04686228893995285,0.10284253483712673,-0.12653152652569113
1783169364337466400,6.54146630859375,0.0023065233767032623,0.13203472705185412,-0.04533146264348179
1783169364347445500,6.551445556640625,0.0028442835152149197,0.1653805318146944,-0.09251027018669992
1783169364357394400,6.56139453125,-0.0019371055424213409,0.1653191570162773,-0.1715980911552906
1783169364367343400,6.57134326171875,0.020223872861266135,0.14837386743426323,-0.11565375682171433
1783169364377322500,6.581322509765625,0.100708445417881,0.1426502290904522,-0.05604680832736194
1783169364387271400,6.591271484375,0.1845809068471193,0.14126725029945372,-0.05064772576279938
1783169364397220400,6.601220458984375,0.19186404959261416,0.09984802919626236,-0.083806848847121
1783169364407168500,6.61116845703125,0.2026853033363819,0.06083470019102096,-0.11803323583677411
1783169364417148400,6.6211484375,0.22525252445340155,0.06460778898894787,-0.1187852963130921
1783169364427096300,6.631096435546875,0.2226093164682388,0.09868249254822731,-0.10859138068743049
1783169364437045500,6.64104541015625,0.2095306391865015,0.09905775560140609,-0.0862189514901489
1783169364446994400,6.650994384765625,0.1977174517959356,0.08043781080543995,-0.05860452998615801
1783169364456973600,6.6609736328125,0.174163557729125,0.06987491573691368,-0.06610277678705752
1783169364466922500,6.670922607421875,0.15318682067394257,0.0906575915247202,-0.07524667190313339
1783169364476871400,6.680871337890625,0.12344576240479946,0.08708324016928672,-0.06380341380350292
1783169364486850600,6.6908505859375,0.0921124665081501,0.07926935154795646,-0.04128185845911503
1783169364496798500,6.700798583984375,0.06241875451207161,0.09524141218364238,-0.04278722152076661
1783169364506747400,6.710747314453125,0.031461890712380404,0.10678221237361431,-0.07206519232280552
1783169364516696600,6.720696533203125,0.00014145429730415344,0.11871113509833812,-0.10149853634964674
1783169364526675500,6.730675537109375,-0.007143442013859748,0.09749532859027385,-0.10429477947205304
1783169364536624400,6.740624267578125,-0.012637947776913643,0.09717851772606373,-0.08677822934072464
1783169364546573300,6.7505732421875,-0.02293722347319126,0.09832008897662162,-0.06878306537959725
1783169364556521500,6.760521484375,-0.012312369084358215,0.0849321996152401,-0.049759033294767135
1783169364566501400,6.77050146484375,0.002009001734852791,0.07327741765677928,-0.04629902903400361
1783169364576449300,6.78044921875,0.011091887378692626,0.08033435043096541,-0.0464677366644144
1783169364586398500,6.7903984375,0.04652560433149337,0.08123334509730339,-0.03653882865048945
1783169364596377300,6.80037744140625,0.04785129997730255,0.09728080905675887,-0.037180122228711844
1783169364606326500,6.810326416015625,-0.014334814822673797,0.1025298156261444,-0.016923223880678413
1783169364616275500,6.820275390625,-0.04384732503294945,0.08133505190610885,-0.002110416282713413
1783169364626224600,6.830224609375,0.002788753935694694,0.07423837164342403,0.018431911410577595
1783169364636203500,6.84020361328125,-0.0028700024783611298,0.12104396196007727,0.03958024217300117
1783169364646152400,6.85015234375,-0.014651041164994239,0.12758476190567017,0.060441316959261894
1783169364656100600,6.8601005859375,0.028330606949329373,0.0692208357423544,0.06311857334449887
1783169364666049500,6.870049560546875,0.06321019715070725,0.050099371165037154,0.05725611105188727
1783169364676028400,6.8800283203125,0.06618073739409447,0.06021744507551193,0.05472615418285131
1783169364685977300,6.889977294921875,0.0775426738858223,0.053859015959501266,0.025659195782989263
1783169364695926500,6.899926513671875,0.10636369470059871,0.048428807604312896,0.011065876154601573
1783169364705905400,6.909905517578125,0.06537175909876823,0.04757072947025299,-0.0014090630803257225
1783169364715854300,6.919854248046875,0.048159927535057066,0.04008651119470596,-0.00000741612147539854
1783169364725802500,6.929802490234375,0.10341244367957114,0.04079553624689579,0.0348426922570914
1783169364735751400,6.93975146484375,0.09446808972358703,0.061789224436879155,0.07664543278515339
1783169364745730300,6.949730224609375,0.08848024748563765,0.06325228272676467,0.09117255530953407
1783169364755679500,6.959679443359375,0.07695230677723884,0.05788461821377277,0.0944293651483953
1783169364765628700,6.969628662109375,0.03571779459118843,0.06879062763154506,0.09236856016106904
1783169364775577600,6.97957763671875,0.04112812920212745,0.08830781352818012,0.09217807909026741
1783169364785556500,6.989556396484375,0.01670095943212509,0.0915244374871254,0.08312529632374643
1783169364795505400,6.99950537109375,-0.01853869625329971,0.09109890555143356,0.06138963066004216
1783169364805453600,7.00945361328125,0.008718143984675407,0.08883622131645678,0.04629617948979139
1783169364815433500,7.01943359375,0.028300796332955357,0.10379413647353648,0.06413629901967942
1783169364825381600,7.029381591796875,-0.005257774397730827,0.1001771150201559,0.06291201792173087
1783169364835330600,7.03933056640625,0.014126140508055687,0.075538348326087,0.04119176902286708
1783169364845279500,7.049279541015625,0.023489012137055395,0.07525602425336837,0.029241986173205076
1783169364855258400,7.05925830078125,0.02494505616426468,0.0830061999887228,0.01784099631272256
1783169364865207600,7.06920751953125,0.036110593301057814,0.09138064510226249,0.0050417204942554235
1783169364875155500,7.079155517578125,0.04067337117195129,0.08960428307950496,-0.017089593423530457
1783169364885104400,7.0891044921875,0.06908230405449867,0.08759645038843154,-0.03373699603751302
1783169364895083500,7.09908349609375,0.07044891623258591,0.09891630130410194,-0.050183323121443385
1783169364905032400,7.109032470703125,0.08591068925857544,0.09832067349851131,-0.06360869494900107
1783169364914981400,7.1189814453125,0.10733458555936813,0.1012795233041048,-0.07777326777130365
1783169364924960300,7.128960205078125,0.1177624560713768,0.09510171145200728,-0.09563055763170122
1783169364934909700,7.13890966796875,0.10607903254032135,0.06775310127735137,-0.10639423596933484
1783169364944858600,7.148858642578125,0.10239245298206806,0.03928045550882816,-0.12185001764595507
1783169364954806500,7.158806640625,0.12194529471397399,0.010184709405899047,-0.14285649225227534
1783169364964786400,7.168786376953125,0.14046470174491404,0.04204933570027351,-0.15556779752634464
1783169364974734600,7.178734619140625,0.12098434072732925,0.04836275663077831,-0.13987331172302364
1783169364984683500,7.18868359375,0.1280319211512804,0.016426818665862084,-0.1389825734283775
1783169364994632400,7.198632568359375,0.13671207121312617,0.029696634605526923,-0.13437263194750992
1783169365004611600,7.208611572265625,0.13953998811542986,0.03691840255260467,-0.11713822322580962
1783169365014560500,7.218560546875,0.14048691357672213,0.012500585132837295,-0.10431962165236472
1783169365024508400,7.22850830078125,0.11163374405801296,-0.010099953731894493,-0.09459083932042121
1783169365034488300,7.23848828125,0.1001858828485012,-0.0011515081226825714,-0.09626995151378213
1783169365044436500,7.2484365234375,0.10669394956827163,0.028086276799440382,-0.09473353572674095
1783169365054385400,7.258385498046875,0.09756897834837436,0.07045125432014465,-0.08391710428856312
1783169365064334300,7.268334228515625,0.08068506356477737,0.07500818697214126,-0.05983904021717608
1783169365074357000,7.27835693359375,0.07438742472529411,0.0774988347440958,-0.03694295247197151
1783169365084306000,7.288305908203125,0.0460538951665163,0.08263736667633056,-0.006496047488413751
1783169365094254800,7.2982548828125,0.0091062665194273,0.07888181353509426,0.02029905698932707
1783169365104203000,7.308203125,-0.020971476358175277,0.051606268596649164,0.055770402538776395
1783169365114183000,7.318182861328125,-0.008090951997041702,0.06048106444776058,0.06744060126207768
1783169365124131000,7.328131103515625,0.014610709154605864,0.09489537522494793,0.07153773438259958
1783169365134080000,7.338080078125,0.0075467621177434914,0.08404372634291649,0.06295932766217738
1783169365144059000,7.348058837890625,0.00722527507841587,0.059470426100492475,0.0766961035264656
1783169365154007800,7.3580078125,-0.00019172317981719968,0.0607984598338604,0.07744447420835494
1783169365163957000,7.36795703125,0.0006879822641611098,0.07245967153310776,0.05371858457550406
1783169365173905000,7.37790478515625,0.024982465565204618,0.06452654044628144,0.027317484384030102
1783169365183884800,7.387884765625,0.01807517039477825,0.05760229414105415,0.020490524440817535
1783169365193833000,7.3978330078125,0.04219488165080547,0.053124271944165226,0.021826266556605696
1783169365203782100,7.4077822265625,0.0919119754999876,0.03277063522338867,0.0378319737335667
1783169365213731000,7.41773095703125,0.12173369778990745,0.030699089646339415,0.0660385524444282
1783169365223710000,7.4277099609375,0.0941688145160675,0.03260989170372486,0.06505114884227514
1783169365233659100,7.4376591796875,0.04273790248632431,0.03517185114622116,0.0350998818885535
1783169365243608000,7.447608154296875,0.03736380823254585,0.07627309234142303,-0.0003859305776655674
1783169365253587000,7.4575869140625,-0.0007622165441513061,0.1055319200515747,-0.03136091455593705
1783169365263535900,7.467535888671875,-0.02259878529906273,0.09743746092319489,-0.04826609132327139
1783169365273484000,7.477484130859375,0.013390227448940277,0.07579319986999035,-0.07680566484816372
1783169365283433000,7.487432861328125,0.028856676650047302,0.06715747347176075,-0.11326828645728527
1783169365293412000,7.497412109375,0.05464461337924003,0.06904957082867622,-0.12093041858300566
1783169365303361000,7.507361083984375,0.06413783338963985,0.05350830282568931,-0.11774371483828872
1783169365313310000,7.51731005859375,0.041194764697551726,0.04100888673663139,-0.13455226283073424
1783169365323259000,7.5272587890625,0.04662263496518135,0.030272973188757896,-0.14397307519204913
1783169365333237800,7.53723779296875,0.11026479379236698,0.04085106582641601,-0.14629976457394658
1783169365343186000,7.54718603515625,0.12365151410996914,0.0673772537022829,-0.11853870114088058
1783169365353134800,7.557134765625,0.10829963119924067,0.06256430046260357,-0.10529449456650763
1783169365363114000,7.567114013671875,0.1343278064250946,0.01696983950138092,-0.07261201255060731
1783169365373063000,7.57706298828125,0.11914368129670619,0.002539163088798523,-0.040913719266466794
1783169365383012000,7.58701220703125,0.12069091073870658,-0.006110591834783553,-0.017582564572244882
1783169365392961000,7.5969609375,0.11849135486781597,-0.027331074517965317,0.002081847775354981
1783169365402940200,7.606940185546875,0.07381342422962188,-0.04862403791546821,0.0072165072500705715
1783169365412889000,7.61688916015625,0.01830488749742508,-0.0707365010023117,-0.01209521920233965
1783169365422837000,7.6268369140625,-0.025924130329489706,-0.07814940760731696,-0.04977247729822993
1783169365432786000,7.636785888671875,-0.0639396804690361,-0.057789925667643544,-0.07127374968416988
1783169365442765000,7.64676513671875,-0.05954407585859298,-0.02626081493794918,-0.07109247483313083
1783169365452714000,7.6567138671875,-0.03298515475690365,0.031850597769021986,-0.06420249612368643
1783169365462663000,7.666662841796875,-0.042558454266190524,0.06240472598671913,-0.01823671763204038
1783169365472642000,7.67664208984375,-0.0016647183418273925,0.03831891700029373,0.03432524425424635
1783169365482591000,7.686591064453125,0.04613865084052086,0.031471243062615395,0.07451598300840705
1783169365492540000,7.696539794921875,0.07287877372801303,0.05723346082866192,0.12111264328211545
1783169365502487800,7.70648779296875,0.08746201035380363,0.07685586066544055,0.14756591205224395
1783169365512467000,7.716467041015625,0.08528700440227985,0.08452712594568729,0.15188874368742109
1783169365522415900,7.726415771484375,0.07751870848834515,0.10765373451113701,0.13952858993858097
1783169365532365000,7.736364990234375,0.10143266803920269,0.1554898369193077,0.13983444101735948
1783169365542314000,7.74631396484375,0.1091349129796028,0.2045288853764534,0.14255758237093685
1783169365552293000,7.756293212890625,0.10531038625538348,0.21852175489366052,0.14957728840727358
1783169365562242000,7.766241943359375,0.1254343058735132,0.20921967354118823,0.15419723982550204
1783169365572190000,7.77618994140625,0.12360124522745608,0.23442425742447376,0.15039255031291396
1783169365582170000,7.786170166015625,0.10035831680595875,0.2308487370252609,0.15024601798169315
1783169365592118000,7.796117919921875,0.12664718879461287,0.205173028498888,0.14986819764524698
1783169365602067000,7.80606689453125,0.16397475666999817,0.20843699873089788,0.1501551978930831
1783169365612015900,7.816015869140625,0.1587871248990297,0.21666005267500876,0.15067615302726625
1783169365621995000,7.8259951171875,0.14268296231627464,0.21825638195574282,0.141426422916539
1783169365631944000,7.83594384765625,0.13618190985918044,0.1987239984899759,0.11053813084103166
1783169365641892900,7.845892822265625,0.11710837607681751,0.19471534737050533,0.08816416727378965
1783169365651841000,7.855841064453125,0.11090133813023567,0.1948077018290758,0.08960157966576517
1783169365661821000,7.865821044921875,0.10204349341392517,0.18680267454981803,0.06654379855282604
1783169365671768800,7.875768798828125,0.11542203042507171,0.16175181992352008,0.04266198770590126
1783169365681717800,7.8857177734375,0.07933949417471885,0.14877894110381604,0.032298852993175385
1783169365691697000,7.89569677734375,0.0835422065615654,0.13152677752971648,0.028633864212222394
1783169365701645800,7.905645751953125,0.10433949539661407,0.11082944193780421,0.009136369396746159
1783169365711595000,7.915594970703125,0.05704992095530033,0.10128303043544291,-0.03727382839415222
1783169365721543200,7.925543212890625,0.004565700480341911,0.07213584640622138,-0.06876644303835928
1783169365731523000,7.935523193359375,0.019674422284960746,0.041024668827652926,-0.08397818682603538
1783169365741471000,7.945470947265625,0.019619477227330206,0.04246609980762005,-0.100575357090123
1783169365751420000,7.955419921875,-0.00861468361020088,0.043860769036412235,-0.1101333494324237
1783169365761369000,7.965369140625,0.0024959084689617156,0.009687281277775763,-0.12196772574149072
1783169365771348000,7.975347900390625,0.0008960720568895339,-0.009358195453882216,-0.1299511257108301
1783169365781297000,7.985296875,-0.02392155833542347,-0.00881517461836338,-0.12413893230073153
1783169365791245800,7.995245849609375,-0.016180734950304032,-0.019203297641873358,-0.15259068141169846
1783169365801225000,8.005224853515625,-0.035386370679736136,-0.007543254986405372,-0.16960370246767997
1783169365811174000,8.015173828125,-0.06665595369040965,0.007197802549600601,-0.17604411077871918
1783169365821122000,8.0251220703125,-0.06042962652146816,0.0024281039297580718,-0.1919566963121295
1783169365831071000,8.035071044921875,-0.05408697949647903,-0.008533435067534446,-0.19833620474878697
1783169365841049900,8.0450498046875,-0.030334932509064674,0.005908931782841682,-0.20968349166065453
1783169365850998800,8.054998779296875,-0.002789338457584381,0.025500351959466934,-0.1750175442099571
1783169365860948000,8.064947998046875,0.03447334748804569,0.01387888774871826,-0.1582584613824263
1783169365870895900,8.074895751953125,0.060437225306034084,0.005403320348262786,-0.1594392321322113
1783169365880876000,8.0848759765625,0.08590250595211982,0.019468670579791066,-0.16153152823634445
1783169365890824200,8.09482421875,0.10075520716905594,0.02613923438489437,-0.12358546313643455
1783169365900773000,8.104773193359375,0.12233692438006401,0.02973638209402561,-0.0935976635646075
1783169365910752000,8.114751953125,0.15445055699944496,0.05822188734412193,-0.07271086981520056
1783169365920701000,8.124700927734375,0.15698095225989817,0.09283318199813366,-0.049140901396423575
1783169365930650000,8.134650146484375,0.15862813494503497,0.09217559487223624,-0.025644217409566045
1783169365940599000,8.14459912109375,0.14644319163262842,0.11439034928977489,-0.0031752690352499485
1783169365950578000,8.154577880859375,0.13196867607831955,0.1403144796192646,0.0221631703607738
1783169365960526800,8.16452685546875,0.11438333502709865,0.14428513681590557,0.048174175256118175
1783169365970475000,8.17447509765625,0.07222294016778469,0.1252647945255041,0.039231501800566906
1783169365980424000,8.184423828125,0.06403904919028282,0.14611293676495551,0.046203167444095014
1783169365990402800,8.19440283203125,0.07565057652890682,0.16524258464872837,0.06531425675787031
1783169366000352000,8.20435205078125,0.058656771630048746,0.16690905655622482,0.07236578270457684
1783169366010301000,8.214301025390625,0.051640755388140676,0.1667179178982973,0.05902560494244098
1783169366020279800,8.22427978515625,0.03132043641507625,0.17019114696681498,0.05537665398083627
1783169366030228700,8.234228759765625,0.0615431407213211,0.15256372033953666,0.08117350466884672
1783169366040177000,8.244177001953124,0.10955693778395652,0.14877368040680886,0.10639796229638158
1783169366050126000,8.2541259765625,0.08378829027712345,0.1635597461283207,0.11400646453872322
1783169366060105000,8.26410498046875,0.050955695733428,0.12531506340801715,0.10870455873832106
1783169366070054100,8.27405419921875,0.05799743093848228,0.0902425809830427,0.09661109310165047
1783169366080005000,8.284005126953126,0.06716624130010604,0.08054302474558353,0.07955430596917867
1783169366089954000,8.2939541015625,0.05322247162163257,0.10394903477430344,0.059551455447450274
1783169366099933200,8.30393310546875,0.030146131938695905,0.09285130217671393,0.019522373528406023
1783169366109882000,8.313882080078125,0.030358313384652134,0.06977963866889476,-0.012792115425318478
1783169366119830000,8.323830078125,0.054200961264967915,0.06507482197880744,-0.05223046490959823
1783169366129810400,8.333810546875,0.06499883413314819,0.07560498382151126,-0.059411681650578974
1783169366139758000,8.343758056640626,0.051608606684207914,0.06619359687566757,-0.08525953187346458
1783169366149707300,8.353707275390626,0.06535013178884982,0.030973230412602422,-0.12174436531439423
1783169366159656200,8.36365625,0.10017419241070746,0.01916004302203655,-0.1452190201325342
1783169366169635300,8.37363525390625,0.10070084663331508,0.050015200012922284,-0.15134952224418521
1783169366179584300,8.383584228515625,0.11365911240577697,0.049176411101222034,-0.1392094409868121
1783169366189532200,8.3935322265625,0.11708324163556098,0.031003041028976438,-0.1386241153795272
1783169366199481300,8.4034814453125,0.0918424173951149,0.019042554122209548,-0.1349090403791517
1783169366209460200,8.413460205078126,0.09623626843988894,0.022658406531810758,-0.11973550971001386
1783169366219409200,8.4234091796875,0.11523381437659264,0.028870705175399778,-0.10537782546840607
1783169366229358000,8.433358154296876,0.11409282764792442,0.03633388066291809,-0.08725081528853625
1783169366239337200,8.443337158203125,0.0977110171675682,0.030799627411365507,-0.08426686757430434
1783169366249286100,8.4532861328125,0.08906476937532425,0.028721652093529698,-0.0938096258148551
1783169366259235000,8.463235107421875,0.09862462488114833,0.0355927069067955,-0.09444160357546061
1783169366269183200,8.473183349609375,0.08722177185714244,0.06028583413660526,-0.07894103290904313
1783169366279163100,8.4831630859375,0.08457973291575908,0.08262392267286776,-0.05700001739896834
1783169366289111000,8.493111083984376,0.09254033653140067,0.08353519229888916,-0.04128726528659463
1783169366299060200,8.503060302734376,0.0826923117339611,0.08037818957269191,-0.01939348645173013
1783169366309009400,8.513009521484374,0.06233984405696392,0.07381985397040844,-0.002850165266729891
1783169366318988300,8.52298828125,0.04992810625135898,0.04582242449820041,0.017618549201078713
1783169366328937200,8.532937255859375,0.0755336721509695,0.04850654901564121,0.025638700984232127
1783169366338886100,8.54288623046875,0.06166179866492748,0.07305705290436744,0.03416333169080317
1783169366348865300,8.552865234375,0.005793196448683738,0.062250996729731556,0.03770122349336743
1783169366358813200,8.562813232421876,0.03445405826568603,0.05753332055807113,0.04743066341243684
1783169366368762400,8.572762451171876,0.011631401082873343,0.08693944778442382,0.06232654618397355
1783169366378711300,8.582711181640626,0.018700608816742896,0.1016062710404396,0.06538600681982934
1783169366388690200,8.592690185546875,0.06298866335451603,0.08848492366075515,0.06343859907910228
1783169366398639000,8.60263916015625,0.08017711404263973,0.0855249048113823,0.06828666016478091
1783169366408588300,8.61258837890625,0.07330372114181519,0.08929273291230201,0.07741860911473632
1783169366418536200,8.6225361328125,0.10237608636915684,0.05824585274159908,0.07479691884163767
1783169366428516000,8.63251611328125,0.12560966244041918,0.04853869771957397,0.05996175328139215
1783169366438464300,8.64246435546875,0.1010229181945324,0.04258534227311611,0.045741029825061556
1783169366448413200,8.6524130859375,0.06784720930159091,0.04053425496220588,0.030566110916435716
1783169366458392000,8.66239208984375,0.08337327973544598,0.0456225180119276,0.009330978653393685
1783169366468341000,8.672341064453125,0.045319735673069954,0.06232581553161144,-0.0003001154577359557
1783169366478290400,8.68229052734375,0.011622633254528045,0.06863748289644718,0.00033485797755420207
1783169366488239400,8.6922392578125,0.0037649054914712906,0.06068856971859932,-0.01641984093580395
1783169366498218200,8.70221826171875,0.0038712884753942488,0.05438625470399856,-0.042268750604614616
1783169366508167200,8.712167236328124,0.014064765709638594,0.05508534288406372,-0.04273468761593103
1783169366518115300,8.722115234375,-0.010436053818464278,0.049640521481633185,-0.050993689656257626
1783169366528064300,8.732064208984376,-0.0063613517254590985,0.02560731946527958,-0.059713477608747775
1783169366538043100,8.742043212890625,0.00841653068959713,0.010895488023757933,-0.05590418498627841
1783169366547992300,8.751992431640625,0.020848142239451407,0.008157587492465972,-0.06752963125240058
1783169366557941200,8.761941162109375,0.026225159102678298,0.015796704068779945,-0.06976546401306986
1783169366567920000,8.771920166015626,0.01890869860947132,0.005721884778141975,-0.07587558092381805
1783169366577869000,8.781869140625,0.04370762430131435,0.01490939984023571,-0.07372180042341352
1783169366587817200,8.791817138671876,0.07324468443095683,0.04529635479748249,-0.06479293629750608
1783169366597766100,8.80176611328125,0.09144026633501053,0.07037117482125758,-0.06976414883881807
1783169366607745300,8.811745361328125,0.08158756536245346,0.07740063506662845,-0.07951996530815958
1783169366617694200,8.821694091796875,0.07245967153310776,0.08085165230333805,-0.06072265465129167
1783169366627643100,8.83164306640625,0.09952537311315536,0.08600596632659435,-0.02619805190004408
1783169366637592300,8.84159228515625,0.07237316229343414,0.08838087876439094,-0.009859276843816041
1783169366647571200,8.8515712890625,0.09888473712205886,0.09550093990266323,0.002593012167885899
1783169366657520400,8.861520263671874,0.13581190750300884,0.12098317168354987,0.0031896628867834806
1783169366667468300,8.87146826171875,0.11695230873227119,0.13286591717898844,0.025236951782926915
1783169366677448200,8.8814482421875,0.10149287379384041,0.12482581858634947,0.03021824732683599
1783169366687396400,8.891396240234375,0.11551087775230406,0.12226093653440474,0.031292817755788564
1783169366697345300,8.90134521484375,0.09544950197637081,0.1314180564582348,0.03627623219154775
1783169366707294200,8.911294189453125,0.05888415064513683,0.13111118246614933,0.0372797466782853
1783169366717273300,8.9212734375,0.06990589539706707,0.11718436392247676,0.05135697001069784
1783169366727222300,8.93122216796875,0.06963759984970093,0.1279705463528633,0.034104733371362085
1783169366737170200,8.941170166015626,0.04220774113237857,0.15798808347582816,0.023696955799311397
1783169366747119000,8.951119140625,0.05973462999463081,0.138859020113945,0.031108474164828655
1783169366757098200,8.96109814453125,0.050019876188039776,0.10655307979285716,0.027001075378619132
1783169366767047200,8.971047119140625,0.03842997615933418,0.12587503537833689,0.0036629064217209815
1783169366776996000,8.98099609375,0.04981529352664947,0.1268383274525404,-0.0008829203143715858
1783169366786975200,8.990975341796876,0.06266425370573997,0.06778115832805633,-0.007148118188977241
1783169366796924200,9.000924072265626,0.1050701477587223,0.026216391274333,0.014914660537242889
1783169366806873300,9.010873291015624,0.12921207084655761,0.030149639070034026,0.04322765876464545
1783169366816821000,9.020821044921876,0.08338321660757064,0.03296411196887493,0.04284815792776644
1783169366826801400,9.030801513671875,0.06840308961868286,-0.0010176526099443435,0.037930575269833205
1783169366836749300,9.040749267578125,0.036682255709171295,-0.010574000984430312,0.0077134969867765895
1783169366846698200,9.0506982421875,0.01591243940293789,0.00758650960624218,-0.01736632800567895
1783169366856647200,9.060647216796875,0.003890577697753906,0.03319675168097019,-0.04374269561469555
1783169366866626300,9.070626220703126,0.0027098434805870055,0.04348725954890251,-0.06277348623387516
1783169366876575200,9.0805751953125,-0.012017185530066489,0.03367255249917507,-0.059360609050467604
1783169366886523100,9.090523193359376,-0.03006312983036041,0.02601765383183956,-0.04188230857029557
1783169366896503300,9.10050341796875,-0.0036789807736873625,0.03165010676085949,-0.028256957191228865
1783169366906451200,9.110451171875,-0.005870353338122368,0.031203532037138937,-0.02262465039268136
1783169366916400000,9.120400146484375,-0.0052425768285989756,0.03453179967701435,-0.024659005764499305
1783169366926349000,9.13034912109375,-0.01714285798072815,0.027080899149179456,-0.04512260566577315
1783169366936328200,9.140328125,0.007897475251555442,0.02931026563644409,-0.057710430690646165
1783169366946277000,9.150277099609376,0.04042319580316543,0.04746317744255066,-0.06206416892074048
1783169366956226000,9.16022607421875,0.04703180028796196,0.03788637080192566,-0.0748612893147394
1783169366966174200,9.17017431640625,0.05275660767555237,0.03305821999311447,-0.08572904908135533
1783169366976154400,9.180154296875,0.05936755024790764,0.025917700588703154,-0.07389467277228831
1783169366986102000,9.19010205078125,0.07904080348908901,0.03001169190406799,-0.0476612938305363
1783169366996051200,9.20005126953125,0.04897825818061828,0.0605588058590889,-0.04004201446585357
1783169367006000400,9.21000048828125,0.05700257468223571,0.06819499982595444,-0.03676920334026217
1783169367015979300,9.219979248046876,0.052824996736645695,0.06952127999365329,-0.02628302676975727
1783169367025928200,9.22992822265625,0.05705518165230751,0.07829378451406956,-0.020561507317796348
1783169367035876400,9.23987646484375,0.08582359549701213,0.09893149887323378,-0.017612630916945635
1783169367045856300,9.249856201171875,0.07691431285440921,0.10545184055268764,-0.011172770595178008
1783169367055804200,9.25980419921875,0.07907762836813927,0.08111877880692482,0.001531082024797797
1783169367065753300,9.26975341796875,0.09627192427515983,0.07107026300132274,0.00294993584677577
1783169367075726300,9.279726318359375,0.09058218820095061,0.1007563762128353,-0.01360189743824303
1783169367085705200,9.289705322265625,0.10058569582104682,0.11155249551534652,-0.020939546849951148
1783169367095654100,9.299654052734375,0.1021112979531288,0.1176011280298233,-0.01763020310625434
1783169367105603300,9.309603271484375,0.09973580099344254,0.11182955889105796,0.002679886733740568
1783169367115551200,9.31955126953125,0.09200257639288902,0.114002226755023,-0.0015755787536501883
1783169367125531100,9.32953125,0.08853519254326819,0.11645546512603759,-0.004223097587749362
1783169367135479300,9.339479248046874,0.08703004867732525,0.09574293196499348,0.024633432931825516
1783169367145428200,9.34942822265625,0.07575052977204322,0.10846505089402197,0.021458090831339358
1783169367155407000,9.359406982421875,0.07393500478267669,0.11999591421186924,0.01653725677039474
1783169367165356000,9.36935595703125,0.07959200763106346,0.1139455281317234,0.02568133454956114
1783169367175305200,9.37930517578125,0.06565525221526622,0.09820493816435337,0.017912271450646222
1783169367185253000,9.389253173828125,0.0574520720154047,0.0977455039590597,0.015940971377678213
1783169367195233000,9.39923291015625,0.047827334579825395,0.10246084204316139,0.004084346704185009
1783169367205181200,9.40918115234375,0.05718260742425918,0.0942991628974676,-0.0032647739496082066
1783169367215130400,9.41913037109375,0.05127952086031436,0.08934183275103569,0.0016031243477016687
1783169367225079300,9.429079345703125,0.018871873730421065,0.07367372349798679,-0.007024857135489583
1783169367235058400,9.439058349609375,0.04430091401934624,0.07037175934314728,-0.03512004789374769
1783169367245007400,9.44900732421875,0.04212766163349151,0.0798339996933937,-0.0538552165672183
1783169367254956300,9.458956298828125,-0.005643558844923973,0.084626494666934,-0.04592164708897471
1783169367264935200,9.46893505859375,-0.011112345644831656,0.054042555832862854,-0.05126037776842713
1783169367274884000,9.478884033203125,0.015784429109096526,0.047780572828650475,-0.060896878707036375
1783169367284832300,9.488832275390624,-0.027039982616901395,0.07157587443590163,-0.05811689259968698
1783169367294781200,9.49878125,-0.018373861080408095,0.056173138120770454,-0.06303491364903747
1783169367304760300,9.50876025390625,0.02089724207818508,0.05030395382642746,-0.06509586476683617
1783169367314709200,9.518709228515625,0.027890461966395375,0.054312604945898055,-0.07550079279467463
1783169367324658200,9.528658203125,0.015528993043303489,0.05953180089890957,-0.07089370085801928
1783169367334607000,9.538607177734375,0.03547814061641693,0.035247838991880415,-0.07083484681025147
1783169367344586200,9.548586181640625,0.05457213266491889,0.031928923702239986,-0.08202369175739586
1783169367354535200,9.55853515625,0.06257306829094886,0.06462707821130752,-0.08666611073575914
1783169367364483000,9.568483154296874,0.07577917134463787,0.08798983362019061,-0.061062955988943575
1783169367374462200,9.578462158203125,0.0764355894267559,0.0765489866733551,-0.04070606786515563
1783169367384411400,9.588411376953125,0.08231237250566482,0.06985095033943653,-0.03792714120373129
1783169367394360300,9.5983603515625,0.08459668405055999,0.0787146402746439,-0.048121860546991226
1783169367404309200,9.608309326171875,0.0952975262850523,0.09533493568599223,-0.032574235868453975
1783169367414288400,9.618288330078125,0.09892565365433692,0.10752689326107501,-0.0201709736302495
1783169367424237300,9.6282373046875,0.11037468390762806,0.0947656113654375,-0.0205524106958881
1783169367434185200,9.638185302734374,0.11905308040380477,0.10461480520665645,-0.007021203873679042
1783169367444134100,9.648134033203124,0.1301134036004543,0.12896657165288924,0.01782722351569682
1783169367454113300,9.65811328125,0.11812602868676185,0.13271686409711836,0.014064838774874806
1783169367464062200,9.668062255859375,0.09002455431818962,0.11972411153316496,0.025902649150043724
1783169367474011100,9.67801123046875,0.07429156313538551,0.12292203079164027,0.03553491230495274
1783169367483990300,9.687990234375,0.07493745982348919,0.15566285539865493,0.03959814315587282
1783169367493939200,9.697939208984375,0.041807343637943264,0.1570627853244543,0.053921121410280465
1783169367503888100,9.70788818359375,0.026535540226101873,0.12635083619654178,0.04091291554886847
1783169367513836000,9.7178359375,0.025330256089568137,0.11318097350001334,0.0361645154453814
1783169367523816200,9.727816162109375,0.03234276520013809,0.12429156557917594,0.03064341393634677
1783169367533764000,9.73776416015625,0.06326046603322029,0.1527063436806202,0.01285699735507369
1783169367543713300,9.74771337890625,0.05411971272230148,0.14912030188739298,0.00957775648869574
1783169367553662200,9.757662109375,0.035623686566948885,0.12108546301424503,0.010414280378073452
1783169367563641300,9.767641357421875,0.04816752631962299,0.10027940635085106,-0.013948445853590964
1783169367573590300,9.77759033203125,0.04654372451007366,0.1040115786164999,-0.012827369401790202
1783169367583538200,9.7875380859375,0.09563947159051894,0.07638590506613255,-0.015618497957661747
1783169367593518300,9.797518310546875,0.15283143136501312,0.05559913762509822,-0.014061550839245318
1783169367603466200,9.80746630859375,0.13002397175133226,0.04377601336240768,-0.027330270800366995
1783169367613415200,9.817415283203125,0.1613245344221592,0.05421674335598945,-0.018571794805303216
1783169367623364000,9.827364013671875,0.12563421235978603,0.06074994451701641,-0.005950469369627535
1783169367633343200,9.83734326171875,0.09759469731152057,0.0512736756414175,-0.001227569033578038
1783169367643292200,9.847292236328125,0.09952069693803786,0.040736499536037446,-0.014624153158068656
1783169367653241000,9.857240966796875,0.07469546776115894,0.06299976927042007,-0.041846068213135
1783169367663189200,9.867189208984374,0.046539632856845856,0.07149988659024238,-0.03716105220206082
1783169367673169200,9.877169189453125,0.044999417677521705,0.065355392485857,-0.03893953311666846
1783169367683117000,9.887116943359375,0.05840834982693195,0.07170154664218426,-0.017654789558239282
1783169367693066200,9.897066162109375,0.048772506475448604,0.0767839644730091,-0.008683584127947688
1783169367703045000,9.907045166015624,0.0346644861459732,0.08144669558703899,-0.02838971672542393
1783169367712994000,9.916994140625,0.011602174988389015,0.06847732389867306,-0.034391477890871464
1783169367722943200,9.926943115234375,-0.0162649061024189,0.07256020929813385,-0.02980462502464652
1783169367732891400,9.936891357421874,-0.021391163074970243,0.07670797662734985,0.012871829598024487
1783169367742871300,9.946871337890625,0.0038151743739843367,0.08323591709136963,0.002393032616376877
1783169367752819200,9.956819091796875,-0.006544307076930999,0.09275310249924659,-0.010683525773510337
1783169367762768400,9.966768310546875,-0.01753916382193565,0.07259294252395629,-0.003633570729382336
1783169367772717300,9.97671728515625,0.027779987329244613,0.059680269458889955,0.023282675909996033
1783169367782696200,9.9866962890625,0.07355740364193916,0.07063070254027844,0.01291201547794044
1783169367792645000,9.99664501953125,0.07049217085242271,0.08787585185170173,-0.0017050138195976615
1783169367802594300,10.00659423828125,0.038244098198413845,0.0820388162612915,-0.02876001134254038
1783169367812573200,10.0165732421875,0.07714169186949729,0.07438216402828693,-0.02386420212499797
1783169367822522000,10.026522216796875,0.07090835043787956,0.09786474642455577,-0.014857231261581182
1783169367832470300,10.03647021484375,0.060441901481151576,0.10399988817870616,-0.020445260526984928
1783169367842419200,10.046419189453125,0.06888298209011555,0.09600538229346275,-0.02015796801820397
1783169367852398000,10.056398193359374,0.06417816540002823,0.07882686847746372,-0.028458251916989682
1783169367862347000,10.066346923828124,0.08214929089844226,0.0699830522865057,-0.02595832486003637
1783169367872296400,10.07629638671875,0.10245032064914703,0.06204524502456188,-0.025904621911421417
1783169367882244000,10.086244140625,0.10602174939513206,0.06275076294541358,-0.035079715883359314
1783169367892224300,10.096224365234375,0.08777589860856533,0.04675941308736801,-0.0459856887685135
1783169367902172400,10.10617236328125,0.09294190306961536,0.03624970951080322,-0.04845273646917194
1783169367912121300,10.116121337890625,0.1022381392031908,0.05014321030676364,-0.043104032384976745
1783169367922100200,10.126100341796874,0.09893734409213066,0.06609072102308274,-0.033816929405927655
1783169367932049200,10.136049072265624,0.08342237957417964,0.06187924080789089,-0.04560081763677299
1783169367941998300,10.145998291015625,0.06866612446904181,0.06066285075545311,-0.051274698554724454
1783169367951947300,10.155947265625,0.07212064883708953,0.07868132252693176,-0.033512247370928526
1783169367961926100,10.165926025390625,0.0761433284819126,0.06373568232953548,-0.029587621273100374
1783169367971875000,10.175875,0.05520984604656696,0.05262918190360069,-0.01680485819801688
1783169367981823200,10.1858232421875,0.05707388635277748,0.05417231969237327,0.006661138389632106
1783169367991772200,10.195772216796875,0.04021335244476795,0.05759527987837791,0.0037882863670587537
1783169368001751300,10.205751220703124,0.030028058516979216,0.059304421883821484,0.009992986226081848
1783169368011700200,10.2157001953125,0.023537527453899382,0.06054010115861892,0.007506283976882696
1783169368021649200,10.225649169921875,0.022049334722757337,0.06161562143564224,-0.01265825991258025
1783169368031628000,10.2356279296875,0.01865735419690609,0.06204466050267219,-0.02791851901710033
1783169368041577200,10.2455771484375,0.044539398950338364,0.07501987740993499,-0.018356361956335603
1783169368051525000,10.255525146484375,0.03240238643288612,0.0852712223112583,-0.020438830786198375
1783169368061474300,10.265474365234375,0.005945756661891937,0.0738040718793869,-0.026654052039235827
1783169368071453400,10.275453369140624,0.011693360403180121,0.05787818847298622,-0.007352773915603757
1783169368081425700,10.28542578125,0.04595920262038707,0.0670113429993391,-0.01000832992568612
1783169368091374600,10.29537451171875,0.05373217470943927,0.05629647223949432,-0.023543884129449723
1783169368101323500,10.305323486328126,0.0865787977784872,0.06631283934116364,-0.03111121411118656
1783169368111302700,10.315302734375,0.1419564016073942,0.07903145113885403,-0.05525120097026229
1783169368121251600,10.32525146484375,0.1255658232986927,0.09307166692912577,-0.05731251741424202
1783169368131199500,10.335199462890625,0.10865852763950824,0.07615794152915477,-0.06646043111830949
1783169368141179600,10.3451796875,0.09752221659719944,0.08217267177402973,-0.06063150576911866
1783169368151127600,10.35512744140625,0.08153729647994042,0.08317629585862159,-0.05624737240076065
1783169368161076500,10.365076416015626,0.08205693643987179,0.08085399039089679,-0.045209187970682976
1783169368171025700,10.375025634765626,0.09526479305922984,0.08494798170626162,-0.03745952369198203
1783169368181004500,10.385004638671875,0.0943476782143116,0.08110416575968266,-0.016111907497793437
1783169368190953700,10.39495361328125,0.07052607312202454,0.08174947792589664,0.008288301200047135
1783169368200901600,10.404901611328125,0.06341419529020786,0.06198153213858604,0.01368782215602696
1783169368210850800,10.414850830078125,0.09233750743567944,0.06880874781012535,0.015635010701045393
1783169368220829700,10.42482958984375,0.06648351973295212,0.10170505523979663,0.01937280898988247
1783169368230778600,10.434778564453126,0.032359716334939004,0.08704290815889835,0.02081712604667991
1783169368240727600,10.4447275390625,0.055042672786116596,0.07993453745841979,0.006276522986218333
1783169368250706700,10.454706787109375,0.04352759155929088,0.08448036419451237,-0.0050311260350048535
1783169368260655600,10.464655517578125,-0.0002332242339849472,0.0788408970028162,0.014082739757746458
1783169368270604500,10.4746044921875,-0.018935586616396903,0.06544833146631718,0.027425803596712647
1783169368280552700,10.484552734375,-0.01993044287264347,0.07858078476190566,0.012209200970828532
1783169368290532600,10.49453271484375,-0.043753217008709905,0.11451777506172656,-0.0039166619870811695
1783169368300480500,10.50448046875,-0.08135843278169631,0.10711538985073565,-0.00047463177442550657
1783169368310429700,10.5144296875,-0.029298575198650357,0.09771393977701663,0.025468422451242805
1783169368320378600,10.524378662109376,0.0009685527712106704,0.11130582727789878,0.03437251746207475
1783169368330357500,10.534357421875,-0.009981880310177802,0.09989303738176822,0.04153714839443564
1783169368340306400,10.544306396484375,-0.0040963294029235835,0.08461305066347122,0.04458594150580465
1783169368350255600,10.554255615234375,0.021772271347045898,0.08893909716904162,0.03752382109984755
1783169368360234800,10.56423486328125,0.06572831745147704,0.12521043398976325,0.025418007438257336
1783169368370183700,10.57418359375,0.04571545699238777,0.14684826530218123,0.006054843059554696
1783169368380131800,10.5841318359375,0.051452539339661596,0.11384323680102824,-0.005742635305225849
1783169368390080800,10.594080810546876,0.07510638664960861,0.09367138638794421,-0.01489164498783648
1783169368400059600,10.6040595703125,0.08407996670007706,0.11013853706419467,-0.014832023755088448
1783169368410008600,10.614008544921875,0.11885200487375258,0.1171872865319252,-0.017131752064824105
1783169368419957800,10.623957763671875,0.11399696605801582,0.11437865885198116,-0.04393719527348876
1783169368429905700,10.63390576171875,0.1021112979531288,0.10241291124820709,-0.05952142563536763
1783169368439885600,10.643885498046876,0.13078209664225576,0.0889578018695116,-0.06729637048579752
1783169368449833700,10.653833740234376,0.1552624579042196,0.0744745184868574,-0.07196911153718828
1783169368459782700,10.66378271484375,0.1825987931191921,0.07017126833498477,-0.04190196311883628
1783169368469761500,10.673761474609375,0.15285130510926245,0.07214695232212542,-0.037807095020636915
1783169368479710500,10.68371044921875,0.11702829657793044,0.06029109483361244,-0.0468370083682239
1783169368489659600,10.69365966796875,0.12038462126851081,0.042104865279793735,-0.09775043586250394
1783169368499608600,10.703608642578125,0.07888122901320457,0.06582827069461346,-0.05946425208803266
1783169368509587500,10.71358740234375,0.04100713317096233,0.051906128326058384,-0.020797215769812465
1783169368519536600,10.72353662109375,0.06813070241808891,0.04886602997779846,-0.0532267094053328
1783169368529484800,10.73348486328125,0.020394553253054618,0.07115618771910667,-0.07183510989397764
1783169368539433700,10.743433837890626,0.016349661776423455,0.0542407087534666,-0.05064619139283895
1783169368549412600,10.75341259765625,0.030404490613937376,0.04849310501217842,-0.01772358047813177
1783169368559361800,10.76336181640625,-0.01225333237349987,0.05746317793130874,-0.005210647320374846
1783169368569310700,10.773310791015625,-0.017571312525868413,0.031157939329743384,-0.03189977067299187
1783169368579289600,10.78328955078125,-0.0351829570621252,0.031226328390836715,-0.07015081006884574
1783169368589238500,10.793238525390626,-0.03972001596987247,0.053369771137833595,-0.10110160945393144
1783169368599186700,10.803186767578126,-0.05390753127634525,0.0688414810359478,-0.09519202008396387
1783169368609135600,10.813135498046876,-0.01213701251745224,0.058275663357973094,-0.07766476589553058
1783169368619114800,10.82311474609375,0.011435586249828338,0.053445174461603163,-0.0692898093253374
1783169368629063700,10.833063720703125,0.01009352399110794,0.037737902241945266,-0.05790821828506887
1783169368639012600,10.8430126953125,0.08722644803225994,0.06586041939854621,-0.012701149206236004
1783169368648961500,10.85296142578125,0.12627017217576503,0.1034580363869667,0.014723594944551586
1783169368658940700,10.862940673828126,0.04139291761815548,0.11283435201942921,0.04048223251402378
1783169368668889600,10.8728896484375,0.03957680810689926,0.04223053748607635,0.0785991972014308
1783169368678837500,10.88283740234375,0.08432955754697323,0.07915186264812946,0.10219141398463398
1783169368688817700,10.892817626953125,0.06480535738766192,0.1612619905799627,0.06984963516518473
1783169368698765600,10.902765625,0.0830365951269865,0.1776882247239351,0.019931831112131475
1783169368708714800,10.91271484375,0.11730652899742126,0.18050269762277601,-0.03474493097104132
1783169368718663700,10.92266357421875,0.08411503801345825,0.14259528403282165,-0.052160651076398785
1783169368728642800,10.932642822265626,0.06955225965380668,0.06686988870203495,-0.05323796145170927
1783169368738591700,10.942591796875,0.07920446961820125,0.0270703777551651,-0.044787236231565476
1783169368748539600,10.95253955078125,0.08204816861152649,0.01879237875342369,-0.018690598879382014
1783169368758488600,10.962488525390626,0.08497428519129753,0.04171323561370373,0.009045476242899895
1783169368768467700,10.9724677734375,0.07475976516902447,0.07940320706069469,0.003005611556768417
1783169368778416600,10.982416748046875,0.05801321302950382,0.09036299249231815,-0.01690733219180256
1783169368788365600,10.992365478515625,0.07051087555289268,0.07823650136888027,-0.01510652984753251
1783169368798344700,11.0023447265625,0.05505962392091751,0.0810018744289875,0.020340667641349137
1783169368808293600,11.012293701171876,0.04851765493154526,0.09354805226922035,0.05165427245683968
1783169368818242600,11.02224267578125,0.06649988634586333,0.09301496830582619,0.037561303566023704
1783169368828190500,11.0321904296875,0.03953472253084182,0.09072188893258572,0.030578933865390717
1783169368838170600,11.042170654296875,0.03021042934656143,0.07680500726103782,0.03427775185070932
1783169368848118500,11.052118408203125,0.002562543964385986,0.06045943713784217,0.033802462489157914
1783169368858067700,11.062067626953125,0.004222586131095886,0.05514321055114269,0.014431407064944505
1783169368868016600,11.0720166015625,0.07490823372900486,0.0922995135128498,0.007895064098760484
1783169368877995800,11.081995849609376,0.04791267477571964,0.10446282951533793,-0.014932378857024014
1783169368887944700,11.09194482421875,-0.004200374299287796,0.0761433284819126,0.011545330234616994
1783169368897892600,11.101892578125,0.02499415600299835,0.06750292590856552,0.011634031431376934
1783169368907872800,11.111872802734375,0.03483750462532043,0.09765665663182735,-0.017035196355171502
1783169368917820700,11.121820556640625,0.043758477705717086,0.09402385308742522,-0.006285875336453318
1783169368927769600,11.13176953125,0.05121054727733135,0.0821697491645813,0.007639043511077762
1783169368937718500,11.141718505859375,0.0062134676873683925,0.08215221350789069,-0.019659297781065104
1783169368947697700,11.15169775390625,0.005935819789767265,0.06105038876831531,-0.06813391728848218
1783169368957646600,11.161646484375,0.06270692380368709,0.0738128397077322,-0.058420843982324
1783169368967595500,11.171595458984376,0.07843640785515307,0.10480360577702522,-0.04107617981918156
1783169368977543700,11.181543701171876,0.06642857467532158,0.10120587354600429,-0.02757913099490106
1783169368987523600,11.191523681640625,0.0814157159268856,0.08577508018016815,-0.03554126898050308
1783169368997471500,11.201471435546875,0.09053308836221695,0.07342530169487,-0.03737272219136357
1783169369007420400,11.21142041015625,0.08096797215938567,0.08212240289151668,-0.03729161977916956
1783169369017399600,11.221399658203126,0.10335632957816124,0.07735621140301227,-0.03127564742527902
1783169369027348500,11.231348388671876,0.11518997523486614,0.0662052873134613,-0.04106335687022656
1783169369037297700,11.241297607421876,0.12582359745204447,0.07111059501171112,-0.03310505480952561
1783169369047245800,11.251245849609376,0.10803367373943329,0.07252513798475264,-0.028032427720353005
1783169369057225700,11.261225830078125,0.10491641850173472,0.0757557904690504,-0.028648367661610243
1783169369067173600,11.271173583984375,0.09148819712996482,0.09703063368797302,-0.020861915036477146
1783169369077162200,11.281162353515626,0.0441717346817255,0.09241174171566963,-0.026555194774642583
1783169369087111400,11.291111328125,0.06231120248436928,0.08687047420144081,-0.024041969844698904
1783169369097090600,11.301090576171875,0.051206455624103545,0.09820435364246367,0.0019268033441156148
1783169369107039500,11.31103955078125,0.05092413155138492,0.10267536157667637,0.02517751321326941
1783169369116988400,11.320988525390625,0.035813656181097026,0.09614391398131847,0.005313596238195896
1783169369126967600,11.330967529296874,-0.0024766192466020584,0.08932137448489666,-0.014890987400710582
1783169369136916500,11.34091650390625,0.047285482788085934,0.1074707791596651,-0.01835011487863958
1783169369146864400,11.350864501953126,0.0576917259901762,0.1302887601673603,-0.01654434409830719
1783169369156813300,11.360813232421876,0.03952420113682747,0.12232055776715278,-0.007861015698686242
1783169369166792400,11.37079248046875,0.01099018056988716,0.08492343178689479,0.006472995406389236
1783169369176741400,11.380741455078125,0.004768529576063156,0.044077042135596274,0.009495631163194775
1783169369186690300,11.390690185546875,0.04903437228202819,0.05075403568148613,-0.000443067592382431
1783169369196639200,11.40063916015625,0.04478782075345516,0.06790098531544209,0.00905537658240646
1783169369206618400,11.410618408203124,0.060272390133142464,0.053555649098753925,0.02627491652853787
1783169369216566300,11.420566162109376,0.04257832801043987,0.031491116806864734,0.004652757709287107
1783169369226515200,11.43051513671875,0.061929509690403936,0.034633506485819816,0.0002709624284878373
1783169369236494300,11.440494384765625,0.07029810958504676,0.08407587504684924,0.00013096943590790034
1783169369246443300,11.450443359375,0.04419219294786453,0.10500000513195991,-0.002115384718775749
1783169369256392400,11.460392333984375,0.021890344768762587,0.0533563271343708,0.006310132994875312
1783169369266341400,11.47034130859375,0.005074819046258926,0.024206220495700835,0.010793342823535203
1783169369276320500,11.480320556640624,0.01588788948357105,0.06036532911360264,-0.002353613921441138
1783169369286269400,11.49026953125,0.027608137893676755,0.12165420281291008,-0.026241891041770576
1783169369296217300,11.50021728515625,0.01773790126442909,0.1111222874045372,-0.02886266799941659
1783169369306166500,11.51016650390625,-0.024021511578559872,0.06825111392736434,-0.04439151491224765
1783169369316145400,11.5201455078125,0.02081716257929802,0.06619827305078506,-0.05631276578716934
1783169369326094300,11.53009423828125,0.0680962156265974,0.10916121646463871,-0.03900076178461313
1783169369336043300,11.540043212890625,0.0912234087139368,0.11262041700780391,-0.020242869822680948
1783169369346022400,11.5500224609375,0.0986082582682371,0.06750409495234488,0.0029870895193889737
1783169369355971300,11.559971435546874,0.08852993184626103,0.05721943230330944,0.013128288577124475
1783169369365920300,11.569920166015624,0.08324585396349429,0.07598375400602816,0.0025255729548633097
1783169369375868400,11.579868408203126,0.10237550184726714,0.07913608055710793,-0.0011760580420494078
1783169369385848300,11.589848388671875,0.1154442422568798,0.07996376355290412,0.011848185638710856
1783169369395796200,11.599796142578125,0.1151741931438446,0.08161912954449653,-0.0034885727681219576
1783169369405745200,11.6097451171875,0.11462240447998046,0.06640168666839599,-0.010578969420492648
1783169369415694600,11.619694580078125,0.08683949454128742,0.06001753858923912,0.002517901105061173
1783169369425673500,11.629673583984374,0.06134791041016578,0.0827139390438795,-0.004551525824517012
1783169369435622400,11.639622314453124,0.017826748591661452,0.09756956287026405,-0.020836597932130097
1783169369445570600,11.649570556640626,-0.004023848688602448,0.09127660020589828,-0.013058730472251772
1783169369455550500,11.659550537109375,-0.014936287847161292,0.08024141145050526,0.011452062460593878
1783169369465498400,11.669498291015625,-0.036437925559282304,0.08824936133921146,0.023775573993474245
1783169369475447300,11.679447265625,-0.03467033136487007,0.08107318609952927,0.023154154159501193
1783169369485396500,11.689396484375,-0.019379823252558707,0.05942658695876598,0.015580321371741592
1783169369495375400,11.699375244140626,-0.020285247659683227,0.0542582444101572,0.008083134016767144
1783169369505324300,11.70932421875,-0.023153496572375296,0.05562544111013412,0.010910356799326837
1783169369515273200,11.719273193359374,0.012868833923339843,0.06064005440175533,0.016082608338072894
1783169369525221400,11.729221435546876,0.03705050449967384,0.06669102500379086,0.018891309083253142
1783169369535201300,11.739201171875,0.04244447249770164,0.08706102833747863,0.011844240115955472
1783169369545149400,11.7491494140625,0.06327391003668308,0.10165537087917327,-0.010561872155219316
1783169369555098400,11.759098388671875,0.03555938915908336,0.09375380397439002,-0.005147884282469749
1783169369565047600,11.769047607421875,0.0521364299505949,0.07768412818312645,-0.008796250722184778
1783169369575026200,11.779026123046876,0.07363456053137779,0.08654138837754725,-0.020650719971209763
1783169369584975400,11.788975341796874,0.07303542559444903,0.10022446129322052,-0.03338405441399663
1783169369594923500,11.798923583984376,0.10759119066894053,0.08722761707603931,-0.02402085399143398
1783169369604903400,11.8089033203125,0.10781213994324207,0.0787356830626726,-0.03190576202236116
1783169369614851600,11.8188515625,0.060551791596412656,0.06501929239928722,-0.043134208327531814
1783169369624800500,11.828800537109375,0.0764618929117918,0.03326046456694603,-0.014607859610393643
1783169369634749400,11.83874951171875,0.11083704072237015,0.05481763185858726,-0.017639117065072058
1783169369644728300,11.848728271484376,0.05928513266146183,0.1063946743607521,-0.043921632378175854
1783169369654677500,11.858677490234374,0.031360768425464626,0.08845803565382956,-0.062102747365459794
1783169369664626400,11.86862646484375,0.06968260803520679,0.05550269151329994,-0.05484583503976464
1783169369674574300,11.87857421875,0.09197861099541187,0.10364917504489421,-0.047279674101807175
1783169369684554200,11.88855419921875,0.07910100924372672,0.11511457191109657,-0.023798662608116864
1783169369694502400,11.89850244140625,0.09770867908000945,0.09445289215445518,-0.021553075638413428
1783169369704451300,11.908451416015625,0.10015431866645813,0.06938450187146664,-0.0332258316449821
1783169369714430200,11.91843017578125,0.07758125233054161,0.08670622355043887,-0.03751834120713174
1783169369724379400,11.92837939453125,0.09176526050567627,0.09523848957419395,-0.02844926489293575
1783169369734328300,11.938328369140624,0.0744184043854475,0.10072013585567474,-0.025632600037008523
1783169369744276200,11.948276123046876,0.02992810527384281,0.09560849193036555,-0.014959741787984966
1783169369754256400,11.95825634765625,0.03485971645712852,0.07683423335552216,-0.005356850858032703
1783169369764204500,11.96820458984375,0.0385468805372715,0.06205693546235561,0.004785992167517543
1783169369774153500,11.978153564453125,0.05816343515515327,0.07876023298203945,0.012328078110143541
1783169369784102400,11.988102294921875,0.0557744941920042,0.08657353708148002,0.003342223099991679
1783169369794081500,11.99808154296875,0.09430734620392323,0.0768669665813446,0.005711947906017303
1783169369804030500,12.008030517578124,0.09412789798378944,0.07753975127637386,0.0009202566500753163
1783169369813979400,12.0179794921875,0.08006137870848179,0.08534545659124851,-0.014329627190902828
1783169369823958300,12.027958251953125,0.05734978068470955,0.05843582235574722,-0.015812632290273902
1783169369833907500,12.037907470703125,-0.03114449532628059,0.016435001972317696,-0.058924409590288995
1783169369843855400,12.04785546875,-0.07780512421429157,0.0034369887113571166,-0.1789794701108709
1783169369853804300,12.05780419921875,0.12088088035285473,0.057550856214761734,-0.15783139507677404
1783169369863783400,12.067783447265626,0.4207476240247488,0.21468261512219905,0.055332997502200304
1783169369873732400,12.077732421875,0.8520020290166139,0.32197102345228196,0.30844642903395
1783169369883681300,12.087681396484374,-0.009427169036865234,0.08841770364344119,0.21602131638005376
1783169369893629400,12.09762939453125,-0.07478373056650162,0.007617489266395569,-0.07703121723234653
1783169369903609300,12.107609375,0.034359365719556806,0.1338619424790144,-0.07672536615356802
1783169369913557200,12.11755712890625,-0.017691724035143852,0.2227887646883726,-0.012624065382033586
1783169369923506400,12.12750634765625,-0.09252572348415851,0.23219021476209162,-0.0032636779710650443
1783169369933485300,12.1374853515625,-0.1762339342623949,0.14735855291187763,-0.025051621811278162
1783169369943434500,12.1474345703125,-0.12413491371273994,0.07587912458777427,-0.04003127387613058
1783169369953383400,12.157383544921874,-0.0337409415602684,0.06387538306117058,-0.01748407263383269
1783169369963332400,12.167332275390624,0.049264089384675025,0.06922609643936156,0.014294336681813001
1783169369973311500,12.1773115234375,0.15115385354161262,0.06081307288110256,0.07925108523890376
1783169369983260400,12.187260498046875,0.14611410580873488,0.10313421126008034,0.1714415123540908
