time,seconds_elapsed,z,y,x
1783169357915039700,0.119039794921875,-0.013900583609938622,-0.010294320993125439,0.024902401491999626
1783169357924988700,0.12898876953125,-0.011068055406212807,-0.01268091145902872,-0.00020522437989711761
1783169357934937900,0.138937744140625,-0.009324217215180397,-0.007310913875699043,-0.011499956250190735
1783169357944887000,0.148886962890625,-0.00458148866891861,0.01331002451479435,-0.004633740521967411
1783169357954866000,0.158865966796875,-0.0034847985953092575,0.03052443079650402,0.014762327075004578
1783169357964814800,0.16881494140625,-0.012089816853404045,0.02938150241971016,0.02985408529639244
1783169357974763000,0.178762939453125,-0.011670902371406555,0.002504880540072918,0.037335701286792755
1783169357984743000,0.188742919921875,-0.00453709252178669,-0.03685664013028145,0.027840469032526016
1783169357994690800,0.19869091796875,0.013834727928042412,-0.06117650121450424,0.004346465226262808
1783169358004639700,0.2086396484375,0.036276474595069885,-0.06531020253896713,-0.02263448014855385
1783169358014589000,0.2185888671875,0.06047208607196808,-0.06775259226560593,-0.054077088832855225
1783169358024567800,0.22856787109375,0.08154364675283432,-0.05202046036720276,-0.06695881485939026
1783169358034516700,0.238516845703125,0.09480538964271545,-0.006272681523114443,-0.05205070227384567
1783169358044465700,0.248465576171875,0.09476800262928009,0.037216685712337494,-0.016919169574975967
1783169358054413800,0.258413818359375,0.08589168637990952,0.06048472225666046,0.026437358930706978
1783169358064393700,0.268393798828125,0.06557177752256393,0.05280376225709915,0.062014494091272354
1783169358074370600,0.27837060546875,0.05230257660150528,0.012617727741599083,0.0806662067770958
1783169358084319700,0.28831982421875,0.04219188541173935,-0.017262529581785202,0.07510095834732056
1783169358094298600,0.298298583984375,0.04643084108829498,-0.028713587671518326,0.053542669862508774
1783169358104247800,0.308247802734375,0.058217987418174744,-0.018400888890028,0.021751578897237778
1783169358114196700,0.31819677734375,0.07286031544208527,0.0025408780202269554,-0.011357106268405914
1783169358124145000,0.328144775390625,0.08495835214853287,0.005939251743257046,-0.04107031598687172
1783169358134124800,0.338124755859375,0.09036856144666672,0.026044785976409912,-0.05661864951252937
1783169358144072700,0.34807275390625,0.09478307515382767,0.04555683583021164,-0.05860535800457001
1783169358154021600,0.358021728515625,0.09046023339033127,0.05885905772447586,-0.04348073899745941
1783169358163970800,0.367970703125,0.08038780093193054,0.0534496083855629,-0.014289190992712975
1783169358173949700,0.37794970703125,0.0657995417714119,0.020889002829790115,0.01103826891630888
1783169358183898600,0.387898681640625,0.05217297002673149,-0.01379703450948,0.03225374221801758
1783169358193847600,0.39784765625,0.04188304767012596,-0.03728637844324112,0.033439382910728455
1783169358203826700,0.40782666015625,0.0377812385559082,-0.0423506535589695,0.022931519895792007
1783169358213775600,0.417775634765625,0.03764835000038147,-0.01337253488600254,0.008792531676590443
1783169358223723800,0.427723876953125,0.03780167177319527,0.01379246637225151,-0.014080359600484371
1783169358233672700,0.437672607421875,0.044469427317380905,0.03810419887304306,-0.03334859758615494
1783169358243651600,0.447651611328125,0.04883887618780136,0.07487325370311737,-0.03727751225233078
1783169358253600800,0.457600830078125,0.04598982632160187,0.08640873432159424,-0.02505919709801674
1783169358263549700,0.4675498046875,0.03742971271276474,0.08172295987606049,-0.0028747282922267914
1783169358273497900,0.477497802734375,0.028860723599791527,0.06645213067531586,0.020135782659053802
1783169358283477800,0.487477783203125,0.0196099691092968,0.0546688437461853,0.046873435378074646
1783169358293426000,0.497426025390625,0.013572316616773605,0.04235757887363434,0.06396719813346863
1783169358303374800,0.507374755859375,0.01494302786886692,0.033950891345739365,0.07125692069530487
1783169358313353700,0.517353759765625,0.020752450451254845,0.02218025177717209,0.06830774247646332
1783169358323302700,0.527302734375,0.02732275053858757,0.00617720652371645,0.057337261736392975
1783169358333251800,0.537251953125,0.027600515633821487,-0.007863777689635754,0.035727836191654205
1783169358343200800,0.54720068359375,0.01758694089949131,-0.017124297097325325,0.0070547061040997505
1783169358353179600,0.5571796875,0.012199366465210915,-0.008769961073994637,-0.018761178478598595
1783169358363128600,0.567128662109375,0.010965347290039062,0.0030240239575505257,-0.04315126687288284
1783169358373076700,0.57707666015625,0.013024769723415375,0.01511184498667717,-0.05623031407594681
1783169358383025700,0.587025634765625,0.010620294138789177,0.009421234019100666,-0.05503430217504501
1783169358393004500,0.597004638671875,0.003159979358315468,-0.019792046397924423,-0.04723630100488663
1783169358402953700,0.60695361328125,-0.00044602900743484497,-0.05190342664718628,-0.03953779488801956
1783169358412903000,0.61690283203125,-0.006279682740569115,-0.07542926073074341,-0.03957987576723099
1783169358422881500,0.626881591796875,-0.013926510699093342,-0.07491931319236755,-0.04592209309339523
1783169358432830700,0.636830810546875,-0.030478322878479958,-0.05829905718564987,-0.0575190931558609
1783169358442779000,0.64677880859375,-0.0433114729821682,-0.03229575231671333,-0.0699927806854248
1783169358452727800,0.656727783203125,-0.05067165195941925,-0.009367266669869423,-0.08122652769088745
1783169358462706700,0.666706787109375,-0.050594598054885864,-0.0015071716625243425,-0.08524613827466965
1783169358472656000,0.67665576171875,-0.04960896074771881,-0.0096417972818017,-0.082026906311512
1783169358482604800,0.686604736328125,-0.04729263484477997,-0.03063078038394451,-0.07720310986042023
1783169358492583700,0.696583740234375,-0.046673454344272614,-0.04223097860813141,-0.06799523532390594
1783169358502532600,0.70653271484375,-0.04867330566048622,-0.04088049381971359,-0.061490535736083984
1783169358512481800,0.716481689453125,-0.053810808807611465,-0.033850278705358505,-0.050169967114925385
1783169358522429700,0.7264296875,-0.06060926616191864,-0.020269084721803665,-0.043657466769218445
1783169358532409600,0.73640966796875,-0.062132328748703,-0.016077537089586258,-0.046190932393074036
1783169358542357800,0.746357666015625,-0.051196735352277756,-0.005651712883263826,-0.05113845318555832
1783169358552306700,0.756306640625,-0.030503440648317337,0.012945406138896942,-0.045511726289987564
1783169358562255600,0.766255615234375,-0.00812232680618763,0.005403557792305946,-0.03998929262161255
1783169358572234800,0.77623486328125,0.008854791522026062,-0.016561660915613174,-0.0314306914806366
1783169358582183700,0.78618359375,0.02395961619913578,-0.03578200936317444,-0.022265147417783737
1783169358592131600,0.796131591796875,0.03214511275291443,-0.03338915854692459,-0.012084947898983955
1783169358602111700,0.80611181640625,0.034522607922554016,-0.02248307690024376,-0.002837883308529854
1783169358612060000,0.816059814453125,0.031218959018588066,-0.0007780478335916996,0.007734599988907576
1783169358622008800,0.8260087890625,0.033473044633865356,0.016080960631370544,0.02168036624789238
1783169358631957800,0.835957763671875,0.035828083753585815,0.017036236822605133,0.02843094803392887
1783169358641937000,0.84593701171875,0.03817185014486313,0.0012549632228910923,0.034181222319602966
1783169358651885800,0.8558857421875,0.04185233265161514,-0.018378660082817078,0.03901299834251404
1783169358661834800,0.865834716796875,0.04972001910209656,-0.033895738422870636,0.03382166475057602
1783169358671782700,0.87578271484375,0.05429773032665253,-0.03952805697917938,0.018097028136253357
1783169358681762800,0.8857626953125,0.05939839407801628,-0.04239432513713837,-0.0031311437487602234
1783169358691710700,0.895710693359375,0.057599958032369614,-0.025938652455806732,-0.017341505736112595
1783169358701659600,0.90565966796875,0.0500175803899765,0.004406560678035021,-0.022183606401085854
1783169358711638800,0.915638671875,0.03535369038581848,0.019707486033439636,-0.026648396626114845
1783169358721587700,0.925587646484375,0.0251891128718853,0.021887367591261864,-0.0294776801019907
1783169358731536600,0.93553662109375,0.017947711050510406,0.014459278434515,-0.032388247549533844
1783169358741485800,0.94548583984375,0.012199722230434418,0.012554943561553955,-0.034542061388492584
1783169358751464700,0.955464599609375,0.007386859506368637,0.021390514448285103,-0.03212364763021469
1783169358761412600,0.96541259765625,0.0006043184548616409,0.028791304677724838,-0.03385794535279274
1783169358771361800,0.97536181640625,-0.012689115479588509,0.0254271999001503,-0.03607475757598877
1783169358781310700,0.985310791015625,-0.017404165118932724,0.032991811633110046,-0.0363023467361927
1783169358791289900,0.995289794921875,-0.014376416802406311,0.04715929552912712,-0.03964940831065178
1783169358801238800,1.00523876953125,0.0007032137364149094,0.05525370314717293,-0.037590332329273224
1783169358811187700,1.015187744140625,0.012508740648627281,0.04727780073881149,-0.039410337805747986
1783169358821166800,1.025166748046875,0.01995413936674595,0.030053818598389626,-0.03755393624305725
1783169358831115800,1.03511572265625,0.02273980714380741,0.018392635509371758,-0.0359637625515461
1783169358841063700,1.045063720703125,0.02487468719482422,0.01750810816884041,-0.03367643058300018
1783169358851012600,1.0550126953125,0.02470957115292549,0.027408409863710403,-0.020528405904769897
1783169358860991700,1.06499169921875,0.020281266421079636,0.024877075105905533,-0.006409123539924622
1783169358870940700,1.074940673828125,0.01597040519118309,0.010860858485102654,0.00252152094617486
1783169358880889600,1.0848896484375,0.016195528209209442,-0.006983336992561817,0.0032854764722287655
1783169358890838500,1.094838623046875,0.01931808516383171,-0.011744802817702293,-0.0019164755940437317
1783169358900817700,1.104817626953125,0.026327082887291908,-0.013902464881539345,-0.014259442687034607
1783169358910766600,1.1147666015625,0.03276820480823517,-0.010942626744508743,-0.019783105701208115
1783169358920714500,1.124714599609375,0.033494170755147934,-0.005014427006244659,-0.022279206663370132
1783169358930693600,1.134693603515625,0.028543885797262192,-0.009207041934132576,-0.021921012550592422
1783169358940642800,1.144642822265625,0.02169743925333023,-0.008990921080112457,-0.015546951442956924
1783169358950591700,1.154591796875,0.01814238727092743,-0.006818580441176891,-0.00405887421220541
1783169358960540700,1.164540771484375,0.01152079738676548,-0.006291369907557964,0.0063442662358284
1783169358970519800,1.174519775390625,-0.0006200205534696579,-0.00801070686429739,0.010399728082120419
1783169358980468700,1.18446875,-0.010945486836135387,-0.009424392133951187,0.010740954428911209
1783169358990416600,1.194416748046875,-0.013145525008440018,-0.004012849181890488,0.0068673864006996155
1783169359000365800,1.20436572265625,-0.015433012507855892,-0.005250614136457443,-0.0042472658678889275
1783169359010344700,1.2143447265625,-0.010995120741426945,0.005133849568665028,-0.010692382231354713
1783169359020293600,1.224293701171875,-0.00665181502699852,0.018757257610559464,-0.009003797546029091
1783169359030242600,1.23424267578125,-0.010555742308497429,0.007345879450440407,-0.0031866542994976044
1783169359040221700,1.2442216796875,-0.013232396915555,-0.002076338743790984,0.0007560527883470058
1783169359050170600,1.254170654296875,-0.014268898405134678,-0.0012627430260181427,0.009712263941764832
1783169359060119600,1.26411962890625,-0.014327230863273144,0.011265270411968231,0.01622004620730877
1783169359070077400,1.274077392578125,-0.009735675528645515,0.0299055352807045,0.02127499133348465
1783169359080057300,1.284057373046875,-0.006968118250370026,0.03668211027979851,0.01988486386835575
1783169359090005500,1.294005615234375,0.00022161751985549927,0.03370602801442146,0.02192431315779686
1783169359099954400,1.303954345703125,0.004183592274785042,0.01978021115064621,0.022370073944330215
1783169359109903400,1.3139033203125,0.010293947532773018,0.004973036702722311,0.018643513321876526
1783169359119882200,1.32388232421875,0.013762449845671654,-0.010620038025081158,0.010655894875526428
1783169359129831400,1.33383154296875,0.018449878320097923,-0.012309813871979713,-0.005004291422665119
1783169359139779300,1.343779296875,0.021717200055718422,-0.0037733926437795162,-0.019106797873973846
1783169359149759200,1.35375927734375,0.02453215979039669,0.01348708663135767,-0.02761506661772728
1783169359159707400,1.363707275390625,0.02036435529589653,0.029715772718191147,-0.032794926315546036
1783169359169656300,1.37365625,0.017871104180812836,0.02985984832048416,-0.032725684344768524
1783169359179605200,1.383605224609375,0.012961465865373611,0.019485322758555412,-0.031037546694278717
1783169359189584100,1.393584228515625,0.017375655472278595,0.01755160093307495,-0.024333301931619644
1783169359199533300,1.403533203125,0.022739799693226814,0.013077067211270332,-0.012593859806656837
1783169359209482500,1.413482421875,0.02188492752611637,0.004327785223722458,-0.009438546374440193
1783169359219430400,1.423430419921875,0.02084478922188282,-0.002616207581013441,-0.01230531744658947
1783169359229410300,1.433410400390625,0.02518440969288349,-0.026372402906417847,-0.019797323271632195
1783169359239358500,1.4433583984375,0.023893648758530617,-0.03262946754693985,-0.029245983809232712
1783169359249307400,1.453307373046875,0.014303339645266533,-0.03706549480557442,-0.04492267966270447
1783169359259286500,1.46328662109375,0.004959646612405777,-0.02913658507168293,-0.059220604598522186
1783169359269235500,1.4732353515625,-0.005730548873543739,-0.006577212829142809,-0.07090868800878525
1783169359279184400,1.483184326171875,-0.0097575131803751,0.005801159422844648,-0.07935649901628494
1783169359289132300,1.49313232421875,-0.008731665089726448,0.013659615069627762,-0.08440478891134262
1783169359299112200,1.5031123046875,-0.00567251443862915,0.009267235174775124,-0.07715336978435516
1783169359309060400,1.513060302734375,-0.005265848711133003,-0.009337607771158218,-0.0667758360505104
1783169359319009300,1.52300927734375,-0.0011081229895353317,-0.013508118689060211,-0.047323040664196014
1783169359328958200,1.532958251953125,-0.0010559242218732834,-0.007372728083282709,-0.032043687999248505
1783169359338937300,1.542937255859375,-0.0017322823405265808,-0.0037087160162627697,-0.024362439289689064
1783169359348886300,1.55288623046875,0.001168699935078621,0.0006743143312633038,-0.019663291051983833
1783169359358835500,1.56283544921875,0.002326851710677147,0.00006804661825299263,-0.018779924139380455
1783169359368814300,1.572814453125,0.0034259390085935593,-0.003822032827883959,-0.02248518168926239
1783169359378763500,1.582763427734375,0.007810572162270546,0.002804436255246401,-0.027443628758192062
1783169359388711400,1.59271142578125,0.00981433130800724,0.0009013419039547443,-0.0301310233771801
1783169359398660400,1.602660400390625,0.013309994712471962,-0.0019761959556490183,-0.03748037666082382
1783169359408639500,1.612639404296875,0.0221444983035326,-0.00832490622997284,-0.04275503382086754
1783169359418588400,1.62258837890625,0.03964813053607941,-0.006283600348979235,-0.030204258859157562
1783169359428537300,1.632537353515625,0.04779953509569168,-0.0008555455133318901,-0.004875999875366688
1783169359438485500,1.642485595703125,0.0444464385509491,-0.013653459027409554,0.02947365678846836
1783169359448465400,1.65246533203125,0.03912118077278137,-0.04051782935857773,0.061922408640384674
1783169359458413300,1.662413330078125,0.03704807162284851,-0.0614045076072216,0.08403828740119934
1783169359468362200,1.6723623046875,0.03739002346992493,-0.07206114381551743,0.09963535517454147
1783169359478341400,1.68234130859375,0.03934302181005478,-0.07229546457529068,0.10869178175926208
1783169359488290300,1.692290283203125,0.03586679697036743,-0.05690239742398262,0.10171908885240555
1783169359498239200,1.7022392578125,0.027681386098265648,-0.04742242023348808,0.09743249416351318
1783169359508188200,1.712188232421875,0.020330263301730156,-0.04203431308269501,0.09506440907716751
1783169359518167300,1.722167236328125,0.013021133840084076,-0.017509840428829193,0.1030210629105568
1783169359528116200,1.7321162109375,0.0035088546574115753,0.014939180575311184,0.1284979283809662
1783169359538064100,1.742064208984375,-0.01367945782840252,0.03900163993239403,0.15291981399059296
1783169359548013600,1.752013671875,-0.030127141624689102,0.04503529518842697,0.1714727282524109
1783169359557992400,1.761992431640625,-0.03876013681292534,0.034389663487672806,0.18168014287948608
1783169359567941400,1.77194140625,-0.042834773659706116,0.03187670558691025,0.1802968978881836
1783169359577890300,1.781890380859375,-0.04743058234453201,0.02721617929637432,0.17078286409378052
1783169359587838500,1.79183837890625,-0.04487714543938637,0.021924477070569992,0.15462839603424072
1783169359597818400,1.801818359375,-0.042931437492370605,0.010084063746035099,0.12521350383758545
1783169359607766300,1.811766357421875,-0.031191959977149963,0.011965852230787277,0.09766843914985657
1783169359617715500,1.821715576171875,-0.009247776120901108,0.029283571988344193,0.07647775858640671
1783169359627694300,1.8316943359375,0.00041550397872924805,0.045122988522052765,0.06973329931497574
1783169359637643300,1.841643310546875,-0.0029816273599863052,0.03937763348221779,0.06256899237632751
1783169359647592200,1.85159228515625,-0.006835222244262695,0.016907215118408203,0.059978801757097244
1783169359657541400,1.861541259765625,-0.009430738165974617,0.0003343624994158745,0.05985310301184654
1783169359667520300,1.871520263671875,-0.014666778966784477,-0.0013572773896157742,0.05581468343734741
1783169359677469200,1.88146923828125,-0.020254887640476227,0.0023193308152258396,0.04260367900133133
1783169359687417300,1.891417236328125,-0.02177661843597889,0.004297260195016861,0.022354330867528915
1783169359697366300,1.9013662109375,-0.007690537720918655,0.00778844952583313,0.00023560971021652222
1783169359707345200,1.91134521484375,0.006639933213591576,0.015633057802915573,-0.016229117289185524
1783169359717294300,1.92129443359375,0.017978770658373833,0.029188456013798714,-0.02387566864490509
1783169359727243500,1.931243408203125,0.02296234481036663,0.03420904278755188,-0.023568876087665558
1783169359737222400,1.941222412109375,0.01578850857913494,0.017266009002923965,-0.012630715034902096
1783169359747171300,1.95117138671875,0.00482906773686409,-0.010683335363864899,-0.003627365455031395
1783169359757120300,1.961120361328125,-0.009342582896351814,-0.03390936926007271,0.0005920021794736385
1783169359767068400,1.971068359375,-0.029380474239587784,-0.04312630370259285,0.000030341558158397675
1783169359777047300,1.98104736328125,-0.04612138867378235,-0.05111712962388992,-0.014545331709086895
1783169359786996500,1.99099658203125,-0.050610147416591644,-0.03864208608865738,-0.03409799560904503
1783169359796945400,2.0009453125,-0.040698375552892685,-0.027751341462135315,-0.06026415526866913
1783169359806894300,2.010894287109375,-0.021432003006339073,-0.014147648587822914,-0.08231513202190399
1783169359816873200,2.020873291015625,-0.005731794983148575,0.009344227612018585,-0.08536150306463242
1783169359826822400,2.030822509765625,-0.002114422619342804,0.013845236040651798,-0.07226566970348358
1783169359836770300,2.040770263671875,-0.006805745884776115,-0.006105214823037386,-0.04245496541261673
1783169359846750200,2.050750244140625,-0.013318506069481373,-0.04377589374780655,-0.012804660946130753
1783169359856698400,2.060698486328125,-0.020122172310948372,-0.0865151509642601,0.008061042055487633
1783169359866647300,2.070647216796875,-0.025602959096431732,-0.10752775520086288,0.020296934992074966
1783169359876596500,2.080596435546875,-0.027032380923628807,-0.08460788428783417,0.01944597065448761
1783169359886575400,2.090575439453125,-0.023477859795093536,-0.04714386910200119,0.00880344770848751
1783169359896524500,2.100524658203125,-0.014381462708115578,-0.01965288445353508,-0.00674324668943882
1783169359906473500,2.110473388671875,-0.0071009136736392975,-0.005354107357561588,-0.02197706140577793
1783169359916421400,2.12042138671875,0.0025275684893131256,-0.0056044007651507854,-0.021166231483221054
1783169359926401300,2.1304013671875,0.006443746387958527,-0.0071538276970386505,-0.0069497451186180115
1783169359936349400,2.140349365234375,0.01160379871726036,-0.015377180650830269,0.014404915273189545
1783169359946298400,2.15029833984375,0.009537719190120697,-0.02705594152212143,0.03178443759679794
1783169359956277200,2.16027734375,0.00025713443756103516,-0.049353521317243576,0.03605801239609718
1783169359966226400,2.170226318359375,-0.007602918893098831,-0.05321963131427765,0.024747567251324654
1783169359976175400,2.18017529296875,-0.015703367069363594,-0.023167947307229042,0.009709126316010952
1783169359986123300,2.190123291015625,-0.01707036793231964,0.015793299302458763,-0.006711126305162907
1783169359996103200,2.200103271484375,-0.01651323400437832,0.04941943660378456,-0.019147556275129318
1783169360006051300,2.21005126953125,-0.016352910548448563,0.06584767997264862,-0.022670917212963104
1783169360016000300,2.220000244140625,-0.01975918374955654,0.08132844418287277,-0.0175271425396204
1783169360025949200,2.22994921875,-0.03459592163562775,0.09817933291196823,-0.006287536583840847
1783169360035928300,2.23992822265625,-0.062082063406705856,0.10112453252077103,0.009777694940567017
1783169360045877500,2.24987744140625,-0.08392690867185593,0.08419162780046463,0.021799471229314804
1783169360055826400,2.259826416015625,-0.07872042059898376,0.09592941403388977,0.01791485771536827
1783169360065805300,2.269805419921875,-0.049830712378025055,0.11549166589975357,-0.0010532401502132416
1783169360075803400,2.279803466796875,-0.019845470786094666,0.12966789305210114,-0.008823174983263016
1783169360085751300,2.289751220703125,-0.008524373173713684,0.1268630474805832,0.00630011735484004
1783169360095700200,2.2997001953125,-0.012790667824447155,0.10840538144111633,0.037192992866039276
1783169360105679400,2.309679443359375,-0.013976040296256542,0.09811785817146301,0.06912589073181152
1783169360115628300,2.319628173828125,-0.012067623436450958,0.05650145560503006,0.07997418195009232
1783169360125577500,2.329577392578125,0.0019155703485012054,0.016491185873746872,0.06687302887439728
1783169360135525000,2.339525146484375,0.025876116007566452,-0.005336076021194458,0.03421289473772049
1783169360145505500,2.349505615234375,0.054543182253837585,0.00545185711234808,-0.008949222043156624
1783169360155453400,2.359453369140625,0.07923059165477753,0.03328929468989372,-0.03901461139321327
1783169360165402400,2.36940234375,0.09083850681781769,0.05549446865916252,-0.03967534005641937
1783169360175381500,2.379381591796875,0.09006478637456894,0.05554798245429993,0.0002894056960940361
1783169360185330400,2.389330322265625,0.0814041867852211,0.028284668922424316,0.061211876571178436
1783169360195279400,2.399279296875,0.07381799817085266,-0.001989425625652075,0.10778642445802689
1783169360205228300,2.409228271484375,0.07049569487571716,-0.01708661951124668,0.14746113121509552
1783169360215207400,2.41920751953125,0.0670635923743248,-0.029439233243465424,0.16539904475212097
1783169360225156400,2.42915625,0.05509534478187561,-0.026311883702874184,0.15745909512043
1783169360235104300,2.439104248046875,0.03470839560031891,0.00394072849303484,0.1350589245557785
1783169360245053200,2.44905322265625,0.0093897245824337,0.008738946169614792,0.10060879588127136
1783169360255032300,2.4590322265625,-0.0029865242540836334,0.005956312641501427,0.06830283254384995
1783169360264981200,2.468981201171875,0.0022814739495515823,0.02817985787987709,0.03430704399943352
1783169360274930200,2.47893017578125,0.017048010602593422,0.04303787648677826,0.010800165124237537
1783169360284909300,2.488909423828125,0.03178035467863083,0.044827256351709366,0.0010716374963521957
1783169360294858500,2.4988583984375,0.03886178880929947,0.03260325267910957,0.008085276931524277
1783169360304806100,2.50880615234375,0.04245518893003464,0.013797340914607048,0.015539465472102165
1783169360314755300,2.51875537109375,0.04186173528432846,-0.005550617352128029,0.02557630091905594
1783169360324734500,2.528734375,0.04805917292833328,-0.017378780990839005,0.028565168380737305
1783169360334683400,2.538683349609375,0.054403990507125854,-0.03890383988618851,0.023409415036439896
1783169360344632300,2.54863232421875,0.06207362562417984,-0.04255876690149307,0.016377072781324387
1783169360354581200,2.558581298828125,0.07234781980514526,-0.02400829829275608,0.009558922611176968
1783169360364560400,2.568560302734375,0.0765494853258133,-0.011461347341537476,0.0030237920582294464
1783169360374509300,2.57850927734375,0.07799140363931656,-0.0034908833913505077,-0.0068619269877672195
1783169360384457500,2.58845751953125,0.0806921124458313,-0.0016410518437623978,-0.021140996366739273
1783169360394437400,2.598437255859375,0.0784110575914383,-0.014780662022531033,-0.028645263984799385
1783169360404385300,2.60838525390625,0.07522138953208923,-0.022773340344429016,-0.03695672005414963
1783169360414334200,2.618334228515625,0.06831137090921402,-0.020394671708345413,-0.04919808730483055
1783169360424283400,2.628283447265625,0.06434778869152069,-0.01125869806855917,-0.054471682757139206
1783169360434262300,2.63826220703125,0.06339588761329651,0.00045634759590029716,-0.05586090683937073
1783169360444211200,2.648211181640625,0.06287683546543121,0.01510533131659031,-0.04809858649969101
1783169360454159400,2.658159423828125,0.05763884633779526,0.015435664914548397,-0.03279121220111847
1783169360464108300,2.6681083984375,0.057736314833164215,0.0017406260594725609,-0.02268052101135254
1783169360474087200,2.678087158203125,0.05401002615690231,-0.009743845090270042,-0.007259529083967209
1783169360484036400,2.688036376953125,0.043311841785907745,0.0032073729671537876,0.005786231718957424
1783169360493985500,2.697985595703125,0.032079778611660004,0.02804552949965,0.012626144103705883
1783169360503964400,2.70796435546875,0.02193473093211651,0.043830886483192444,0.01985449716448784
1783169360513913300,2.717913330078125,0.020755840465426445,0.04330867528915405,0.028442643582820892
1783169360523862300,2.7278623046875,0.02993575669825077,0.036025192588567734,0.03185655176639557
1783169360533810400,2.737810546875,0.03739127889275551,0.022235486656427383,0.041166383773088455
1783169360543790300,2.747790283203125,0.043443311005830765,-0.0027295181062072515,0.040931761264801025
1783169360553738200,2.75773828125,0.05172455310821533,-0.012883640825748444,0.03861723840236664
1783169360563687400,2.7676875,0.05622076988220215,-0.011868976056575775,0.03302673250436783
1783169360573636400,2.77763623046875,0.06185763701796532,-0.015615184791386127,0.016446087509393692
1783169360583615200,2.787615234375,0.06704281270503998,-0.0188613124191761,-0.000519847497344017
1783169360593564200,2.797564208984375,0.07379278540611267,-0.01792241260409355,-0.020672006532549858
1783169360603512300,2.80751220703125,0.0755012035369873,-0.00954384170472622,-0.0384262353181839
1783169360613492200,2.8174921875,0.07570677995681763,-0.0016978222411125898,-0.04652345925569534
1783169360623440400,2.8274404296875,0.07490517199039459,0.009247769601643085,-0.030533306300640106
1783169360633389300,2.837389404296875,0.07438229769468307,0.0010425145737826824,-0.009904890321195126
1783169360643338500,2.84733837890625,0.06972309947013855,-0.012236272916197777,0.007976638153195381
1783169360653317400,2.8573173828125,0.06137825548648834,-0.037513453513383865,0.02315249666571617
1783169360663266300,2.867266357421875,0.05554486811161041,-0.053516656160354614,0.023883268237113953
1783169360673215500,2.877215576171875,0.050324827432632446,-0.0518072210252285,0.013761449605226517
1783169360683163400,2.887163330078125,0.05011177062988281,-0.02858046442270279,0.0005684164352715015
1783169360693143300,2.897143310546875,0.04659169912338257,0.008424991741776466,-0.01014549471437931
1783169360703091500,2.907091552734375,0.03510601818561554,0.027024243026971817,-0.02121918462216854
1783169360713040400,2.917040283203125,0.020877517759799957,0.03577848896384239,-0.010695547796785831
1783169360723019300,2.927019287109375,0.001359209418296814,0.02326669543981552,0.01103371661156416
1783169360732968400,2.936968505859375,-0.013437554240226746,-0.007318963296711445,0.02966907247900963
1783169360742917400,2.94691748046875,-0.018315134570002556,-0.027789350599050522,0.03823539614677429
1783169360752866300,2.9568662109375,-0.012102334760129452,-0.026067137718200684,0.04024618864059448
1783169360762845200,2.96684521484375,-0.0017964337021112442,-0.025234367698431015,0.030562931671738625
1783169360772794400,2.97679443359375,0.0023896899074316025,-0.01627543196082115,0.017417974770069122
1783169360782742300,2.9867421875,0.0026437565684318542,0.007698076777160168,0.010349678806960583
1783169360792691200,2.996691162109375,-0.005786124616861343,0.015120401978492737,0.007269096560776234
1783169360802670300,3.00667041015625,-0.011296470649540424,-0.0016588440630584955,0.00787523202598095
1783169360812619500,3.01661962890625,-0.011043505743145943,-0.016095856204628944,0.004815102554857731
1783169360822568400,3.026568359375,-0.006133968010544777,-0.017960069701075554,0.011113477870821953
1783169360832547300,3.03654736328125,-0.002445729449391365,-0.01027837023139,0.017925510182976723
1783169360842496500,3.04649658203125,-0.002089930698275566,-0.0019376163836568594,0.023659560829401016
1783169360852444400,3.0564443359375,-0.0022476576268672943,0.005532434210181236,0.029618902131915092
1783169360862393300,3.066393310546875,-0.0034966804087162018,0.017565395683050156,0.030463391914963722
1783169360872372500,3.07637255859375,-0.009970646351575851,0.023019254207611084,0.030526790767908096
1783169360882321400,3.0863212890625,-0.013529161922633648,0.017550719901919365,0.02765270695090294
1783169360892270300,3.096270263671875,-0.008485237136483192,0.023918908089399338,0.027674507349729538
1783169360902219300,3.10621923828125,-0.0031176358461380005,0.01702052354812622,0.024330906569957733
1783169360912198400,3.116198486328125,0.005438201129436493,0.006806815508753061,0.020465202629566193
1783169360922147300,3.126147216796875,0.01022709533572197,0.008008433505892754,0.01990833505988121
1783169360932095200,3.13609521484375,0.013506004586815834,0.005466806702315807,0.014428894966840744
1783169360942075100,3.1460751953125,0.019522881135344505,-0.0013335752300918102,0.0044550905004143715
1783169360952023300,3.156023193359375,0.027808954939246178,-0.0030881196726113558,-0.005602940917015076
1783169360961972200,3.16597216796875,0.03090461529791355,-0.0029232699889689684,-0.016676364466547966
1783169360971921400,3.17592138671875,0.03140997141599655,0.013644805178046227,-0.016609296202659607
1783169360981900500,3.185900634765625,0.027338266372680664,0.024226609617471695,-0.00907894317060709
1783169360991849500,3.195849365234375,0.018338553607463837,0.01870208978652954,-0.0013514133170247078
1783169361001797400,3.20579736328125,0.016750775277614594,0.021021703258156776,0.009379793889820576
1783169361011746300,3.215746337890625,0.015281260013580322,0.01535189151763916,0.021909356117248535
1783169361021725400,3.225725341796875,0.012284938246011734,0.002456067129969597,0.030512966215610504
1783169361031674400,3.23567431640625,0.007922334596514702,-0.010228587314486504,0.02306731976568699
1783169361041623300,3.245623291015625,0.012326935306191444,-0.0004513240419328213,0.004824932664632797
1783169361051602400,3.2556025390625,0.008201248943805695,0.024273481220006943,-0.018995732069015503
1783169361061551400,3.26555126953125,-0.005167555063962936,0.02829086035490036,-0.03997424989938736
1783169361071502600,3.275502685546875,-0.017743349075317383,0.033251918852329254,-0.05202774330973625
1783169361081450800,3.28545068359375,-0.02163316123187542,0.03990263119339943,-0.04985539987683296
1783169361091430700,3.2954306640625,-0.02003437839448452,0.038328733295202255,-0.04050052911043167
1783169361101378600,3.305378662109375,-0.015401543118059635,0.026519209146499634,-0.026799099519848824
1783169361111327700,3.31532763671875,-0.008703706786036491,0.028669672086834908,-0.011119128204882145
1783169361121276700,3.325276611328125,-0.01043849065899849,0.031829774379730225,0.004187123849987984
1783169361131255600,3.335255615234375,-0.016345126554369926,0.02213197574019432,0.009696443565189838
1783169361141204500,3.34520458984375,-0.02075398899614811,0.0185212604701519,0.01605181023478508
1783169361151152600,3.355152587890625,-0.022641610354185104,0.018037717789411545,0.009534098207950592
1783169361161132500,3.365132568359375,-0.019695090129971504,0.021244697272777557,0.001042875461280346
1783169361171080700,3.375080810546875,-0.013635155744850636,0.01602499559521675,-0.013496593572199345
1783169361181029600,3.385029541015625,-0.008078737184405327,0.003986974246799946,-0.0306987501680851
1783169361190978600,3.394978515625,-0.003949606791138649,0.007215296849608421,-0.037445373833179474
1783169361200957400,3.40495751953125,-0.0010020211338996887,0.015714775770902634,-0.03903608024120331
1783169361210906600,3.41490673828125,-0.001429293304681778,0.007884595543146133,-0.036081962287425995
1783169361220855600,3.42485546875,0.005099978297948837,0.005432890262454748,-0.02642960287630558
1783169361230803500,3.434803466796875,0.015732726082205772,-0.0013681324198842049,-0.016872916370630264
1783169361240783600,3.44478369140625,0.022498754784464836,-0.0027955868281424046,-0.00758008100092411
1783169361250731800,3.454731689453125,0.032152168452739716,-0.006367750000208616,0.004912586882710457
1783169361260680700,3.4646806640625,0.038903020322322845,0.005773335229605436,0.016935426741838455
1783169361270659600,3.47465966796875,0.03375410661101341,0.010056007653474808,0.028169995173811913
1783169361280608800,3.48460888671875,0.024854354560375214,0.010862945578992367,0.0348779633641243
1783169361290557700,3.4945576171875,0.023883424699306488,0.005462930537760258,0.03368762880563736
1783169361300505600,3.504505615234375,0.01663217321038246,-0.016841843724250793,0.019107356667518616
1783169361310485500,3.514485595703125,0.015163609758019447,-0.022645192220807076,-0.006853038445115089
1783169361320433700,3.52443359375,0.0242037083953619,-0.01052061840891838,-0.03946291282773018
1783169361330382600,3.534382568359375,0.03105958178639412,0.0010761711746454239,-0.06356089562177658
1783169361340331500,3.54433154296875,0.034099046140909195,0.004975838586688042,-0.08783774077892303
1783169361350310700,3.554310546875,0.03963857889175415,0.00482433894649148,-0.10098722577095032
1783169361360259600,3.564259521484375,0.04204794019460678,-0.004984882660210133,-0.10439660400152206
1783169361370208500,3.57420849609375,0.05075462907552719,-0.021310947835445404,-0.09856165945529938
1783169361380187400,3.5841875,0.059980347752571106,-0.01869412511587143,-0.08633880317211151
1783169361390136600,3.594136474609375,0.06506746262311935,-0.00218407460488379,-0.06018741428852081
1783169361400084500,3.60408447265625,0.07361195236444473,0.019679944962263107,-0.02803400717675686
1783169361410033700,3.61403369140625,0.08147794753313065,0.03944289684295654,0.01022570300847292
1783169361420012500,3.624012451171875,0.0838439017534256,0.019109128043055534,0.035691116005182266
1783169361429961700,3.633961669921875,0.08552834391593933,-0.009734392166137695,0.04784955084323883
1783169361439910700,3.64391064453125,0.08320313692092896,-0.025306161493062973,0.04566841945052147
1783169361449858600,3.653858642578125,0.07414013147354126,-0.02192208170890808,0.03419286012649536
1783169361459838700,3.663838623046875,0.06527048349380493,-0.00718894274905324,0.013420202769339085
1783169361469786600,3.67378662109375,0.05558390915393829,0.01226532831788063,-0.012641318142414093
1783169361479735600,3.683735595703125,0.054936766624450684,0.030389735475182533,-0.030813666060566902
1783169361489714700,3.693714599609375,0.054918073117733,0.0302240289747715,-0.04815492779016495
1783169361499663600,3.70366357421875,0.05738655477762222,0.019315190613269806,-0.0446012057363987
1783169361509612500,3.713612548828125,0.05430952459573746,0.02897241711616516,-0.024853747338056564
1783169361519561500,3.7235615234375,0.05258805304765701,0.028495710343122482,0.014902189373970032
1783169361529540600,3.73354052734375,0.045556820929050446,0.0181448794901371,0.048189304769039154
1783169361539489500,3.743489501953125,0.04042118042707443,-0.008370883762836456,0.07585742324590683
1783169361549437400,3.7534375,0.03192244470119476,-0.01712440326809883,0.09372406452894211
1783169361559386400,3.763386474609375,0.019457519054412842,-0.00754927471280098,0.09115757793188095
1783169361569365500,3.773365478515625,0.010647619143128395,-0.0018706615082919598,0.06761962920427322
1783169361579314700,3.783314697265625,0.006945295259356499,0.018045788630843163,0.03576475754380226
1783169361589263600,3.793263671875,0.009755011647939682,0.029292207211256027,0.0037345895543694496
1783169361599242800,3.80324267578125,0.012126553803682327,0.014524446800351143,-0.030754942446947098
1783169361609191700,3.813191650390625,0.016915015876293182,0.00394019577652216,-0.04755749925971031
1783169361619139600,3.8231396484375,0.02388584241271019,-0.0024585810024291277,-0.05246756970882416
1783169361629088800,3.8330888671875,0.02296917513012886,-0.005975181236863136,-0.05125392973423004
1783169361639067600,3.843067626953125,0.02723609283566475,-0.009525706991553307,-0.043868452310562134
1783169361649016600,3.8530166015625,0.03350677341222763,-0.021542422473430634,-0.03289968892931938
1783169361658965500,3.862965576171875,0.03481198847293854,-0.025414658710360527,-0.016129761934280396
1783169361668914400,3.87291455078125,0.03128650039434433,-0.02942228689789772,0.001938946545124054
1783169361678893600,3.8828935546875,0.02504058927297592,-0.03707195073366165,0.017825501039624214
1783169361688842500,3.892842529296875,0.022382929921150208,-0.045183196663856506,0.02231942117214203
1783169361698790700,3.902790771484375,0.023684415966272354,-0.0508061945438385,0.021216606721282005
1783169361708770600,3.9127705078125,0.02037939615547657,-0.04073275998234749,0.011009348556399345
1783169361718718500,3.922718505859375,0.012578198686242104,-0.025438226759433746,0.0007066437974572182
1783169361728667400,3.93266748046875,0.008245019242167473,-0.016744591295719147,-0.012920405715703964
1783169361738616800,3.942616943359375,0.009295905008912086,-0.012258495204150677,-0.022254519164562225
1783169361748595500,3.952595458984375,0.012986414134502411,-0.004222608171403408,-0.02097392827272415
1783169361758544600,3.962544677734375,0.009467847645282745,0.0014547184109687805,-0.008200075477361679
1783169361768493600,3.97249365234375,-0.0009272880852222443,-0.008427797816693783,0.00943279080092907
1783169361778441700,3.982441650390625,-0.008772693574428558,-0.015625789761543274,0.02688981220126152
1783169361788421600,3.992421630859375,-0.013408898375928402,-0.014956479892134666,0.039787400513887405
1783169361798369500,4.00236962890625,-0.015290155075490475,-0.013862986117601395,0.0448487363755703
1783169361808318700,4.012318603515625,-0.018052276223897934,-0.009181825444102287,0.041473448276519775
1783169361818297600,4.022297607421875,-0.014531842432916164,0.006341741420328617,0.024620164185762405
1783169361828246500,4.03224658203125,-0.007988300174474716,0.017250990495085716,0.0075495680794119835
1783169361838195500,4.042195556640625,-0.00037245824933052063,0.02509400062263012,-0.005486872047185898
1783169361848143600,4.0521435546875,0.0032470915466547012,0.02695784904062748,-0.019408272579312325
1783169361858123500,4.06212353515625,0.013460580259561539,0.026879018172621727,-0.026692016050219536
1783169361868071700,4.07207177734375,0.026161227375268936,0.023568429052829742,-0.019587840884923935
1783169361878020600,4.0820205078125,0.03509720042347908,0.019364364445209503,-0.002128956839442253
1783169361887969500,4.091969482421875,0.032510675489902496,-0.0046582529321312904,0.01760558784008026
1783169361897948400,4.101948486328125,0.02801498956978321,-0.03927508741617203,0.02872322127223015
1783169361907897600,4.111897705078125,0.0311435479670763,-0.05320156365633011,0.03654327243566513
1783169361917846800,4.1218466796875,0.038217708468437195,-0.025307347998023033,0.04094228148460388
1783169361927825700,4.13182568359375,0.040814973413944244,0.005177889950573444,0.0386480987071991
1783169361937774600,4.141774658203125,0.04204242676496506,0.0030391057953238487,0.02639409527182579
1783169361947722800,4.15172265625,0.04390326887369156,-0.0010431958362460136,0.020764607936143875
1783169361957671700,4.161671630859375,0.0449882373213768,-0.008349577896296978,0.014026276767253876
1783169361967650600,4.171650634765625,0.04147094488143921,-0.024198558181524277,0.020854655653238297
1783169361977599700,4.181599853515625,0.030657444149255753,-0.031175240874290466,0.027547180652618408
1783169361987548700,4.191548583984375,0.022805392742156982,-0.022075055167078972,0.03514514118432999
1783169361997496600,4.20149658203125,0.01730942726135254,-0.016867242753505707,0.03533049672842026
1783169362007476500,4.2114765625,0.008990511298179626,-0.018563944846391678,0.029459558427333832
1783169362017424600,4.221424560546875,0.006427749991416931,-0.025585368275642395,0.02017444744706154
1783169362027373600,4.23137353515625,0.0038043614476919174,-0.023277150467038155,0.003087504766881466
1783169362037352400,4.2413525390625,0.001522298902273178,-0.01046521496027708,-0.010748415254056454
1783169362047301600,4.251301513671875,-0.0009200740605592728,-0.003467245027422905,-0.0213040579110384
1783169362057250600,4.26125048828125,0.008863847702741623,-0.007294740527868271,-0.01859162747859955
1783169362067199700,4.27119970703125,0.01838567666709423,-0.0032638306729495525,-0.0004424434155225754
1783169362077225000,4.281224853515625,0.0221101064234972,-0.007684411481022835,0.022947300225496292
1783169362087174000,4.291173828125,0.0197153277695179,-0.012397393584251404,0.04989612475037575
1783169362097122000,4.3011220703125,0.016013264656066895,-0.011732935905456543,0.07279904931783676
1783169362107071000,4.311071044921875,0.009710369631648064,-0.015896815806627274,0.08989686518907547
1783169362117049900,4.3210498046875,-0.0018152575939893723,-0.015045937150716782,0.0789044052362442
1783169362126998800,4.330998779296875,-0.012681405059993267,-0.018280528485774994,0.05747963860630989
1783169362136948000,4.340947998046875,-0.013347993604838848,-0.021295757964253426,0.028574489057064056
1783169362146926800,4.3509267578125,-0.009672591462731361,-0.0012438229750841856,0.005357655230909586
1783169362156875800,4.360875732421875,0.0019760746508836746,0.013361219316720963,-0.01076379045844078
1783169362166824000,4.370823974609375,0.016207782551646233,0.028091806918382645,-0.021884500980377197
1783169362176772900,4.38077294921875,0.031802453100681305,0.03835110366344452,-0.01623593643307686
1783169362186751700,4.390751708984375,0.039725787937641144,0.02740035206079483,-0.0005566626787185669
1783169362196701000,4.400700927734375,0.040441639721393585,-0.0011521964333951473,0.01662392169237137
1783169362206649900,4.41064990234375,0.03658556938171387,-0.018833082169294357,0.03490685299038887
1783169362216599000,4.42059912109375,0.03586145490407944,-0.024229712784290314,0.04910523071885109
1783169362226578000,4.430577880859375,0.033350586891174316,-0.027770357206463814,0.05280313268303871
1783169362236526800,4.44052685546875,0.02476668916642666,-0.013585295528173447,0.04498569294810295
1783169362246475000,4.45047509765625,0.014598861336708069,-0.0029775272123515606,0.02596096321940422
1783169362256455000,4.460454833984375,0.009508762508630753,0.00245798472315073,0.0031944001093506813
1783169362266403000,4.470403076171875,0.01592271775007248,0.004816746339201927,-0.013316399417817593
1783169362276352000,4.48035205078125,0.026007309556007385,0.00582528579980135,-0.02463376894593239
1783169362286301000,4.490301025390625,0.035558827221393585,0.0016740057617425919,-0.026174776256084442
1783169362296279800,4.50027978515625,0.03993227332830429,-0.01274621207267046,-0.01960369199514389
1783169362306229000,4.51022900390625,0.03645968437194824,-0.023529939353466034,-0.012812529690563679
1783169362316177000,4.520177001953125,0.03269770368933678,-0.010858086869120598,0.004780844785273075
1783169362326125800,4.530125732421875,0.024142062291502953,0.005456334911286831,0.024928756058216095
1783169362336105000,4.54010498046875,0.013180488720536232,0.0202920064330101,0.04392801225185394
1783169362346054000,4.550053955078125,0.004269605502486229,0.019811296835541725,0.06456741690635681
1783169362356002800,4.5600029296875,0.004144702106714249,0.004379610065370798,0.07111266255378723
1783169362365981700,4.569981689453125,0.006895164027810097,-0.010150321759283543,0.06832895427942276
1783169362375931000,4.579930908203125,0.0057635847479105,-0.026878703385591507,0.05292976275086403
1783169362385880000,4.589880126953125,-0.0030924268066883087,-0.01964326575398445,0.036634545773267746
1783169362395827700,4.59982763671875,-0.016421813517808914,0.0071601178497076035,0.02095811441540718
1783169362405807900,4.609807861328125,-0.030897436663508415,0.02477915771305561,0.0086562130600214
1783169362415756000,4.619756103515625,-0.04114421457052231,0.029631968587636948,0.000008395873010158539
1783169362425705000,4.629705078125,-0.046725042164325714,0.03814934939146042,-0.007247221656143665
1783169362435654000,4.63965380859375,-0.05435047298669815,0.030915670096874237,-0.012600175105035305
1783169362445633000,4.649633056640625,-0.05480474233627319,0.012680724263191223,-0.016315050423145294
1783169362455582000,4.65958203125,-0.036764487624168396,0.003956208471208811,-0.015101980417966843
1783169362465529900,4.66952978515625,-0.020275700837373734,-0.013093291781842709,-0.006029222160577774
1783169362475509800,4.679509765625,-0.011315228417515755,-0.02829701267182827,0.002205538097769022
1783169362485458000,4.6894580078125,-0.010748493485152721,-0.02973761409521103,0.010243723168969154
1783169362495406800,4.69940673828125,-0.011163413524627686,-0.01428275741636753,0.01767207868397236
1783169362505355800,4.709355712890625,-0.012299972586333752,-0.00025093648582696915,0.017648575827479362
1783169362515335000,4.7193349609375,-0.012469083070755005,0.001537376083433628,0.013736657798290253
1783169362525283800,4.729283935546875,-0.014285904355347157,-0.0036106915213167667,0.005181819666177034
1783169362535232800,4.739232666015625,-0.020319029688835144,-0.007742851972579956,-0.00499837938696146
1783169362545180700,4.7491806640625,-0.022387295961380005,-0.01740301586687565,-0.014145278371870518
1783169362555161000,4.7591611328125,-0.015835918486118317,-0.02174796350300312,-0.019929930567741394
1783169362565108700,4.769108642578125,-0.006437493488192558,-0.006953873671591282,-0.014211921952664852
1783169362575058000,4.779057861328125,-0.0011287499219179153,0.009824573993682861,-0.007407012395560741
1783169362585037000,4.789037109375,0.0060778893530368805,0.016429614275693893,0.0075733717530965805
1783169362594986000,4.798986083984375,0.009861975908279419,0.017353199422359467,0.029816891998052597
1783169362604935000,4.808934814453125,0.011600205674767494,0.0012944359332323074,0.0481642410159111
1783169362614883800,4.8188837890625,0.009945584461092949,-0.015453385189175606,0.06236874312162399
1783169362624863000,4.828863037109375,0.010601961985230446,-0.02944968454539776,0.06054351478815079
1783169362634811000,4.838810791015625,0.02133822999894619,-0.030803635716438293,0.049935609102249146
1783169362644759800,4.848759765625,0.027291802689433098,-0.011990651488304138,0.027800144627690315
1783169362654708700,4.858708740234375,0.030385861173272133,0.0004862579517066479,0.008323916234076023
1783169362664687900,4.86868798828125,0.028689978644251823,0.013687988743185997,-0.012470344081521034
1783169362674636800,4.87863671875,0.023176969960331917,0.014723425731062889,-0.027637312188744545
1783169362684585700,4.888585693359375,0.015412095934152603,0.0032555474899709225,-0.03166867420077324
1783169362694564900,4.89856494140625,0.009636234492063522,-0.0022806315682828426,-0.028587397187948227
1783169362704513800,4.908513671875,0.0060395412147045135,-0.011394559405744076,-0.02448868937790394
1783169362714461700,4.918461669921875,0.0032706521451473236,-0.02156623639166355,-0.019411906599998474
1783169362724411000,4.928410888671875,0.005968501791357994,-0.026084575802087784,-0.01893549971282482
1783169362734389800,4.9383896484375,0.010666051879525185,-0.018638908863067627,-0.0226596649736166
1783169362744339000,4.9483388671875,0.013110777363181114,-0.0014544094447046518,-0.016999918967485428
1783169362754287900,4.958287841796875,0.012676415964961052,0.0018585631623864174,-0.016125071793794632
1783169362764236800,4.96823681640625,0.012891760095953941,0.008048536255955696,-0.003137713298201561
1783169362774216000,4.9782158203125,0.014709366485476494,0.012431833893060684,0.0015305415727198124
1783169362784164900,4.988164794921875,0.016883524134755135,0.0065883793868124485,-0.0014052828773856163
1783169362794113000,4.998113037109375,0.020199691876769066,-0.0059124985709786415,-0.011330085806548595
1783169362804093000,5.008093017578125,0.02568846382200718,0.008069097995758057,-0.016836438328027725
1783169362814040800,5.018040771484375,0.03086005710065365,0.01656191796064377,-0.013917080126702785
1783169362823989800,5.02798974609375,0.024731269106268883,0.023360738530755043,-0.0074942950159311295
1783169362833939000,5.03793896484375,0.017538337036967278,0.03086845576763153,-0.000797775574028492
1783169362843917800,5.047917724609375,0.003185868263244629,0.03792893886566162,0.010440945625305176
1783169362853866800,5.05786669921875,-0.011001856066286564,0.03567403927445412,0.010997546836733818
1783169362863815000,5.06781494140625,-0.015208465978503227,0.020884433761239052,0.009386209771037102
1783169362873763800,5.077763916015625,-0.01642606407403946,0.016583427786827087,0.006967527326196432
1783169362883742700,5.08774267578125,-0.01599373295903206,0.009026503190398216,0.009967480786144733
1783169362893692000,5.09769189453125,-0.01265865657478571,-0.0001217210665345192,0.014161692932248116
1783169362903641000,5.10764111328125,-0.006888255476951599,-0.0016004203353077173,0.02890372835099697
1783169362913620000,5.117619873046875,0.0013832561671733856,-0.01060536690056324,0.040535882115364075
1783169362923569000,5.12756884765625,0.004113713279366493,-0.02291577123105526,0.04236585646867752
1783169362933517800,5.137517822265625,0.010841390118002892,-0.025358421728014946,0.0343039333820343
1783169362943466000,5.147466064453125,0.016061881557106972,-0.023573746904730797,0.016183339059352875
1783169362953446000,5.15744580078125,0.012517480179667473,-0.02605394832789898,-0.001098446547985077
1783169362963394000,5.16739404296875,0.01142202503979206,-0.03143492341041565,-0.02751850336790085
1783169362973343000,5.177343017578125,0.012548541650176048,-0.031701505184173584,-0.044533971697092056
1783169362983292000,5.1872919921875,0.009464086964726448,-0.0168592669069767,-0.05061107128858566
1783169362993270800,5.197270751953125,0.006023546680808067,-0.004484090954065323,-0.044544920325279236
1783169363003220000,5.207219970703125,0.001132102683186531,-0.011892114765942097,-0.028391487896442413
1783169363013167900,5.21716796875,-0.0041337646543979645,-0.015832794830203056,-0.009681450203061104
1783169363023147800,5.227147705078125,-0.0008853543549776077,-0.023152470588684082,0.004398544318974018
1783169363033096000,5.237095947265625,0.00716218538582325,-0.02387365512549877,0.011561915278434753
1783169363043044900,5.247044921875,0.012294415384531021,-0.013187453150749207,0.017585624009370804
1783169363052993800,5.256993896484375,0.013479787856340408,-0.013085720129311085,0.01749800704419613
1783169363062972700,5.26697265625,0.01036887988448143,-0.010653449222445488,0.015613049268722534
1783169363072942000,5.276942138671875,0.0031375978142023087,0.0011155926622450352,0.018942799419164658
1783169363082891000,5.28689111328125,-0.008500058203935623,0.003658509347587824,0.023019030690193176
1783169363092839000,5.2968388671875,-0.02471950836479664,-0.009722011163830757,0.02009860798716545
1783169363102819300,5.3068193359375,-0.03376443684101105,-0.008570235222578049,0.011336816474795341
1783169363112767000,5.31676708984375,-0.037907782942056656,0.010302787646651268,0.0028815469704568386
1783169363122716200,5.326716064453125,-0.037042200565338135,0.021201208233833313,-0.005902927368879318
1783169363132695300,5.3366953125,-0.026282496750354767,0.02666228637099266,-0.01304845605045557
1783169363142644200,5.346644287109375,-0.007978571578860283,0.024630742147564888,-0.01903633587062359
1783169363152593200,5.35659326171875,0.012754404917359352,0.016240719705820084,-0.017936449497938156
1783169363162541000,5.366541015625,0.026878777891397476,0.022103212773799896,-0.006145103834569454
1783169363172521200,5.376521240234375,0.03154649958014488,0.027218345552682877,0.01575779914855957
1783169363182469000,5.38646923828125,0.02791237086057663,0.013918936252593994,0.030050741508603096
1783169363192418000,5.39641796875,0.02455439418554306,-0.00011059688404202461,0.040707916021347046
1783169363202367000,5.406366943359375,0.026348432525992393,-0.004710782319307327,0.04669667035341263
1783169363212346000,5.41634619140625,0.029200145974755287,-0.007731339894235134,0.04142201691865921
1783169363222295000,5.426294921875,0.030883371829986572,-0.016989370808005333,0.029696835204958916
1783169363232244000,5.436243896484375,0.03405945748090744,-0.022636601701378822,0.006514283828437328
1783169363242223000,5.44622314453125,0.040513768792152405,-0.004919751081615686,-0.012224937789142132
1783169363252172000,5.456172119140625,0.0364692248404026,0.02888108789920807,-0.024191316217184067
1783169363262120000,5.466119873046875,0.04101449251174927,0.0498819574713707,-0.024578910320997238
1783169363272068900,5.47606884765625,0.04939386248588562,0.04353271797299385,-0.00836638268083334
1783169363282048000,5.486048095703125,0.045468997210264206,0.014339981600642204,0.014744756743311882
1783169363291997200,5.4959970703125,0.03182002902030945,-0.014218426309525967,0.03722663223743439
1783169363301946000,5.505946044921875,0.02022327110171318,-0.018753938376903534,0.047000668942928314
1783169363311894300,5.515894287109375,0.01396484300494194,-0.011903222650289536,0.03842156380414963
1783169363321874200,5.525874267578125,0.016041405498981476,-0.004897224251180887,0.01659318618476391
1783169363331822000,5.535822021484375,0.015263494104146957,0.014555835165083408,-0.010826187208294868
1783169363341771000,5.54577099609375,0.021669073030352592,0.03632957488298416,-0.034461621195077896
1783169363351750100,5.555750244140625,0.030121149495244026,0.035203322768211365,-0.05180412530899048
1783169363361699000,5.565698974609375,0.040474046021699905,0.019421163946390152,-0.04566246643662453
1783169363371648000,5.57564794921875,0.0448986180126667,0.0024120877496898174,-0.027405165135860443
1783169363381597000,5.585596923828125,0.043210383504629135,-0.010928348638117313,-0.003025475889444351
1783169363391576000,5.595576171875,0.03229834884405136,-0.011552327312529087,0.026281813159585
1783169363401525000,5.60552490234375,0.02495567686855793,-0.0076912445947527885,0.04565531015396118
1783169363411473200,5.61547314453125,0.021723130717873573,-0.009067299775779247,0.048621006309986115
1783169363421422000,5.625422119140625,0.02028212696313858,-0.02580389939248562,0.032332830131053925
1783169363431401000,5.63540087890625,0.024501636624336243,-0.019106583669781685,0.0077688987366855145
1783169363441350000,5.645349853515625,0.02324940450489521,0.0012976317666471004,-0.01917218789458275
1783169363451299000,5.655299072265625,0.018813909962773323,0.022887079045176506,-0.03992806375026703
1783169363461278200,5.6652783203125,0.008797187358140945,0.03249815106391907,-0.04844505712389946
1783169363471227100,5.67522705078125,0.008414492011070251,0.02823442779481411,-0.04188515990972519
1783169363481175300,5.68517529296875,0.012518426403403282,0.02095113694667816,-0.025439344346523285
1783169363491124200,5.695124267578125,0.01612434722483158,0.009633236564695835,0.0016018599271774292
1783169363501103000,5.70510302734375,0.015672942623496056,-0.0006036884151399136,0.024516765028238297
1783169363511052000,5.715052001953125,0.018421059474349022,-0.0013807988725602627,0.04278818145394325
1783169363521001200,5.725001220703125,0.014968132600188255,0.005346761550754309,0.05323692783713341
1783169363530950100,5.7349501953125,0.011357685551047325,0.01728145219385624,0.0523570217192173
1783169363540929000,5.744928955078125,0.013371780514717102,0.02677161805331707,0.050453752279281616
1783169363550878000,5.7548779296875,0.018266137689352036,0.014485390856862068,0.04341874271631241
1783169363560826000,5.764826171875,0.027987344190478325,0.0038542100228369236,0.035976383835077286
1783169363570806000,5.774805908203125,0.03384123742580414,-0.008233079686760902,0.02607368491590023
1783169363580754000,5.78475390625,0.03080991469323635,-0.007447154261171818,0.02126920595765114
1783169363590703000,5.794703125,0.024210335686802864,0.0051354821771383286,0.018619626760482788
1783169363600652000,5.804652099609375,0.01679120399057865,0.003848850727081299,0.01066060271114111
1783169363610631000,5.814630859375,0.010615600273013115,-0.0011778660118579865,0.002233562059700489
1783169363620580000,5.824580078125,0.004803596064448357,-0.005339243449270725,-0.0066043920814991
1783169363630529300,5.834529296875,0.0005436036735773087,-0.014042453840374947,-0.011639630421996117
1783169363640477200,5.844477294921875,-0.0024316851049661636,-0.01367167942225933,-0.010506005957722664
1783169363650456000,5.8544560546875,-0.006348928436636925,-0.011134219355881214,-0.013700732961297035
1783169363660405200,5.8644052734375,-0.010321448557078838,-0.008060949854552746,-0.013094992376863956
1783169363670354200,5.874354248046875,-0.014856811612844467,-0.005534941330552101,-0.01742502674460411
1783169363680333000,5.8843330078125,-0.01558250468224287,-0.00557071715593338,-0.025326920673251152
1783169363690282000,5.894281982421875,-0.011580572463572025,0.0015226122923195362,-0.028371712192893028
1783169363700231200,5.904231201171875,-0.0052101388573646545,0.011577136814594269,-0.03174846991896629
1783169363710179000,5.914178955078125,-0.006891924887895584,0.016892805695533752,-0.025371264666318893
1783169363720159000,5.924158935546875,-0.016658704727888107,0.01371820829808712,-0.008531656116247177
1783169363730107100,5.934107177734375,-0.02517043426632881,0.002064481843262911,0.006493099499493837
1783169363740056000,5.94405615234375,-0.030777815729379654,-0.013111698441207409,0.015453130006790161
1783169363750005000,5.9540048828125,-0.03333977609872818,-0.024510027840733528,0.013705030083656311
1783169363759984000,5.963984130859375,-0.035724762827157974,-0.017701610922813416,0.009105551987886429
1783169363769933000,5.97393310546875,-0.03737299144268036,0.005623950622975826,0.0025784107856452465
1783169363779882200,5.98388232421875,-0.035534244030714035,0.017563471570611,-0.006530438549816608
1783169363789861000,5.993861083984375,-0.03554249927401543,0.02046392112970352,-0.0103592649102211
1783169363799810000,6.00381005859375,-0.03600666671991348,0.003429461270570755,-0.010980607941746712
1783169363809758200,6.01375830078125,-0.033903300762176514,-0.007449817843735218,-0.012025101110339165
1783169363819707100,6.02370703125,-0.025268077850341797,-0.007687250152230263,-0.006284321658313274
1783169363829686300,6.033686279296875,-0.019887961447238922,0.0003520343452692032,-0.005789239890873432
1783169363839635200,6.04363525390625,-0.018826425075531006,0.008838729932904243,-0.0015729228034615517
1783169363849584000,6.053584228515625,-0.02052578702569008,0.009225420653820038,0.004416526295244694
1783169363859532000,6.063531982421875,-0.021634556353092194,0.0015293597243726254,0.010133631527423859
1783169363869512200,6.07351220703125,-0.028141457587480545,-0.006908600218594074,0.014525717124342918
1783169363879460000,6.083460205078125,-0.03455967456102371,-0.0035145743750035763,0.016077283769845963
1783169363889409000,6.093408935546875,-0.04669570177793503,-0.002300705760717392,0.010543501004576683
1783169363899388200,6.10338818359375,-0.05537399649620056,-0.001959363231435418,-0.007156014442443848
1783169363909337000,6.113337158203125,-0.05469435453414917,0.002086244523525238,-0.02948901616036892
1783169363919286000,6.1232861328125,-0.04751972854137421,0.007998866960406303,-0.04637725651264191
1783169363929235000,6.13323486328125,-0.0316920280456543,0.014001100324094296,-0.05363330617547035
1783169363939214000,6.143214111328125,-0.013804980553686619,0.017340032383799553,-0.04915592819452286
1783169363949163300,6.153163330078125,0.003409959375858307,0.017412204295396805,-0.03280438482761383
1783169363959111000,6.16311083984375,0.011504221707582474,0.0076591577380895615,-0.003529716283082962
1783169363969060000,6.17306005859375,0.007891643792390823,-0.008797580376267433,0.026787444949150085
1783169363979039200,6.183039306640625,-0.00319502130150795,-0.01839839667081833,0.0499693937599659
1783169363988988200,6.19298828125,-0.01354779303073883,-0.024171866476535797,0.05365707352757454
1783169363998937000,6.20293701171875,-0.01698264665901661,-0.021489912644028664,0.04294787347316742
1783169364008916200,6.212916259765625,-0.00934709794819355,-0.0026272754184901714,0.021571479737758636
1783169364018865200,6.222865234375,-0.0015200413763523102,0.009246516972780228,-0.003988509066402912
1783169364028813000,6.23281298828125,0.006899809464812279,0.019442163407802582,-0.024504438042640686
1783169364038762000,6.242761962890625,0.012132367119193077,0.02175280824303627,-0.03364970162510872
1783169364048741000,6.2527412109375,0.016448816284537315,0.01975996606051922,-0.028870660811662674
1783169364058690000,6.26268994140625,0.010746991261839867,0.016715971753001213,-0.015631552785634995
1783169364068639000,6.272638916015625,0.0079293642193079,0.0168219655752182,0.0005953535437583923
1783169364078586600,6.282586669921875,0.009004577994346619,0.000789799727499485,0.018123114481568336
1783169364088565200,6.292565185546875,0.017232682555913925,-0.003755150828510523,0.032980091869831085
1783169364098514400,6.302514404296875,0.022475983947515488,0.0013490193523466587,0.04049680009484291
1783169364108462600,6.312462646484375,0.02309942990541458,0.0013839066959917545,0.04089760407805443
1783169364118411500,6.32241162109375,0.021778034046292305,0.0015009455382823944,0.025058379396796227
1783169364128390700,6.332390625,0.017914587631821632,-0.007848880253732204,0.0009692884050309658
1783169364138339600,6.342339599609375,0.012751113623380661,-0.004736792296171188,-0.030549880117177963
1783169364148288500,6.35228857421875,0.00835849717259407,0.016396455466747284,-0.05380646884441376
1783169364158267400,6.362267333984375,0.0076275113970041275,0.03513467311859131,-0.06333183497190475
1783169364168216600,6.372216552734375,0.01534908078610897,0.03232423961162567,-0.059847354888916016
1783169364178164500,6.38216455078125,0.025536132976412773,0.015715565532445908,-0.03882935270667076
1783169364188113400,6.392113525390625,0.04003624618053436,-0.005400372669100761,-0.011564443819224834
1783169364198092500,6.402092529296875,0.046360984444618225,-0.02831554226577282,0.012217052280902863
1783169364208041500,6.41204150390625,0.05287560820579529,-0.030756061896681786,0.019876036792993546
1783169364217990400,6.421990478515625,0.057960040867328644,-0.017083536833524704,0.01623263582587242
1783169364227939300,6.431939208984375,0.059531308710575104,-0.0005572903901338577,0.004255335777997971
1783169364237918500,6.44191845703125,0.05698145925998688,0.020372314378619194,-0.004724957048892975
1783169364247867600,6.45186767578125,0.05132916569709778,0.03648124262690544,-0.012532812543213367
1783169364257815300,6.461815185546875,0.04548867046833038,0.03475918620824814,-0.007230307906866074
1783169364267795500,6.47179541015625,0.03647785633802414,0.024939578026533127,-0.002092271111905575
1783169364277743600,6.48174365234375,0.029393430799245834,0.0034816134721040726,0.007463337387889624
1783169364287692500,6.491692626953125,0.02804214134812355,-0.01557863038033247,0.009963778778910637
1783169364297641500,6.501641357421875,0.03630292788147926,-0.012591235339641571,0.007745436858385801
1783169364307620600,6.51162060546875,0.04535287991166115,0.009698092006146908,0.007234642282128334
1783169364317569500,6.521569580078125,0.041954874992370605,0.02331210859119892,0.0020953472703695297
1783169364327517400,6.531517333984375,0.026056069880723953,0.04510209336876869,0.005911390762776136
1783169364337466400,6.54146630859375,0.010030193254351616,0.07386457175016403,0.015606146305799484
1783169364347445500,6.551445556640625,0.02509329654276371,0.06876008957624435,0.029918506741523743
1783169364357394400,6.56139453125,0.04349125921726227,0.044566184282302856,0.05000348016619682
1783169364367343400,6.57134326171875,0.04775231331586838,0.017486367374658585,0.06624476611614227
1783169364377322500,6.581322509765625,0.04379289597272873,0.010888852179050446,0.08134658634662628
1783169364387271400,6.591271484375,0.036447636783123016,0.00617825286462903,0.08212849497795105
1783169364397220400,6.601220458984375,0.02757405675947666,-0.002914172364398837,0.07124169170856476
1783169364407168500,6.61116845703125,0.014590082690119743,-0.0014582222793251276,0.05545073747634888
1783169364417148400,6.6211484375,-0.0013122595846652985,0.0015914905816316605,0.03520173206925392
1783169364427096300,6.631096435546875,-0.021646559238433838,0.010178053751587868,0.012944361194968224
1783169364437045500,6.64104541015625,-0.036487970501184464,0.022108295932412148,-0.009995692409574986
1783169364446994400,6.650994384765625,-0.04218021035194397,0.02200283482670784,-0.024784758687019348
1783169364456973600,6.6609736328125,-0.03947760909795761,0.013226322829723358,-0.04289347678422928
1783169364466922500,6.670922607421875,-0.0331755056977272,-0.0008780444040894508,-0.051551416516304016
1783169364476871400,6.680871337890625,-0.03254741057753563,-0.02361772581934929,-0.05968216806650162
1783169364486850600,6.6908505859375,-0.03657570853829384,-0.03856498375535011,-0.05856098234653473
1783169364496798500,6.700798583984375,-0.04155822843313217,-0.03654197230935097,-0.05355370417237282
1783169364506747400,6.710747314453125,-0.04080694913864136,-0.017400767654180527,-0.04520868882536888
1783169364516696600,6.720696533203125,-0.03171978145837784,0.004041812848299742,-0.02894602157175541
1783169364526675500,6.730675537109375,-0.024184633046388626,0.029285117983818054,-0.00866897962987423
1783169364536624400,6.740624267578125,-0.024130934849381447,0.019921638071537018,0.010172714479267597
1783169364546573300,6.7505732421875,-0.031286582350730896,-0.0019615560304373503,0.019473537802696228
1783169364556521500,6.760521484375,-0.04273425042629242,-0.021279456093907356,0.021559933200478554
1783169364566501400,6.77050146484375,-0.050040632486343384,-0.02100701443850994,0.0075807347893714905
1783169364576449300,6.78044921875,-0.06299782544374466,-0.005949843674898148,-0.011720405891537666
1783169364586398500,6.7903984375,-0.07327230274677277,0.019682815298438072,-0.029050925746560097
1783169364596377300,6.80037744140625,-0.07743600755929947,0.029159415513277054,-0.041621722280979156
1783169364606326500,6.810326416015625,-0.07414247840642929,0.022311361506581306,-0.05004902929067612
1783169364616275500,6.820275390625,-0.06318354606628418,0.030774017795920372,-0.038182273507118225
1783169364626224600,6.830224609375,-0.04820645600557327,0.039757922291755676,-0.017000291496515274
1783169364636203500,6.84020361328125,-0.0363423228263855,0.02635948359966278,0.007104749791324139
1783169364646152400,6.85015234375,-0.019694902002811432,0.009401008486747742,0.032328080385923386
1783169364656100600,6.8601005859375,-0.005070419982075691,-0.0016159559600055218,0.04961918666958809
1783169364666049500,6.870049560546875,-0.0014205574989318848,-0.02254946529865265,0.06298532336950302
1783169364676028400,6.8800283203125,-0.003641292452812195,-0.036316536366939545,0.05789009481668472
1783169364685977300,6.889977294921875,-0.009793726727366447,-0.023559464141726494,0.04078221321105957
1783169364695926500,6.899926513671875,-0.015930499881505966,-0.006255967076867819,0.018064171075820923
1783169364705905400,6.909905517578125,-0.023725837469100952,0.006385526154190302,-0.014619206078350544
1783169364715854300,6.919854248046875,-0.025258414447307587,0.02445218898355961,-0.03174980357289314
1783169364725802500,6.929802490234375,-0.02697029523551464,0.023046039044857025,-0.040121715515851974
1783169364735751400,6.93975146484375,-0.025003233924508095,0.010072937235236168,-0.033194344490766525
1783169364745730300,6.949730224609375,-0.015802010893821716,-0.005865283310413361,-0.02027747966349125
1783169364755679500,6.959679443359375,-0.0024583712220191956,-0.017526831477880478,-0.008524572476744652
1783169364765628700,6.969628662109375,0.0028972458094358444,-0.015273530036211014,-0.0019737286493182182
1783169364775577600,6.97957763671875,0.00939156860113144,-0.011980242095887661,0.008524219505488873
1783169364785556500,6.989556396484375,0.017364539206027985,-0.005911696702241898,0.012486470863223076
1783169364795505400,6.99950537109375,0.024894626811146736,0.008205663412809372,0.02106056734919548
1783169364805453600,7.00945361328125,0.025192366912961006,0.025609686970710754,0.029226884245872498
1783169364815433500,7.01943359375,0.020471040159463882,0.019867777824401855,0.03972513601183891
1783169364825381600,7.029381591796875,0.01528427004814148,0.01887255534529686,0.03742736205458641
1783169364835330600,7.03933056640625,0.013281958177685738,0.0216643325984478,0.03225191310048103
1783169364845279500,7.049279541015625,0.012861708179116249,0.021473918110132217,0.021909527480602264
1783169364855258400,7.05925830078125,0.008806940168142319,0.02481725998222828,0.010365888476371765
1783169364865207600,7.06920751953125,0.0077219679951667786,0.026365354657173157,-0.002596781589090824
1783169364875155500,7.079155517578125,0.012357553467154503,0.036496084183454514,-0.012924855574965477
1783169364885104400,7.0891044921875,0.022008048370480537,0.03341294080018997,-0.006557503715157509
1783169364895083500,7.09908349609375,0.02642104960978031,0.030221419408917427,0.0041610426269471645
1783169364905032400,7.109032470703125,0.028790729120373726,0.028106337413191795,0.022275596857070923
1783169364914981400,7.1189814453125,0.029011769220232964,0.021919967606663704,0.04185088351368904
1783169364924960300,7.128960205078125,0.02922934852540493,0.010752800852060318,0.05273708701133728
1783169364934909700,7.13890966796875,0.026091208681464195,-0.00169098237529397,0.05765557289123535
1783169364944858600,7.148858642578125,0.02713543362915516,-0.006163495127111673,0.05854559689760208
1783169364954806500,7.158806640625,0.027240965515375137,-0.003216566052287817,0.05025244504213333
1783169364964786400,7.168786376953125,0.01653532311320305,0.0007643271237611771,0.03701519966125488
1783169364974734600,7.178734619140625,0.006040534004569054,0.0024374499917030334,0.018070343881845474
1783169364984683500,7.18868359375,-0.004453917965292931,0.013594763353466988,0.000963529571890831
1783169364994632400,7.198632568359375,-0.01680348441004753,0.018849119544029236,-0.020709853619337082
1783169365004611600,7.208611572265625,-0.020066654309630394,0.014530004933476448,-0.031148649752140045
1783169365014560500,7.218560546875,-0.01793762668967247,0.0036859498359262943,-0.0373174250125885
1783169365024508400,7.22850830078125,-0.01381478738039732,-0.011889015324413776,-0.04432712867856026
1783169365034488300,7.23848828125,-0.012370293028652668,-0.014167195186018944,-0.0370015874505043
1783169365044436500,7.2484365234375,-0.01992648094892502,-0.002787241945043206,-0.02615106850862503
1783169365054385400,7.258385498046875,-0.033552370965480804,0.004828108940273523,-0.011658302508294582
1783169365064334300,7.268334228515625,-0.04464869573712349,0.010350173339247704,0.00034669414162635803
1783169365074357000,7.27835693359375,-0.048778943717479706,0.004065506160259247,0.0071350401267409325
1783169365084306000,7.288305908203125,-0.04634374752640724,-0.0006173965521156788,0.0036588162183761597
1783169365094254800,7.2982548828125,-0.03332943841814995,-0.010726947337388992,-0.005504828877747059
1783169365104203000,7.308203125,-0.017483893781900406,-0.008738630451261997,-0.01354411244392395
1783169365114183000,7.318182861328125,-0.0033345092087984085,-0.0025840771850198507,-0.014226442202925682
1783169365124131000,7.328131103515625,0.00478307344019413,-0.006965243257582188,-0.0038912463933229446
1783169365134080000,7.338080078125,0.00890549086034298,-0.016302289441227913,0.007852930575609207
1783169365144059000,7.348058837890625,0.007197340950369835,-0.021371349692344666,0.016429906710982323
1783169365154007800,7.3580078125,0.0026228465139865875,-0.01941986382007599,0.02397621050477028
1783169365163957000,7.36795703125,0.00149473175406456,-0.008040709421038628,0.026708878576755524
1783169365173905000,7.37790478515625,0.0034472905099391937,0.0031141689978539944,0.023798659443855286
1783169365183884800,7.387884765625,0.005668634548783302,0.009518804028630257,0.018459022045135498
1783169365193833000,7.3978330078125,0.00969383679330349,0.019182413816452026,0.013935545459389687
1783169365203782100,7.4077822265625,0.005937179550528526,0.019944876432418823,0.015970999374985695
1783169365213731000,7.41773095703125,0.0032835006713867188,0.0060139731504023075,0.01076939795166254
1783169365223710000,7.4277099609375,0.0014427248388528824,-0.012935483828186989,0.006844963878393173
1783169365233659100,7.4376591796875,0.007548948749899864,-0.017351435497403145,0.005572129972279072
1783169365243608000,7.447608154296875,0.013137059286236763,-0.01208529993891716,0.006410226225852966
1783169365253587000,7.4575869140625,0.016459887847304344,-0.0007868395186960697,0.014417553320527077
1783169365263535900,7.467535888671875,0.019158465787768364,0.022665755823254585,0.021323395892977715
1783169365273484000,7.477484130859375,0.01649271324276924,0.03826829418540001,0.03672198951244354
1783169365283433000,7.487432861328125,0.01101086288690567,0.04627535492181778,0.04686357080936432
1783169365293412000,7.497412109375,-0.0004252120852470398,0.03927537053823471,0.058506838977336884
1783169365303361000,7.507361083984375,-0.014024111442267895,0.01911444030702114,0.06391359120607376
1783169365313310000,7.51731005859375,-0.028004541993141174,0.010149238631129265,0.057018302381038666
1783169365323259000,7.5272587890625,-0.03289596736431122,0.02834368869662285,0.05541054904460907
1783169365333237800,7.53723779296875,-0.03913138806819916,0.05039525032043457,0.05319254845380783
1783169365343186000,7.54718603515625,-0.04130079969763756,0.047846075147390366,0.04318252205848694
1783169365353134800,7.557134765625,-0.03439921885728836,0.03712072595953941,0.03339274227619171
1783169365363114000,7.567114013671875,-0.02271166816353798,0.024484025314450264,0.01702415570616722
1783169365373063000,7.57706298828125,-0.00639389269053936,0.0056754848919808865,0.004540264140814543
1783169365383012000,7.58701220703125,0.003385500982403755,-0.01149897463619709,-0.007775790989398956
1783169365392961000,7.5969609375,0.013619208708405495,-0.02475237473845482,-0.023023955523967743
1783169365402940200,7.606940185546875,0.02586681954562664,-0.033034540712833405,-0.03750782459974289
1783169365412889000,7.61688916015625,0.030848262831568718,-0.04341181367635727,-0.03823060542345047
1783169365422837000,7.6268369140625,0.022571692243218422,-0.043082915246486664,-0.031214509159326553
1783169365432786000,7.636785888671875,0.008472045883536339,-0.0302830059081316,-0.012884155847132206
1783169365442765000,7.64676513671875,-0.016586966812610626,0.005845170002430677,0.015233764424920082
1783169365452714000,7.6567138671875,-0.03767610713839531,0.024810541421175003,0.04471345245838165
1783169365462663000,7.666662841796875,-0.04898681864142418,0.026277409866452217,0.06385306268930435
1783169365472642000,7.67664208984375,-0.04369835555553436,0.020522382110357285,0.07412251830101013
1783169365482591000,7.686591064453125,-0.03183477371931076,0.008663059212267399,0.07269586622714996
1783169365492540000,7.696539794921875,-0.01889992319047451,-0.005591242108494043,0.05867365002632141
1783169365502487800,7.70648779296875,-0.010305636562407017,-0.013568207621574402,0.03629244491457939
1783169365512467000,7.716467041015625,-0.005631070584058762,-0.013371381908655167,0.01115439087152481
1783169365522415900,7.726415771484375,-0.008349891752004623,-0.006031710654497147,-0.004531095735728741
1783169365532365000,7.736364990234375,-0.010066820308566093,0.0030215545557439327,-0.011129326187074184
1783169365542314000,7.74631396484375,-0.00908571109175682,0.012865662574768066,-0.009885364212095737
1783169365552293000,7.756293212890625,0.0012514889240264893,0.01753516122698784,0.00020014028996229172
1783169365562242000,7.766241943359375,0.016492227092385292,0.01988619938492775,0.017400965094566345
1783169365572190000,7.77618994140625,0.033881403505802155,0.008110451512038708,0.029448237270116806
1783169365582170000,7.786170166015625,0.04962947219610214,-0.008812605403363705,0.03823640197515488
1783169365592118000,7.796117919921875,0.06299470365047455,-0.00632074661552906,0.04347549378871918
1783169365602067000,7.80606689453125,0.06361415237188339,-0.002319080987945199,0.04000885784626007
1783169365612015900,7.816015869140625,0.06202264875173569,-0.006229932885617018,0.028548212721943855
1783169365621995000,7.8259951171875,0.06436436623334885,-0.0031704935245215893,0.008274633437395096
1783169365631944000,7.83594384765625,0.07179789990186691,0.0011475416831672192,-0.007540940307080746
1783169365641892900,7.845892822265625,0.08260927349328995,0.008362311869859695,-0.022491924464702606
1783169365651841000,7.855841064453125,0.08868541568517685,0.009051019325852394,-0.030655188485980034
1783169365661821000,7.865821044921875,0.0993143618106842,0.01449798233807087,-0.030296726152300835
1783169365671768800,7.875768798828125,0.10540813952684402,0.0032704868353903294,-0.029407693073153496
1783169365681717800,7.8857177734375,0.1061607375741005,-0.009145436808466911,-0.026864374056458473
1783169365691697000,7.89569677734375,0.10744516551494598,-0.013874884694814682,-0.01994042843580246
1783169365701645800,7.905645751953125,0.10688963532447815,-0.01674151048064232,-0.018176347017288208
1783169365711595000,7.915594970703125,0.10604275017976761,-0.021691782400012016,-0.025908540934324265
1783169365721543200,7.925543212890625,0.10358304530382156,-0.013575797900557518,-0.028967179358005524
1783169365731523000,7.935523193359375,0.09462714195251465,0.002958634402602911,-0.03159603849053383
1783169365741471000,7.945470947265625,0.08321176469326019,0.009039163589477539,-0.030649282038211823
1783169365751420000,7.955419921875,0.07517454028129578,0.011158816516399384,-0.022672519087791443
1783169365761369000,7.965369140625,0.07239846140146255,0.006965936161577702,-0.017756324261426926
1783169365771348000,7.975347900390625,0.07171010971069336,-0.007887167856097221,-0.018744956701993942
1783169365781297000,7.985296875,0.07157881557941437,-0.01667133718729019,-0.014327039010822773
1783169365791245800,7.995245849609375,0.07174938172101974,-0.014444051310420036,-0.012663477100431919
1783169365801225000,8.005224853515625,0.06878475099802017,-0.005175985395908356,-0.00900296214967966
1783169365811174000,8.015173828125,0.061336126178503036,0.0069816759787499905,-0.0028891218826174736
1783169365821122000,8.0251220703125,0.05556798353791237,0.02317396178841591,0.014803055673837662
1783169365831071000,8.035071044921875,0.04483753442764282,0.0256331916898489,0.032165851444005966
1783169365841049900,8.0450498046875,0.028067078441381454,0.017947841435670853,0.054958246648311615
1783169365850998800,8.054998779296875,0.008284680545330048,0.003265896812081337,0.06821669638156891
1783169365860948000,8.064947998046875,-0.001230793073773384,0.0021487008780241013,0.07019703090190887
1783169365870895900,8.074895751953125,-0.008924385532736778,0.012015711516141891,0.053580205887556076
1783169365880876000,8.0848759765625,-0.008525710552930832,0.011899065226316452,0.03246959298849106
1783169365890824200,8.09482421875,-0.009195800870656967,0.009942246600985527,0.009513463824987411
1783169365900773000,8.104773193359375,-0.014475783333182335,0.011313242837786674,-0.006637276150286198
1783169365910752000,8.114751953125,-0.015168501064181328,0.008571051061153412,-0.011055173352360725
1783169365920701000,8.124700927734375,-0.013389510102570057,-0.004593487363308668,-0.004571440629661083
1783169365930650000,8.134650146484375,-0.01047624833881855,-0.013012070208787918,0.0028379843570291996
1783169365940599000,8.14459912109375,-0.00445803627371788,-0.02789621241390705,0.008894012309610844
1783169365950578000,8.154577880859375,-0.0010002851486206055,-0.033394377678632736,0.011111989617347717
1783169365960526800,8.16452685546875,0.0046631935983896255,-0.0361800454556942,0.0014804019592702389
1783169365970475000,8.17447509765625,0.008978938683867455,-0.029475046321749687,-0.005437801592051983
1783169365980424000,8.184423828125,0.0053623635321855545,-0.016931822523474693,-0.016418013721704483
1783169365990402800,8.19440283203125,0.0038798265159130096,-0.008429110050201416,-0.022251974791288376
1783169366000352000,8.20435205078125,0.003818308934569359,-0.005476996302604675,-0.022730279713869095
1783169366010301000,8.214301025390625,0.01292521320283413,-0.0054931677877902985,-0.01889846846461296
1783169366020279800,8.22427978515625,0.022038551047444344,-0.007856190204620361,-0.01085785310715437
1783169366030228700,8.234228759765625,0.026148945093154907,0.0026509095914661884,0.0045593781396746635
1783169366040177000,8.244177001953124,0.02912129834294319,0.002834135200828314,0.013282828032970428
1783169366050126000,8.2541259765625,0.02717868983745575,-0.006811101455241442,0.013582795858383179
1783169366060105000,8.26410498046875,0.02935848757624626,-0.017815548926591873,0.006804518401622772
1783169366070054100,8.27405419921875,0.032523415982723236,-0.019240671768784523,0.0007367501966655254
1783169366080005000,8.284005126953126,0.02893693931400776,-0.013820072636008263,-0.0138704227283597
1783169366089954000,8.2939541015625,0.03158019483089447,-0.010402041487395763,-0.027427850291132927
1783169366099933200,8.30393310546875,0.03807378187775612,-0.00999377854168415,-0.03563278168439865
1783169366109882000,8.313882080078125,0.041653554886579514,0.006268877536058426,-0.0421803817152977
1783169366119830000,8.323830078125,0.038543518632650375,0.016429103910923004,-0.04194309562444687
1783169366129810400,8.333810546875,0.0337214320898056,0.0077962628565728664,-0.03565360605716705
1783169366139758000,8.343758056640626,0.030519777908921242,-0.0011247945949435234,-0.02203845977783203
1783169366149707300,8.353707275390626,0.024210061877965927,-0.0004490758292376995,-0.0035005835816264153
1783169366159656200,8.36365625,0.013418134301900864,0.0045752436853945255,0.016070455312728882
1783169366169635300,8.37363525390625,-0.00210733525454998,0.008153799921274185,0.02839880995452404
1783169366179584300,8.383584228515625,-0.014891041442751884,0.005171059165149927,0.03770042955875397
1783169366189532200,8.3935322265625,-0.017908740788698196,0.0008653858676552773,0.034372083842754364
1783169366199481300,8.4034814453125,-0.016409114003181458,-0.004569060634821653,0.01954387128353119
1783169366209460200,8.413460205078126,-0.014425956644117832,-0.000948555301874876,-0.0009093750268220901
1783169366219409200,8.4234091796875,-0.012739110738039017,0.0006655869074165821,-0.02269749529659748
1783169366229358000,8.433358154296876,-0.013090732507407665,-0.0014839253854006529,-0.044162772595882416
1783169366239337200,8.443337158203125,-0.012522414326667786,-0.008674993179738522,-0.060920439660549164
1783169366249286100,8.4532861328125,-0.01680668443441391,-0.01404714398086071,-0.062096722424030304
1783169366259235000,8.463235107421875,-0.019306592643260956,-0.0042613595724105835,-0.05621086806058884
1783169366269183200,8.473183349609375,-0.020548926666378975,0.0004269042983651161,-0.03460492193698883
1783169366279163100,8.4831630859375,-0.025585230439901352,-0.0004807007499039173,-0.008439365774393082
1783169366289111000,8.493111083984376,-0.026987440884113312,-0.01168182771652937,0.009814785793423653
1783169366299060200,8.503060302734376,-0.024435333907604218,-0.02247774973511696,0.0226187314838171
1783169366309009400,8.513009521484374,-0.023761121556162834,-0.026051513850688934,0.019981231540441513
1783169366318988300,8.52298828125,-0.022878283634781837,-0.022568365558981895,0.009363741613924503
1783169366328937200,8.532937255859375,-0.02780267409980297,-0.00781111977994442,-0.008725292049348354
1783169366338886100,8.54288623046875,-0.0320163257420063,-0.0039274320006370544,-0.02889873832464218
1783169366348865300,8.552865234375,-0.029396675527095795,0.007711051497608423,-0.0369270034134388
1783169366358813200,8.562813232421876,-0.02684270404279232,0.015025155618786812,-0.033355437219142914
1783169366368762400,8.572762451171876,-0.02454320713877678,0.010882867500185966,-0.018749188631772995
1783169366378711300,8.582711181640626,-0.017460528761148453,0.015149516984820366,0.005447760224342346
1783169366388690200,8.592690185546875,-0.009554598480463028,0.014468954876065254,0.024219777435064316
1783169366398639000,8.60263916015625,-0.009419577196240425,0.003711381461471319,0.03277970850467682
1783169366408588300,8.61258837890625,-0.011271298862993717,-0.012528510764241219,0.028980735689401627
1783169366418536200,8.6225361328125,-0.009069396182894707,-0.015706460922956467,0.013908043503761292
1783169366428516000,8.63251611328125,-0.005425244569778442,-0.007125568576157093,-0.015878763049840927
1783169366438464300,8.64246435546875,-0.005420451983809471,-0.005595316179096699,-0.045661959797143936
1783169366448413200,8.6524130859375,-0.00013994798064231873,0.0033716224133968353,-0.058888815343379974
1783169366458392000,8.66239208984375,0.0064383260905742645,0.005175914615392685,-0.06050775200128555
1783169366468341000,8.672341064453125,0.00909048318862915,-0.0013510973658412695,-0.05009256303310394
1783169366478290400,8.68229052734375,0.011567752808332443,-0.00584464892745018,-0.030178776010870934
1783169366488239400,8.6922392578125,0.014837099239230156,-0.01482701487839222,-0.006113432347774506
1783169366498218200,8.70221826171875,0.016447776928544044,-0.014580406248569489,0.022050827741622925
1783169366508167200,8.712167236328124,0.014606501907110214,-0.020442962646484375,0.03525625914335251
1783169366518115300,8.722115234375,0.011036533862352371,-0.01841656304895878,0.03984568640589714
1783169366528064300,8.732064208984376,0.008460523560643196,-0.013863686472177505,0.03759986162185669
1783169366538043100,8.742043212890625,0.00613878108561039,-0.004659268539398909,0.026940561830997467
1783169366547992300,8.751992431640625,0.0010348781943321228,0.0011697104200720787,0.01791958138346672
1783169366557941200,8.761941162109375,-0.00536256842315197,-0.0003405679017305374,0.004379803314805031
1783169366567920000,8.771920166015626,-0.014509676955640316,-0.0024959146976470947,-0.0003223167732357979
1783169366577869000,8.781869140625,-0.02538629248738289,-0.0005060010589659214,0.0005107196047902107
1783169366587817200,8.791817138671876,-0.03616723045706749,0.0075427391566336155,0.005182364955544472
1783169366597766100,8.80176611328125,-0.036385342478752136,0.012060258537530899,0.010622937232255936
1783169366607745300,8.811745361328125,-0.033042002469301224,0.010604551993310452,0.012570740655064583
1783169366617694200,8.821694091796875,-0.025667976588010788,0.010110270231962204,0.01658465713262558
1783169366627643100,8.83164306640625,-0.016883578151464462,0.0010145972482860088,0.017035052180290222
1783169366637592300,8.84159228515625,-0.013353024609386921,-0.004056860227137804,0.017889127135276794
1783169366647571200,8.8515712890625,-0.010002035647630692,0.0030411281622946262,0.016378924250602722
1783169366657520400,8.861520263671874,-0.015264708548784256,0.007177549879997969,0.01498475857079029
1783169366667468300,8.87146826171875,-0.0179873276501894,0.006800313014537096,0.004305289126932621
1783169366677448200,8.8814482421875,-0.01501017902046442,0.0034753563813865185,-0.007841655053198338
1783169366687396400,8.891396240234375,-0.00945725105702877,0.0023100250400602818,-0.019548621028661728
1783169366697345300,8.90134521484375,-0.0014789532870054245,-0.007607853040099144,-0.03069075383245945
1783169366707294200,8.911294189453125,0.006737664341926575,-0.0037190436851233244,-0.03537576645612717
1783169366717273300,8.9212734375,0.014490924775600433,-0.0007647993043065071,-0.03100525215268135
1783169366727222300,8.93122216796875,0.013742638751864433,-0.006666226778179407,-0.021227765828371048
1783169366737170200,8.941170166015626,0.01457141526043415,-0.007934157736599445,-0.012978891842067242
1783169366747119000,8.951119140625,0.01515159197151661,-0.0058961296454072,-0.00039028190076351166
1783169366757098200,8.96109814453125,0.01371215470135212,-0.003884377656504512,0.006583204958587885
1783169366767047200,8.971047119140625,0.01299152709543705,0.0025088321417570114,0.012612584978342056
1783169366776996000,8.98099609375,0.013043457642197609,0.014089854434132576,0.01371806301176548
1783169366786975200,8.990975341796876,0.014064373448491096,0.02318533882498741,0.012156262993812561
1783169366796924200,9.000924072265626,0.013715231791138649,0.024589091539382935,0.009411076083779335
1783169366806873300,9.010873291015624,0.0038946308195590973,0.0046568033285439014,0.0000563841313123703
1783169366816821000,9.020821044921876,-0.002659941092133522,-0.022597188130021095,-0.012381909415125847
1783169366826801400,9.030801513671875,-0.002733806148171425,-0.026313964277505875,-0.027729343622922897
1783169366836749300,9.040749267578125,0.0015767868608236313,-0.01606052741408348,-0.04314318671822548
1783169366846698200,9.0506982421875,0.0025513097643852234,0.01009421981871128,-0.054149873554706573
1783169366856647200,9.060647216796875,0.0007528774440288544,0.029138484969735146,-0.04329056665301323
1783169366866626300,9.070626220703126,-0.0004865620285272598,0.033762287348508835,-0.02653445675969124
1783169366876575200,9.0805751953125,0.00003941357135772705,0.024640696123242378,-0.002608083188533783
1783169366886523100,9.090523193359376,0.0021251998841762543,0.00960901565849781,0.023241356015205383
1783169366896503300,9.10050341796875,0.00879002921283245,-0.005769673734903336,0.044260088354349136
1783169366906451200,9.110451171875,0.012755006551742554,-0.015649639070034027,0.04765630513429642
1783169366916400000,9.120400146484375,0.016506336629390717,-0.025680169463157654,0.04182851314544678
1783169366926349000,9.13034912109375,0.01902417279779911,-0.01677020639181137,0.02585643157362938
1783169366936328200,9.140328125,0.018071291968226433,-0.0006610113196074963,0.007395665626972914
1783169366946277000,9.150277099609376,0.009573400020599365,0.010357360355556011,-0.0022375211119651794
1783169366956226000,9.16022607421875,0.00012157484889030457,0.010299303568899632,-0.005720669403672218
1783169366966174200,9.17017431640625,-0.005441056564450264,0.00739578902721405,-0.004346912726759911
1783169366976154400,9.180154296875,-0.011671521700918674,0.0016177943907678127,0.008271411061286926
1783169366986102000,9.19010205078125,-0.013539045117795467,-0.009091313928365707,0.02074282057583332
1783169366996051200,9.20005126953125,-0.010232197120785713,-0.01169668510556221,0.03489911928772926
1783169367006000400,9.21000048828125,0.0007095616310834885,-0.008236490190029144,0.04332389310002327
1783169367015979300,9.219979248046876,0.008038045838475227,-0.009770204313099384,0.04278726503252983
1783169367025928200,9.22992822265625,0.015594599768519402,-0.002075203461572528,0.041713912039995193
1783169367035876400,9.23987646484375,0.01727052964270115,-0.004056595265865326,0.0376209020614624
1783169367045856300,9.249856201171875,0.013124948367476463,-0.013704339042305946,0.030672265216708183
1783169367055804200,9.25980419921875,0.004886457696557045,-0.019593385979533195,0.02493235468864441
1783169367065753300,9.26975341796875,-0.005465375259518623,-0.018625793978571892,0.02094462886452675
1783169367075726300,9.279726318359375,-0.014113458804786205,-0.006740105338394642,0.01836935058236122
1783169367085705200,9.289705322265625,-0.014031927101314068,0.008920565247535706,0.014519203454256058
1783169367095654100,9.299654052734375,-0.010843590833246708,0.013509724289178848,0.009375574067234993
1783169367105603300,9.309603271484375,-0.003954298794269562,0.004192171152681112,0.0032838755287230015
1783169367115551200,9.31955126953125,0.0045049674808979034,-0.006120121106505394,0.0006300355307757854
1783169367125531100,9.32953125,0.011543873697519302,-0.015715252608060837,0.0010088724084198475
1783169367135479300,9.339479248046874,0.01049778237938881,-0.01723911240696907,-0.0025315340608358383
1783169367145428200,9.34942822265625,0.00607391819357872,-0.01619875431060791,0.001902993768453598
1783169367155407000,9.359406982421875,0.006492834538221359,-0.013352632522583008,0.003349623177200556
1783169367165356000,9.36935595703125,0.005491634830832481,-0.006893128156661987,0.004854166880249977
1783169367175305200,9.37930517578125,0.007677288725972176,-0.007641210220754147,-0.0024234531447291374
1783169367185253000,9.389253173828125,0.013456542044878006,-0.0027374005876481533,-0.007865019142627716
1783169367195233000,9.39923291015625,0.021460406482219696,-0.002242052461951971,-0.010925523936748505
1783169367205181200,9.40918115234375,0.026688067242503166,0.0009777108207345009,-0.0173870287835598
1783169367215130400,9.41913037109375,0.029617810621857643,-0.004796288441866636,-0.020855262875556946
1783169367225079300,9.429079345703125,0.029192138463258743,-0.0060975742526352406,-0.012224128469824791
1783169367235058400,9.439058349609375,0.02580646425485611,-0.0018442398868501186,-0.0004162052646279335
1783169367245007400,9.44900732421875,0.01892249286174774,-0.006636146456003189,0.012387951835989952
1783169367254956300,9.458956298828125,0.017080381512641907,-0.014068495482206345,0.020185686647892
1783169367264935200,9.46893505859375,0.021564744412899017,-0.00886599626392126,0.029488258063793182
1783169367274884000,9.478884033203125,0.020719990134239197,-0.00440786499530077,0.030812116339802742
1783169367284832300,9.488832275390624,0.02118518203496933,-0.0051174890249967575,0.026715949177742004
1783169367294781200,9.49878125,0.018994200974702835,-0.0015179608017206192,0.028577230870723724
1783169367304760300,9.50876025390625,0.01655636355280876,-0.0024213462602347136,0.02533297799527645
1783169367314709200,9.518709228515625,0.016687389463186264,-0.009337043389678001,0.024343347176909447
1783169367324658200,9.528658203125,0.016162890940904617,-0.008768192492425442,0.020615309476852417
1783169367334607000,9.538607177734375,0.01311010867357254,0.0015723295509815216,0.02580740861594677
1783169367344586200,9.548586181640625,0.006191283464431763,0.0045482744462788105,0.03488338738679886
1783169367354535200,9.55853515625,-0.004086919128894806,0.009570997208356857,0.0411577932536602
1783169367364483000,9.568483154296874,-0.016509991139173508,0.008101741783320904,0.043979085981845856
1783169367374462200,9.578462158203125,-0.023094389587640762,-0.001004138495773077,0.044879764318466187
1783169367384411400,9.588411376953125,-0.019665582105517387,-0.0002478756941854954,0.037763308733701706
1783169367394360300,9.5983603515625,-0.017925739288330078,0.004484295379370451,0.0275556780397892
1783169367404309200,9.608309326171875,-0.013340038247406483,0.009802870452404022,0.01495569571852684
1783169367414288400,9.618288330078125,-0.008913330733776093,0.014559010043740273,0.0065899076871573925
1783169367424237300,9.6282373046875,-0.011035039089620113,0.01423405110836029,0.0028438875451684
1783169367434185200,9.638185302734374,-0.018411196768283844,0.010394838638603687,0.0047605643048882484
1783169367444134100,9.648134033203124,-0.021525898948311806,0.0008524772711098194,0.007275003474205732
1783169367454113300,9.65811328125,-0.019490445032715797,-0.007638745941221714,0.00769844651222229
1783169367464062200,9.668062255859375,-0.01563877798616886,-0.005130734760314226,0.0027921460568904877
1783169367474011100,9.67801123046875,-0.007910817861557007,0.0050697047263383865,-0.00778539665043354
1783169367483990300,9.687990234375,-0.0021910537034273148,0.009942842647433281,-0.010060600005090237
1783169367493939200,9.697939208984375,-0.0028643012046813965,0.005926530342549086,-0.021635230630636215
1783169367503888100,9.70788818359375,0.0026350263506174088,0.0005644583143293858,-0.023577377200126648
1783169367513836000,9.7178359375,0.005071019753813744,0.00012849876657128334,-0.021769355982542038
1783169367523816200,9.727816162109375,-0.0005304664373397827,0.00794579554349184,-0.013330554589629173
1783169367533764000,9.73776416015625,-0.0068083349615335464,0.019683944061398506,-0.004145312123000622
1783169367543713300,9.74771337890625,-0.007739147171378136,0.01826668716967106,0.00323276175186038
1783169367553662200,9.757662109375,0.00011664442718029022,0.01803392730653286,0.006710051093250513
1783169367563641300,9.767641357421875,0.010350842028856277,0.014044364914298058,0.006040307693183422
1783169367573590300,9.77759033203125,0.019849803298711777,0.009458668529987335,0.00933570321649313
1783169367583538200,9.7875380859375,0.0213334858417511,0.01583608239889145,0.016622625291347504
1783169367593518300,9.797518310546875,0.015668142586946487,0.007829289883375168,0.02200380712747574
1783169367603466200,9.80746630859375,0.00007156841456890106,-0.003468036651611328,0.029929693788290024
1783169367613415200,9.817415283203125,-0.022068621590733528,-0.009209278970956802,0.022230759263038635
1783169367623364000,9.827364013671875,-0.032952237874269485,-0.01850171573460102,0.005364499986171722
1783169367633343200,9.83734326171875,-0.03412695601582527,-0.0066613019444048405,-0.022607745602726936
1783169367643292200,9.847292236328125,-0.0226659644395113,0.008679693564772606,-0.04842346906661987
1783169367653241000,9.857240966796875,-0.006953846663236618,0.01741779036819935,-0.06795535981655121
1783169367663189200,9.867189208984374,0.0029200538992881775,0.01852465234696865,-0.07165846973657608
1783169367673169200,9.877169189453125,0.006934769451618195,0.01033090427517891,-0.06357604265213013
1783169367683117000,9.887116943359375,-0.00012772902846336365,-0.003823122475296259,-0.03755687177181244
1783169367693066200,9.897066162109375,-0.010798483155667782,-0.016257155686616898,-0.0156015083193779
1783169367703045000,9.907045166015624,-0.01908557489514351,-0.018055837601423264,0.009256054647266865
1783169367712994000,9.916994140625,-0.02017347700893879,0.0016435650177299976,0.020183270797133446
1783169367722943200,9.926943115234375,-0.021109983325004578,-0.009197091683745384,0.02508390322327614
1783169367732891400,9.936891357421874,-0.017001260071992874,0.00416904641315341,0.018556226044893265
1783169367742871300,9.946871337890625,-0.006638048216700554,0.017801620066165924,0.007036937866359949
1783169367752819200,9.956819091796875,-0.0008523315191268921,0.01103479415178299,-0.006609631702303886
1783169367762768400,9.966768310546875,0.001553686335682869,0.0058771283365786076,-0.017855212092399597
1783169367772717300,9.97671728515625,-0.003849335014820099,0.006566088180989027,-0.02714458480477333
1783169367782696200,9.9866962890625,-0.01253393292427063,0.003228412475436926,-0.02847640961408615
1783169367792645000,9.99664501953125,-0.013291602022945881,-0.002937871031463146,-0.031199492514133453
1783169367802594300,10.00659423828125,-0.006817260757088661,0.0040777381509542465,-0.02025569975376129
1783169367812573200,10.0165732421875,0.0023317616432905197,0.016543995589017868,-0.0005954457446932793
1783169367822522000,10.026522216796875,0.0039650797843933105,0.007931692525744438,0.017539359629154205
1783169367832470300,10.03647021484375,0.003735249862074852,0.005253350827842951,0.029827451333403587
1783169367842419200,10.046419189453125,0.0027031730860471725,-0.0009926273487508297,0.033644385635852814
1783169367852398000,10.056398193359374,0.0013713259249925613,-0.003328219521790743,0.032404154539108276
1783169367862347000,10.066346923828124,-0.0004939679056406021,-0.0004810425452888012,0.022164855152368546
1783169367872296400,10.07629638671875,-0.00004735589027404785,0.005334768444299698,0.0055536553263664246
1783169367882244000,10.086244140625,-0.0010573063045740128,0.005772263277322054,-0.012915028259158134
1783169367892224300,10.096224365234375,-0.002585161477327347,-0.0009727245196700096,-0.02805536612868309
1783169367902172400,10.10617236328125,-0.004987712949514389,0.0031021125614643097,-0.03833690658211708
1783169367912121300,10.116121337890625,-0.011395545676350594,0.003392930142581463,-0.0363595113158226
1783169367922100200,10.126100341796874,-0.012884937226772308,0.005577852483838797,-0.032039985060691833
1783169367932049200,10.136049072265624,-0.011589575558900833,0.008150998502969742,-0.023385509848594666
1783169367941998300,10.145998291015625,-0.011356759816408157,0.001780322752892971,-0.013500703498721123
1783169367951947300,10.155947265625,-0.008750857785344124,0.002830673474818468,-0.0049594128504395485
1783169367961926100,10.165926025390625,-0.007323473691940308,0.004543210845440626,-0.002004563808441162
1783169367971875000,10.175875,-0.002564670518040657,-0.004857480991631746,0.0014253216795623302
1783169367981823200,10.1858232421875,0.0019403118640184402,-0.011444217525422573,0.0035148318856954575
1783169367991772200,10.195772216796875,0.004460461437702179,-0.016245096921920776,-0.00028443336486816406
1783169368001751300,10.205751220703124,0.0037199053913354874,-0.01717495173215866,-0.004177252762019634
1783169368011700200,10.2157001953125,-0.0017081499099731445,-0.007997165434062481,-0.008949636481702328
1783169368021649200,10.225649169921875,-0.0035336464643478394,-0.0018585086800158024,-0.0082051120698452
1783169368031628000,10.2356279296875,-0.008501239120960236,0.007575206458568573,-0.003996783867478371
1783169368041577200,10.2455771484375,-0.01278000883758068,0.011441865935921669,-0.0005774013698101044
1783169368051525000,10.255525146484375,-0.011348825879395008,0.0035077775828540325,0.0014820215292274952
1783169368061474300,10.265474365234375,-0.007903298363089561,-0.0029175227973610163,-0.0019741924479603767
1783169368071453400,10.275453369140624,-0.002911202609539032,-0.0011270795948803425,-0.0055172620341181755
1783169368081425700,10.28542578125,-0.002055671066045761,-0.0027539751026779413,-0.011003723368048668
1783169368091374600,10.29537451171875,-0.0006487220525741577,0.0032136361114680767,-0.012438900768756866
1783169368101323500,10.305323486328126,-0.001227477565407753,0.006441171281039715,-0.005712778307497501
1783169368111302700,10.315302734375,-0.004054956138134003,0.0010442757047712803,0.0009579076431691647
1783169368121251600,10.32525146484375,-0.012293997220695019,-0.005400232970714569,0.0026312009431421757
1783169368131199500,10.335199462890625,-0.021622784435749054,-0.011362784542143345,0.0010119988583028316
1783169368141179600,10.3451796875,-0.03517649322748184,-0.0151290912181139,-0.008116981014609337
1783169368151127600,10.35512744140625,-0.04547920078039169,-0.004973126109689474,-0.02118910662829876
1783169368161076500,10.365076416015626,-0.04534078389406204,0.008403537794947624,-0.02991647832095623
1783169368171025700,10.375025634765626,-0.04165683314204216,0.014415090903639793,-0.03928680717945099
1783169368181004500,10.385004638671875,-0.03135550022125244,0.002866359893232584,-0.0456668958067894
1783169368190953700,10.39495361328125,-0.015921153128147125,-0.016532637178897858,-0.04748690128326416
1783169368200901600,10.404901611328125,-0.004119379445910454,-0.023027755320072174,-0.03923959657549858
1783169368210850800,10.414850830078125,-0.001352887600660324,-0.025609690696001053,-0.028862856328487396
1783169368220829700,10.42482958984375,-0.0064709801226854324,-0.02826133742928505,-0.021886684000492096
1783169368230778600,10.434778564453126,-0.008844388648867607,-0.01730722188949585,-0.009946402162313461
1783169368240727600,10.4447275390625,-0.013391273096203804,-0.0042200456373393536,0.0005678324960172176
1783169368250706700,10.454706787109375,-0.01728428155183792,-0.007765778340399265,0.0037804036401212215
1783169368260655600,10.464655517578125,-0.020603351294994354,-0.009085442870855331,0.00448185671120882
1783169368270604500,10.4746044921875,-0.017458688467741013,-0.006107761990278959,0.0025840881280601025
1783169368280552700,10.484552734375,-0.013977239839732647,-0.0010057413019239902,0.00023607630282640457
1783169368290532600,10.49453271484375,-0.0117662837728858,0.004159193020313978,-0.006275885738432407
1783169368300480500,10.50448046875,-0.011355150490999222,0.022334055975079536,-0.007827399298548698
1783169368310429700,10.5144296875,-0.013379685580730438,0.02916080132126808,-0.005105115473270416
1783169368320378600,10.524378662109376,-0.01566404663026333,0.02174770087003708,0.0010877023451030254
1783169368330357500,10.534357421875,-0.015877632424235344,0.009755752049386501,0.007043595425784588
1783169368340306400,10.544306396484375,-0.011449193581938744,-0.0016479229088872671,0.014705091714859009
1783169368350255600,10.554255615234375,-0.004606466740369797,0.007622274104505777,0.027756977826356888
1783169368360234800,10.56423486328125,-0.001020161435008049,0.016842763870954514,0.03809664025902748
1783169368370183700,10.57418359375,0.004879005253314972,0.014085059985518456,0.043103914707899094
1783169368380131800,10.5841318359375,0.010875111445784569,0.010764630511403084,0.043180614709854126
1783169368390080800,10.594080810546876,0.011355811730027199,0.005519003141671419,0.04360378906130791
1783169368400059600,10.6040595703125,0.00678643211722374,0.006076267454773188,0.03503366559743881
1783169368410008600,10.614008544921875,0.00697525218129158,0.009052349254488945,0.023788999766111374
1783169368419957800,10.623957763671875,0.00711962953209877,0.006485248450189829,0.006625670474022627
1783169368429905700,10.63390576171875,0.012455537915229797,0.005965665448457003,-0.005727934651076794
1783169368439885600,10.643885498046876,0.01468709111213684,0.0083633903414011,-0.012198152020573616
1783169368449833700,10.653833740234376,0.012989860028028488,0.010660100728273392,-0.011780034750699997
1783169368459782700,10.66378271484375,0.0030643362551927567,0.004741603508591652,-0.004255643114447594
1783169368469761500,10.673761474609375,-0.00486176460981369,-0.0159655399620533,0.0007242015562951565
1783169368479710500,10.68371044921875,-0.008810102939605713,-0.01842295005917549,-0.001425810158252716
1783169368489659600,10.69365966796875,-0.01041625626385212,-0.016688698902726173,-0.009136460721492767
1783169368499608600,10.703608642578125,-0.01633256860077381,-0.03277638927102089,-0.017241962254047394
1783169368509587500,10.71358740234375,-0.011930097825825214,-0.016161460429430008,-0.03003978170454502
1783169368519536600,10.72353662109375,-0.002414356917142868,-0.0010650651529431343,-0.043557457625865936
1783169368529484800,10.73348486328125,0.003899466246366501,0.0005922201089560986,-0.048478707671165466
1783169368539433700,10.743433837890626,0.0034831836819648743,-0.00027564913034439087,-0.04351242631673813
1783169368549412600,10.75341259765625,-0.0025243740528821945,-0.010729089379310608,-0.03393729776144028
1783169368559361800,10.76336181640625,-0.005937986075878143,-0.03005068004131317,-0.019452156499028206
1783169368569310700,10.773310791015625,-0.010936473496258259,-0.030561476945877075,-0.009746799245476723
1783169368579289600,10.78328955078125,-0.016520362347364426,-0.008915464393794537,0.00553157739341259
1783169368589238500,10.793238525390626,-0.031026601791381836,0.005828327964991331,0.01515810564160347
1783169368599186700,10.803186767578126,-0.04799292981624603,0.019596042111516,0.029477741569280624
1783169368609135600,10.813135498046876,-0.06038461625576019,0.03230518102645874,0.0325627438724041
1783169368619114800,10.82311474609375,-0.06358686834573746,0.03318498656153679,0.03261372447013855
1783169368629063700,10.833063720703125,-0.055572353303432465,0.029322868213057518,0.029224053025245667
1783169368639012600,10.8430126953125,-0.049570612609386444,0.022267017513513565,0.025090506300330162
1783169368648961500,10.85296142578125,-0.03921091556549072,-0.0006428263150155544,0.011104916222393513
1783169368658940700,10.862940673828126,-0.024059029296040535,-0.040258876979351044,0.00047348206862807274
1783169368668889600,10.8728896484375,-0.007584182545542717,-0.05619203671813011,0.004509236663579941
1783169368678837500,10.88283740234375,0.0006710700690746307,-0.06373944133520126,0.017729993909597397
1783169368688817700,10.892817626953125,-0.00030178390443325043,-0.039430372416973114,0.03501444309949875
1783169368698765600,10.902765625,-0.00494665652513504,0.01130349189043045,0.050246935337781906
1783169368708714800,10.91271484375,-0.017266172915697098,0.03789835050702095,0.0661446750164032
1783169368718663700,10.92266357421875,-0.0281684547662735,0.023562250658869743,0.06625133007764816
1783169368728642800,10.932642822265626,-0.031819384545087814,-0.0005353624001145363,0.060982272028923035
1783169368738591700,10.942591796875,-0.02856183424592018,-0.023243814706802368,0.04594315588474274
1783169368748539600,10.95253955078125,-0.025445137172937393,-0.02547474578022957,0.02748345397412777
1783169368758488600,10.962488525390626,-0.01903541013598442,-0.011172028258442879,0.011585957370698452
1783169368768467700,10.9724677734375,-0.007587013766169548,-0.00034760963171720505,0.00474429689347744
1783169368778416600,10.982416748046875,0.005209805443882942,0.006209704093635082,0.006840888410806656
1783169368788365600,10.992365478515625,0.007968839257955551,-0.005557206925004721,0.018500741571187973
1783169368798344700,11.0023447265625,0.004229195415973663,-0.02440480701625347,0.02641361951828003
1783169368808293600,11.012293701171876,-0.00004145130515098572,-0.021159479394555092,0.028899412602186203
1783169368818242600,11.02224267578125,0.004506969824433327,-0.006942216772586107,0.02337997779250145
1783169368828190500,11.0321904296875,0.010984309017658234,-0.0013586331624537706,0.012841317802667618
1783169368838170600,11.042170654296875,0.01677851378917694,-0.005723998881876469,0.007371771614998579
1783169368848118500,11.052118408203125,0.017712749540805817,-0.01508607529103756,-0.004041737876832485
1783169368858067700,11.062067626953125,0.017952151596546173,0.0039195651188492775,-0.0016994643956422806
1783169368868016600,11.0720166015625,0.014576595276594162,0.01515837013721466,0.0029083373956382275
1783169368877995800,11.081995849609376,0.012319378554821014,0.0009526237845420837,0.009384740144014359
1783169368887944700,11.09194482421875,0.012067709118127823,-0.00016297446563839912,0.013758448883891106
1783169368897892600,11.101892578125,0.0175027959048748,0.007562973070889711,0.0152798593044281
1783169368907872800,11.111872802734375,0.016581609845161438,0.002278196159750223,0.021091142669320107
1783169368917820700,11.121820556640625,0.014256969094276428,0.0054262313060462475,0.019982678815722466
1783169368927769600,11.13176953125,0.014356039464473724,0.0005518482066690922,0.011180398985743523
1783169368937718500,11.141718505859375,0.0153543371707201,0.0020018834620714188,0.006784736644476652
1783169368947697700,11.15169775390625,0.01648964174091816,0.021109532564878464,0.01153688132762909
1783169368957646600,11.161646484375,0.009583752602338791,0.03205791488289833,0.023068921640515327
1783169368967595500,11.171595458984376,0.0020818952471017838,0.03283822163939476,0.0429890975356102
1783169368977543700,11.181543701171876,-0.000561954453587532,0.02539622038602829,0.057888567447662354
1783169368987523600,11.191523681640625,0.00781368650496006,0.012026353739202023,0.05992881581187248
1783169368997471500,11.201471435546875,0.013260077685117722,-0.00032392190769314766,0.054703451693058014
1783169369007420400,11.21142041015625,0.01614641398191452,-0.0000331047922372818,0.035628560930490494
1783169369017399600,11.221399658203126,0.01818186230957508,0.011718371883034706,0.014964325353503227
1783169369027348500,11.231348388671876,0.012178564444184303,0.010915163904428482,-0.007836327888071537
1783169369037297700,11.241297607421876,0.0011633038520812988,0.010812688618898392,-0.026759279891848564
1783169369047245800,11.251245849609376,-0.000548042356967926,0.017569128423929214,-0.040664441883563995
1783169369057225700,11.261225830078125,0.0013115406036376953,0.024785691872239113,-0.04335280880331993
1783169369067173600,11.271173583984375,0.004661530256271362,0.01863645389676094,-0.03678731992840767
1783169369077162200,11.281162353515626,0.008013084530830383,0.008490955457091331,-0.016538716852664948
1783169369087111400,11.291111328125,0.006512392312288284,-0.00010998919606208801,0.008497394621372223
1783169369097090600,11.301090576171875,0.0004529375582933426,-0.014626694843173027,0.028158392757177353
1783169369107039500,11.31103955078125,-0.004336491227149963,-0.023681441321969032,0.03666852414608002
1783169369116988400,11.320988525390625,-0.0033873766660690308,-0.027908358722925186,0.030188005417585373
1783169369126967600,11.330967529296874,0.003562942147254944,-0.013047920539975166,0.015685228630900383
1783169369136916500,11.34091650390625,0.012807536870241165,0.011395145207643509,0.001805650070309639
1783169369146864400,11.350864501953126,0.016999084502458572,0.028987452387809753,-0.007201161235570908
1783169369156813300,11.360813232421876,0.022222645580768585,0.029595976695418358,-0.011592693626880646
1783169369166792400,11.37079248046875,0.025881562381982803,0.017949705943465233,-0.010318636894226074
1783169369176741400,11.380741455078125,0.02256765216588974,0.009770339354872704,-0.0034083882346749306
1783169369186690300,11.390690185546875,0.013746727257966995,-0.0004386226646602154,0.005300414748489857
1783169369196639200,11.40063916015625,0.007521267980337143,-0.014071481302380562,0.013628965243697166
1783169369206618400,11.410618408203124,0.004703909158706665,-0.020293159410357475,0.012945597991347313
1783169369216566300,11.420566162109376,0.010743165388703346,-0.017105966806411743,0.012653179466724396
1783169369226515200,11.43051513671875,0.014747759327292442,-0.0069753010757267475,0.01460474357008934
1783169369236494300,11.440494384765625,0.014672456309199333,-0.003881835611537099,0.011746834963560104
1783169369246443300,11.450443359375,0.018845895305275917,-0.00845767930150032,0.007428785786032677
1783169369256392400,11.460392333984375,0.02390769124031067,-0.015151167288422585,0.002119541633874178
1783169369266341400,11.47034130859375,0.02168528363108635,-0.009143874049186707,-0.001452290453016758
1783169369276320500,11.480320556640624,0.016902785748243332,0.0002328888513147831,-0.0018703658133745193
1783169369286269400,11.49026953125,0.01032930612564087,0.007289998698979616,0.00175046781077981
1783169369296217300,11.50021728515625,0.011017892509698868,0.000891104806214571,0.003956685308367014
1783169369306166500,11.51016650390625,0.01752426102757454,-0.00011077616363763809,0.014220241457223892
1783169369316145400,11.5201455078125,0.017257552593946457,0.012162432074546814,0.029144752770662308
1783169369326094300,11.53009423828125,0.011423364281654358,0.017030956223607063,0.046090975403785706
1783169369336043300,11.540043212890625,0.007722534239292145,0.016638068482279778,0.05590668320655823
1783169369346022400,11.5500224609375,0.005857519805431366,0.007721272762864828,0.045301977545022964
1783169369355971300,11.559971435546874,0.005560416728258133,-0.006127626169472933,0.030444640666246414
1783169369365920300,11.569920166015624,0.006978817284107208,-0.010779902338981628,0.007938532158732414
1783169369375868400,11.579868408203126,0.007171362638473511,-0.008877872489392757,-0.016232583671808243
1783169369385848300,11.589848388671875,0.00848430022597313,0.004341792780905962,-0.03686356171965599
1783169369395796200,11.599796142578125,0.00858074240386486,-0.0015443791635334492,-0.043602973222732544
1783169369405745200,11.6097451171875,0.009481953456997871,-0.0020096334628760815,-0.04261254519224167
1783169369415694600,11.619694580078125,0.007552355527877808,-0.0075271883979439735,-0.028527770191431046
1783169369425673500,11.629673583984374,0.007433045655488968,-0.00693223811686039,-0.009511205367743969
1783169369435622400,11.639622314453124,0.008329465985298157,-0.006670449394732714,0.00973652582615614
1783169369445570600,11.649570556640626,0.009898602962493896,-0.0019215005449950695,0.03112943097949028
1783169369455550500,11.659550537109375,0.009345963597297668,-0.0031869441736489534,0.048925530165433884
1783169369465498400,11.669498291015625,0.010920960456132889,-0.011808661743998528,0.05455199256539345
1783169369475447300,11.679447265625,0.0137103833258152,-0.014809070155024529,0.047351811081171036
1783169369485396500,11.689396484375,0.020495586097240448,-0.019848568364977837,0.030733153223991394
1783169369495375400,11.699375244140626,0.024054506793618202,-0.02133619412779808,0.009668237529695034
1783169369505324300,11.70932421875,0.025498470291495323,-0.008992708288133144,-0.008709438145160675
1783169369515273200,11.719273193359374,0.02134023979306221,0.0018012570217251778,-0.017027348279953003
1783169369525221400,11.729221435546876,0.01640140637755394,0.012966825626790524,-0.016152232885360718
1783169369535201300,11.739201171875,0.017841830849647522,0.016044188290834427,-0.0039794305339455605
1783169369545149400,11.7491494140625,0.025481373071670532,0.009242210537195206,0.007770969066768885
1783169369555098400,11.759098388671875,0.03681294247508049,-0.0003401525318622589,0.026928162202239037
1783169369565047600,11.769047607421875,0.04485408589243889,-0.004277902655303478,0.04412126541137695
1783169369575026200,11.779026123046876,0.043236978352069855,-0.01158854179084301,0.053995177149772644
1783169369584975400,11.788975341796874,0.03774048388004303,-0.006271806545555592,0.06274738907814026
1783169369594923500,11.798923583984376,0.02620670571923256,0.00325018260627985,0.062800332903862
1783169369604903400,11.8089033203125,0.018792465329170227,-0.0032820189371705055,0.05258045345544815
1783169369614851600,11.8188515625,0.01454305648803711,-0.01545439101755619,0.0347280278801918
1783169369624800500,11.828800537109375,0.01286366581916809,-0.010761900804936886,0.012312468141317368
1783169369634749400,11.83874951171875,0.013666443526744843,-0.0018098850268870592,-0.006619240157306194
1783169369644728300,11.848728271484376,0.020769093185663223,-0.002653840696439147,-0.020660489797592163
1783169369654677500,11.858677490234374,0.03248041495680809,0.0049048722721636295,-0.02299882099032402
1783169369664626400,11.86862646484375,0.03430281579494476,0.005834049079567194,-0.0073642004281282425
1783169369674574300,11.87857421875,0.025716837495565414,-0.003722566645592451,0.010180924087762833
1783169369684554200,11.88855419921875,0.01774546504020691,-0.01954467222094536,0.030667822808027267
1783169369694502400,11.89850244140625,0.014326971024274826,-0.023093778640031815,0.0465109720826149
1783169369704451300,11.908451416015625,0.013399925082921982,-0.02698598802089691,0.05364079028367996
1783169369714430200,11.91843017578125,0.012641862034797668,-0.02216138318181038,0.0476488322019577
1783169369724379400,11.92837939453125,0.015510886907577515,-0.007167253643274307,0.04027986526489258
1783169369734328300,11.938328369140624,0.01996840536594391,0.0015536877326667309,0.020242879167199135
1783169369744276200,11.948276123046876,0.0214264877140522,0.004629106726497412,-0.0005508167669177055
1783169369754256400,11.95825634765625,0.021946528926491737,0.007571225520223379,-0.014887338504195213
