time,seconds_elapsed,z,y,x
1783169698036057600,0.1490576171875,-0.6319581791222095,-1.688132535162568,1.4393578269548712
1783169698046036700,0.15903662109375,-1.155320958968997,-1.6587614792495966,1.4699103477373718
1783169698055985700,0.168985595703125,-2.0365069968938827,-1.456034674859047,1.4081193697348235
1783169698065934600,0.1789345703125,-2.3680209247171877,-0.8401473405718803,1.1982177052788436
1783169698075913700,0.188913818359375,-2.114448314708471,-0.06849310598969459,0.8323517182596027
1783169698085862700,0.198862548828125,-1.4306722700655459,0.6075128891736269,0.2265497246570885
1783169698095810600,0.208810546875,-0.5718786812126636,1.1376952859073877,-0.32077903718873857
1783169698105759700,0.218759765625,-0.03787935653924942,1.453287129716575,-0.6021607144907116
1783169698115738600,0.228738525390625,0.1240846448302269,1.3772747341379523,-0.6566179886043071
1783169698125687600,0.2386875,0.3793897777199745,1.2230799054652453,0.4757737840674817
1783169698135636500,0.248636474609375,0.30351357574164867,1.0060349451258779,0.9761638307362794
1783169698145615600,0.25861572265625,-0.0930576384037733,0.5674152720630169,1.1225859795808792
1783169698155564500,0.268564453125,0.014806523987650871,0.2966901594623923,1.5836181215904652
1783169698165512400,0.278512451171875,0.08673194251358508,0.32379882340133187,1.6602606317661701
1783169698175492900,0.288492919921875,0.05455985770523548,0.4719961652249098,1.4614645909532904
1783169698185440500,0.2984404296875,0.05225567241609096,0.5966556873336434,1.253146688557416
1783169698195389700,0.3083896484375,-0.14241642033457755,0.7034098426565527,1.0143024227336048
1783169698205338600,0.318338623046875,-0.20514847857952118,0.7996136701315641,0.7816983664736151
1783169698215317800,0.32831787109375,-0.025699673923850058,0.9622405193239449,0.5594520380988717
1783169698225266700,0.3382666015625,0.26468846278488634,1.1551634303197265,0.3640606911629438
1783169698235215600,0.348215576171875,0.44918753656744953,1.2528601267009973,0.25588001016825435
1783169698245194800,0.35819482421875,0.5954512799799442,1.1703799964129924,0.30850130102634427
1783169698255143700,0.368143798828125,0.8982453092753887,1.0048553799524902,0.4338645874902606
1783169698265091600,0.378091552734375,0.9769646257251501,0.8661436593547462,0.5710090222386643
1783169698275040500,0.38804052734375,0.9952671751350164,0.7588865229457616,0.7233534372717142
1783169698285019600,0.39801953125,1.013373325189948,0.6576575607851147,0.7945049488157033
1783169698294968600,0.407968505859375,0.9862392345488071,0.5729723216682672,0.8468497608199715
1783169698304917500,0.41791748046875,0.8936614886164664,0.5773901381105184,0.8858268494680523
1783169698314896600,0.427896728515625,0.7445335879445075,0.5822749875426292,0.8708559286989271
1783169698324845600,0.437845458984375,0.6922481049120426,0.4510860636651516,0.8085185688599944
1783169698334793500,0.44779345703125,0.6956196271717549,0.3852461025327444,0.8132610872119664
1783169698344769000,0.45776904296875,0.7217711365163326,0.3918661051943898,0.7963629977725446
1783169698354748000,0.467747802734375,0.7965835086554288,0.31977117532044647,0.7634526618175208
1783169698364697300,0.477697265625,0.7924725662052631,0.17564853558987378,0.7389230545863509
1783169698374646300,0.487646240234375,0.6656921064198017,0.007901274643838406,0.6480540122680366
1783169698384625200,0.497625244140625,0.4964028767287731,-0.17340893996953963,0.5830858655340969
1783169698394574000,0.507573974609375,0.5139151525437832,-0.30116642809361216,0.5378128916122019
1783169698404523000,0.51752294921875,0.481100678178668,-0.3722194476991892,0.5145644102327526
1783169698414471200,0.52747119140625,0.32599954831600186,-0.42053661162257194,0.49970951705873007
1783169698424451000,0.537451171875,0.32408757721483705,-0.435296081598103,0.43213966339379545
1783169698434399200,0.547399169921875,0.33600480950176714,-0.3610287761211395,0.36366876923590896
1783169698444348200,0.55734814453125,0.24329963779747485,-0.3170651312321424,0.2688020355835557
1783169698454327000,0.5673271484375,0.23638357479870317,-0.37446605758219953,0.20696020417660474
1783169698464276000,0.57727587890625,0.2207622272968292,-0.42628859927803275,0.2036870277248323
1783169698474225200,0.58722509765625,0.3252057675898075,-0.4417196849048137,0.26475539054125546
1783169698484173000,0.597173095703125,0.4370031777769327,-0.42777971461862324,0.33618571902662514
1783169698494153000,0.607153076171875,0.41510172709226606,-0.4604807917371392,0.43016368714570996
1783169698504101000,0.61710107421875,0.37041152149438855,-0.5331599512398243,0.5498221860967576
1783169698514050000,0.627050048828125,0.2115600991874933,-0.5425485418319702,0.658318216650933
1783169698524029000,0.63702880859375,0.012715104666352272,-0.5584463681876659,0.670232964719832
1783169698533978000,0.64697802734375,-0.278715819093585,-0.5784896237850189,0.599778495529294
1783169698543927300,0.65692724609375,-0.5092892463088036,-0.5835451536089181,0.45888986928388475
1783169698553906200,0.66690625,-0.5946943241328001,-0.4792272855222225,0.3508428976714611
1783169698563855000,0.676855224609375,-0.8212859882354736,-0.36206864056289195,0.24125249600932
1783169698573804000,0.686803955078125,-0.9350883085042238,-0.3336269744545221,0.15944266619831324
1783169698583752200,0.696752197265625,-0.9189262782543897,-0.2674304549694061,0.07341010412573815
1783169698593732000,0.706732177734375,-0.8833493534386158,-0.1647393113017082,0.0024069150112569332
1783169698603680300,0.71668017578125,-0.8442343176245689,-0.036409283986687656,-0.0829987473346293
1783169698613629200,0.726629150390625,-0.8580331258744001,-0.00046411038041114806,-0.15595438569113612
1783169698623608000,0.736608154296875,-0.8535697167247533,-0.18172551741600035,-0.17621873669326305
1783169698633557000,0.746556884765625,-0.8369809854954481,-0.4962625914752483,-0.22165245413482187
1783169698643506200,0.756506103515625,-1.0351590405404567,-0.6176958450138569,-0.28264512136653064
1783169698653454000,0.7664541015625,-1.285934713307023,-0.548451628395915,-0.3903708982005715
1783169698663434000,0.77643408203125,-1.366277247044444,-0.45778351547718044,-0.40704580987598743
1783169698673382100,0.786382080078125,-1.3953800074100493,-0.37815059131383894,-0.4128384583353996
1783169698683331000,0.7963310546875,-1.6032786614805459,-0.1969914756089449,-0.48575299749653783
1783169698693310000,0.80631005859375,-1.862792351976037,0.11182137558460235,-0.6839616303429007
1783169698703259100,0.816259033203125,-1.803330109182,0.4723205748736858,-1.0216786505900324
1783169698713208300,0.826208251953125,-1.4048621215045451,0.8762041578590869,-1.2465778315611182
1783169698723157200,0.8361572265625,-0.9024322395712137,1.110460072979331,-1.3413864052854478
1783169698733136100,0.84613623046875,-0.39852468630075455,1.0834978317737578,-1.1997487142384051
1783169698743085000,0.8560849609375,-0.050259530162811275,0.9357803824216127,-0.9527497835315764
1783169698753033200,0.866033203125,0.225363583612442,0.8453823186159133,-0.6915199367679655
1783169698763013000,0.87601318359375,0.4564174878209829,0.7900316027939319,-0.4372255883559584
1783169698772961000,0.8859609375,0.5945540388792753,0.71509940366745,-0.2891043805085122
1783169698782910200,0.89591015625,0.7125105562180281,0.678474431103468,-0.2679683612383902
1783169698792859100,0.905859130859375,0.7670704139232635,0.7351900055378675,-0.3902006562002003
1783169698802838000,0.915838134765625,0.740271254324913,0.8723451443433761,-0.5106814313195646
1783169698812787000,0.925786865234375,0.725256056022644,0.9881786781787871,-0.6390794093042612
1783169698822735000,0.935735107421875,0.6771499045014381,1.0660258879691362,-0.7976970228552818
1783169698832715000,0.945715087890625,0.6617775633245706,1.1340607287973166,-0.8204358011469245
1783169698842663200,0.9556630859375,0.621483546859026,1.0848363869011401,-0.7606652230560779
1783169698852612000,0.965612060546875,0.579168253698945,0.9685767366081476,-0.612081804524362
1783169698862591000,0.975591064453125,0.49543257039189337,0.8121069487407803,-0.4733404194407165
1783169698872540000,0.985539794921875,0.4728846384972334,0.6350391940027476,-0.3725276368655264
1783169698882489000,0.995489013671875,0.540344309785962,0.47723757300972935,-0.31250863697156306
1783169698892438300,1.005438232421875,0.6426414857000112,0.36534693158119913,-0.25348127846345303
1783169698902417200,1.015417236328125,0.7260083356946706,0.3203086431980133,-0.22966347276344895
1783169698912366000,1.025365966796875,0.8949971211344003,0.3097928021416068,-0.27103695502877234
1783169698922314200,1.035314208984375,1.0661737720072268,0.30933512150198217,-0.29633652371913194
1783169698932294100,1.045294189453125,1.0704992339909076,0.2792237686157226,-0.28482860288545486
1783169698942242000,1.055241943359375,0.9483154543459414,0.21400866138339042,-0.3263388632729649
1783169698952191200,1.065191162109375,0.8829138846307992,0.1465031051263213,-0.3077671415328979
1783169698962140200,1.07514013671875,0.8006628869235515,0.09237257874906063,-0.2008510736465454
1783169698972119000,1.085119140625,0.6884785232454538,0.004296235889196396,-0.12474996773800812
1783169698982068000,1.09506787109375,0.6045066930949687,-0.11913199085891246,-0.1353026428066194
1783169698992016100,1.10501611328125,0.517913866791129,-0.18257891937494278,-0.1857432286247611
1783169699001996000,1.11499609375,0.4133341328978538,-0.21558862405121326,-0.2793612773902714
1783169699011944000,1.12494384765625,0.44247430266439913,-0.24416239210665225,-0.4149517972275614
1783169699021893000,1.13489306640625,0.47839843348264693,-0.2634007610619068,-0.5009757376022637
1783169699031842300,1.14484228515625,0.3102870153993368,-0.29631109701693054,-0.5241271883480251
1783169699041821000,1.154821044921875,0.05969780511558056,-0.446814377695322,-0.4397844790585339
1783169699051770000,1.16477001953125,-0.04159048601686954,-0.6249567759275436,-0.29019086057096716
1783169699061719300,1.17471923828125,-0.05880582471191883,-0.6842044991880655,-0.19611030886024236
1783169699071698200,1.1846982421875,-0.04906769002974033,-0.6733826609224081,-0.1808731383703649
1783169699081647000,1.194647216796875,-0.07231587914824486,-0.6651911711603403,-0.24278131301179526
1783169699091595300,1.20459521484375,0.0765273593634367,-0.641364305371046,-0.35245267095565797
1783169699101544200,1.214544189453125,0.1826379560858011,-0.5530664287149906,-0.42104105401337144
1783169699111523000,1.224523193359375,0.12906769393980502,-0.4583849885016679,-0.44197629001438615
1783169699121472000,1.234471923828125,0.14802490786612033,-0.4167816430032253,-0.3792772572562098
1783169699131421200,1.244421142578125,0.1737982315480709,-0.4668798451244831,-0.28912819977551696
1783169699141400000,1.254400146484375,0.13330606216192245,-0.5771393782198428,-0.20638868789896367
1783169699151349000,1.264348876953125,0.11177519835531712,-0.6897188786953687,-0.1410099145375192
1783169699161297200,1.274297119140625,0.17504209412932395,-0.7461006911307573,-0.07194617361959535
1783169699171246000,1.28424609375,0.3035159138292074,-0.7188444354146718,-0.05719941242858767
1783169699181225000,1.294224853515625,0.42600949007570743,-0.6599240444123745,-0.07278276600763202
1783169699191174100,1.304174072265625,0.5134194779813289,-0.5613344908446073,-0.13099544713199138
1783169699201123000,1.314123046875,0.73936290730834,-0.42894495900571344,-0.18535422930717468
1783169699211102000,1.32410205078125,1.0097370145142077,-0.2191074458271265,-0.21761282335519788
1783169699221051100,1.334051025390625,1.1802817972242832,-0.05918050324320793,-0.2387836582103744
1783169699231000000,1.344,1.4168530035495757,-0.1855570584028959,-0.11025967922583221
1783169699240948200,1.3539482421875,1.6360340991348028,-0.5596031370073556,0.21966347227469085
1783169699250928000,1.36392822265625,1.2065566406875847,-0.8372539572179317,0.5667661239719018
1783169699260876300,1.373876220703125,-0.32689854298233983,-0.9844786546170711,0.7928558664344251
1783169699270825200,1.3838251953125,-1.9281945062130688,-1.2572358575671911,0.8772719332210719
1783169699280804000,1.39380419921875,-2.6893711859226226,-1.5283102219969034,0.7784583616390824
1783169699290753000,1.4037529296875,-2.9580910961806772,-1.28769353967309,0.5389239215940237
1783169699300702200,1.4137021484375,-3.117866647595167,-0.6290642112463712,0.24186449042782185
1783169699310681000,1.42368115234375,-3.1218764677584168,-0.009230769681930541,-0.08715718218833207
1783169699320630000,1.433630126953125,-2.834695018136501,0.5344751254916191,-0.41400735598430033
1783169699330578200,1.443578125,-2.410812603217363,0.9926245516717433,-0.6471241840720177
1783169699340527000,1.453527099609375,-1.7658254311740398,1.2791390618175267,-0.7177462649144232
1783169699350532900,1.463532958984375,-1.0697913779824972,1.3312702310711144,-0.5396855536162853
1783169699360481800,1.473481689453125,-0.679966130965948,1.1329565669476984,-0.14020079011172054
1783169699370430700,1.4834306640625,-0.331558936008811,0.8544125972896813,0.2789463947127573
1783169699380409600,1.49340966796875,0.028385552006959913,0.6366694255530834,0.6961867595352232
1783169699390358800,1.50335888671875,0.0802875886797905,0.4696352813124656,0.9467956974327564
1783169699400307700,1.5133076171875,0.07637070749700069,0.34925825882852074,1.0654007418081164
1783169699410255600,1.523255615234375,0.12539689647257327,0.25886253311038016,1.0992173789530992
1783169699420235500,1.533235595703125,0.12061083123981951,0.25978607769608497,1.0273324385680258
1783169699430183700,1.54318359375,0.10477905585765838,0.3962994114667177,0.914088921225816
1783169699440132900,1.5531328125,0.15722119075655935,0.5858054997563362,0.7255275664404034
1783169699450111700,1.56311181640625,0.24164953250288962,0.7959814511090516,0.5598907217770814
1783169699460061000,1.57306103515625,0.32544132991135116,0.9287409853041172,0.4175442979387939
1783169699470009900,1.583009765625,0.44330373922586436,0.937950712198019,0.3072100921720266
1783169699479958800,1.592958740234375,0.6577700812488794,0.9175906457364559,0.30607655809745193
1783169699489937700,1.602937744140625,0.8362380581736564,0.8982347878813743,0.3207653009243309
1783169699499885800,1.6128857421875,0.9402472987025976,0.8375526479035615,0.3503749513661489
1783169699509834800,1.622834716796875,1.0993997497826813,0.730852853116393,0.4507733079215511
1783169699519814000,1.63281396484375,1.2922989876419304,0.6791150670945644,0.5688495426498353
1783169699529762800,1.6427626953125,1.4101801016569138,0.6933066740542649,0.6286249430462718
1783169699539711700,1.652711669921875,1.451959388244152,0.6919055750846862,0.636738253005594
1783169699549660700,1.66266064453125,1.545174263036251,0.6481050118029117,0.6736945033505558
1783169699559639800,1.672639892578125,1.6407716490507125,0.5953121637701988,0.7547301339186727
1783169699569588700,1.682588623046875,1.569555255576968,0.5350882889539003,0.812033737374097
1783169699579536600,1.69253662109375,1.4990291824549435,0.4752694878071546,0.8319403609797358
1783169699589516500,1.7025166015625,1.4450351419389247,0.42029578860402106,0.8004749631360173
1783169699599464700,1.712464599609375,1.4007353969633578,0.33739421803355213,0.7645863420225679
1783169699609413600,1.72241357421875,1.3738058889836071,0.22535306221842766,0.8092210180409252
1783169699619362800,1.73236279296875,1.3407716343879699,0.12840367707312106,0.8993854192212224
1783169699629342000,1.742342041015625,1.2744915282726288,0.018318916022777555,0.9486879409201443
1783169699639291000,1.752290771484375,1.1885311546534298,-0.06126315473616123,0.9649183602310717
1783169699649239800,1.76223974609375,1.0644850882679224,-0.09830489140748977,0.9907217867903411
1783169699659218700,1.77221875,0.9178449127584696,-0.11029109727740287,0.9747009185768664
1783169699669166800,1.782166748046875,0.8066302708953619,-0.13090133910775184,0.9370632618390023
1783169699679115800,1.79211572265625,0.6616185733705758,-0.1645610321253538,0.9396092930600046
1783169699689094700,1.8020947265625,0.5024789817720652,-0.17713643606007098,0.980156553634256
1783169699699043800,1.8120439453125,0.33401451246738434,-0.1816314093917608,0.9810039642438292
1783169699708992800,1.82199267578125,0.14630875159800052,-0.22200959700942038,0.8946621900916099
1783169699718941700,1.831941650390625,0.07099719776511192,-0.20485855572223663,0.8250641915999353
1783169699728920600,1.841920654296875,-0.03152677264213562,-0.1738333028614521,0.8581495918609201
1783169699738869800,1.851869873046875,-0.1107119530379772,-0.18989654891192911,0.9580104805387556
1783169699748817700,1.861817626953125,-0.1369032098710537,-0.24912498295009133,1.0411747936986386
1783169699758797600,1.871797607421875,-0.19654899253845215,-0.2883873182803392,1.0813067514702677
1783169699768745700,1.881745849609375,-0.3598725918233394,-0.3297270444065332,1.0791178631238638
1783169699778694700,1.891694580078125,-0.6316542277395725,-0.39948914741873737,1.0268465547472239
1783169699788643800,1.901643798828125,-0.9396762208163738,-0.44292789165079594,0.913938845230639
1783169699798622700,1.911622802734375,-1.251141047823429,-0.40830315299332137,0.7425459212586283
1783169699808572000,1.921572021484375,-1.5034224489778278,-0.30145313608050345,0.6014123803414404
1783169699818520800,1.931520751953125,-1.6650936048805713,-0.17313830633461474,0.45048239868357776
1783169699828499700,1.941499755859375,-1.7362287498116493,-0.08027940537333488,0.2686130888827145
1783169699838448600,1.95144873046875,-1.699410300502181,0.024238369199633597,0.08389101999923586
1783169699848396800,1.961396728515625,-1.6953613173723219,0.07888941231966018,-0.1016622390113771
1783169699858345700,1.971345703125,-1.7079156785190104,0.09366846377849579,-0.1963731975801289
1783169699868324900,1.981324951171875,-1.5719582250654696,0.02049859814941883,-0.22180501434803007
1783169699878273800,1.991273681640625,-1.153401973605156,-0.16917232531309126,-0.1573988854110241
1783169699888222700,2.00122265625,-0.7151970188230276,-0.3165168496996164,0.02429623686671257
1783169699898201600,2.01120166015625,-0.5858651209890842,-0.391858214148879,0.1922679542183876
1783169699908150800,2.02115087890625,-0.6978256127834319,-0.5684440305888653,0.3361220061406493
1783169699918098700,2.0310986328125,-0.8287351351976394,-0.7702069583833218,0.4519657691091299
1783169699928047600,2.041047607421875,-0.9213555512279271,-0.7644213607192039,0.4849873103536665
1783169699938026800,2.05102685546875,-1.1112415787458418,-0.6029121173799038,0.41116804090514775
1783169699947975700,2.0609755859375,-1.2864303878694772,-0.35408290250599384,0.20336729425117372
1783169699957924900,2.0709248046875,-1.1721908452272414,-0.0857680659174919,-0.10463307151570915
1783169699967903700,2.08090380859375,-0.9192804985195397,0.20991525458991525,-0.43127676295414563
1783169699977853000,2.09085302734375,-0.5883773960709572,0.5072112709909677,-0.6778124600633978
1783169699987801900,2.1008017578125,-0.18844576558172701,0.7136684940814971,-0.8142229179814457
1783169699997749800,2.110749755859375,0.16487842751145362,0.7605658543348311,-0.8219890219382942
1783169700007729700,2.120729736328125,0.41176936779916284,0.6819862386167049,-0.7535780412741006
1783169700017677800,2.130677734375,0.5759516297399997,0.5838911905676126,-0.6527858630955219
1783169700027626800,2.140626708984375,0.5761240636974573,0.5298866286575794,-0.5437015112593769
1783169700037606000,2.15060595703125,0.3599731295883655,0.4540770621746778,-0.4750482462719083
1783169700047554800,2.160554931640625,0.10682254438400268,0.415314493060112,-0.5391641600906849
1783169700057503700,2.170503662109375,-0.013718728750944136,0.47864510172009467,-0.6846127877280116
1783169700067482600,2.180482666015625,-0.04146247572302818,0.6160521694600581,-0.8782860786996781
1783169700077431600,2.190431640625,-0.1309814186066389,0.715768681231141,-1.108281559896469
1783169700087379700,2.200379638671875,-0.2381470773398876,0.7309457920968532,-1.2779353851161896
1783169700097328600,2.21032861328125,-0.26452655022144317,0.6475853718429804,-1.4382020810484886
1783169700107307800,2.220307861328125,0.009661562314629554,0.6304717399567366,-1.4175485845983027
1783169700117256700,2.230256591796875,0.3026648499578237,0.6750111389070749,-1.2503341153547167
1783169700127206000,2.240205810546875,0.5199012412160635,0.6524257976114749,-1.0635166816271842
1783169700137184800,2.250184814453125,0.7351829912751913,0.48498950231075283,-0.9146803112477063
1783169700147134000,2.260134033203125,0.9564274491310119,0.30807284648120403,-0.8383215864494442
1783169700157083000,2.270082763671875,1.2262398308008908,0.2724538360893726,-0.7500931217677891
1783169700167030800,2.28003076171875,1.4060025237113236,0.2948492077708244,-0.6325621363647281
1783169700177010700,2.2900107421875,1.5499667580097913,0.28384558319747444,-0.5289993244290352
1783169700186958800,2.299958740234375,1.6149930646717547,0.24797055221796035,-0.4161401302292943
1783169700196907800,2.30990771484375,1.5411825630515812,0.2007072812616825,-0.3622458968259394
1783169700206886700,2.31988671875,1.3503174613684414,0.1710445489257574,-0.45200741629377006
1783169700216835800,2.3298359375,1.1774410208404062,0.06726911715269088,-0.6508985880441963
1783169700226784800,2.33978466796875,1.2169792505025863,0.018043606212735173,-0.7757619621619581
1783169700236732700,2.349732666015625,1.2129554018139839,0.1406184310019016,-0.8371677402392029
1783169700246712600,2.359712646484375,1.1793296110659837,0.197239312890172,-0.8569258952848613
1783169700256660700,2.36966064453125,1.2843635184675455,0.15134966837465763,-0.8164600293837487
1783169700266609700,2.379609619140625,1.219794307923317,0.0625239684522152,-0.7606862658441066
1783169700276588800,2.3895888671875,1.0372253254204988,-0.018159926068782806,-0.7039288980945945
1783169700286537700,2.399537841796875,0.9953624522030353,-0.044535891819000244,-0.6667176500752567
1783169700296487000,2.40948681640625,0.9654308397978544,-0.0760386990636587,-0.6820620803318918
1783169700306435800,2.419435791015625,0.8318950605332851,-0.08307283548414707,-0.707888303244859
1783169700316414700,2.429414794921875,0.7507306890189647,-0.07760930938124656,-0.697388974931836
1783169700326364000,2.439364013671875,0.7642880897283554,0.004322539374232292,-0.6651540540203452
1783169700336311800,2.449311767578125,0.7401625332534313,0.08539163382053375,-0.6615000615574419
1783169700346292500,2.45929248046875,0.7114087324559688,0.11503799954354763,-0.640369302984327
1783169700356240400,2.469240478515625,0.6907032135576009,0.09939502473175525,-0.6125076287209987
1783169700366189600,2.479189453125,0.6296943258434534,-0.007791676789522171,-0.5405871786311268
1783169700376138500,2.489138427734375,0.5647147809326648,-0.11049801802635192,-0.4468731221452355
1783169700386117400,2.499117431640625,0.5699111805319785,-0.19728315203189847,-0.3606467910662293
1783169700396066300,2.50906640625,0.578776624032855,-0.2916255695492029,-0.2117018457457423
1783169700406014500,2.519014404296875,0.43981589711010455,-0.43594636220037936,-0.042712914175540205
1783169700415994400,2.528994384765625,0.25947394300699234,-0.610226239785552,0.14277473225295542
1783169700425942500,2.538942626953125,0.05902151328921318,-0.7006541142076254,0.23762612220570445
1783169700435891500,2.548891357421875,-0.19490180985331534,-0.733667326015234,0.22974486743658779
1783169700445840600,2.558840576171875,-0.4233446547806263,-0.7268079616397619,0.22591332644969223
1783169700455819500,2.568819580078125,-0.6409744292706251,-0.676571812352538,0.19434432210102676
1783169700465768400,2.5787685546875,-0.7868909666806458,-0.5832803651928902,0.07893252080902456
1783169700475717600,2.588717529296875,-0.7520031931728124,-0.4947451726496219,0.016104016452282665
1783169700485696500,2.598696533203125,-0.6874404123693704,-0.5243570515811443,0.09556070726588368
1783169700495645400,2.6086455078125,-0.3587807049334049,-0.8550894736379384,0.396771559023112
1783169700505593600,2.618593505859375,-0.04190671235918998,-1.2377327001959084,0.8650824598640203
1783169700515573500,2.628573486328125,-0.24603578476309776,-1.3683487926214932,1.1738520564377308
1783169700525521400,2.638521484375,-0.5764917279660702,-1.4651789353013038,1.3172482815898954
1783169700535470600,2.648470703125,-0.9980576826363802,-1.5632587857812643,1.3215626376576721
1783169700545419500,2.65841943359375,-1.888969580283761,-1.4308207386255263,1.1196389663435518
1783169700555398400,2.6683984375,-2.7222680778741837,-1.0727578265726565,0.7613098045699298
1783169700565347300,2.678347412109375,-2.897766099077463,-0.546232198780775,0.3870905613556504
1783169700575295500,2.68829541015625,-2.666275557017326,0.027034137398004532,-0.008758841321244836
1783169700585275400,2.698275390625,-1.999776810389757,0.5428776276558638,-0.356004006761685
1783169700595223600,2.7082236328125,-1.0876409229278563,0.996165000757575,-0.4757602669987827
1783169700605172500,2.71817236328125,-0.3479617892771959,1.2545675151407718,-0.30393611200265586
1783169700615121700,2.72812158203125,0.007860650372505187,1.2122060447514056,0.12564707184135912
1783169700625100300,2.738100341796875,0.14576163910925388,0.87282269872725,0.5421276860713958
1783169700635049500,2.748049560546875,0.43038288285434245,0.48648354026079177,0.967791577579826
1783169700644998700,2.75799853515625,0.4942699563533067,0.23727380163669584,1.3112078323818743
1783169700654977500,2.7679775390625,0.4410936619609594,0.17483809598982333,1.4966725363261997
1783169700664926500,2.777926513671875,0.5014700969904661,0.22916999015808104,1.5328705156497657
1783169700674874600,2.78787451171875,0.5205255105942488,0.36313247040212154,1.4434355977877973
1783169700684823600,2.797823486328125,0.43957390504777427,0.5523281775683164,1.2254765913434327
1783169700694802400,2.807802490234375,0.3342144189536571,0.7626222023427486,0.9923099327646195
1783169700704751600,2.817751708984375,0.24673370389938354,0.9072054453223943,0.7530844125382602
1783169700714700500,2.827700439453125,0.20120997008681296,1.0291033937633036,0.47689606609567997
1783169700724679400,2.837679443359375,0.21040449941158293,1.0447750101476907,0.31333690448924895
1783169700734628400,2.84762841796875,0.23261750026345251,0.9597183073699473,0.26323957915082574
1783169700744576500,2.857576416015625,0.327039997279644,0.9171879101544618,0.27280834861546754
1783169700754525400,2.867525390625,0.524859155884385,0.9241595027327537,0.3012864012114703
1783169700764504300,2.87750439453125,0.7193605682432651,0.9141314451932907,0.3910552272029221
1783169700774453500,2.88745361328125,0.7534691740721464,0.8916571630567312,0.5084709156632423
1783169700784402700,2.897402587890625,0.7884569008231163,0.8433569502681493,0.5827971117205918
1783169700794381300,2.90738134765625,0.8057026346564292,0.8166817093104124,0.6230008195541799
1783169700804330500,2.91733056640625,0.8412871582567691,0.8066536517709493,0.6198756732709706
1783169700814279700,2.92727978515625,0.8848457294762134,0.7930641023576259,0.6076350542485713
1783169700824227600,2.9372275390625,0.8933090219169855,0.745977941533923,0.6144011873826384
1783169700834207500,2.94720751953125,0.9291706088930368,0.6497317362219095,0.6279968742758035
1783169700844155600,2.95715576171875,1.0013912109732628,0.522087937605381,0.6488435552105307
1783169700854104600,2.9671044921875,1.018099184668064,0.38137072240412234,0.6337703431107103
1783169700864083500,2.97708349609375,1.0202847120136023,0.253859025734663,0.5610821235187351
1783169700874032400,2.987032470703125,1.0362444976896048,0.17022446471452712,0.4665624497383833
1783169700883981600,2.996981689453125,1.0258335783123969,0.10655074170529842,0.4332379800245166
1783169700893960400,3.00696044921875,1.0426941122204065,0.008228899163007735,0.43357831789478657
1783169700903909400,3.016909423828125,0.9939712901055813,-0.10068564906418323,0.3908098741397261
1783169700913857500,3.026857421875,0.8848205950349569,-0.1576291870355606,0.30555779492035506
1783169700923806500,3.036806396484375,0.8369073357373475,-0.15902151817679405,0.19682327943518757
1783169700933785300,3.046785400390625,0.7869763068765402,-0.15924889719188212,0.1722659074142575
1783169700943734500,3.056734619140625,0.6443804383218288,-0.17752923476994037,0.20465908762738108
1783169700953683500,3.066683349609375,0.5281804092615843,-0.22907880474328993,0.21424203174784778
1783169700963662300,3.076662353515625,0.47752983395457266,-0.23762276120483874,0.25990473563969135
1783169700973611500,3.086611572265625,0.4286819241553545,-0.2300041028946638,0.340761794770509
1783169700983560400,3.096560546875,0.35846506311297416,-0.2924947535991669,0.472377127366513
1783169700993508600,3.106508544921875,0.2288449959874153,-0.4103378736913204,0.6004506957024336
1783169701003488500,3.116488525390625,-0.010837035834789276,-0.5221434671849012,0.65224386517331
1783169701013436700,3.126436767578125,-0.32410628191530705,-0.5871341180115938,0.6156197693921626
1783169701023385600,3.136385498046875,-0.6382511417865753,-0.5477753365695476,0.507234213475138
1783169701033364500,3.146364501953125,-1.0098819759428501,-0.4731897589236498,0.3938688233189285
1783169701043313400,3.1563134765625,-1.391992118537426,-0.4393512022078037,0.2717255218148231
1783169701053262600,3.1662626953125,-1.683043103069067,-0.42695700005888937,0.15749854639321564
1783169701063210500,3.17621044921875,-1.8795020792365074,-0.31551556370258327,-0.007494593539088964
1783169701073190400,3.1861904296875,-1.9665449873954057,-0.14149346027076243,-0.18024360829517244
1783169701083138600,3.196138671875,-1.9075006777524948,-0.02562427060008049,-0.2992329758130014
1783169701093087500,3.20608740234375,-1.5508108076184988,-0.11861644255220889,-0.2958734362520277
1783169701103066400,3.21606640625,-1.0857470720052718,-0.3875894507884979,-0.11691519159227609
1783169701113015300,3.226015380859375,-0.9796551799833774,-0.59590662253201,0.08401082872031256
1783169701122964500,3.235964599609375,-1.097777701538801,-0.7591144864827394,0.1983006585113704
1783169701132913700,3.24591357421875,-1.252782385289669,-0.9061328476548194,0.22695216797813772
1783169701142892500,3.255892578125,-1.4414011693507431,-0.89816815238595,0.19380904618054628
1783169701152841500,3.265841552734375,-1.7419225775390863,-0.6726397336006165,0.0728204676695168
1783169701162789600,3.27578955078125,-2.0887679300069806,-0.34844869601130485,-0.14633870834484697
1783169701172769500,3.28576953125,-2.124143194770813,-0.01769873829782009,-0.5834652202405035
1783169701182717400,3.295717529296875,-1.8261469211459158,0.35944998249709603,-0.9856875920154153
1783169701192666600,3.30566650390625,-1.4988094022244214,0.7650339396595954,-1.237390462629497
1783169701202615600,3.315615478515625,-1.1702683527320623,1.0374047736406327,-1.3504304202236235
1783169701212594400,3.325594482421875,-0.7271347093760967,1.0928361534833908,-1.3921882256314158
1783169701222543400,3.33554345703125,-0.36979134376943107,0.9838403567135333,-1.2744789610520004
1783169701232491500,3.345491455078125,-0.3403723570615053,0.7849877634078264,-1.0214153234787284
1783169701242471400,3.355471435546875,-0.40005262652039525,0.5153828870087862,-0.811563051122427
1783169701252419600,3.365419677734375,-0.3794061443328857,0.3124848177045583,-0.6849366128548979
1783169701262368500,3.375368408203125,-0.2973310877144337,0.3727700673192739,-0.7698596062503754
1783169701272347400,3.385347412109375,-0.2822399015665054,0.583118452629447,-1.0661132739916444
1783169701282296300,3.39529638671875,-0.18084288936257362,0.7351052498638629,-1.2816269331105052
1783169701292245500,3.40524560546875,-0.07112813066840172,0.8726905967801809,-1.40027932375893
1783169701302194700,3.415194580078125,-0.005199322208762168,0.9618062195599079,-1.5148220871314406
1783169701312173600,3.425173583984375,0.23584581466019153,0.9971785617142915,-1.5933151936098933
1783169701322122500,3.43512255859375,0.6711117933809757,1.0740659865617752,-1.4873250083968041
1783169701332070700,3.445070556640625,1.055162548649311,1.141674710932374,-1.2484317888647316
1783169701342050600,3.455050537109375,1.3750456599116325,1.1105313846498728,-0.9835431273326277
1783169701352025600,3.465025634765625,1.6826573186218738,0.9869213715940713,-0.7446257962726056
1783169701361974800,3.474974853515625,1.9473001886993646,0.8754682447999715,-0.5891827211044729
1783169701371923700,3.484923828125,2.0896505580604074,0.8324135314494371,-0.5319200341813266
1783169701381902600,3.494902587890625,2.118400851726532,0.7641711853504181,-0.5048075708501041
1783169701391851800,3.504851806640625,2.109837021520734,0.6701987701892852,-0.4441064339108765
1783169701401799700,3.514799560546875,2.0445956108033654,0.6472919418543577,-0.38099019865393635
1783169701411779600,3.524779541015625,1.955406338265538,0.6586988865315914,-0.40038200460523365
1783169701421727700,3.534727783203125,1.8281845644533634,0.6161053609520196,-0.48818332991600033
1783169701431676700,3.5446767578125,1.7266659716963766,0.5522913526892662,-0.5378894639797508
1783169701441625600,3.55462548828125,1.6136457417160273,0.495295207747817,-0.5714240693129599
1783169701451604500,3.5646044921875,1.4944798485875128,0.41359541418254375,-0.5978321837671101
1783169701461553700,3.5745537109375,1.4190969830840825,0.28983751708865163,-0.5919102463722229
1783169701471502600,3.584502685546875,1.3966075033783911,0.16492051308751104,-0.5670826791077852
1783169701481481500,3.5944814453125,1.2870377061128615,0.08563245683908462,-0.54946328965649
1783169701491430400,3.604430419921875,1.0702665942788123,0.006530278551578521,-0.5623652951970696
1783169701501378600,3.614378662109375,0.935895533233881,-0.05979483574926853,-0.6082422263614833
1783169701511327500,3.624327392578125,0.8903834898591041,-0.059765609654784196,-0.5501537561386823
1783169701521306600,3.634306640625,0.7773749503165484,-0.05421265170276165,-0.4432911720052361
1783169701531255800,3.644255859375,0.6548895573765039,-0.08686404446065425,-0.3610543489538133
1783169701541204700,3.654204833984375,0.5697329013556242,-0.15134733028709887,-0.2901196402319707
1783169701551183600,3.66418359375,0.4230734366238117,-0.24507249268889425,-0.23000702550411223
1783169701561132500,3.674132568359375,0.2393897708773613,-0.34377895063459873,-0.11659962283708154
1783169701571080700,3.684080810546875,0.1295090079665184,-0.436025272655487,-0.013015256656706333
1783169701581029600,3.694029541015625,0.024704233145713805,-0.5115034152269363,0.051283831709250806
1783169701591008800,3.7040087890625,-0.10551964509189128,-0.6040057578355074,0.06431888904497027
1783169701600957700,3.713957763671875,-0.21832184840738772,-0.6782032129466533,0.06677051998078823
1783169701610906600,3.72390673828125,-0.4257353493094444,-0.7590735699504614,0.12196275730542838
1783169701620885500,3.733885498046875,-0.6371545787215233,-0.9065899437725543,0.203433929746598
1783169701630834700,3.743834716796875,-0.8481213881909847,-1.0101035097390412,0.22378639742359518
1783169701640783600,3.75378369140625,-0.9960761534303426,-1.0059364531874657,0.1687242892846465
1783169701650762500,3.763762451171875,-1.136374266436696,-0.9932552507907152,0.1541133244017139
1783169701660711400,3.77371142578125,-1.2226309926539658,-1.0004746806502343,0.18586400546021759
1783169701670659600,3.78365966796875,-1.129286938524246,-1.0267910251677035,0.27316373792439697
1783169701680608500,3.7936083984375,-0.8116881388068199,-1.2332020710289477,0.5380992708055302
1783169701690587600,3.803587646484375,-0.47857086744010446,-1.600796197015047,0.9306852512396872
1783169701700536800,3.813536865234375,-0.4660030622899532,-1.8551374533087015,1.1746304934643208
1783169701710485800,3.82348583984375,-0.7597112833321094,-1.8864894539058208,1.1767251276560127
1783169701720464600,3.833464599609375,-1.3715186548292637,-1.8024673548728227,1.0525593804135918
1783169701730413600,3.84341357421875,-2.215170204129815,-1.809919424444437,0.8329806638129055
1783169701740361700,3.85336181640625,-2.705517434081435,-1.7174147437483072,0.6258462721131741
1783169701750310700,3.863310546875,-2.655328046545386,-1.2829606659322976,0.3877129310376942
1783169701760289800,3.873289794921875,-2.568189861318469,-0.6243102947175503,0.10243380790576338
1783169701770238700,3.88323876953125,-2.2728426408976317,0.06286006853878498,-0.19887728935554622
1783169701780187600,3.893187744140625,-1.6597756247282027,0.6483043337672948,-0.430611138652265
1783169701790166500,3.90316650390625,-0.9740513686269521,1.0277589934170246,-0.44810953207239507
1783169701800115700,3.91311572265625,-0.43375498963594433,1.0478735606849192,-0.19496186947748065
1783169701810064600,3.923064697265625,-0.02034136176109314,0.8519804017066955,0.2087050020173192
1783169701820012500,3.933012451171875,0.34677404079735275,0.6559247456431389,0.6398807888150215
1783169701829992400,3.942992431640625,0.5784387703806162,0.4263672174721956,1.0951254334643483
1783169701839940600,3.952940673828125,0.626162644585967,0.26930618571341036,1.496276522745937
1783169701849889500,3.9628896484375,0.586408141824603,0.2845721439063549,1.6926101189680396
1783169701859868400,3.972868408203125,0.47726270745098587,0.38613632937073705,1.632931018552929
1783169701869817900,3.98281787109375,0.30204174962341784,0.514790181812644,1.408966195822507
1783169701879766800,3.992766845703125,0.16009762297570704,0.7108557747483253,1.1689115312956273
1783169701889715700,4.0027158203125,0.15311258639395237,0.9924924497246742,0.9777335642710328
1783169701899694600,4.012694580078125,0.11541443164050579,1.2517314149320125,0.8131032663017511
1783169701909642800,4.022642822265625,0.10734978312849998,1.3577309524953365,0.6975967724636196
1783169701919591700,4.032591796875,0.22714871346354484,1.3675970974713563,0.7330727211229503
1783169701929570600,4.042570556640625,0.31990415405035016,1.3285825994223355,0.8502893798798322
1783169701939519700,4.052519775390625,0.4574029917269945,1.268660922423005,0.9839232126913964
1783169701949468700,4.06246875,0.668869567412138,1.2538853780955075,1.048961355921626
1783169701959417600,4.07241748046875,0.8893523932456969,1.271788699054718,1.0989378313593565
1783169701969396500,4.082396484375,1.085192945253849,1.2759990102261305,1.1919548454917968
1783169701979345700,4.092345703125,1.2539490909814834,1.2080898416042327,1.2294196298807858
1783169701989293600,4.10229345703125,1.3717624004572628,1.145445461642742,1.2557080634780227
1783169701999273500,4.1122734375,1.4736802216649054,1.1040215643644333,1.305129243120551
1783169702009221600,4.1222216796875,1.522269772788882,1.0844546941071749,1.302475952132791
1783169702019170600,4.132170654296875,1.4895640194952486,0.9963052860110998,1.2235600901976227
1783169702029149400,4.1421494140625,1.4432406597375869,0.8514017250359058,1.1577554926395415
1783169702039098600,4.1520986328125,1.4477642746418713,0.7320920395225287,1.1520793466992676
1783169702049047800,4.1620478515625,1.3866472503781317,0.5985632745206356,1.1584412829466164
1783169702058996700,4.171996826171875,1.3114099308252334,0.44156420208215713,1.1775269455581903
1783169702068975600,4.1819755859375,1.2119231361567973,0.3108662765920162,1.13920159881711
1783169702078923800,4.191923828125,1.0812754795491695,0.19741525397896764,1.030416668318957
1783169702088872700,4.201872802734375,0.9499205514550209,0.055313890942931175,0.9392650096669792
1783169702098851600,4.2118515625,0.8003770557194948,-0.0608417144536972,0.9005511019997298
1783169702108800800,4.22180078125,0.6143026954442262,-0.133077514103055,0.8232895831428467
1783169702118749700,4.231749755859375,0.4352046039223671,-0.19864684160053728,0.72588821644634
1783169702128698600,4.24169873046875,0.29171383235454557,-0.25768238341510297,0.6287082374155522
1783169702138677500,4.251677490234375,0.2403518939077854,-0.26784780359864235,0.5822713342808187
1783169702148626700,4.261626708984375,0.2641758370876312,-0.2723725875467062,0.5690804287962615
1783169702158574600,4.27157470703125,0.21667817285358904,-0.2937941457599401,0.6049873162187636
1783169702168554500,4.281554443359375,0.0730763421267271,-0.3230547270357609,0.6355778309240937
1783169702178502700,4.291502685546875,-0.09935293915569782,-0.38496436298191544,0.5987168576471508
1783169702188451600,4.30145166015625,-0.27646014912128447,-0.43805999335348605,0.5548566731326282
1783169702198400500,4.311400390625,-0.5364169072091579,-0.4870581252783537,0.48452451514750716
1783169702208379400,4.32137939453125,-0.7713251487582922,-0.5833621982574463,0.3967800345905125
1783169702218328800,4.331328857421875,-0.8742834189295768,-0.6183253750890493,0.3250673820324242
1783169702228277800,4.34127783203125,-0.9796265384107827,-0.5494219347327948,0.25576807422637937
1783169702238256600,4.351256591796875,-1.0101239680051803,-0.49518590215444563,0.10566782139092683
1783169702248205600,4.36120556640625,-0.9399211354881525,-0.4307178138971329,-0.07511617739126086
1783169702258153700,4.37115380859375,-1.079256540942192,-0.39420039336085316,-0.21070245944485066
1783169702268102700,4.3811025390625,-1.185328559219837,-0.4304530254811048,-0.3027487288489938
1783169702278081500,4.39108154296875,-1.0733043545395136,-0.4620388348340988,-0.3408775301046669
1783169702288030700,4.40103076171875,-0.9067255528509617,-0.564839284095168,-0.2646010767623782
1783169702297979600,4.410979736328125,-0.7344084997713566,-0.8108277225852012,-0.18668986182510852
1783169702307958500,4.42095849609375,-0.5947720655441284,-0.9757026429653167,-0.14712094476372004
1783169702317907500,4.430907470703125,-0.7071428917050361,-0.9810451730370521,-0.09622136313170195
1783169702327855600,4.440855712890625,-1.0871049163550137,-1.0126835893601178,-0.09829670810103416
1783169702337804500,4.450804443359375,-1.592390772241354,-1.1563327663600445,-0.08781813031509518
1783169702347783700,4.46078369140625,-2.172166344183683,-1.1356944674789904,-0.10627499350383877
1783169702357752800,4.4707529296875,-2.6152970649302003,-0.8153378934860229,-0.3103117114491761
1783169702367701800,4.48070166015625,-2.7699486974596974,-0.3321422888547182,-0.7389775612525642
1783169702377681000,4.490680908203125,-2.6926819179058072,0.21761106978952882,-1.2344497330024837
1783169702387629800,4.5006298828125,-2.4189608383595944,0.7743588173657655,-1.675268815805763
1783169702397579000,4.5105791015625,-1.9412047944337127,1.207484861448407,-1.9857203741170464
1783169702407527000,4.52052685546875,-1.3502666079640389,1.4394231472760437,-1.989773302769661
1783169702417506800,4.5305068359375,-0.7858698069393635,1.4296265604048966,-1.7381792993575333
1783169702427455000,4.540455078125,-0.41201252890527246,1.3801169718265534,-1.4529470841072498
1783169702437404000,4.55040380859375,-0.24425650013089178,1.3738894756138325,-1.2261011529825627
1783169702447383000,4.560383056640625,-0.052912090498209,1.2356126393020153,-1.0847886022366582
1783169702457332000,4.57033203125,0.15395838956832886,1.077436339777708,-1.0485910613045095
1783169702467281000,4.580281005859375,0.39980946541428564,1.0650292781472206,-1.0671791496574878
1783169702477259800,4.590259765625,0.5962853927165269,1.2320067237645387,-1.0979577342808247
1783169702487209000,4.600208984375,0.7105921553760767,1.3903016812324522,-1.1380170652076602
1783169702497156900,4.610156982421875,0.8083072641968727,1.408025553971529,-1.1560451815903185
1783169702507105800,4.620105712890625,0.8773860611200333,1.3941560185730457,-1.149254644667357
1783169702517085000,4.6300849609375,0.8931167142152786,1.3234113342642784,-1.2116278064720332
1783169702527033900,4.640033935546875,0.9070411946713924,1.2526426845580338,-1.2245426714941858
1783169702536982800,4.649982666015625,0.9476514374792575,1.2089227852970361,-1.1302696659512816
1783169702546961700,4.659961669921875,0.957846668279171,1.1071727218717335,-1.0289343208067119
1783169702556910800,4.669910888671875,1.0119020835936068,0.9573474865853786,-0.9724690678715705
1783169702566860000,4.679860107421875,1.0741022269189358,0.8314315346747636,-0.9879828633457421
1783169702576808000,4.689807861328125,1.168325401970744,0.7859189067780971,-1.029709689093381
1783169702586787800,4.699787841796875,1.2866139277428388,0.7789619272470474,-0.9847929812632501
1783169702596736000,4.709736083984375,1.3579109852373599,0.739812404641509,-0.8947074905380606
1783169702606685000,4.719684814453125,1.3673615351498125,0.6325251653552055,-0.8324455340228974
1783169702616663800,4.729663818359375,1.3893050714105366,0.5244277787297964,-0.7892696785107255
1783169702626613000,4.739613037109375,1.4564187057405709,0.48880818381607527,-0.7258205580376088
1783169702636562000,4.74956201171875,1.4871084430366754,0.4620429264873266,-0.6989604620322585
1783169702646509800,4.759509765625,1.501495864829421,0.39996962441205974,-0.6536584081463516
1783169702656489700,4.76948974609375,1.5337439374834299,0.33059096775949,-0.5878583406329154
1783169702666438000,4.77943798828125,1.6220342153549194,0.2513461661309004,-0.5294035213157534
1783169702676386800,4.78938671875,1.6660224101632832,0.16362170544862747,-0.47338016692921514
1783169702686366000,4.799365966796875,1.6594962232649326,0.09674304891824721,-0.3985008670337498
1783169702696315000,4.80931494140625,1.6293389854103326,0.013962474378943442,-0.27347163482978937
1783169702706263800,4.819263916015625,1.5919845295280217,-0.054982467031478875,-0.17296601850762963
1783169702716212700,4.829212646484375,1.4920377161324023,-0.13918050715327263,-0.11764788978099823
1783169702726191900,4.83919189453125,1.402150524458289,-0.2462082187205553,-0.05334302926138043
1783169702736141000,4.84914111328125,1.3597639196276663,-0.30588088939487934,0.02215790966376662
1783169702746089000,4.8590888671875,1.370721366971731,-0.3635013037145138,0.07691738159433006
1783169702756068900,4.86906884765625,1.3147872983038424,-0.39213469300270076,0.09216971312072128
1783169702766017000,4.87901708984375,1.2296353184580802,-0.4236614656448364,0.07179580079689621
1783169702775966000,4.888966064453125,1.1952402969032525,-0.4878448917418718,0.05096139482185244
1783169702785915000,4.898914794921875,1.1191811395734548,-0.5587877289712428,0.07109594543185084
1783169702795894000,4.90889404296875,0.9408967025220394,-0.6265045898914336,0.04339958126544952
1783169702805843000,4.918843017578125,0.6535352201581001,-0.6755541597425937,-0.06085267423912882
1783169702815790800,4.928790771484375,0.2924181812316179,-0.681540248414874,-0.16531404244974254
1783169702825770800,4.938770751953125,-0.10182020605206489,-0.6781529440641403,-0.16745171206556259
1783169702835719000,4.948718994140625,-0.5456412471503019,-0.6868143894255161,-0.12450135413864627
1783169702845667800,4.958667724609375,-0.9196762198388576,-0.6750573161363601,-0.13313649601498617
1783169702855647000,4.96864697265625,-1.149242515838146,-0.5682885477662086,-0.15956249318569898
1783169702865596000,4.978595947265625,-1.2613356941014529,-0.3935334538847208,-0.0966734177481383
1783169702875544800,4.988544921875,-1.0438888749629258,-0.38156361462771893,0.11072773512899875
1783169702885493800,4.99849365234375,-0.5884943004488945,-0.6777098764717578,0.5132561771783978
1783169702895472600,5.00847265625,-0.655193508759141,-0.9417845912724733,0.9044582655061035
1783169702905422000,5.018422119140625,-1.0968524033874272,-1.1057669467270375,1.272682579154521
1783169702915369700,5.02836962890625,-1.5224135651737452,-1.3726970509588718,1.5559773966014385
1783169702925350000,5.038349853515625,-2.0493296535879373,-1.5730454357802868,1.676912345229089
1783169702935298000,5.048298095703125,-2.6814094132632014,-1.4200228657573462,1.5638824706375598
1783169702945247000,5.0582470703125,-3.056384297150373,-0.9822177239477634,1.2251660640895365
1783169702955196000,5.06819580078125,-3.0212007555663583,-0.5252420177221298,0.8361307253416627
1783169702965175000,5.078175048828125,-2.7874948755443096,-0.10588672483861446,0.4783907616328448
1783169702975124000,5.0881240234375,-2.31732592574656,0.30544015989005563,0.14544219789654014
1783169702985071900,5.09807177734375,-1.5088953274309633,0.6705319476664066,-0.010307605133205652
1783169702995051800,5.1080517578125,-0.7237754620760679,0.8504629828810691,0.1579600994903594
1783169703005000000,5.118,-0.3290051598727703,0.787519327712059,0.5372955166745931
1783169703014948900,5.127948974609375,-0.11292027673721312,0.606000146523118,0.8966733107183128
1783169703024897800,5.137897705078125,0.17197569229602813,0.4543628933787346,1.253560091663897
1783169703034877000,5.147876953125,0.3265823166400194,0.3775724991649389,1.6230106591716407
1783169703044825900,5.157825927734375,0.324867329415679,0.36020810738801956,1.830730741804838
1783169703054774800,5.16777490234375,0.2749146732449531,0.4151946660727262,1.836900078089535
1783169703064753700,5.177753662109375,0.15631518182754517,0.5359685789197683,1.6815706924289464
1783169703074703000,5.187703125,0.000018704700469970702,0.6551701278835534,1.4595605108976364
1783169703084650800,5.197650634765625,-0.14176760103702543,0.7276210315883159,1.2648568539649248
1783169703094600000,5.207599853515625,-0.17520751382410527,0.7977905463576317,1.141116054136306
1783169703104579000,5.2175791015625,-0.21350188090503214,0.8363590542048215,1.0196941987745463
1783169703114528000,5.227528076171875,-0.2411363222837448,0.8580413091808557,0.8958486233972013
1783169703124477000,5.237476806640625,-0.200956287586689,0.8876286381930112,0.8191619818188249
1783169703134455800,5.247455810546875,-0.13609306253194808,0.940641850978136,0.732534084201604
1783169703144405000,5.257405029296875,-0.0337234059035778,0.95163787676692,0.6580509440168738
1783169703154353000,5.267352783203125,0.12217267372906207,0.9879276260271668,0.6536553394064307
1783169703164301800,5.2773017578125,0.23848785360157487,1.0408198427811264,0.7130106146946549
1783169703174281000,5.287281005859375,0.3711988724797964,1.054209777969122,0.774328129966557
1783169703184230000,5.29722998046875,0.47559389745593067,1.061609532831609,0.8515079618893563
1783169703194178800,5.3071787109375,0.5463596245527267,1.0536588660880923,0.8330851471006869
1783169703204158000,5.317157958984375,0.6874106017529964,1.0376493960514663,0.7767829757727682
1783169703214107000,5.32710693359375,0.8906278200089931,1.0318044694155455,0.7520666137978435
1783169703224055800,5.337055908203125,1.0149480271607636,1.0030945077598095,0.80591569288522
1783169703234034700,5.34703466796875,1.1280179415017366,0.9394964803352951,0.8558915838010609
1783169703243984000,5.35698388671875,1.2549538841098546,0.9139221863567829,0.8622561503969133
1783169703253931800,5.366931884765625,1.2503490206629038,0.9448962935522198,0.814470463001728
1783169703263881000,5.376880859375,1.2202747849166393,0.9844687177449464,0.7616726465329527
1783169703273860000,5.386860107421875,1.2172475460499523,1.0295441232681273,0.7362953364312649
1783169703283809000,5.39680908203125,1.1038947231143712,1.0485942761749028,0.7197988135300576
1783169703293758000,5.406758056640625,0.9516232637196779,0.9828148130580783,0.7758372193552553
1783169703303736800,5.41673681640625,0.825915986123681,0.8390817571669816,0.752641783337295
1783169703313686000,5.42668603515625,0.7514093189328909,0.72971157412678,0.653752516170591
1783169703323634000,5.436634033203125,0.6909113033503294,0.630416794899106,0.5289040473610163
1783169703333582800,5.446582763671875,0.5987795476198196,0.43014176757484673,0.4675111287653446
1783169703343562000,5.45656201171875,0.4827075288534164,0.15361469069719313,0.48488151189163325
1783169703353556200,5.46655615234375,0.403880075854063,-0.07485007380098103,0.5022403507106006
1783169703363505200,5.476505126953125,0.39310383029580115,-0.2589578101783991,0.5447321694813668
1783169703373484000,5.486484130859375,0.3372217840760946,-0.47199879557341334,0.6058776891872286
1783169703383433200,5.49643310546875,0.1949777976989746,-0.7274263857990503,0.6823929197214543
1783169703393382100,5.506382080078125,-0.030810148805379866,-0.9296081235274672,0.7566725001581013
1783169703403330000,5.516330078125,-0.34207857645750045,-1.0269149438083172,0.765852708696574
1783169703413310000,5.52631005859375,-0.6290741481184959,-1.0425447668775916,0.6838086317382752
1783169703423258000,5.536258056640625,-0.9246668677330017,-1.0485171192854643,0.5378093844808638
1783169703433207300,5.546207275390625,-1.2838725200802088,-1.0523714566260576,0.3976698230370879
1783169703443186000,5.55618603515625,-1.6430688200771808,-1.0228004942268132,0.2560322781205177
1783169703453135400,5.56613525390625,-1.9053321015417575,-0.9912988560259341,0.02815978042706847
1783169703463084300,5.576084228515625,-2.1206828251838683,-0.9064169252932072,-0.17370806904658675
1783169703473032200,5.5860322265625,-2.1217191824942825,-0.828674344921112,-0.324390797945112
1783169703483012000,5.59601220703125,-1.92451844804883,-0.8844874175578356,-0.42180137086138125
1783169703492960300,5.605960205078125,-1.574637673407793,-1.0288935504049062,-0.3614190906129777
1783169703502909200,5.6159091796875,-1.3938970753759146,-1.067391331103444,-0.17878274196237326
1783169703512888300,5.625888427734375,-1.4802636917084455,-1.1060457636684178,-0.006010492461174726
1783169703522837200,5.635837158203125,-1.5416279687315224,-1.2188275087177753,0.06983765246644616
1783169703532786200,5.6457861328125,-1.626574196872115,-1.2147872934162616,0.050965340344607826
1783169703542735000,5.655735107421875,-1.8486697185993193,-0.9979577293932437,-0.010509119054675102
1783169703552714000,5.6657138671875,-2.046037041783333,-0.6647369976520537,-0.20219605851471423
1783169703562663200,5.6756630859375,-2.102363909161091,-0.3417933297753334,-0.5123410350948572
1783169703572611000,5.685611083984375,-1.9439783508002757,-0.014151274949312209,-0.8317378241449594
1783169703582591000,5.695591064453125,-1.5283084684312342,0.36884850996136664,-1.07217330468297
1783169703592539100,5.7055390625,-1.0733008474081753,0.6915022549808025,-1.1413969169043003
1783169703602488000,5.715488037109375,-0.6393126335382461,0.8495505442112684,-1.033969684625417
1783169703612467000,5.725467041015625,-0.2448965516000986,0.8828723835766314,-0.8639804899714887
1783169703622416400,5.73541650390625,-0.014935703325271606,0.8819190283745527,-0.7047723631814122
1783169703632365300,5.745365234375,0.12794132025837898,0.9028519262880086,-0.6008345804534853
1783169703642313200,5.755313232421875,0.16592004551887513,0.9728180274397135,-0.5674118014642968
1783169703652293000,5.765293212890625,0.0942255131393671,1.0517676455140113,-0.6192803377263247
1783169703662241300,5.7752412109375,0.04787994154989719,1.174280510982871,-0.7709263586990535
1783169703672190200,5.785190185546875,0.09958674791157245,1.2874895415335892,-0.9763497086971997
1783169703682169000,5.795169189453125,0.14307050032913685,1.4143448201209305,-1.121865410221368
1783169703692118300,5.8051181640625,0.20062194106578826,1.4803104534596203,-1.2067124157711864
1783169703702067200,5.815067138671875,0.38033845674693584,1.429223240301013,-1.260852294498682
1783169703712016100,5.82501611328125,0.6108130997627973,1.3834773881703615,-1.2822916806295512
1783169703721995000,5.8349951171875,0.8778910880327224,1.4047808729618787,-1.2652670422010124
1783169703731944200,5.844944091796875,1.156305293831229,1.3910831869989633,-1.2332710446119308
1783169703741892000,5.85489208984375,1.4230021738290786,1.3118594281584024,-1.142011541671306
1783169703751872000,5.8648720703125,1.669596176996827,1.2083020230501889,-1.0001331737361847
1783169703761820200,5.874820068359375,1.8757085321724414,1.1552356187731028,-0.8035523247547447
1783169703771769000,5.88476904296875,1.9876713620543478,1.1078560279607772,-0.604423252595216
1783169703781718300,5.89471826171875,1.998109753960371,1.0116443094402552,-0.4655126484245062
1783169703791697200,5.904697265625,1.885586367586255,0.8855424795687198,-0.3615282500758767
1783169703801646300,5.914646240234375,1.7687118002653122,0.7602250780731439,-0.24579540013596415
1783169703811594200,5.92459423828125,1.6989479436874388,0.655838820925355,-0.16259426209703087
1783169703821574100,5.93457421875,1.592801106607914,0.55366439460814,-0.12957535120099783
1783169703831522300,5.944522216796875,1.4561059865295887,0.4268547087281942,-0.1565469447568059
1783169703841471200,5.95447119140625,1.3633207353264092,0.33935645801723,-0.23397918053809552
1783169703851420200,5.964420166015625,1.241407589316368,0.29218787960708137,-0.2869539244763553
1783169703861399300,5.9743994140625,1.0984896492004395,0.24925942298471926,-0.3350429787322879
1783169703871348200,5.98434814453125,1.061426869741082,0.204214412599802,-0.3566659412691369
1783169703881297200,5.994297119140625,1.1141232716619969,0.20936346592605112,-0.317722426097095
1783169703891276000,6.004276123046875,1.0849719959795474,0.20715806483626364,-0.2045567962966859
1783169703901225200,6.01422509765625,0.935369463533163,0.09944354004859923,-0.09753916773200035
1783169703911173000,6.024173095703125,0.7795435265272855,-0.031152678632736203,-0.05193334512654692
1783169703921122000,6.0341220703125,0.6570102027922868,-0.09778174431622028,-0.010742635549604891
1783169703931101200,6.04410107421875,0.5448737699091434,-0.12041676997244358,0.05597761554867029
1783169703941050000,6.054050048828125,0.4593102866530418,-0.13376257375776768,0.14144845208525658
1783169703950999300,6.063999267578125,0.42093525555133815,-0.18250643866062163,0.19732699117362498
1783169703960978200,6.073978271484375,0.3660539108067751,-0.26184242570400235,0.19309855982363222
1783169703970927400,6.08392724609375,0.38371114805042744,-0.3554559444248676,0.22023440403044223
1783169703980875300,6.093875244140625,0.41001112595498557,-0.45934828057587146,0.2939902163213119
1783169703990855200,6.103855224609375,0.3496352754473686,-0.5695090294718742,0.3756441614508629
1783169704000803300,6.11380322265625,0.24998013847470282,-0.7108452533543109,0.41544133431017394
1783169704010752300,6.123752197265625,0.10017068527936934,-0.8268751865446567,0.4265530954331159
1783169704020701200,6.133701171875,-0.11333061110377311,-0.9010276334702968,0.46071328531876204
1783169704030680000,6.14368017578125,-0.3093102793216705,-0.9783446819067001,0.4606716381341219
1783169704040629200,6.153629150390625,-0.5177426018774509,-1.0359054749935865,0.42839433938562865
1783169704050578200,6.163578125,-0.7406997088700532,-1.0365174694120884,0.3877373348265886
1783169704060557000,6.17355712890625,-0.837193751463294,-0.9825473942935466,0.3445446743100881
1783169704070506000,6.183506103515625,-0.9274614668875932,-0.899967895284295,0.2801698172941804
1783169704080454100,6.1934541015625,-0.9902817879378795,-0.8281383383482694,0.22841522626802324
1783169704090403000,6.203403076171875,-0.8601625391185284,-0.7999152834266424,0.23350100509971378
1783169704100382200,6.21338232421875,-0.5290870027124881,-0.9278881678670644,0.44529827404394745
1783169704110331100,6.2233310546875,-0.2668032629817724,-1.2706763538986443,0.820223911961913
1783169704120280300,6.2332802734375,-0.40759062080979347,-1.4804741195887325,1.0638763087198138
1783169704130259200,6.24325927734375,-0.682400080114603,-1.4289520221441983,1.2426065898425875
1783169704140208000,6.2532080078125,-1.023211413115263,-1.4238696043133734,1.3406263806983827
1783169704150156300,6.26315625,-1.6319868695706128,-1.465659412294626,1.3424834067419171
1783169704160105200,6.273105224609375,-2.284433125448227,-1.2370260132312774,1.2703110277175902
1783169704170084400,6.28308447265625,-2.5439339564621446,-0.7547948697179555,0.9604881226986646
1783169704180033300,6.293033203125,-2.444489247369766,-0.18089023563563822,0.56576808937788
1783169704189982200,6.302982177734375,-1.9444670111000537,0.36533962505757805,0.3212470930919051
1783169704199961000,6.312961181640625,-1.2087357382923365,0.8210749758332967,0.2061136520835571
1783169704209910300,6.32291015625,-0.444641709831357,1.0381401021778582,0.3795547590233385
1783169704219859200,6.332859130859375,0.05275134697854519,0.9909650940269231,0.7826151890575885
1783169704229807000,6.34280712890625,0.24481296496987343,0.7949719818055629,1.217217297042161
1783169704239787000,6.352787109375,0.3828963245362043,0.5494955844908952,1.552050578546524
1783169704249735200,6.362735107421875,0.43068332710564133,0.38080782782435413,1.817545389278233
1783169704259684000,6.37268408203125,0.44540217280983924,0.3015092501819134,1.989445093728602
1783169704269663000,6.3826630859375,0.4600824400693178,0.36263854940533635,1.9816323741510509
1783169704279612200,6.392612060546875,0.39258360581398005,0.5363958644211292,1.7992426937378942
1783169704289561300,6.402561279296875,0.23231471792459488,0.7381950325727462,1.5650924309492111
1783169704299510300,6.41251025390625,0.21211071880757806,0.85570205257833,1.2165988728828727
1783169704309489200,6.4224892578125,0.1395604463815689,0.9071931703627109,0.874065830656141
1783169704319437300,6.432437255859375,-0.010399228939414024,0.8759434610962867,0.6661509561032056
1783169704329386200,6.44238623046875,0.06736673230826855,0.7376146023362875,0.5741261678785086
1783169704339365000,6.452365234375,0.13297580729424952,0.5575391902148723,0.5352390956014395
1783169704349314300,6.462314208984375,0.049693712973594664,0.3255617414206266,0.5229926313601434
1783169704359285000,6.472284912109375,-0.17382161242365837,0.16401099702715874,0.5049067934408784
1783169704369234200,6.482234130859375,-0.37751404697597024,0.11861819611787795,0.4242909957200289
1783169704379213000,6.492213134765625,-0.29684885715544224,0.18822072465419767,0.20584420575872062
1783169704389162000,6.502161865234375,-0.1961544402629137,0.34813773036599155,-0.007643208229541778
1783169704399110100,6.512110107421875,0.013314824125170707,0.4419669376641512,-0.20300576746240256
1783169704409090000,6.522090087890625,0.29145313559174535,0.4643079488098621,-0.32331440088525415
1783169704419038000,6.532037841796875,0.49218204416334627,0.4401397222369909,-0.21942557186558842
1783169704428987100,6.541987060546875,0.5784919618725777,0.36190614347755906,-0.04146890546381473
1783169704438966000,6.551966064453125,0.6953864029377699,0.2635883925884962,0.06893427388593554
1783169704448915000,6.5619150390625,0.9432195925116539,0.21372692183256148,0.13273235392719507
1783169704458864000,6.571864013671875,1.1655530146479607,0.24743805277645586,0.17067220848202705
1783169704468813000,6.58181298828125,1.2145897250175475,0.2822264575630426,0.2653270529493689
1783169704478792200,6.591792236328125,1.253287412202358,0.2180442005097866,0.2739015506796539
1783169704488741000,6.6017412109375,1.2609446489572524,0.1428536427080631,0.2320563592493534
1783169704498689300,6.611689208984375,1.206000760370493,0.12698270435929299,0.22762553719505665
1783169704508668200,6.621668212890625,1.1945651741206644,0.15458616607785225,0.24772826789468524
1783169704518617000,6.6316171875,1.1402046383798121,0.1484054316163063,0.26111922599598764
1783169704528566000,6.64156591796875,0.9741671039611101,0.10332125826478004,0.23506211693659423
1783169704538515200,6.65151513671875,0.820145586028695,0.04948679222464561,0.20894728634059428
1783169704548494000,6.661494140625,0.715112263149023,0.03597030804753303,0.18112609021812676
1783169704558443000,6.671443115234375,0.6679167967319488,0.04860474869310855,0.19331658648848532
1783169704568391200,6.68139111328125,0.6547960338741541,0.08418167350888252,0.2478516020134091
1783169704578371000,6.69137109375,0.4906640408158302,0.11632628578841686,0.2897489620223641
1783169704588319000,6.701319091796875,0.3626677754998207,0.07182312719523906,0.32301702537387605
1783169704598268200,6.71126806640625,0.20289163956344128,0.03512450487315655,0.3841122761972248
1783169704608217000,6.721217041015625,-0.04022328931689262,-0.006285363879799843,0.45840471611544487
1783169704618196000,6.731196044921875,-0.27510522738099097,-0.0651373658210039,0.5295239328250289
1783169704628145200,6.741145263671875,-0.5695698197484016,-0.13640753530859948,0.5793136535190045
1783169704638094000,6.751093994140625,-0.8344833234608173,-0.21732231597602367,0.5711290318891405
1783169704648073200,6.7610732421875,-1.0607768813997507,-0.2806283747166395,0.5180893694885075
1783169704658022100,6.771022216796875,-1.154078849953413,-0.24810966842770574,0.43138928341791033
1783169704667970300,6.78097021484375,-1.1786422133237122,-0.13810031070113182,0.3197327430061996
1783169704677919200,6.790919189453125,-1.2545710222721098,-0.06064239248931408,0.16177987697422502
1783169704687898000,6.800898193359375,-1.1841069084703921,-0.15451485440731047,0.034805794312804936
1783169704697847000,6.810846923828125,-0.8194330538451671,-0.39939971556961534,0.08858896855711937
1783169704707796200,6.820796142578125,-0.47024084599018096,-0.5172393285304308,0.28655352698192
1783169704717775000,6.830775146484375,-0.26046236952245233,-0.5509820236563682,0.4995946585074067
1783169704727724000,6.84072412109375,-0.2446691725850105,-0.6984545583367348,0.6461231903359294
1783169704737672200,6.850672119140625,-0.5942103400081395,-0.8601023333638906,0.6823005652628839
1783169704747621000,6.86062109375,-1.0172621493220328,-0.8749275620520114,0.5912910915605724
1783169704757600000,6.87060009765625,-1.6030612193375824,-0.687968820157647,0.40761166359782214
1783169704767549000,6.880548828125,-2.207184466072917,-0.42318508030474183,-0.06243512112498283
1783169704777498000,6.890498046875,-2.259076565873623,-0.1362052907347679,-0.6789449712246656
1783169704787477000,6.90047705078125,-2.120706206059456,0.23043723361492155,-1.2195640062987805
1783169704797426200,6.91042626953125,-1.9316975458979606,0.6673194153606892,-1.6793215983279048
1783169704807375000,6.920375,-1.3345154966026544,1.1294073500335216,-1.9222617551632224
1783169704817354200,6.930354248046875,-0.6878636062175035,1.4244015192329882,-1.8535602671198546
1783169704827303200,6.94030322265625,-0.2376549099087715,1.394284028866887,-1.4479561439521609
1783169704837251000,6.9502509765625,-0.03139934687018394,1.0944067638009787,-1.0373464675821362
1783169704847200300,6.9602001953125,0.19382512053251266,0.7600409536778926,-0.6914231983952224
1783169704857179100,6.97017919921875,0.4484446092456579,0.6431318995654582,-0.4407715903997421
1783169704867128000,6.980128173828125,0.46970542393922804,0.7035387297332286,-0.35539077023416754
1783169704877077000,6.990076904296875,0.4417074099451303,0.7529454424589872,-0.4377595491021871
1783169704887056100,7.00005615234375,0.4422328951239586,0.7912626058936119,-0.5405072452627122
1783169704897005000,7.010005126953125,0.4163362373232841,0.8829448642909526,-0.7028193294174969
1783169704906953200,7.019953125,0.4307949707865715,0.9362854093343019,-0.8947703266412019
1783169704916902100,7.029902099609375,0.533555672559142,0.8706658129543066,-0.9745382753610611
1783169704926881000,7.039881103515625,0.6941296808749436,0.8178232805609703,-0.9410711823061108
1783169704936830000,7.049829833984375,0.848169318985939,0.8327472934484481,-0.8520141578458249
1783169704946779100,7.059779052734375,1.0918629245370626,0.8315484390527009,-0.7679539187595248
1783169704956758000,7.069758056640625,1.3014075922489166,0.7618857047617436,-0.6348840034410357
1783169704966707200,7.079707275390625,1.4132161083519459,0.6274404094368219,-0.47909196870476006
1783169704976656100,7.08965625,1.4425275430321693,0.5183277082890272,-0.38354777418226
1783169704986604300,7.099604248046875,1.3575690399318934,0.49142859544754025,-0.387695541511476
1783169704996584200,7.109584228515625,1.249054304677248,0.4652110351294279,-0.39117110866755245
1783169705006532000,7.119531982421875,1.115745319905877,0.42433483486175533,-0.3630827860414982
1783169705016481300,7.129481201171875,1.0440934576243162,0.4287865535736084,-0.3488777350783348
1783169705026460200,7.139460205078125,0.9585399112403392,0.45001405051946636,-0.383808032553643
1783169705036409000,7.1494091796875,0.8976455898165703,0.40948622529804707,-0.4193618687547743
1783169705046358000,7.15935791015625,0.8638812673807144,0.3632476212143898,-0.4763995147503912
1783169705056306200,7.16930615234375,0.8274655536532401,0.3500438562482595,-0.5485138799771666
1783169705066286000,7.1792861328125,0.8097031024694442,0.32353520402908326,-0.5874949141480028
1783169705076234000,7.18923388671875,0.8485369832545518,0.2967360444307327,-0.6178627260133623
1783169705086183200,7.19918310546875,0.8874199638783932,0.27974750022888184,-0.6264176422603428
1783169705096162000,7.209162109375,0.8614853121548891,0.2564601481437683,-0.6229384218424558
1783169705106111000,7.219111083984375,0.7627852839499711,0.183701201403141,-0.6066475045159458
1783169705116060000,7.229059814453125,0.6987737072885036,0.10295125590860843,-0.5915728311114012
1783169705126009300,7.23900927734375,0.6573346124410628,0.0796422765135765,-0.5798148810394108
1783169705135988000,7.248988037109375,0.6499181987047195,0.03213642897307872,-0.5567588534921407
1783169705145937200,7.258937255859375,0.6800234141111373,-0.03972352310121059,-0.4767470130138099
1783169705155885300,7.26888525390625,0.6655746175199747,-0.1404489196538925,-0.3737337977848947
1783169705165865200,7.278865234375,0.6819084972053766,-0.28156360974013805,-0.23151700994195415
1783169705175813000,7.288813232421875,0.6221797124296427,-0.4573807798951864,-0.05917977259084582
1783169705185762000,7.298761962890625,0.5288111083805561,-0.6236936241239309,0.08430062371343373
1783169705195741200,7.3087412109375,0.4803752865135669,-0.7405851425796747,0.1684630079999566
1783169705205690000,7.318690185546875,0.3489993156313896,-0.7668500491708516,0.19039222347438334
1783169705215639000,7.32863916015625,0.19120529342293738,-0.79883800958395,0.2180287106797099
1783169705225587200,7.338587158203125,0.08606558755934238,-0.8339455633223056,0.1980873080216348
1783169705235567000,7.348567138671875,0.03561374969482422,-0.8220552190423012,0.16323997612204402
1783169705245515000,7.358514892578125,-0.09845335996747016,-0.8239104915201664,0.1629123881354928
1783169705255464200,7.368464111328125,-0.32397885614335536,-0.8616109843611717,0.09868435571175067
1783169705265443000,7.378443115234375,-0.4727092819303274,-0.9036755176305771,0.054157377851568156
1783169705275392000,7.38839208984375,-0.5329278960496187,-0.8812339687198399,0.06415127739310264
1783169705285341000,7.3983408203125,-0.39245384195446964,-0.9630711249291897,0.16328487470969558
1783169705295290000,7.4082900390625,0.10667816747725009,-1.3764794921070336,0.5103092370063066
1783169705305269000,7.41826904296875,0.357678296649456,-1.5840046366900205,0.9205803290717304
1783169705315218200,7.42821826171875,0.017778233274817465,-1.5507237138569354,1.2272538301490246
1783169705325166300,7.438166259765625,-0.5275087936103343,-1.742860735172033,1.448858938010782
1783169705335146200,7.448146240234375,-1.3646014227867125,-2.0346067162305115,1.478543443787098
1783169705345094100,7.45809423828125,-2.447694765412807,-2.041740805894136,1.4128997358791529
1783169705355068200,7.468068115234375,-3.1856898914992806,-1.6974007142454384,1.1322991259522734
1783169705365017000,7.47801708984375,-3.210387694904208,-1.0439660318523645,0.67402724243626
1783169705374996200,7.487996337890625,-2.799524336034059,-0.32133740172386166,0.2752308995872736
1783169705384945200,7.497945068359375,-1.9343343241423367,0.3573912964016199,-0.10016732427850365
1783169705394893000,7.50789306640625,-0.9699678987056016,1.0056699112057685,-0.2314123622573912
1783169705404873200,7.517873291015625,-0.3235211755037308,1.2798843272268772,0.06615545682236552
1783169705414821000,7.527821044921875,-0.04932078800797462,1.0518196679621934,0.5998486381560564
1783169705424770300,7.537770263671875,0.09955343016386031,0.6767401546567678,1.1518617584258317
1783169705434719200,7.54771923828125,0.21963176196217535,0.4219540772050619,1.7245450340196489
1783169705444698400,7.557698486328125,0.18451953204870222,0.32896424334049224,2.204074517358839
1783169705454647300,7.567647216796875,0.024976620346307755,0.2943219690263271,2.473252985039353
1783169705464596200,7.57759619140625,-0.2219651733458042,0.3493476906776428,2.4556711511194704
1783169705474575400,7.587575439453125,-0.5238619615405797,0.6045645607620478,2.1627681089803574
1783169705484524300,7.597524169921875,-0.7510293797045946,0.9084154056340455,1.7516802937045692
1783169705494472200,7.60747216796875,-0.876918443608284,1.1182646092504263,1.3499718628011643
1783169705504421000,7.617421142578125,-1.0039461561530827,1.1867922020316124,0.9564635433577
1783169705514400300,7.627400146484375,-0.9186381089627742,1.1954764437466858,0.7566106869682669
1783169705524349200,7.63734912109375,-0.569061870226264,1.2442302455216645,0.675991966637969
1783169705534298000,7.647298095703125,-0.13995382961332797,1.2933715853095054,0.6681693101882934
1783169705544277200,7.65727734375,0.28012393232584,1.3143506604522466,0.72585562935099
1783169705554226200,7.66722607421875,0.632968232947588,1.2320113999396562,0.8226284888856112
1783169705564174000,7.677174072265625,0.7389367908507585,1.1262485937416553,0.9431165705285965
1783169705574154200,7.687154296875,0.7115840890228748,1.124669215595722,1.013623500558734
1783169705584102100,7.69710205078125,0.792400085490942,1.1423784752875565,1.075509755629301
1783169705594051000,7.707051025390625,0.9100772013664246,1.1633657337367533,1.0322959061942993
1783169705604000300,7.717000244140625,0.959198667410016,1.210329144963622,1.0186521423757076
1783169705613979400,7.7269794921875,0.956762964695692,1.1824942125767468,1.0570658980526029
1783169705623928300,7.73692822265625,0.9515683186620474,1.0766028115630148,1.100136101233214
1783169705633877200,7.746877197265625,0.9723661920189857,1.009706619375944,1.1650262142948806
1783169705643856400,7.7568564453125,0.9429553886175155,0.9520382742613553,1.1935576045133174
1783169705653805300,7.766805419921875,0.9006552930265664,0.8501789052426815,1.2098496908836065
1783169705663753200,7.776753173828125,0.868671424266696,0.7172749941408634,1.1528848178632556
1783169705673702100,7.7867021484375,0.8076619520306587,0.6234241595327854,0.9972110026791691
1783169705683681300,7.796681396484375,0.713612964501977,0.5713491043806076,0.8173394425667821
1783169705693630200,7.806630126953125,0.6466817010015249,0.5316004468381405,0.7135720479696989
1783169705703579100,7.8165791015625,0.5250339279294014,0.526989153650403,0.6605741788841784
1783169705713558300,7.826558349609375,0.3697077571392059,0.5662281081050634,0.5303963317453861
1783169705723507200,7.836507080078125,0.3387327731609344,0.6081500180333852,0.37567265689298507
1783169705733455000,7.846455078125,0.25323709444403647,0.5941635782569646,0.2722694194331765
1783169705743404000,7.856404052734375,0.14769231491088866,0.5491477939665317,0.2358214108712971
1783169705753383200,7.866383056640625,0.16115151594281196,0.44804245818555355,0.2404261281877756
1783169705763332000,7.87633203125,0.17472937491834162,0.33555355860292907,0.22832433311417696
1783169705773281300,7.88628125,0.20003566561043262,0.26381226447224615,0.2455716743826866
1783169705783260400,7.896260498046875,0.18275836759507655,0.1777671351790428,0.25182547408044337
1783169705793209300,7.906209228515625,0.04693301608860492,0.05410977585017681,0.2107900098641403
1783169705803158300,7.916158203125,-0.1111789860278368,-0.025586861199140547,0.20128829602003095
1783169705813106200,7.926106201171875,-0.36470015811026096,-0.04017302043437958,0.1985962804570794
1783169705823086300,7.93608642578125,-0.6489531530648469,-0.018490765458345413,0.08539850195273757
1783169705833034200,7.9460341796875,-0.8227303418248891,0.016004793861508368,-0.09468962351977825
1783169705842983200,7.955983154296875,-0.906433876428008,0.10802958208620547,-0.2895133997008204
1783169705852962300,7.96596240234375,-0.939429552578926,0.2196469595313072,-0.456842398702167
1783169705862911200,7.9759111328125,-0.9256915346056223,0.24519816489517687,-0.6197317347556353
1783169705872860200,7.985860107421875,-0.8678273746579885,0.2026993318617344,-0.7380050629585981
1783169705882808300,7.995808349609375,-0.5793026937335729,0.1509539470553398,-0.8528520699746907
1783169705892788200,8.005788330078126,-0.24383564437031743,0.11362930178940296,-0.8159304525516927
1783169705902736100,8.015736083984375,-0.19176409634947775,0.12805647107064724,-0.5985146130733192
1783169705912685000,8.02568505859375,-0.34410920550227164,-0.04665419914722442,-0.3589145604461431
1783169705922664200,8.035664306640625,-0.4405407042533159,-0.40614159104526043,-0.2507215679591521
1783169705932613000,8.045613037109375,-0.5523129799991846,-0.5649947669178247,-0.2486008129455149
1783169705942562300,8.055562255859375,-0.8516758658021688,-0.482324082493782,-0.33646059044525023
1783169705952541400,8.06554150390625,-1.132795238906145,-0.27075755356550213,-0.5170432214364409
1783169705962490400,8.075490478515626,-1.2293781288266181,-0.04130757742226124,-0.7583607455059885
1783169705972439300,8.085439208984376,-1.112341648942232,0.18739362618029118,-1.012651002264768
1783169705982387200,8.09538720703125,-0.8894798190176486,0.4133475769013166,-1.207338584845513
1783169705992367400,8.105367431640625,-0.5763426748842001,0.6177426067650318,-1.2696385352835058
1783169706002315300,8.115315185546875,-0.27857787192761896,0.7432265969991684,-1.1596017050281167
1783169706012264200,8.12526416015625,-0.1462397780150175,0.7100888820290565,-0.9605896833769977
1783169706022243300,8.135243408203126,-0.01143500172793865,0.6345820978850126,-0.7230719899818301
1783169706032192300,8.145192138671876,0.18426468050479888,0.5582873782336711,-0.5257509901575744
1783169706042141200,8.15514111328125,0.2992646861255169,0.5270218868762254,-0.3582169335708022
1783169706052089000,8.165089111328125,0.25400983238220215,0.5428899026155471,-0.2579806357093155
1783169706062069200,8.1750693359375,0.17077391529083252,0.586300005275011,-0.25252880004420875
1783169706072017200,8.18501708984375,0.09973638551533222,0.6074719726413488,-0.3033848347954452
1783169706081966000,8.194966064453125,0.017434534403681753,0.6077566348016261,-0.3883284325875342
1783169706091945200,8.2049453125,-0.0941162075459957,0.580046790099144,-0.4837424248591065
1783169706101894100,8.21489404296875,-0.1629874991983175,0.48460488690733905,-0.5143921224057674
1783169706111843300,8.22484326171875,-0.22093933742940425,0.36928690137863157,-0.522874996329844
1783169706121792300,8.234792236328126,-0.21135493200421332,0.2637462134987116,-0.5702737302340567
1783169706131771400,8.244771484375,-0.12078560328483581,0.21303367887139318,-0.5108741774126887
1783169706141720300,8.25472021484375,0.0251227508187294,0.1624614294975996,-0.43290377963408827
1783169706151668200,8.264668212890625,0.2040051537632942,0.10472995601892471,-0.34715734102651474
1783169706161648400,8.2746484375,0.3649848202705383,0.024481530305743217,-0.23353096184656022
1783169706171596300,8.28459619140625,0.4507049553930759,-0.033977672925591465,-0.12065141897853464
1783169706181545200,8.294545166015626,0.47297757747769353,-0.07614566656947136,-0.04135079550947994
1783169706191494100,8.304494140625,0.476962263199687,-0.0980249054223299,0.0013800561815500258
1783169706201473300,8.314473388671875,0.5005868844151496,-0.10278291360437869,0.024030279406905174
1783169706211422200,8.324422119140625,0.538386161455512,-0.1176180791646242,0.04096972377002239
1783169706221370000,8.3343701171875,0.6147217976391315,-0.140414432862401,0.05283507973924279
1783169706231350300,8.344350341796876,0.6892880860626697,-0.17650106076598165,0.06500730970054865
1783169706241298200,8.354298095703125,0.7697054386019706,-0.22743629823327063,0.0033098552003502845
1783169706251247000,8.3642470703125,0.9319634544819593,-0.2508206809520721,-0.04305778209045529
1783169706261196000,8.374196044921876,1.004320834684372,-0.25927637460827824,-0.0426696595557034
1783169706271175200,8.384175048828125,1.1048580151885747,-0.3106611094087362,0.048588382080197334
1783169706281124400,8.394124267578125,1.1713853740632534,-0.36896190720796584,0.13189197584660722
1783169706291073300,8.4040732421875,1.1692010157614945,-0.3950152168750763,0.15778671568483113
1783169706301052400,8.414052490234376,1.1418261021018028,-0.39215456674695015,0.17481018506959078
1783169706311001300,8.42400146484375,1.1146201152682305,-0.4020142819821834,0.17567936911955476
1783169706320949200,8.43394921875,1.0870341892063617,-0.38725568878948685,0.1426468680895865
1783169706330929200,8.44392919921875,1.047766008657217,-0.35536826614141465,0.13629209223538635
1783169706340877300,8.453877197265625,1.0470429550796747,-0.374983651715517,0.1590785090610385
1783169706350826200,8.463826171875,1.106013614964485,-0.4315688777685165,0.216341634375602
1783169706360791600,8.47379150390625,1.082552075356245,-0.48365445431470866,0.2571940153762698
1783169706370770400,8.4837705078125,1.010301662659645,-0.5637088187605143,0.28492300317063923
1783169706380719400,8.49371923828125,0.9524994620323181,-0.6466922223955393,0.33119843213334677
1783169706390667500,8.50366748046875,0.8412918344318866,-0.7161077039271593,0.40946605929285285
1783169706400647400,8.5136474609375,0.6736287446379661,-0.7598673506766557,0.4154201453916728
1783169706410595300,8.52359521484375,0.48891398227810856,-0.8139344564288854,0.3288374020904302
1783169706420544500,8.53354443359375,0.253907541051507,-0.7919733845114707,0.26049904827103015
1783169706430493400,8.543493408203124,-0.0230792622923851,-0.7611369322210549,0.19413082548081873
1783169706440472300,8.553472412109375,-0.1915963385671377,-0.7383844176650047,0.09792261409163475
1783169706450421200,8.563421142578125,-0.30756080530583857,-0.6880868935793638,0.0030323534332215786
1783169706460370200,8.5733701171875,-0.3875988031387329,-0.6348813730925321,0.007024044284736737
1783169706470349300,8.583349365234374,-0.1383195064097643,-0.8662444893807172,0.23510347186028957
1783169706480298200,8.59329833984375,0.2812935606271028,-1.3504963250666855,0.7979936677142977
1783169706490246400,8.603246337890624,0.12896364904344082,-1.511273747000098,1.282320322202146
1783169706500195300,8.6131953125,-0.3959767553836107,-1.3801526276618241,1.4091735549628734
1783169706510174200,8.62317431640625,-1.1583499514013529,-1.3494810105443,1.3465823664933443
1783169706520123400,8.633123291015625,-1.9410341140419243,-1.3441723827421665,1.1313342264428734
1783169706530072600,8.643072509765625,-2.2589093926131723,-1.0163403583019972,0.8255887999959289
1783169706540051500,8.653051513671874,-2.3648522315531966,-0.5208727165967225,0.49316097219809885
1783169706550000400,8.66300048828125,-2.134035058709979,-0.02037175689935684,0.20114318846091628
1783169706559948500,8.672948486328124,-1.8133166656672954,0.5284422750681639,-0.14235095388293265
1783169706569897500,8.6828974609375,-1.2866653656691311,0.914845146420598,-0.44789472027793525
1783169706579876400,8.69287646484375,-0.6718529671370983,1.0843442194700241,-0.4199491671234369
1783169706589825300,8.7028251953125,-0.34090602554678917,0.955315688496828,-0.12212269710749386
1783169706599774500,8.7127744140625,-0.3722305536150932,0.6261579684108496,0.30626345897167917
1783169706609753300,8.72275341796875,-0.41059330975711344,0.35926644262373447,0.7480918649479746
1783169706619702300,8.732702392578124,-0.41344811466634274,0.2731435719192028,1.1570587425470351
1783169706629651200,8.742651123046874,-0.46769583768248557,0.3720440911322832,1.3213951721362769
1783169706639599400,8.752599365234374,-0.5040238731265068,0.5403758739680051,1.2980815165661275
1783169706649579300,8.762579345703125,-0.68430795956254,0.6445669008046389,1.1506187726274133
1783169706659527400,8.77252734375,-1.0816086570262908,0.7233896776288747,0.9766361244231462
1783169706669476400,8.782476318359375,-1.3723340628653764,0.832909790533781,0.6948077262669802
1783169706679455200,8.792455322265624,-1.3719739973813294,0.940613793927431,0.4599367479883134
1783169706689404200,8.802404052734374,-1.302311263090372,1.0835253043025732,0.3301251403460279
1783169706699353300,8.812353271484374,-1.1186685138761996,1.2122609898090362,0.27146584796532985
1783169706709332500,8.82233251953125,-0.7106646360903978,1.2515356000989675,0.2748845703676343
1783169706719281400,8.832281494140625,-0.2280266653418541,1.24256026648283,0.3450850647971034
1783169706729230300,8.842230224609375,0.1916922001570463,1.2445423802107571,0.4343186148680746
1783169706739178500,8.852178466796875,0.5215612833827734,1.2146417474657296,0.5247706008180976
1783169706749157400,8.862157470703124,0.8052858705490827,1.1305068357080221,0.617704905103147
1783169706759106300,8.872106201171874,1.0660510224103927,1.0475321999013423,0.6585971797227859
1783169706769055500,8.882055419921874,1.2206751824110746,0.9972516269505023,0.7020208725161851
1783169706779034400,8.892034423828125,1.2268097396433353,0.9408744906902312,0.7048252624124288
1783169706788983300,8.9019833984375,1.2716776398956775,0.8664671922206878,0.6750903416231274
1783169706798932200,8.91193212890625,1.3303525317043066,0.8124111923843622,0.6501385634571314
1783169706808880400,8.92188037109375,1.3295353701025248,0.7443272517174482,0.6042617784231901
1783169706818860300,8.9318603515625,1.3865338531315325,0.6142226159453391,0.5487761841751635
1783169706828808200,8.94180810546875,1.4963199234962463,0.48975978545248505,0.5358151419237256
1783169706838757400,8.95175732421875,1.5582617081463337,0.41483460058867927,0.5946285654202104
1783169706848736300,8.961736328125,1.514084712767601,0.33879707056879993,0.6584431582048536
1783169706858685200,8.971685302734375,1.3129507305264472,0.23944120880365372,0.699147801297903
1783169706868634400,8.98163427734375,1.1501736592084169,0.18188626093566418,0.6858667333118618
1783169706878583600,8.99158349609375,1.0301906044781208,0.2261474274665117,0.6077605803243815
1783169706888562400,9.0015625,0.9036731795430183,0.2882306664139032,0.5294983599923551
1783169706898511400,9.011511474609375,0.8077227423071861,0.3217085731238127,0.5258426139637827
1783169706908459500,9.02145947265625,0.7067880869179963,0.344834012645483,0.5418271687548607
1783169706918438400,9.0314384765625,0.6057499711543322,0.34851766959428787,0.5883138293154537
1783169706928387300,9.04138720703125,0.5293862779200077,0.31859599406123157,0.6376094828821718
1783169706938336300,9.051336181640625,0.48292204838693137,0.2702589563935995,0.6736145699821412
1783169706948285400,9.061285400390625,0.4534200595706701,0.23180559935867784,0.7147802547156811
1783169706958264300,9.071264404296874,0.4322276339381933,0.2147767231464386,0.7564699633233248
1783169706968213200,9.081213134765624,0.4223533056557178,0.09600187516212463,0.7627550349421799
1783169706978161400,9.091161376953124,0.38698213254511354,-0.000526069700717926,0.7363520350545645
1783169706988141300,9.101141357421875,0.38469899004399777,0.01306932493150234,0.6564908550933003
1783169706998089200,9.111089111328125,0.27065117058157917,0.06269464884400368,0.540108601333946
1783169707008038400,9.121038330078125,-0.11343348695635795,0.06252864462733268,0.4559827496655285
1783169707017987300,9.1309873046875,-0.6312187589317559,-0.003999298769235611,0.34567221703529355
1783169707027966200,9.14096630859375,-0.9089566729038954,-0.06609539719820022,0.16476254604682325
1783169707037915400,9.150915283203124,-1.0617781673967837,0.0017459668844938276,-0.03511617543622851
1783169707047864300,9.1608642578125,-1.2932242857933043,0.12046879242062568,-0.21225319601818918
1783169707057843500,9.170843505859375,-1.4065601575940847,0.10700842234492301,-0.31944420838840304
1783169707067792400,9.18079248046875,-1.1794365785717964,-0.08149521090388298,-0.322750483392179
1783169707077740500,9.190740478515625,-0.9684802904963493,-0.35497020673453805,-0.24036548404172062
1783169707087719400,9.200719482421874,-0.9405582643479108,-0.45789282107055185,-0.15461977608650923
1783169707097668400,9.21066845703125,-0.9638274962544441,-0.49399581558704375,-0.16626520569473505
1783169707107617300,9.2206171875,-1.0813444531321525,-0.628158202317357,-0.17978008243665097
1783169707117566500,9.23056640625,-1.4552899939715862,-0.6936451122283935,-0.1425639755791053
1783169707127545300,9.24054541015625,-1.962102036511898,-0.5368167201817036,-0.16340893948078156
1783169707137494300,9.250494384765625,-2.376082650619745,-0.15258651669323445,-0.4750660741895437
1783169707147442400,9.2604423828125,-2.336499997293949,0.2399514964133501,-0.9002199703492224
1783169707157422300,9.27042236328125,-2.086171483772993,0.5848229184597731,-1.145795444124192
1783169707167370200,9.280370361328124,-1.8846733443945645,0.8920441165477037,-1.292430212806165
1783169707177319200,9.290319091796874,-1.5165028798252342,0.9987702148199081,-1.334867817171663
1783169707187268400,9.300268310546874,-1.02564127061069,0.8876163632333278,-1.1474790132969617
1783169707197247200,9.310247314453125,-0.7517378202348947,0.762173874053359,-0.9261699657723307
1783169707207196400,9.320196533203125,-0.7392378196239471,0.7396580908626318,-0.7465681625120342
1783169707217145300,9.330145263671875,-0.717499450546503,0.5735603506892919,-0.5595905697867274
1783169707227124500,9.34012451171875,-0.5180529830008744,0.3430903838485479,-0.3952488795004785
1783169707237073400,9.350073486328125,-0.4241068713247776,0.3688204529106617,-0.38454453013464807
1783169707247021300,9.360021240234374,-0.4381967714756727,0.5444108285725117,-0.5812023898750543
1783169707256970500,9.369970458984374,-0.31421850962936876,0.6298010010883212,-0.7926369629867375
1783169707266949400,9.379949462890625,-0.08858896855711937,0.7069321715638041,-0.8205686337463557
1783169707276898300,9.389898193359375,0.012259177592396735,0.757591514699161,-0.8424732993014157
1783169707286847200,9.39984716796875,0.09264671951532363,0.6844914994359016,-0.8927516802951693
1783169707296826400,9.409826416015624,0.28842122054994107,0.5759025299012661,-0.9154569947086274
1783169707306775300,9.419775390625,0.4964706812679767,0.5039794494628906,-0.9019530777521431
1783169707316723500,9.429723388671874,0.8015092746198177,0.45979368625581263,-0.7728903522484004
1783169707326672400,9.43967236328125,1.0692682308912276,0.42953123446106906,-0.597039572084695
1783169707336651300,9.4496513671875,1.201464870506525,0.31228374217450616,-0.44555634045824405
1783169707346600200,9.45960009765625,1.3410089502751827,0.20613748961687087,-0.2871908019721508
1783169707356579300,9.469579345703124,1.4819593897104262,0.19538345589041708,-0.19440686594322323
1783169707366558200,9.47955810546875,1.5065215840369461,0.20170681369304655,-0.13411328689157961
1783169707376507400,9.48950732421875,1.454719500607252,0.19088380638360977,-0.06900748525261878
1783169707386456300,9.499456298828125,1.373919870752096,0.14060323343276976,-0.037416415202617646
1783169707396404200,9.509404296875,1.3252818043112755,0.08192658805847168,-0.07540054729059338
1783169707406384400,9.51938427734375,1.3018933299392461,0.05413023411631584,-0.07584171518683433
1783169707416332500,9.52933251953125,1.2504162406802177,0.031083705049753187,-0.02857610614299774
1783169707426281500,9.539281494140624,1.1941022327840327,-0.052422261154651636,-0.06171235980838537
1783169707436260400,9.54926025390625,1.1817267353355885,-0.13090133910775184,-0.11448211922645568
1783169707446209500,9.55920947265625,1.1965087094038724,-0.1322977619022131,-0.12005144379138946
1783169707456158500,9.569158447265625,1.1893752042621373,-0.14583295077979563,-0.10284253483712673
1783169707466137300,9.579137451171874,1.1437176149368284,-0.19039719191044568,-0.10130509613677859
1783169707476086300,9.589086181640624,1.037724507114291,-0.19692834724485872,-0.08619286720082163
1783169707486034400,9.599034423828124,0.9897837752878665,-0.17112872007787228,-0.07158873391747474
1783169707495983400,9.6089833984375,0.972792892998457,-0.13881021253615616,-0.05209799763634801
1783169707505962500,9.61896240234375,0.8471411449819802,-0.11560030960142612,-0.032820611844956875
1783169707515911400,9.628911376953125,0.7498661811441183,-0.13341536775529383,-0.016583178271353242
1783169707525860400,9.6388603515625,0.7330617613375187,-0.18123393450677394,0.030557489218562838
1783169707535839200,9.648839111328124,0.635344314429164,-0.2358268176987767,0.06643370750816538
1783169707545788400,9.658788330078124,0.4891957218289375,-0.29841975973397494,0.124305447974056
1783169707555737300,9.6687373046875,0.31001521272063254,-0.38224838202148675,0.15512012682408094
1783169707565685200,9.678685302734374,0.15487725797891616,-0.49577013178318735,0.14281813300326465
1783169707575665400,9.68866552734375,0.13292963006496428,-0.528104421415925,0.11707812706902622
1783169707585613300,9.69861328125,0.10563771851360797,-0.5596016757026314,0.1270455404624343
1783169707595562500,9.7085625,-0.0354272872120142,-0.6271133694395422,0.22576032784506678
1783169707605541400,9.718541259765624,-0.19588965184688567,-0.6665665511667728,0.21570552842915056
1783169707615490600,9.728490478515624,-0.27598785543441773,-0.6143605631113052,0.02478503416380845
1783169707625439500,9.738439453125,-0.5266974772274494,-0.5536176328569651,-0.17275807484537362
1783169707635387400,9.748387451171874,-0.678457479968667,-0.5807578609779477,-0.36205183555856346
1783169707645367300,9.7583671875,-0.5473685093343258,-0.5385290770575404,-0.5130613121934234
1783169707655315500,9.7683154296875,-0.3495388293355703,-0.5224781059667468,-0.4458597073189914
1783169707665264400,9.778264404296875,0.09268529796004295,-0.9420026179373264,-0.0918444632217288
1783169707675243300,9.7882431640625,0.3403273488759994,-1.5297332405373454,0.4311111971288919
1783169707685192400,9.7981923828125,-0.3097381493449211,-1.609034156267345,0.9511496548585593
1783169707695141400,9.808141357421874,-1.671613946560025,-1.4707964829221367,1.302937870556116
1783169707705090300,9.81809033203125,-2.8701725742310282,-1.6021142938762902,1.4847750316530466
1783169707715069200,9.828069091796875,-3.2941163639485835,-1.5886632761508226,1.2012357379257679
1783169707725018400,9.838018310546875,-3.212910491380095,-0.8925847992956638,0.623899521959573
1783169707734966300,9.84796630859375,-3.0611142482817173,0.08396247780025005,0.04970657245516777
1783169707744946400,9.857946533203124,-2.5514579222261906,0.7210390228495002,-0.47313554451838136
1783169707754894300,9.867894287109374,-1.5779939980983733,1.0560162428691982,-0.6851423645600676
1783169707764843500,9.877843505859374,-0.691850045505166,1.1626900264322757,-0.6013922143362462
1783169707774792400,9.88779248046875,-0.17443126875460147,0.9384010863140225,-0.29024682854190464
1783169707784771300,9.897771240234375,0.016401099702715874,0.519448821273446,0.30926644017994404
1783169707794720500,9.907720458984375,-0.06822773305177689,0.25299071846753357,0.9426638583250343
1783169707804668400,9.91766845703125,-0.15502221940755842,0.28962533564269544,1.614625108142197
1783169707814648300,9.9276484375,0.1976519853442907,0.23600158974379298,2.810904977226257
1783169707824596500,9.937596435546874,-0.09176993668079375,0.15748247204124927,2.728312034213543
1783169707834545400,9.94754541015625,-0.3173725897461176,0.32461393917649983,2.499136198836565
1783169707844524300,9.957524169921875,-0.09749357502460479,0.7280860187515616,2.2082909660100936
1783169707854473500,9.967473388671875,-0.15314707318544388,1.099059558042884,1.8092296886146066
1783169707864422400,9.97742236328125,-0.4286544516265392,1.2836007174015045,1.4920885695368051
1783169707874371300,9.987371337890625,-0.5099141002088785,1.3007868300020693,1.266535746962577
1783169707884350200,9.99735009765625,-0.316504574739933,1.3033476204007863,1.1140424615107476
1783169707894299400,10.00729931640625,-0.00647241088449955,1.303489951480925,1.022948086003959
1783169707904247300,10.017247314453124,0.18034896836578845,1.2885147929280996,1.0732239827796817
1783169707914227200,10.027227294921875,0.28864626147747036,1.1827025946304202,1.147614914636314
1783169707924175400,10.03717529296875,0.33087972157299517,1.0235352382421492,1.2050690324783324
1783169707934124500,10.04712451171875,0.3328933994829654,0.9504805234253406,1.305947135374695
1783169707944073500,10.057073486328125,0.45789282107055185,0.9631775079131126,1.3178490239620209
1783169707954052400,10.06705224609375,0.626248569303751,0.9778811560481786,1.1723881213650107
1783169707964001500,10.07700146484375,0.7275836221873759,1.0008736168399452,1.0255706895925103
1783169707973949400,10.086949462890624,0.8302472933262586,1.0421788561746477,1.092561428195238
1783169707983929300,10.096929443359375,0.791148624125123,1.0303303052097559,1.0588719245612621
1783169707993877500,10.10687744140625,0.8186030327618121,0.9188143423125147,0.9038761547692119
1783169708003826400,10.116826416015625,0.8570967218071222,0.862708716470003,0.8286215918205678
1783169708013775400,10.126775390625,0.7142138530045747,0.831762958586216,0.7810694209203124
1783169708023754200,10.136754150390624,0.6920856078267097,0.7633072619974612,0.750986563476175
1783169708033703400,10.146703369140624,0.7992424987316131,0.7417068400859832,0.746448189394176
1783169708043652400,10.15665234375,0.9057593381673097,0.6500909249231219,0.7346057759091258
1783169708053631200,10.16663134765625,1.0142746579438446,0.44791503241360187,0.7109469601631164
1783169708063580200,10.176580078125,1.0514777226567267,0.2313064176648855,0.7278055943749845
1783169708073528300,10.1865283203125,1.005911318746209,0.0831675280302763,0.8348407585963606
1783169708083477200,10.196477294921875,1.0132570053339003,-0.027672727562487124,0.8912002130694687
1783169708093456400,10.206456298828124,1.054948029115796,-0.027305063293874263,0.8773078813172877
1783169708103405600,10.216405517578124,0.9837140999853611,-0.02293722347319126,0.8081267930634319
1783169708113354500,10.2263544921875,0.8170411902725696,-0.09944587813615799,0.7088904660247266
1783169708123333400,10.23633349609375,0.5722668037474155,-0.20756255398392676,0.6903695976890624
1783169708133282300,10.2462822265625,0.456137501835823,-0.22822043434828518,0.6444213548541069
1783169708143230500,10.25623046875,0.38280630816519257,-0.16673369998931883,0.5992863280981778
1783169708153179400,10.266179443359375,0.25466800402998924,-0.16487258229255675,0.6589832564309239
1783169708163158500,10.276158447265624,0.11646774008572101,-0.27741175075769425,0.7320847329989075
1783169708173107500,10.286107421875,0.06368190631568431,-0.3359706149712205,0.7713947068631648
1783169708183056400,10.296056396484374,-0.006401683735847472,-0.3120923112556338,0.7292381113961338
1783169708193035300,10.30603515625,-0.22299626995921135,-0.2375596328407526,0.7038523257270455
1783169708202984400,10.315984375,-0.5501268681317567,-0.19964286690056324,0.6679129973396658
1783169708212933400,10.325933349609375,-0.8170511271446943,-0.23412907387018203,0.5774192180745303
1783169708222912300,10.335912353515624,-1.0320832863569258,-0.18356383875906465,0.41134091325402256
1783169708232861200,10.345861083984374,-1.3132201951175928,-0.10108224716633557,0.14853565213354303
1783169708242809300,10.355809326171874,-1.4861492426156997,0.009278408215939999,-0.04283332568481564
1783169708252758300,10.36575830078125,-1.5427660328507422,0.16254501612782477,-0.10049772527664899
1783169708262737200,10.375737060546875,-1.4733254168778658,0.20431553488671778,-0.08797184130577371
1783169708272686600,10.3856865234375,-1.1842945399969815,-0.059523033070564266,0.05706555691584944
1783169708282635500,10.395635498046875,-0.8463596392154693,-0.37971272606402634,0.3125866706438362
1783169708292614400,10.405614501953124,-0.9375725265353918,-0.4409411017477512,0.5985907470494508
1783169708302563300,10.415563232421874,-1.451051041227579,-0.3968292805597186,0.8467034842170774
1783169708312511500,10.425511474609374,-1.7959984511196612,-0.4145189587682485,0.9490551667973398
1783169708322460400,10.43546044921875,-1.8402157785087823,-0.26255641919225453,0.7044782025404274
1783169708332439300,10.445439208984375,-1.9107593872874975,0.08711831148266792,0.286215965590626
1783169708342388500,10.455388427734375,-1.8943226317495105,0.48171676425039767,-0.06060757690425962
1783169708352337400,10.46533740234375,-1.6042191572010516,0.7869888740971684,-0.3816169522501528
1783169708362326800,10.475326904296875,-0.9289461524873971,0.9919415378436446,-0.648864451868087
1783169708372275700,10.485275634765625,-0.26159984911978246,1.067167751480639,-0.7479882584430277
1783169708382225000,10.495224853515625,0.16283026280999183,0.9463882856756448,-0.5419334786735475
1783169708392172800,10.5051728515625,0.3604951076358556,0.7650976525455713,-0.1865986764103174
1783169708402152700,10.515152587890626,0.3942565074622631,0.6143883279010653,0.16233137337714432
1783169708412100900,10.525100830078125,0.28383739989101886,0.489782289545238,0.4312656570382416
1783169708422049800,10.5350498046875,0.16011223602294922,0.4812707740485668,0.45902167897000906
1783169708432028700,10.545028564453125,0.10791560031771659,0.5926683712631464,0.22081731848493216
1783169708441977900,10.554977783203125,-0.036574119159579276,0.755965374802053,-0.06654986296743154
1783169708451927000,10.564927001953125,-0.27866496568918225,0.8824579575568438,-0.2869336123406887
1783169708461875000,10.574875,-0.3673720076680183,0.9832394682109356,-0.4910130003839731
1783169708471854800,10.584854736328126,-0.2852297310322523,1.080727782538533,-0.6791895936354995
1783169708481803000,10.594802978515625,-0.14164952761530875,1.1207207702308892,-0.7638372772209345
1783169708491752000,10.604751953125,0.08324176231026649,1.0907704531252385,-0.7138700080029666
1783169708501730800,10.614730712890625,0.27631284960508345,1.0201672231137753,-0.5489706838339566
1783169708511680000,10.624679931640625,0.37939328485131263,0.9252291777908801,-0.27731530464589593
1783169708521629000,10.63462890625,0.43410862537920475,0.8568892165362835,0.00023278584256768227
1783169708531577900,10.644577880859375,0.5188900183469056,0.8320780158847569,0.16914236856624484
1783169708541556700,10.654556640625,0.6942284650743007,0.8475582013502716,0.1986057789377868
1783169708551506000,10.664505859375,0.8411965573638677,0.9093693453580141,0.19328429165408015
1783169708561453800,10.674453857421875,0.9164081579536199,0.9741992526650428,0.1867261021822691
1783169708571433700,10.684433837890625,0.9125508980035781,0.9736989019274711,0.15838833483979106
1783169708581382000,10.6943818359375,0.8619365630537271,0.8998971681356429,0.1054069784976542
1783169708591330800,10.704330810546875,0.7580570863842964,0.8511614865392446,0.07396262344196439
1783169708601309700,10.714309814453125,0.6646323682337999,0.8393693419367074,0.20779084631446748
1783169708611259000,10.7242587890625,0.669076488161087,0.7409224117100238,0.3077403996564448
1783169708621208000,10.7342080078125,0.7994663706153631,0.6057593235045671,0.34162717942819
1783169708631156000,10.744156005859375,0.8698258549988269,0.5116302564769983,0.3428926693193614
1783169708641135900,10.754135986328125,0.9390233098655939,0.36133155845999715,0.34527766475975513
1783169708651084000,10.764083984375,0.9703127666205167,0.17224048071205614,0.3396262148693204
1783169708661033000,10.774032958984375,0.9386082993239164,0.07760930938124656,0.36318595415502786
1783169708671011800,10.78401171875,0.9470154776632785,0.07682020483016967,0.38850831919908524
1783169708680960800,10.793960693359375,0.8795049529701471,0.08641045547425746,0.3902919877454638
1783169708690910000,10.803909912109376,0.7000479650080204,0.017100772404670714,0.2901598809108138
1783169708700859000,10.81385888671875,0.4685568384259939,-0.0205740014731884,0.17975407121255993
1783169708710837800,10.823837646484375,0.2594014622926712,-0.0068096800148487084,0.13920914872586726
1783169708720786700,10.83378662109375,0.18242811272740364,0.01894084731340408,0.1321472475156188
1783169708730734800,10.84373486328125,0.18916823463737964,0.05100654913783073,0.1227912440188229
1783169708740714800,10.85371484375,0.11687982801795005,0.043241760355234145,0.15134177732914686
1783169708750663000,10.863662841796875,0.04984335057735443,-0.021637831312417984,0.20032091229259966
1783169708760611800,10.87361181640625,0.09973872360289096,-0.09579963058829306,0.2601968504540622
1783169708770561000,10.88356103515625,0.04879471830725669,-0.12841244490146636,0.2874631891727447
1783169708780539600,10.89353955078125,-0.04692892443537712,-0.21381927629113195,0.29160686484873294
1783169708790488800,10.90348876953125,-0.04813713118135929,-0.2756605231761932,0.3192752084970474
1783169708800437000,10.91343701171875,-0.10564882442951201,-0.24202245746850967,0.3319419439770281
1783169708810417000,10.9234169921875,-0.23960779754221437,-0.22781974459290502,0.33023616297245023
1783169708820365000,10.933364990234375,-0.35979894206523894,-0.2678495571643114,0.32283728489279745
1783169708830314000,10.94331396484375,-0.47162148669362064,-0.31712592150866986,0.30168592192307114
1783169708840263000,10.953262939453126,-0.538639843955636,-0.3487678449630737,0.26625176657885313
1783169708850241800,10.96324169921875,-0.4642132562637329,-0.33011341337561606,0.2539421739734709
1783169708860191000,10.97319091796875,-0.33178631502389905,-0.29318332038521766,0.2609540985621512
1783169708870140000,10.983139892578125,-0.24070786773860453,-0.31905718183219434,0.3644169572547078
1783169708880118800,10.993118896484376,0.014382745617628097,-0.5163222136855126,0.5976590191572905
1783169708890067700,11.003067626953126,0.3183253604263067,-0.7740384993702173,0.910801716248691
1783169708900015900,11.013015869140625,0.21258067440688608,-0.8111877880692482,1.0686879467852413
1783169708909964800,11.02296484375,-0.21411679793298244,-0.6737935798108577,1.069844715604931
1783169708919944000,11.03294384765625,-0.7381868492662906,-0.5668956321030855,1.1146705302812159
1783169708929892900,11.042892822265625,-1.4710229851543903,-0.48304596702754493,1.244266485878825
1783169708939841800,11.052841796875,-2.0214806926757096,-0.25452304260134695,1.1188175669580698
1783169708949820700,11.062820556640625,-2.075204684078693,0.14946926145553588,0.6867210120536387
1783169708959769900,11.072769775390626,-1.9467215120285748,0.5808446624785661,0.30686284963693466
1783169708969718000,11.082718017578125,-1.7777859180808067,0.8825888904601334,0.01188581423535943
1783169708979698000,11.092697998046875,-1.4490098907887934,1.0024375051558017,-0.2847280651204288
1783169708989646000,11.10264599609375,-0.9738660751879215,1.05432492878139,-0.47088352780789133
1783169708999595000,11.112594970703125,-0.5339209987401962,1.02837361818403,-0.3236208730185404
1783169709009544000,11.1225439453125,-0.1636380720615387,0.8425234220534562,0.04945727386921644
1783169709019522800,11.132522705078125,0.16524784534573553,0.6026604807063937,0.3967135452255606
1783169709029472000,11.142471923828126,0.4084627274692058,0.4180103080153465,0.7040706446528434
1783169709039421000,11.1524208984375,0.5285246926546097,0.3221042944431305,0.8894969162829219
1783169709049399800,11.16239990234375,0.513684266397357,0.28593115729987617,0.8864964192926883
1783169709059348700,11.1723486328125,0.48167701676189895,0.2688344765484333,0.8354308334439993
1783169709069297000,11.182296875,0.4343932875394821,0.3044850511223078,0.7626423683479427
1783169709079245800,11.192245849609375,0.3489244968295097,0.3918845176339149,0.6885198781691492
1783169709089224700,11.202224609375,0.3076771251618862,0.4458084155231714,0.5490380499817431
1783169709099174000,11.212173828125,0.28030747219920155,0.5451929188609123,0.4637982457220554
1783169709109122800,11.222122802734376,0.229276373142004,0.6152502054274082,0.39846287311092016
1783169709119101700,11.232101806640625,0.27111528096199033,0.6260632758647203,0.33750630010589955
1783169709129051000,11.24205078125,0.4102373359262943,0.6890677213102578,0.29381182754710317
1783169709139000000,11.252,0.6258090088427066,0.755152012592554,0.2483436233140528
1783169709148948000,11.261947998046875,0.8473825525224208,0.7687748797535896,0.2388572714358568
1783169709158926800,11.2719267578125,0.9337456617236137,0.7409440390199422,0.2968992721684277
1783169709168876000,11.2818759765625,0.9962661230444908,0.727721569353342,0.3975415204823017
1783169709178825000,11.291824951171876,1.0783458558380603,0.7018418626874685,0.4032750956982374
1783169709188803800,11.301803955078125,1.1358774228304624,0.644893064019084,0.36565877400934693
1783169709198752800,11.311752685546875,1.0890578039884566,0.5723328547209501,0.4161024285674095
1783169709208702000,11.321701904296875,1.034386302602291,0.547258034697175,0.4573883421471342
1783169709218649900,11.33164990234375,0.9929553910613059,0.4871703534811735,0.47049482075124976
1783169709228629800,11.341629638671876,0.8972744184166193,0.3806856627494096,0.4827142508551478
1783169709238578000,11.351577880859375,0.782569596350193,0.2919868040770292,0.5223886741176247
1783169709248526800,11.36152685546875,0.7678156793326139,0.2142629284054041,0.5225290689690039
1783169709258505700,11.371505615234375,0.8204740873306989,0.1822854893863201,0.4825913551278412
1783169709268455000,11.381454833984375,0.876222862559557,0.16561434057056904,0.4067627916835248
1783169709278403800,11.39140380859375,0.8680541691511869,0.12334639368355274,0.34253859518468377
1783169709288353000,11.40135302734375,0.8323223460346459,0.031123452538251876,0.2990641768510453
1783169709298332000,11.411331787109376,0.805175395911932,-0.041730186748504636,0.24249328985065222
1783169709308280800,11.42128076171875,0.7635568528443575,-0.07565291461646556,0.1987958764160983
1783169709318229000,11.43122900390625,0.7244353872895241,-0.09959434669613837,0.182739809025079
1783169709328208000,11.441207763671875,0.6503302866369486,-0.14609306302070618,0.22309854302359744
1783169709338157000,11.451156982421875,0.5975988134026528,-0.16661445752382278,0.30971213812083004
1783169709348106000,11.46110595703125,0.5522153648436069,-0.20288754791021346,0.3805462542787194
1783169709358117600,11.47111767578125,0.4207423633277416,-0.2940980971425772,0.44789603545218704
1783169709368066600,11.481066650390625,0.3046756052583456,-0.4104343198031187,0.49035643617138264
1783169709378015500,11.491015380859375,0.1988993550568819,-0.4801648586332798,0.5104989143595099
1783169709387963600,11.500963623046875,0.11798106725811958,-0.48251112949848174,0.4927202426932752
1783169709397943800,11.51094384765625,0.04577858535647392,-0.48381227522492404,0.46624768470078704
1783169709407891500,11.520891357421876,-0.03419453054666519,-0.49341480082869527,0.42000396605059503
1783169709417840600,11.530840576171874,-0.17241759084463118,-0.5172697236686945,0.3417388231091201
1783169709427819800,11.54081982421875,-0.3201554984629154,-0.5352314968168735,0.2879328525111079
1783169709437768700,11.550768798828125,-0.431398197376728,-0.4889397012412548,0.21011516107618808
1783169709447717600,11.560717529296875,-0.5959212355792523,-0.37856735542118547,0.06442979294038377
1783169709457666600,11.57066650390625,-0.7307225047349929,-0.30746611275970936,-0.11971943535804748
1783169709467645700,11.580645751953124,-0.837292535662651,-0.28801614688038824,-0.2388571253053844
1783169709477594600,11.5905947265625,-0.8922983835697174,-0.28092764992415903,-0.29484350868239995
1783169709487542500,11.60054248046875,-0.7731535332292317,-0.4159872777551412,-0.256330092023313
1783169709497521700,11.610521728515625,-0.5740244610697031,-0.6829957079201936,-0.08580591370984911
1783169709507470600,11.620470703125,-0.6993558910906315,-0.8065385009586811,0.05729936567172408
1783169709517419500,11.63041943359375,-1.0736363629728556,-0.7714478983551263,0.054243914490705356
1783169709527368400,11.640368408203125,-1.312467915445566,-0.7475199102789163,0.059064475648105144
1783169709537347600,11.65034765625,-1.436524503225088,-0.6896931597322226,0.000774637634307146
1783169709547296500,11.660296630859374,-1.6681909863740205,-0.48662265647053715,-0.24028482002094387
1783169709557244400,11.670244384765626,-1.9090964225113392,-0.21120646344423294,-0.5836006831884384
1783169709567224600,11.680224609375,-1.9433914908230303,0.05973638356029987,-0.9088453214839101
1783169709577172500,11.69017236328125,-1.8276298531800508,0.29788755255341526,-1.2033752341724933
1783169709587121700,11.70012158203125,-1.574199281990528,0.5832961472839117,-1.429873082511872
1783169709597070600,11.710070556640625,-1.1781330947577953,0.8451865037828683,-1.4922541353620589
1783169709607049700,11.7200498046875,-0.8014946615725755,0.976483564209938,-1.3879387514933943
1783169709616998700,11.72999853515625,-0.53027708927989,0.9559270983934401,-1.2081008013896644
1783169709626947600,11.739947509765624,-0.31373160289525986,0.8757885627955198,-1.0687924300730227
1783169709636926700,11.7499267578125,-0.18674656044840812,0.8495937988311052,-1.0063801053017378
1783169709646875600,11.759875732421875,-0.19029402379691598,0.858117297026515,-1.0583040615454316
1783169709656823600,11.769823486328125,-0.5671937382668256,0.8729635685026645,-1.2956167338877915
1783169709666772500,11.7797724609375,-1.02429862383008,0.8323235150784254,-1.6553491865880787
1783169709676751600,11.789751708984374,-0.7861509619683027,0.9426625431507826,-1.8456096003763376
1783169709686700500,11.799700439453124,-0.31946050193607806,1.1579080528527497,-1.5516853984959422
1783169709696649500,11.8096494140625,0.2852560345172882,1.047094393005967,-1.2658721684873104
1783169709706628600,11.819628662109375,1.3737094428718089,0.5202846875756979,-0.6967647055536508
1783169709716577500,11.82957763671875,-0.04241758449077606,0.28850013100504873,0.09328487128838896
1783169709726525400,11.839525390625,-0.5243360087931156,0.5394131664156914,-0.09729425306022167
1783169709736505600,11.849505615234374,-0.112681791806221,0.9950175842881203,-0.6673423578448593
1783169709746453500,11.85945361328125,-0.06615034225583076,1.1909551669299603,-1.118803392302245
1783169709756402700,11.869402587890624,-0.27816344590783115,1.1863140631258486,-1.0193947774365544
1783169709766351600,11.8793515625,-0.35209786616861816,1.0258815091073512,-0.8723384223416447
1783169709776330800,11.889330810546875,-0.01726443853378296,0.8133557797580957,-0.8285208348598331
